Data from test_V78500241_497.txt Node
Date: Fri Mar 25 16:18:38 CST 2022
User: usil
Spectrometer: V785-0024
Trigger mode: 0
Integration Time (sec): 4.000000E-1
Scans to average: 1
Nonlinearity correction enabled: false
Boxcar width: 0
Storing dark spectrum: false
XAxis mode: Wavelengths
Number of Pixels in Spectrum: 1024
>>>>>Begin Spectral Data<<<<<
801.071	2910
801.214	2971
801.356	2864
801.499	2906
801.641	2838
801.783	2918
801.926	3020
802.068	2982
802.211	3009
802.353	3028
802.496	2910
802.638	3028
802.78	3039
802.923	3089
803.065	2990
803.208	2861
803.35	2899
803.492	2922
803.635	2937
803.777	2781
803.919	2845
804.061	3173
804.204	2929
804.346	2880
804.488	2838
804.63	2994
804.773	2853
804.915	2906
805.057	3081
805.199	2902
805.341	2963
805.483	3070
805.626	2990
805.768	2918
805.91	3055
806.052	3131
806.194	3043
806.336	3241
806.478	3020
806.62	2944
806.762	2971
806.904	3055
807.046	3169
807.188	2967
807.33	2876
807.472	2967
807.614	2853
807.756	2986
807.898	2922
808.04	2861
808.182	2971
808.324	2960
808.465	2864
808.607	2849
808.749	2796
808.891	2838
809.033	2986
809.174	2960
809.316	2914
809.458	2883
809.6	2739
809.741	2781
809.883	2781
810.025	2830
810.166	2876
810.308	2845
810.45	2849
810.591	2766
810.733	2743
810.875	2838
811.016	2807
811.158	2758
811.299	2800
811.441	2948
811.582	2910
811.724	2834
811.865	2807
812.007	2857
812.148	2876
812.29	2826
812.431	2895
812.573	2941
812.714	2929
812.855	3028
812.997	3017
813.138	3089
813.279	2994
813.421	2952
813.562	2944
813.703	2868
813.845	2872
813.986	2773
814.127	2731
814.268	2838
814.41	2819
814.551	2792
814.692	2895
814.833	2769
814.974	2861
815.115	2937
815.256	2842
815.397	2838
815.539	2864
815.68	2819
815.821	2819
815.962	2914
816.103	2963
816.244	2868
816.385	2861
816.526	2975
816.666	2895
816.807	2754
816.948	2864
817.089	2929
817.23	2872
817.371	2777
817.512	2807
817.653	2823
817.793	2838
817.934	2857
818.075	2933
818.216	2979
818.356	3047
818.497	2838
818.638	2788
818.778	2819
818.919	2792
819.06	2788
819.2	2887
819.341	2811
819.481	2800
819.622	2895
819.762	3097
819.903	3028
820.043	2906
820.184	2910
820.324	2861
820.465	3013
820.605	3009
820.746	3047
820.886	2933
821.026	3108
821.167	3150
821.307	3253
821.447	3256
821.588	3249
821.728	3173
821.868	3195
822.008	3062
822.149	3161
822.289	3199
822.429	3112
822.569	3085
822.709	3154
822.849	3039
822.99	3024
823.13	3142
823.27	3207
823.41	3077
823.55	3157
823.69	3112
823.83	3264
823.97	3112
824.11	2982
824.25	3032
824.389	3066
824.529	3112
824.669	3051
824.809	3180
824.949	3253
825.089	3245
825.228	3135
825.368	2918
825.508	2948
825.648	2937
825.787	3020
825.927	3020
826.067	2963
826.206	2937
826.346	3036
826.485	3085
826.625	3097
826.765	3256
826.904	3199
827.044	3001
827.183	2929
827.323	2861
827.462	2975
827.601	2891
827.741	2925
827.88	2941
828.02	2842
828.159	2990
828.298	3028
828.437	3116
828.577	3020
828.716	3275
828.855	3131
828.994	2895
829.134	2861
829.273	2906
829.412	2872
829.551	2838
829.69	2883
829.829	2990
829.968	3135
830.107	3020
830.246	3020
830.385	2933
830.524	2864
830.663	2823
830.802	2716
830.941	2613
831.08	2640
831.219	2781
831.357	2743
831.496	2937
831.635	2708
831.774	2655
831.913	2651
832.051	2526
832.19	2571
832.329	2663
832.467	2537
832.606	2522
832.744	2579
832.883	2598
833.022	2587
833.16	2674
833.299	2689
833.437	2682
833.576	2705
833.714	2731
833.852	2705
833.991	2800
834.129	2804
834.267	2830
834.406	2773
834.544	2864
834.682	2895
834.821	2849
834.959	3051
835.097	2910
835.235	3047
835.373	2963
835.511	2990
835.65	2941
835.788	2933
835.926	2830
836.064	2792
836.202	2857
836.34	3043
836.478	3135
836.615	3039
836.753	3077
836.891	3180
837.029	3176
837.167	3131
837.305	3051
837.443	3036
837.58	2914
837.718	3089
837.856	3043
837.993	3039
838.131	3154
838.269	3104
838.406	3089
838.544	3066
838.681	2906
838.819	2906
838.956	2807
839.094	2853
839.231	2933
839.369	3024
839.506	3367
839.643	3203
839.781	2994
839.918	2956
840.055	3032
840.193	3036
840.33	3062
840.467	3062
840.604	3138
840.742	3370
840.879	2982
841.016	3009
841.153	3077
841.29	3310
841.427	3253
841.564	3256
841.701	3332
841.838	3188
841.975	3180
842.112	3218
842.249	3081
842.385	3039
842.522	3245
842.659	3085
842.796	3028
842.933	3081
843.069	3039
843.206	3039
843.343	3184
843.479	3119
843.616	3108
843.752	2880
843.889	2838
844.025	3085
844.162	2864
844.298	3028
844.435	2960
844.571	2933
844.708	3047
844.844	3184
844.98	3218
845.117	3199
845.253	3039
845.389	3013
845.525	3161
845.661	3070
845.798	3001
845.934	3157
846.07	3051
846.206	3188
846.342	3302
846.478	3203
846.614	3119
846.75	3081
846.886	3036
847.022	3211
847.158	3138
847.294	3195
847.429	3287
847.565	3199
847.701	3515
847.837	2990
847.972	2994
848.108	3173
848.244	3119
848.379	2967
848.515	2941
848.65	2933
848.786	2941
848.921	3013
849.057	3077
849.192	3119
849.328	3066
849.463	3093
849.598	3081
849.734	3013
849.869	2971
850.004	2925
850.14	2944
850.275	2914
850.41	2830
850.545	2838
850.68	2944
850.815	2948
850.95	2960
851.085	3195
851.22	3142
851.355	3020
851.49	2967
851.625	2979
851.76	2994
851.895	2902
852.03	2948
852.165	3043
852.299	3097
852.434	3184
852.569	3146
852.703	3116
852.838	3241
852.973	3355
853.107	3325
853.242	3161
853.376	3108
853.511	2982
853.645	3039
853.78	3207
853.914	3150
854.048	3135
854.183	3085
854.317	3169
854.451	3287
854.585	3146
854.72	3085
854.854	3203
854.988	3047
855.122	3036
855.256	2967
855.39	3127
855.524	3237
855.658	3173
855.792	3165
855.926	3199
856.06	3184
856.194	3294
856.327	3169
856.461	3081
856.595	3085
856.729	3089
856.862	3211
856.996	3176
857.13	3188
857.263	3188
857.397	3264
857.53	3047
857.664	3173
857.797	3233
857.931	3230
858.064	3146
858.197	3184
858.331	3116
858.464	3119
858.597	2967
858.731	3150
858.864	3104
858.997	3108
859.13	3161
859.263	3169
859.396	3214
859.529	3051
859.662	3043
859.795	3055
859.928	3116
860.061	3272
860.194	3279
860.327	3119
860.46	3070
860.592	3230
860.725	3275
860.858	3237
860.99	3108
861.123	3074
861.256	3066
861.388	3123
861.521	3827
861.653	3032
861.786	2979
861.918	2979
862.05	3074
862.183	3074
862.315	3157
862.447	3199
862.58	3089
862.712	2971
862.844	2830
862.976	2998
863.108	3020
863.24	3291
863.372	2842
863.504	2922
863.636	2922
863.768	3024
863.9	2994
864.032	2868
864.164	2944
864.296	3028
864.428	3085
864.559	3089
864.691	3062
864.823	3085
864.954	3028
865.086	2994
865.217	2975
865.349	2967
865.48	2967
865.612	3024
865.743	3150
865.875	2990
866.006	2944
866.137	2960
866.269	2937
866.4	2922
866.531	2910
866.662	2910
866.793	2880
866.924	2918
867.055	2967
867.186	2906
867.317	2902
867.448	2864
867.579	2853
867.71	2845
867.841	2796
867.972	2910
868.103	2891
868.233	2864
868.364	2902
868.495	2868
868.625	3058
868.756	3188
868.886	2952
869.017	2998
869.147	3180
869.278	3203
869.408	3066
869.539	3005
869.669	3081
869.799	3047
869.929	3161
870.06	3108
870.19	3332
870.32	3249
870.45	3321
870.58	3378
870.71	3424
870.84	3405
870.97	3287
871.1	3218
871.23	3443
871.36	3424
871.489	3310
871.619	3355
871.749	3393
871.879	3431
872.008	3466
872.138	3359
872.267	3260
872.397	3127
872.526	3108
872.656	3032
872.785	3077
872.915	3195
873.044	3291
873.173	3222
873.303	3245
873.432	3203
873.561	3222
873.69	3161
873.819	3169
873.948	3192
874.077	3089
874.206	3066
874.335	3127
874.464	3207
874.593	3374
874.722	3195
874.851	3389
874.979	3332
875.108	3275
875.237	3180
875.365	3119
875.494	3161
875.623	3245
875.751	3070
875.88	3123
876.008	3195
876.136	3222
876.265	3370
876.393	3492
876.521	3435
876.65	3374
876.778	3313
876.906	3241
877.034	3207
877.162	3226
877.29	3169
877.418	3222
877.546	3249
877.674	3241
877.802	3203
877.93	3272
878.058	3154
878.185	3116
878.313	3218
878.441	3237
878.568	3055
878.696	3150
878.824	3253
878.951	3264
879.079	3462
879.206	3637
879.333	3469
879.461	3340
879.588	3359
879.715	3450
879.842	3572
879.97	3401
880.097	3138
880.224	3142
880.351	3211
880.478	3226
880.605	3169
880.732	3173
880.859	3500
880.986	3260
881.112	3317
881.239	3173
881.366	3097
881.493	3020
881.619	3036
881.746	3062
881.872	3123
881.999	3051
882.125	3112
882.252	3241
882.378	3272
882.505	3450
882.631	3294
882.757	3119
882.883	3207
883.01	3188
883.136	3154
883.262	3104
883.388	3108
883.514	3291
883.64	3329
883.766	3275
883.892	3207
884.018	3230
884.143	3420
884.269	3587
884.395	3241
884.52	3154
884.646	3173
884.772	3104
884.897	3085
885.023	3218
885.148	3317
885.274	3416
885.399	3317
885.524	3260
885.65	3256
885.775	3313
885.9	3275
886.025	3424
886.15	3332
886.275	3294
886.4	3203
886.525	3264
886.65	3249
886.775	3233
886.9	3492
887.025	3618
887.149	3443
887.274	3268
887.399	3192
887.523	3207
887.648	3195
887.773	3222
887.897	3367
888.021	3416
888.146	3268
888.27	3416
888.395	3538
888.519	3389
888.643	3393
888.767	3469
888.891	3332
889.015	3222
889.139	3283
889.263	3218
889.387	3374
889.511	3488
889.635	3462
889.759	3249
889.883	3245
890.006	3378
890.13	3473
890.254	3302
890.377	3321
890.501	3203
890.624	3127
890.748	3336
890.871	3207
890.995	3108
891.118	3081
891.241	3184
891.364	3169
891.488	3348
891.611	3207
891.734	3241
891.857	3291
891.98	3230
892.103	3321
892.226	3272
892.349	3161
892.471	3127
892.594	3256
892.717	3291
892.839	3321
892.962	3245
893.085	3348
893.207	3302
893.33	3138
893.452	3199
893.575	3340
893.697	3226
893.819	3469
893.941	3500
894.064	3431
894.186	3291
894.308	3249
894.43	3443
894.552	3519
894.674	3504
894.796	3226
894.918	3268
895.04	3287
895.161	3450
895.283	3382
895.405	3287
895.526	3351
895.648	3416
895.769	3428
895.891	3466
896.012	3450
896.134	3469
896.255	3378
896.376	3382
896.498	3370
896.619	3428
896.74	3340
896.861	3439
896.982	3698
897.103	3857
897.224	3599
897.345	3519
897.466	3466
897.587	3477
897.708	3584
897.828	3576
897.949	3397
898.07	3329
898.19	3393
898.311	3584
898.431	3416
898.552	3515
898.672	3591
898.792	3557
898.913	3481
899.033	3409
899.153	3272
899.273	3207
899.393	3268
899.513	3313
899.633	3272
899.753	3351
899.873	3294
899.993	3370
900.113	3302
900.232	3389
900.352	3329
900.472	3283
900.591	3222
900.711	3294
900.83	3233
900.95	3409
901.069	3466
901.189	3370
901.308	3165
901.427	3146
901.546	3199
901.665	3283
901.784	3302
901.904	3192
902.023	3154
902.141	2998
902.26	3017
902.379	3142
902.498	3066
902.617	3028
902.735	3203
902.854	3214
902.973	3195
903.091	3077
903.21	3036
903.328	3123
903.446	3085
903.565	3135
903.683	3176
903.801	3150
903.919	3230
904.038	3283
904.156	3184
904.274	3294
904.392	3287
904.51	3283
904.627	3306
904.745	3405
904.863	3507
904.981	3253
905.098	3154
905.216	3233
905.334	3302
905.451	3359
905.569	3287
905.686	3420
905.803	3443
905.921	3298
906.038	3439
906.155	3351
906.272	3317
906.389	3363
906.506	3241
906.623	3283
906.74	3249
906.857	3211
906.974	3294
907.091	3473
907.208	3561
907.324	3534
907.441	3386
907.557	3256
907.674	3233
907.79	3218
907.907	3268
908.023	3386
908.139	3378
908.256	3325
908.372	3359
908.488	3359
908.604	3241
908.72	3233
908.836	3279
908.952	3306
909.068	3321
909.184	3492
909.3	3348
909.415	3519
909.531	3473
909.647	3268
909.762	3302
909.878	3279
909.993	3363
910.108	3298
910.224	3332
910.339	3359
910.454	3336
910.57	3275
910.685	3268
910.8	3625
910.915	3553
911.03	3439
911.145	3237
911.259	3260
911.374	3272
911.489	3230
911.604	3203
911.718	3104
911.833	3157
911.947	3039
912.062	2990
912.176	3188
912.291	3230
912.405	3203
912.519	3435
912.633	3435
912.748	3329
912.862	3260
912.976	3173
913.09	3051
913.204	3127
913.318	3233
913.431	3355
913.545	3321
913.659	3370
913.772	3336
913.886	3203
914	3195
914.113	3317
914.226	3431
914.34	3382
914.453	3226
914.566	3401
914.68	3298
914.793	3291
914.906	3180
915.019	3089
915.132	3039
915.245	3176
915.358	3184
915.47	3222
915.583	3275
915.696	3298
915.809	3462
915.921	3443
916.034	3237
916.146	3233
916.259	3218
916.371	3393
916.483	3351
916.595	3226
916.708	3344
916.82	3355
916.932	3283
917.044	3336
917.156	3359
917.268	3233
917.38	3336
917.491	3287
917.603	3351
917.715	3462
917.826	3428
917.938	3367
918.049	3226
918.161	3409
918.272	3587
918.384	3610
918.495	3477
918.606	3374
918.717	3241
918.828	3386
918.939	3420
919.05	3268
919.161	3374
919.272	3211
919.383	3283
919.494	3515
919.604	3671
919.715	3458
919.826	3405
919.936	3412
920.047	3622
920.157	3553
920.267	3770
920.378	3595
920.488	3572
920.598	3762
920.708	3987
920.818	3808
920.928	3789
921.038	3975
921.148	4006
921.258	3663
921.368	3603
921.477	3534
921.587	3557
921.697	3431
921.806	3663
921.916	3511
922.025	3359
922.134	3374
922.244	3287
922.353	3416
922.462	3264
922.571	3203
922.68	3097
922.789	3070
922.898	3138
923.007	3097
923.116	3176
923.224	3157
923.333	3176
923.442	3104
923.55	3085
923.659	3112
923.767	3214
923.876	3112
923.984	3260
924.092	3116
924.201	3154
924.309	3233
924.417	3233
924.525	3214
924.633	3203
924.741	4021
924.849	3005
924.956	3233
925.064	3085
925.172	3036
925.279	3085
925.387	3211
925.494	3142
925.602	3313
925.709	3321
925.816	3169
925.924	3287
926.031	3370
926.138	3302
926.245	3397
926.352	3260
926.459	3443
926.566	3477
926.673	3363
926.779	3279
926.886	3233
926.993	3135
927.099	3119
927.206	3066
927.312	3100
927.419	3169
927.525	3192
927.631	3264
927.737	3138
927.843	3150
927.95	3036
928.056	3157
928.162	3154
928.267	3291
928.373	3808
928.479	3291
928.585	3032
928.69	3199
928.796	3268
928.901	3138
929.007	3077
929.112	3222
929.218	3180
929.323	3131
929.428	3116
929.533	3302
929.638	3119
929.743	3165
929.848	3222
929.953	3226
930.058	3142
930.163	3001
930.267	3043
930.372	3214
930.477	3032
930.581	3340
930.685	3165
930.79	3051
930.894	3097
930.998	3116
931.103	3272
931.207	2933
931.311	2960
931.415	2937
931.519	2743
931.623	2781
