Data from test_V78500241_1047.txt Node
Date: Fri Mar 25 16:22:27 CST 2022
User: usil
Spectrometer: V785-0024
Trigger mode: 0
Integration Time (sec): 4.000000E-1
Scans to average: 1
Nonlinearity correction enabled: false
Boxcar width: 0
Storing dark spectrum: false
XAxis mode: Wavelengths
Number of Pixels in Spectrum: 1024
>>>>>Begin Spectral Data<<<<<
801.071	2910
801.214	2902
801.356	2872
801.499	2891
801.641	2830
801.783	2933
801.926	3051
802.068	2963
802.211	2960
802.353	3028
802.496	2986
802.638	3001
802.78	3020
802.923	3039
803.065	2982
803.208	2891
803.35	2944
803.492	2929
803.635	2918
803.777	2739
803.919	2910
804.061	3203
804.204	2929
804.346	2910
804.488	2842
804.63	2994
804.773	2853
804.915	2887
805.057	3119
805.199	2910
805.341	2971
805.483	3074
805.626	3039
805.768	2963
805.91	3112
806.052	3131
806.194	3013
806.336	3214
806.478	3062
806.62	2956
806.762	2994
806.904	3047
807.046	3150
807.188	2971
807.33	2906
807.472	2971
807.614	2899
807.756	3005
807.898	2918
808.04	2883
808.182	2986
808.324	2956
808.465	2887
808.607	2895
808.749	2788
808.891	2891
809.033	2998
809.174	2967
809.316	2895
809.458	2899
809.6	2746
809.741	2754
809.883	2766
810.025	2861
810.166	2826
810.308	2819
810.45	2842
810.591	2785
810.733	2762
810.875	2807
811.016	2773
811.158	2735
811.299	2819
811.441	2922
811.582	2925
811.724	2826
811.865	2842
812.007	2891
812.148	2864
812.29	2807
812.431	2902
812.573	2967
812.714	3001
812.855	3047
812.997	3009
813.138	3112
813.279	3043
813.421	3013
813.562	2925
813.703	2876
813.845	2868
813.986	2781
814.127	2727
814.268	2781
814.41	2857
814.551	2815
814.692	2880
814.833	2800
814.974	2918
815.115	2971
815.256	2800
815.397	2800
815.539	2857
815.68	2785
815.821	2781
815.962	2910
816.103	2929
816.244	2880
816.385	2891
816.526	2990
816.666	2933
816.807	2735
816.948	2899
817.089	2895
817.23	2880
817.371	2781
817.512	2788
817.653	2842
817.793	2834
817.934	2876
818.075	2941
818.216	2979
818.356	3055
818.497	2853
818.638	2792
818.778	2800
818.919	2830
819.06	2819
819.2	2918
819.341	2811
819.481	2807
819.622	2933
819.762	3097
819.903	3039
820.043	2918
820.184	2922
820.324	2902
820.465	3024
820.605	3032
820.746	3013
820.886	2944
821.026	3097
821.167	3192
821.307	3260
821.447	3237
821.588	3241
821.728	3188
821.868	3176
822.008	3100
822.149	3169
822.289	3222
822.429	3089
822.569	3077
822.709	3237
822.849	3028
822.99	3081
823.13	3135
823.27	3230
823.41	3085
823.55	3131
823.69	3135
823.83	3173
823.97	3058
824.11	3001
824.25	3024
824.389	3058
824.529	3074
824.669	3058
824.809	3176
824.949	3253
825.089	3222
825.228	3165
825.368	2975
825.508	2956
825.648	2929
825.787	2998
825.927	3028
826.067	2956
826.206	2952
826.346	3024
826.485	3093
826.625	3104
826.765	3264
826.904	3241
827.044	2956
827.183	2941
827.323	2861
827.462	2963
827.601	2891
827.741	2944
827.88	2944
828.02	2880
828.159	2929
828.298	3028
828.437	3097
828.577	3028
828.716	3230
828.855	3089
828.994	2891
829.134	2872
829.273	2910
829.412	2880
829.551	2857
829.69	2883
829.829	2994
829.968	3154
830.107	3028
830.246	2990
830.385	2872
830.524	2857
830.663	2845
830.802	2724
830.941	2689
831.08	2667
831.219	2762
831.357	2781
831.496	2971
831.635	2727
831.774	2659
831.913	2636
832.051	2545
832.19	2564
832.329	2651
832.467	2552
832.606	2484
832.744	2583
832.883	2556
833.022	2579
833.16	2644
833.299	2705
833.437	2667
833.576	2670
833.714	2727
833.852	2731
833.991	2739
834.129	2823
834.267	2811
834.406	2815
834.544	2857
834.682	2861
834.821	2864
834.959	3036
835.097	2864
835.235	3055
835.373	2967
835.511	3024
835.65	2910
835.788	2937
835.926	2807
836.064	2838
836.202	2838
836.34	3089
836.478	3150
836.615	3032
836.753	3157
836.891	3230
837.029	3161
837.167	3097
837.305	3058
837.443	3055
837.58	2967
837.718	3119
837.856	3013
837.993	3036
838.131	3131
838.269	3097
838.406	3123
838.544	3085
838.681	2933
838.819	2899
838.956	2785
839.094	2804
839.231	2944
839.369	3009
839.506	3344
839.643	3176
839.781	2986
839.918	2960
840.055	3036
840.193	3036
840.33	3062
840.467	3070
840.604	3135
840.742	3412
840.879	3009
841.016	3017
841.153	3085
841.29	3355
841.427	3256
841.564	3275
841.701	3302
841.838	3253
841.975	3146
842.112	3184
842.249	3058
842.385	3058
842.522	3253
842.659	3074
842.796	3077
842.933	3081
843.069	3020
843.206	3024
843.343	3165
843.479	3104
843.616	3104
843.752	2864
843.889	2830
844.025	3039
844.162	2849
844.298	3074
844.435	2937
844.571	2895
844.708	3077
844.844	3192
844.98	3241
845.117	3192
845.253	3074
845.389	3043
845.525	3097
845.661	3116
845.798	3009
845.934	3108
846.07	3032
846.206	3222
846.342	3336
846.478	3199
846.614	3081
846.75	3062
846.886	3032
847.022	3253
847.158	3135
847.294	3203
847.429	3253
847.565	3184
847.701	3469
847.837	3020
847.972	3024
848.108	3123
848.244	3138
848.379	3009
848.515	2948
848.65	2922
848.786	2963
848.921	3001
849.057	3116
849.192	3161
849.328	3062
849.463	3119
849.598	3043
849.734	3077
849.869	3001
850.004	2891
850.14	2937
850.275	2914
850.41	2838
850.545	2868
850.68	2910
850.815	2963
850.95	2982
851.085	3150
851.22	3093
851.355	3032
851.49	2963
851.625	2967
851.76	3047
851.895	2956
852.03	2895
852.165	3024
852.299	3119
852.434	3123
852.569	3123
852.703	3230
852.838	3222
852.973	3332
853.107	3287
853.242	3119
853.376	3074
853.511	2986
853.645	3039
853.78	3241
853.914	3089
854.048	3104
854.183	3104
854.317	3157
854.451	3256
854.585	3100
854.72	3077
854.854	3173
854.988	3024
855.122	3085
855.256	3009
855.39	3104
855.524	3188
855.658	3173
855.792	3161
855.926	3161
856.06	3207
856.194	3253
856.327	3131
856.461	3055
856.595	3074
856.729	3104
856.862	3211
856.996	3150
857.13	3173
857.263	3233
857.397	3294
857.53	3131
857.664	3192
857.797	3218
857.931	3233
858.064	3127
858.197	3218
858.331	3100
858.464	3097
858.597	2986
858.731	3112
858.864	3135
858.997	3070
859.13	3169
859.263	3161
859.396	3188
859.529	3074
859.662	3074
859.795	3047
859.928	3108
860.061	3291
860.194	3260
860.327	3138
860.46	3119
860.592	3230
860.725	3222
860.858	3256
860.99	3097
861.123	3028
861.256	3028
861.388	3135
861.521	3785
861.653	3024
861.786	2998
861.918	2975
862.05	3074
862.183	3089
862.315	3146
862.447	3226
862.58	3077
862.712	2937
862.844	2845
862.976	3036
863.108	2994
863.24	3447
863.372	2864
863.504	2937
863.636	2956
863.768	3047
863.9	2960
864.032	2937
864.164	2948
864.296	2975
864.428	3047
864.559	3119
864.691	3047
864.823	3047
864.954	3047
865.086	3051
865.217	2994
865.349	2918
865.48	2979
865.612	3013
865.743	3135
865.875	3005
866.006	2914
866.137	2948
866.269	2967
866.4	2925
866.531	2914
866.662	2887
866.793	2876
866.924	2891
867.055	3013
867.186	2902
867.317	2883
867.448	2807
867.579	2834
867.71	2830
867.841	2819
867.972	2906
868.103	2906
868.233	2883
868.364	2834
868.495	2883
868.625	3085
868.756	3154
868.886	2952
869.017	3028
869.147	3192
869.278	3199
869.408	3017
869.539	3020
869.669	3070
869.799	3066
869.929	3108
870.06	3116
870.19	3317
870.32	3260
870.45	3291
870.58	3351
870.71	3424
870.84	3420
870.97	3283
871.1	3211
871.23	3450
871.36	3443
871.489	3351
871.619	3370
871.749	3374
871.879	3481
872.008	3481
872.138	3344
872.267	3226
872.397	3157
872.526	3055
872.656	3024
872.785	3085
872.915	3233
873.044	3298
873.173	3199
873.303	3294
873.432	3211
873.561	3211
873.69	3154
873.819	3138
873.948	3161
874.077	3104
874.206	3039
874.335	3097
874.464	3211
874.593	3367
874.722	3207
874.851	3386
874.979	3344
875.108	3329
875.237	3218
875.365	3165
875.494	3150
875.623	3249
875.751	3070
875.88	3116
876.008	3226
876.136	3211
876.265	3351
876.393	3526
876.521	3424
876.65	3389
876.778	3321
876.906	3253
877.034	3180
877.162	3226
877.29	3165
877.418	3245
877.546	3253
877.674	3264
877.802	3241
877.93	3165
878.058	3180
878.185	3119
878.313	3176
878.441	3230
878.568	3077
878.696	3127
878.824	3249
878.951	3306
879.079	3428
879.206	3603
879.333	3469
879.461	3321
879.588	3363
879.715	3488
879.842	3557
879.97	3359
880.097	3161
880.224	3112
880.351	3180
880.478	3218
880.605	3184
880.732	3207
880.859	3496
880.986	3287
881.112	3310
881.239	3203
881.366	3104
881.493	3020
881.619	3001
881.746	3066
881.872	3089
881.999	3093
882.125	3135
882.252	3253
882.378	3279
882.505	3454
882.631	3306
882.757	3154
882.883	3237
883.01	3211
883.136	3180
883.262	3093
883.388	3119
883.514	3355
883.64	3351
883.766	3302
883.892	3184
884.018	3226
884.143	3447
884.269	3523
884.395	3214
884.52	3165
884.646	3154
884.772	3100
884.897	3131
885.023	3192
885.148	3306
885.274	3447
885.399	3348
885.524	3279
885.65	3214
885.775	3275
885.9	3279
886.025	3401
886.15	3363
886.275	3264
886.4	3222
886.525	3298
886.65	3249
886.775	3279
886.9	3473
887.025	3603
887.149	3397
887.274	3222
887.399	3192
887.523	3180
887.648	3192
887.773	3211
887.897	3359
888.021	3386
888.146	3287
888.27	3431
888.395	3504
888.519	3473
888.643	3481
888.767	3428
888.891	3272
889.015	3226
889.139	3291
889.263	3253
889.387	3386
889.511	3488
889.635	3477
889.759	3256
889.883	3298
890.006	3389
890.13	3477
890.254	3260
890.377	3321
890.501	3195
890.624	3203
890.748	3310
890.871	3195
890.995	3093
891.118	3055
891.241	3176
891.364	3230
891.488	3310
891.611	3188
891.734	3237
891.857	3306
891.98	3249
892.103	3287
892.226	3249
892.349	3222
892.471	3081
892.594	3226
892.717	3268
892.839	3214
892.962	3298
893.085	3370
893.207	3279
893.33	3154
893.452	3233
893.575	3370
893.697	3203
893.819	3439
893.941	3477
894.064	3439
894.186	3256
894.308	3279
894.43	3443
894.552	3519
894.674	3454
894.796	3291
894.918	3313
895.04	3264
895.161	3473
895.283	3405
895.405	3302
895.526	3329
895.648	3435
895.769	3424
895.891	3485
896.012	3454
896.134	3454
896.255	3359
896.376	3401
896.498	3351
896.619	3431
896.74	3351
896.861	3389
896.982	3694
897.103	3850
897.224	3587
897.345	3492
897.466	3393
897.587	3511
897.708	3584
897.828	3553
897.949	3389
898.07	3325
898.19	3412
898.311	3587
898.431	3450
898.552	3557
898.672	3591
898.792	3595
898.913	3488
899.033	3416
899.153	3283
899.273	3207
899.393	3256
899.513	3321
899.633	3317
899.753	3302
899.873	3283
899.993	3389
900.113	3340
900.232	3378
900.352	3359
900.472	3260
900.591	3207
900.711	3298
900.83	3245
900.95	3412
901.069	3485
901.189	3359
901.308	3184
901.427	3157
901.546	3184
901.665	3260
901.784	3321
901.904	3180
902.023	3161
902.141	3013
902.26	2967
902.379	3116
902.498	3081
902.617	3077
902.735	3188
902.854	3218
902.973	3188
903.091	3020
903.21	3089
903.328	3142
903.446	3089
903.565	3112
903.683	3169
903.801	3142
903.919	3253
904.038	3283
904.156	3165
904.274	3275
904.392	3230
904.51	3279
904.627	3348
904.745	3469
904.863	3469
904.981	3256
905.098	3195
905.216	3237
905.334	3245
905.451	3264
905.569	3310
905.686	3420
905.803	3409
905.921	3302
906.038	3416
906.155	3355
906.272	3245
906.389	3306
906.506	3222
906.623	3245
906.74	3253
906.857	3192
906.974	3272
907.091	3428
907.208	3587
907.324	3492
907.441	3424
907.557	3176
907.674	3222
907.79	3214
907.907	3272
908.023	3370
908.139	3393
908.256	3351
908.372	3332
908.488	3367
908.604	3214
908.72	3253
908.836	3279
908.952	3272
909.068	3348
909.184	3469
909.3	3409
909.415	3515
909.531	3462
909.647	3275
909.762	3253
909.878	3283
909.993	3386
910.108	3367
910.224	3332
910.339	3428
910.454	3348
910.57	3302
910.685	3214
910.8	3580
910.915	3492
911.03	3401
911.145	3275
911.259	3268
911.374	3302
911.489	3253
911.604	3241
911.718	3108
911.833	3154
911.947	3013
912.062	2967
912.176	3157
912.291	3192
912.405	3207
912.519	3412
912.633	3447
912.748	3332
912.862	3279
912.976	3161
913.09	3055
913.204	3169
913.318	3195
913.431	3329
913.545	3275
913.659	3412
913.772	3359
913.886	3230
914	3150
914.113	3363
914.226	3405
914.34	3367
914.453	3233
914.566	3405
914.68	3283
914.793	3313
914.906	3112
915.019	3077
915.132	3077
915.245	3176
915.358	3230
915.47	3188
915.583	3275
915.696	3279
915.809	3378
915.921	3409
916.034	3268
916.146	3260
916.259	3203
916.371	3355
916.483	3367
916.595	3249
916.708	3256
916.82	3329
916.932	3294
917.044	3325
917.156	3317
917.268	3275
917.38	3279
917.491	3313
917.603	3359
917.715	3424
917.826	3473
917.938	3382
918.049	3272
918.161	3450
918.272	3545
918.384	3595
918.495	3500
918.606	3378
918.717	3302
918.828	3348
918.939	3397
919.05	3306
919.161	3367
919.272	3176
919.383	3287
919.494	3526
919.604	3675
919.715	3469
919.826	3405
919.936	3447
920.047	3557
920.157	3511
920.267	3709
920.378	3622
920.488	3523
920.598	3766
920.708	3949
920.818	3842
920.928	3880
921.038	4032
921.148	3991
921.258	3698
921.368	3644
921.477	3576
921.587	3530
921.697	3435
921.806	3641
921.916	3496
922.025	3336
922.134	3367
922.244	3294
922.353	3416
922.462	3291
922.571	3214
922.68	3066
922.789	3116
922.898	3142
923.007	3062
923.116	3176
923.224	3157
923.333	3169
923.442	3127
923.55	3074
923.659	3123
923.767	3245
923.876	3097
923.984	3283
924.092	3119
924.201	3195
924.309	3218
924.417	3275
924.525	3146
924.633	3245
924.741	4185
924.849	3051
924.956	3272
925.064	3104
925.172	3024
925.279	3131
925.387	3176
925.494	3233
925.602	3370
925.709	3344
925.816	3180
925.924	3268
926.031	3367
926.138	3264
926.245	3351
926.352	3245
926.459	3416
926.566	3492
926.673	3294
926.779	3207
926.886	3226
926.993	3108
927.099	3135
927.206	3142
927.312	3089
927.419	3184
927.525	3203
927.631	3245
927.737	3138
927.843	3161
927.95	3028
928.056	3138
928.162	3161
928.267	3230
928.373	3857
928.479	3321
928.585	3062
928.69	3230
928.796	3264
928.901	3161
929.007	3043
929.112	3199
929.218	3161
929.323	3142
929.428	3138
929.533	3283
929.638	3131
929.743	3169
929.848	3245
929.953	3226
930.058	3150
930.163	3001
930.267	3070
930.372	3233
930.477	3020
930.581	3298
930.685	3157
930.79	3009
930.894	3119
930.998	3093
931.103	3275
931.207	2941
931.311	2944
931.415	2925
931.519	2731
931.623	2800
