Data from test_V78500241_118.txt Node
Date: Fri Mar 25 16:16:01 CST 2022
User: usil
Spectrometer: V785-0024
Trigger mode: 0
Integration Time (sec): 4.000000E-1
Scans to average: 1
Nonlinearity correction enabled: false
Boxcar width: 0
Storing dark spectrum: false
XAxis mode: Wavelengths
Number of Pixels in Spectrum: 1024
>>>>>Begin Spectral Data<<<<<
801.071	2941
801.214	2982
801.356	2910
801.499	2883
801.641	2864
801.783	2986
801.926	3066
802.068	2975
802.211	3036
802.353	3077
802.496	2994
802.638	3066
802.78	3032
802.923	3085
803.065	3020
803.208	2944
803.35	2944
803.492	2956
803.635	2941
803.777	2762
803.919	2849
804.061	3211
804.204	2941
804.346	2925
804.488	2842
804.63	3032
804.773	2895
804.915	2944
805.057	3097
805.199	2952
805.341	2994
805.483	3097
805.626	3036
805.768	2998
805.91	3089
806.052	3119
806.194	3009
806.336	3256
806.478	3039
806.62	2986
806.762	2990
806.904	3062
807.046	3184
807.188	2998
807.33	2918
807.472	3009
807.614	2948
807.756	3028
807.898	2944
808.04	2880
808.182	2986
808.324	2941
808.465	2891
808.607	2891
808.749	2781
808.891	2823
809.033	3013
809.174	3017
809.316	2899
809.458	2887
809.6	2785
809.741	2750
809.883	2849
810.025	2876
810.166	2864
810.308	2876
810.45	2906
810.591	2796
810.733	2811
810.875	2853
811.016	2807
811.158	2766
811.299	2804
811.441	2937
811.582	2918
811.724	2838
811.865	2811
812.007	2914
812.148	2906
812.29	2853
812.431	2944
812.573	2941
812.714	2967
812.855	3028
812.997	3062
813.138	3135
813.279	3051
813.421	2986
813.562	2960
813.703	2876
813.845	2952
813.986	2819
814.127	2739
814.268	2830
814.41	2868
814.551	2830
814.692	2933
814.833	2819
814.974	2922
815.115	2963
815.256	2834
815.397	2838
815.539	2895
815.68	2804
815.821	2804
815.962	2967
816.103	2937
816.244	2899
816.385	2864
816.526	3039
816.666	2918
816.807	2777
816.948	2914
817.089	2895
817.23	2883
817.371	2807
817.512	2807
817.653	2891
817.793	2815
817.934	2914
818.075	2960
818.216	3009
818.356	3062
818.497	2914
818.638	2804
818.778	2830
818.919	2823
819.06	2819
819.2	2891
819.341	2796
819.481	2834
819.622	2956
819.762	3112
819.903	3039
820.043	2929
820.184	2925
820.324	2948
820.465	3013
820.605	3043
820.746	3062
820.886	2963
821.026	3154
821.167	3203
821.307	3283
821.447	3325
821.588	3302
821.728	3275
821.868	3253
822.008	3100
822.149	3192
822.289	3272
822.429	3085
822.569	3089
822.709	3207
822.849	3062
822.99	3108
823.13	3176
823.27	3195
823.41	3138
823.55	3176
823.69	3176
823.83	3188
823.97	3097
824.11	3009
824.25	3051
824.389	3055
824.529	3127
824.669	3112
824.809	3218
824.949	3310
825.089	3241
825.228	3173
825.368	3024
825.508	2960
825.648	2963
825.787	3028
825.927	3055
826.067	3017
826.206	2960
826.346	3066
826.485	3066
826.625	3097
826.765	3302
826.904	3260
827.044	3009
827.183	2918
827.323	2868
827.462	2979
827.601	2941
827.741	2914
827.88	2994
828.02	2895
828.159	3017
828.298	3058
828.437	3142
828.577	3055
828.716	3283
828.855	3108
828.994	2914
829.134	2918
829.273	2948
829.412	2876
829.551	2925
829.69	2902
829.829	2998
829.968	3119
830.107	3043
830.246	3047
830.385	2952
830.524	2937
830.663	2830
830.802	2743
830.941	2651
831.08	2640
831.219	2777
831.357	2766
831.496	2967
831.635	2754
831.774	2678
831.913	2648
832.051	2579
832.19	2564
832.329	2689
832.467	2552
832.606	2492
832.744	2602
832.883	2613
833.022	2610
833.16	2659
833.299	2697
833.437	2712
833.576	2746
833.714	2724
833.852	2743
833.991	2792
834.129	2868
834.267	2868
834.406	2781
834.544	2853
834.682	2891
834.821	2895
834.959	3074
835.097	2937
835.235	3028
835.373	2979
835.511	3024
835.65	2971
835.788	2998
835.926	2864
836.064	2811
836.202	2887
836.34	3093
836.478	3169
836.615	3081
836.753	3135
836.891	3218
837.029	3176
837.167	3131
837.305	3051
837.443	3001
837.58	2982
837.718	3127
837.856	3062
837.993	3070
838.131	3180
838.269	3131
838.406	3108
838.544	3077
838.681	2990
838.819	2929
838.956	2853
839.094	2876
839.231	2937
839.369	3032
839.506	3378
839.643	3211
839.781	3036
839.918	2990
840.055	3066
840.193	3043
840.33	3077
840.467	3066
840.604	3146
840.742	3447
840.879	3085
841.016	3062
841.153	3108
841.29	3370
841.427	3321
841.564	3317
841.701	3359
841.838	3253
841.975	3192
842.112	3256
842.249	3131
842.385	3043
842.522	3272
842.659	3127
842.796	3081
842.933	3112
843.069	3047
843.206	3062
843.343	3226
843.479	3150
843.616	3161
843.752	2914
843.889	2895
844.025	3138
844.162	2868
844.298	3108
844.435	2960
844.571	2941
844.708	3070
844.844	3203
844.98	3253
845.117	3218
845.253	3066
845.389	3009
845.525	3100
845.661	3116
845.798	3028
845.934	3116
846.07	3051
846.206	3264
846.342	3336
846.478	3298
846.614	3077
846.75	3089
846.886	3039
847.022	3272
847.158	3199
847.294	3237
847.429	3260
847.565	3207
847.701	3538
847.837	3043
847.972	3047
848.108	3195
848.244	3180
848.379	3001
848.515	2925
848.65	2944
848.786	3017
848.921	3017
849.057	3123
849.192	3184
849.328	3066
849.463	3135
849.598	3017
849.734	3036
849.869	3001
850.004	2948
850.14	2982
850.275	2941
850.41	2845
850.545	2891
850.68	2944
850.815	2986
850.95	2963
851.085	3222
851.22	3112
851.355	3074
851.49	2986
851.625	3001
851.76	2994
851.895	2922
852.03	2929
852.165	3043
852.299	3127
852.434	3233
852.569	3165
852.703	3230
852.838	3279
852.973	3382
853.107	3370
853.242	3188
853.376	3127
853.511	3017
853.645	3017
853.78	3275
853.914	3146
854.048	3150
854.183	3112
854.317	3192
854.451	3272
854.585	3157
854.72	3100
854.854	3279
854.988	3104
855.122	3097
855.256	2994
855.39	3154
855.524	3275
855.658	3188
855.792	3112
855.926	3253
856.06	3245
856.194	3256
856.327	3192
856.461	3112
856.595	3081
856.729	3112
856.862	3275
856.996	3180
857.13	3241
857.263	3241
857.397	3298
857.53	3112
857.664	3192
857.797	3214
857.931	3272
858.064	3192
858.197	3245
858.331	3180
858.464	3093
858.597	3017
858.731	3154
858.864	3154
858.997	3131
859.13	3192
859.263	3199
859.396	3233
859.529	3085
859.662	3104
859.795	3043
859.928	3161
860.061	3268
860.194	3294
860.327	3138
860.46	3116
860.592	3260
860.725	3291
860.858	3298
860.99	3142
861.123	3058
861.256	3055
861.388	3188
861.521	3835
861.653	3047
861.786	3005
861.918	3013
862.05	3100
862.183	3074
862.315	3154
862.447	3241
862.58	3131
862.712	2963
862.844	2902
862.976	3032
863.108	3009
863.24	3443
863.372	2929
863.504	2982
863.636	2956
863.768	3043
863.9	2998
864.032	2902
864.164	2960
864.296	3047
864.428	3062
864.559	3131
864.691	3116
864.823	3055
864.954	3058
865.086	3089
865.217	2982
865.349	2982
865.48	3020
865.612	3036
865.743	3192
865.875	3001
866.006	2952
866.137	2971
866.269	2948
866.4	2937
866.531	2937
866.662	2876
866.793	2902
866.924	2929
867.055	2986
867.186	2933
867.317	2937
867.448	2864
867.579	2872
867.71	2887
867.841	2899
867.972	2906
868.103	2960
868.233	2906
868.364	2880
868.495	2906
868.625	3123
868.756	3188
868.886	2979
869.017	3032
869.147	3214
869.278	3207
869.408	3085
869.539	3062
869.669	3100
869.799	3093
869.929	3169
870.06	3165
870.19	3329
870.32	3287
870.45	3302
870.58	3378
870.71	3500
870.84	3530
870.97	3302
871.1	3241
871.23	3485
871.36	3458
871.489	3355
871.619	3393
871.749	3412
871.879	3443
872.008	3492
872.138	3401
872.267	3279
872.397	3184
872.526	3146
872.656	2990
872.785	3150
872.915	3268
873.044	3317
873.173	3241
873.303	3302
873.432	3279
873.561	3272
873.69	3199
873.819	3165
873.948	3195
874.077	3135
874.206	3089
874.335	3127
874.464	3222
874.593	3401
874.722	3294
874.851	3409
874.979	3367
875.108	3298
875.237	3241
875.365	3211
875.494	3237
875.623	3256
875.751	3123
875.88	3127
876.008	3230
876.136	3249
876.265	3416
876.393	3500
876.521	3405
876.65	3393
876.778	3359
876.906	3264
877.034	3192
877.162	3256
877.29	3203
877.418	3313
877.546	3241
877.674	3256
877.802	3249
877.93	3260
878.058	3184
878.185	3138
878.313	3241
878.441	3241
878.568	3085
878.696	3146
878.824	3287
878.951	3302
879.079	3473
879.206	3648
879.333	3431
879.461	3363
879.588	3378
879.715	3469
879.842	3629
879.97	3431
880.097	3230
880.224	3184
880.351	3214
880.478	3241
880.605	3173
880.732	3207
880.859	3538
880.986	3344
881.112	3298
881.239	3241
881.366	3104
881.493	3074
881.619	3051
881.746	3085
881.872	3142
881.999	3081
882.125	3154
882.252	3268
882.378	3325
882.505	3458
882.631	3302
882.757	3176
882.883	3275
883.01	3211
883.136	3184
883.262	3157
883.388	3161
883.514	3332
883.64	3370
883.766	3332
883.892	3253
884.018	3294
884.143	3428
884.269	3523
884.395	3249
884.52	3192
884.646	3226
884.772	3150
884.897	3112
885.023	3222
885.148	3344
885.274	3397
885.399	3363
885.524	3332
885.65	3237
885.775	3359
885.9	3306
886.025	3481
886.15	3374
886.275	3298
886.4	3279
886.525	3336
886.65	3283
886.775	3291
886.9	3511
887.025	3652
887.149	3435
887.274	3256
887.399	3192
887.523	3214
887.648	3207
887.773	3211
887.897	3363
888.021	3439
888.146	3294
888.27	3443
888.395	3591
888.519	3424
888.643	3492
888.767	3466
888.891	3344
889.015	3298
889.139	3302
889.263	3256
889.387	3431
889.511	3576
889.635	3485
889.759	3298
889.883	3325
890.006	3416
890.13	3492
890.254	3317
890.377	3359
890.501	3245
890.624	3279
890.748	3325
890.871	3199
890.995	3135
891.118	3081
891.241	3245
891.364	3241
891.488	3317
891.611	3203
891.734	3226
891.857	3313
891.98	3233
892.103	3348
892.226	3272
892.349	3249
892.471	3100
892.594	3241
892.717	3302
892.839	3283
892.962	3317
893.085	3359
893.207	3348
893.33	3169
893.452	3260
893.575	3355
893.697	3302
893.819	3447
893.941	3526
894.064	3462
894.186	3302
894.308	3298
894.43	3469
894.552	3549
894.674	3477
894.796	3294
894.918	3302
895.04	3294
895.161	3462
895.283	3416
895.405	3310
895.526	3431
895.648	3454
895.769	3424
895.891	3481
896.012	3469
896.134	3454
896.255	3424
896.376	3412
896.498	3397
896.619	3428
896.74	3389
896.861	3435
896.982	3736
897.103	3861
897.224	3637
897.345	3553
897.466	3431
897.587	3526
897.708	3629
897.828	3572
897.949	3443
898.07	3359
898.19	3409
898.311	3644
898.431	3485
898.552	3485
898.672	3622
898.792	3614
898.913	3610
899.033	3428
899.153	3306
899.273	3260
899.393	3302
899.513	3374
899.633	3351
899.753	3340
899.873	3355
899.993	3405
900.113	3363
900.232	3428
900.352	3340
900.472	3294
900.591	3272
900.711	3306
900.83	3272
900.95	3447
901.069	3519
901.189	3363
901.308	3195
901.427	3157
901.546	3199
901.665	3317
901.784	3336
901.904	3195
902.023	3146
902.141	3020
902.26	3036
902.379	3142
902.498	3055
902.617	3070
902.735	3188
902.854	3222
902.973	3176
903.091	3074
903.21	3089
903.328	3154
903.446	3146
903.565	3135
903.683	3226
903.801	3165
903.919	3279
904.038	3294
904.156	3192
904.274	3329
904.392	3268
904.51	3287
904.627	3325
904.745	3462
904.863	3538
904.981	3272
905.098	3184
905.216	3268
905.334	3317
905.451	3336
905.569	3336
905.686	3454
905.803	3439
905.921	3329
906.038	3397
906.155	3336
906.272	3283
906.389	3393
906.506	3230
906.623	3313
906.74	3298
906.857	3214
906.974	3268
907.091	3435
907.208	3595
907.324	3526
907.441	3393
907.557	3275
907.674	3253
907.79	3245
907.907	3279
908.023	3447
908.139	3401
908.256	3351
908.372	3412
908.488	3409
908.604	3260
908.72	3226
908.836	3332
908.952	3344
909.068	3351
909.184	3526
909.3	3447
909.415	3530
909.531	3511
909.647	3268
909.762	3340
909.878	3310
909.993	3378
910.108	3351
910.224	3351
910.339	3447
910.454	3370
910.57	3329
910.685	3264
910.8	3603
910.915	3557
911.03	3454
911.145	3291
911.259	3317
911.374	3355
911.489	3260
911.604	3268
911.718	3104
911.833	3176
911.947	3097
912.062	2990
912.176	3180
912.291	3233
912.405	3226
912.519	3420
912.633	3458
912.748	3332
912.862	3253
912.976	3195
913.09	3100
913.204	3176
913.318	3241
913.431	3321
913.545	3359
913.659	3454
913.772	3374
913.886	3222
914	3241
914.113	3348
914.226	3435
914.34	3389
914.453	3253
914.566	3450
914.68	3294
914.793	3310
914.906	3154
915.019	3127
915.132	3066
915.245	3233
915.358	3214
915.47	3245
915.583	3275
915.696	3310
915.809	3424
915.921	3435
916.034	3310
916.146	3268
916.259	3237
916.371	3363
916.483	3382
916.595	3253
916.708	3332
916.82	3367
916.932	3370
917.044	3348
917.156	3401
917.268	3275
917.38	3332
917.491	3317
917.603	3412
917.715	3488
917.826	3511
917.938	3378
918.049	3302
918.161	3412
918.272	3591
918.384	3614
918.495	3519
918.606	3393
918.717	3332
918.828	3374
918.939	3405
919.05	3344
919.161	3386
919.272	3184
919.383	3321
919.494	3511
919.604	3705
919.715	3496
919.826	3443
919.936	3500
920.047	3584
920.157	3545
920.267	3808
920.378	3625
920.488	3542
920.598	3778
920.708	4010
920.818	3819
920.928	3888
921.038	4040
921.148	4021
921.258	3747
921.368	3679
921.477	3622
921.587	3568
921.697	3473
921.806	3663
921.916	3553
922.025	3340
922.134	3367
922.244	3291
922.353	3458
922.462	3298
922.571	3237
922.68	3077
922.789	3108
922.898	3116
923.007	3119
923.116	3230
923.224	3222
923.333	3233
923.442	3116
923.55	3119
923.659	3176
923.767	3233
923.876	3150
923.984	3256
924.092	3135
924.201	3165
924.309	3237
924.417	3275
924.525	3214
924.633	3253
924.741	4230
924.849	3058
924.956	3294
925.064	3154
925.172	3066
925.279	3112
925.387	3233
925.494	3214
925.602	3367
925.709	3298
925.816	3226
925.924	3313
926.031	3409
926.138	3348
926.245	3370
926.352	3275
926.459	3409
926.566	3473
926.673	3336
926.779	3272
926.886	3245
926.993	3188
927.099	3169
927.206	3146
927.312	3146
927.419	3260
927.525	3211
927.631	3279
927.737	3203
927.843	3138
927.95	3062
928.056	3161
928.162	3180
928.267	3283
928.373	3808
928.479	3332
928.585	3119
928.69	3260
928.796	3283
928.901	3199
929.007	3074
929.112	3214
929.218	3218
929.323	3146
929.428	3169
929.533	3306
929.638	3150
929.743	3188
929.848	3302
929.953	3214
930.058	3150
930.163	3001
930.267	3070
930.372	3218
930.477	3104
930.581	3317
930.685	3211
930.79	3074
930.894	3142
930.998	3108
931.103	3329
931.207	3005
931.311	2986
931.415	2914
931.519	2804
931.623	2838
