Data from test_V78500241_1787.txt Node
Date: Fri Mar 25 16:27:34 CST 2022
User: usil
Spectrometer: V785-0024
Trigger mode: 0
Integration Time (sec): 4.000000E-1
Scans to average: 1
Nonlinearity correction enabled: false
Boxcar width: 0
Storing dark spectrum: false
XAxis mode: Wavelengths
Number of Pixels in Spectrum: 1024
>>>>>Begin Spectral Data<<<<<
801.071	2910
801.214	2922
801.356	2861
801.499	2868
801.641	2864
801.783	2902
801.926	3062
802.068	2982
802.211	2998
802.353	3032
802.496	2975
802.638	3009
802.78	3051
802.923	3062
803.065	2986
803.208	2880
803.35	2902
803.492	2910
803.635	2922
803.777	2762
803.919	2880
804.061	3226
804.204	2952
804.346	2914
804.488	2834
804.63	2975
804.773	2883
804.915	2929
805.057	3070
805.199	2872
805.341	2960
805.483	3039
805.626	3001
805.768	3001
805.91	3077
806.052	3058
806.194	3017
806.336	3222
806.478	3013
806.62	2963
806.762	2990
806.904	3100
807.046	3176
807.188	2967
807.33	2914
807.472	2979
807.614	2922
807.756	2948
807.898	2914
808.04	2906
808.182	2994
808.324	2979
808.465	2910
808.607	2887
808.749	2815
808.891	2857
809.033	2994
809.174	2994
809.316	2902
809.458	2933
809.6	2766
809.741	2796
809.883	2785
810.025	2830
810.166	2861
810.308	2857
810.45	2864
810.591	2743
810.733	2762
810.875	2845
811.016	2777
811.158	2773
811.299	2823
811.441	2914
811.582	2914
811.724	2804
811.865	2800
812.007	2922
812.148	2853
812.29	2857
812.431	2922
812.573	2914
812.714	2941
812.855	3032
812.997	3036
813.138	3085
813.279	3020
813.421	2941
813.562	2975
813.703	2891
813.845	2910
813.986	2777
814.127	2686
814.268	2796
814.41	2853
814.551	2826
814.692	2861
814.833	2838
814.974	2868
815.115	2944
815.256	2781
815.397	2800
815.539	2857
815.68	2731
815.821	2815
815.962	2963
816.103	2922
816.244	2849
816.385	2902
816.526	2941
816.666	2918
816.807	2739
816.948	2883
817.089	2895
817.23	2842
817.371	2788
817.512	2815
817.653	2849
817.793	2823
817.934	2880
818.075	2998
818.216	2994
818.356	3028
818.497	2899
818.638	2792
818.778	2864
818.919	2773
819.06	2777
819.2	2861
819.341	2804
819.481	2807
819.622	2883
819.762	3085
819.903	3028
820.043	2883
820.184	2872
820.324	2933
820.465	3017
820.605	3017
820.746	3036
820.886	2963
821.026	3100
821.167	3150
821.307	3230
821.447	3279
821.588	3256
821.728	3203
821.868	3192
822.008	3066
822.149	3108
822.289	3218
822.429	3047
822.569	3093
822.709	3180
822.849	3047
822.99	3013
823.13	3154
823.27	3230
823.41	3085
823.55	3173
823.69	3123
823.83	3214
823.97	3093
824.11	3013
824.25	2956
824.389	3062
824.529	3100
824.669	3085
824.809	3173
824.949	3233
825.089	3222
825.228	3135
825.368	3020
825.508	2941
825.648	2925
825.787	3020
825.927	3005
826.067	2975
826.206	2944
826.346	3032
826.485	3077
826.625	3077
826.765	3241
826.904	3176
827.044	2967
827.183	2914
827.323	2849
827.462	2982
827.601	2925
827.741	2929
827.88	2941
828.02	2811
828.159	2979
828.298	3005
828.437	3135
828.577	3043
828.716	3226
828.855	3074
828.994	2902
829.134	2902
829.273	2902
829.412	2853
829.551	2842
829.69	2906
829.829	2944
829.968	3127
830.107	2975
830.246	3020
830.385	2922
830.524	2864
830.663	2762
830.802	2720
830.941	2670
831.08	2625
831.219	2743
831.357	2766
831.496	2948
831.635	2766
831.774	2659
831.913	2663
832.051	2530
832.19	2587
832.329	2659
832.467	2507
832.606	2476
832.744	2564
832.883	2625
833.022	2587
833.16	2663
833.299	2670
833.437	2731
833.576	2697
833.714	2720
833.852	2701
833.991	2754
834.129	2830
834.267	2819
834.406	2788
834.544	2880
834.682	2864
834.821	2876
834.959	3024
835.097	2868
835.235	3077
835.373	2994
835.511	3005
835.65	2967
835.788	2941
835.926	2838
836.064	2800
836.202	2830
836.34	3013
836.478	3119
836.615	3070
836.753	3131
836.891	3203
837.029	3127
837.167	3119
837.305	3070
837.443	3028
837.58	2960
837.718	3131
837.856	3085
837.993	3005
838.131	3146
838.269	3135
838.406	3100
838.544	3070
838.681	2910
838.819	2925
838.956	2785
839.094	2811
839.231	2941
839.369	3047
839.506	3367
839.643	3218
839.781	2998
839.918	2941
840.055	3024
840.193	3089
840.33	3039
840.467	3112
840.604	3150
840.742	3382
840.879	3070
841.016	3009
841.153	3119
841.29	3313
841.427	3279
841.564	3287
841.701	3264
841.838	3226
841.975	3154
842.112	3211
842.249	3074
842.385	3036
842.522	3211
842.659	3112
842.796	3028
842.933	3135
843.069	3039
843.206	3020
843.343	3146
843.479	3112
843.616	3161
843.752	2895
843.889	2876
844.025	3074
844.162	2864
844.298	3108
844.435	2944
844.571	2925
844.708	3047
844.844	3214
844.98	3245
845.117	3180
845.253	3077
845.389	2990
845.525	3077
845.661	3104
845.798	3032
845.934	3131
846.07	3058
846.206	3154
846.342	3332
846.478	3233
846.614	3070
846.75	3020
846.886	3028
847.022	3279
847.158	3108
847.294	3218
847.429	3226
847.565	3214
847.701	3454
847.837	3024
847.972	2982
848.108	3154
848.244	3100
848.379	3005
848.515	2925
848.65	2933
848.786	2944
848.921	3017
849.057	3093
849.192	3146
849.328	3070
849.463	3131
849.598	3051
849.734	3020
849.869	2998
850.004	2918
850.14	2979
850.275	2891
850.41	2807
850.545	2883
850.68	2944
850.815	2971
850.95	2971
851.085	3214
851.22	3070
851.355	3009
851.49	2982
851.625	2967
851.76	3005
851.895	2914
852.03	2883
852.165	3036
852.299	3100
852.434	3211
852.569	3146
852.703	3161
852.838	3249
852.973	3340
853.107	3340
853.242	3176
853.376	3081
853.511	2975
853.645	3017
853.78	3226
853.914	3135
854.048	3093
854.183	3062
854.317	3119
854.451	3279
854.585	3135
854.72	3074
854.854	3184
854.988	2982
855.122	3055
855.256	2990
855.39	3100
855.524	3230
855.658	3173
855.792	3161
855.926	3211
856.06	3188
856.194	3256
856.327	3135
856.461	3020
856.595	3089
856.729	3051
856.862	3195
856.996	3203
857.13	3184
857.263	3214
857.397	3268
857.53	3123
857.664	3199
857.797	3226
857.931	3249
858.064	3161
858.197	3203
858.331	3150
858.464	3085
858.597	3028
858.731	3127
858.864	3127
858.997	3093
859.13	3131
859.263	3218
859.396	3222
859.529	3093
859.662	3089
859.795	3036
859.928	3138
860.061	3253
860.194	3302
860.327	3138
860.46	3112
860.592	3226
860.725	3226
860.858	3256
860.99	3123
861.123	3081
861.256	3058
861.388	3116
861.521	3842
861.653	2979
861.786	2967
861.918	2979
862.05	3097
862.183	3116
862.315	3112
862.447	3146
862.58	3116
862.712	2956
862.844	2880
862.976	2979
863.108	3001
863.24	3462
863.372	2838
863.504	2944
863.636	2941
863.768	3032
863.9	2948
864.032	2899
864.164	2948
864.296	2979
864.428	3058
864.559	3104
864.691	3077
864.823	3058
864.954	3036
865.086	3043
865.217	3001
865.349	2906
865.48	2971
865.612	3028
865.743	3146
865.875	2963
866.006	2929
866.137	2948
866.269	2914
866.4	2937
866.531	2906
866.662	2857
866.793	2876
866.924	2887
867.055	2979
867.186	2895
867.317	2849
867.448	2804
867.579	2845
867.71	2826
867.841	2823
867.972	2910
868.103	2872
868.233	2853
868.364	2849
868.495	2891
868.625	3112
868.756	3142
868.886	2960
869.017	3001
869.147	3173
869.278	3146
869.408	3032
869.539	2998
869.669	3081
869.799	3009
869.929	3127
870.06	3100
870.19	3355
870.32	3279
870.45	3249
870.58	3351
870.71	3428
870.84	3447
870.97	3287
871.1	3218
871.23	3485
871.36	3447
871.489	3340
871.619	3405
871.749	3405
871.879	3443
872.008	3473
872.138	3336
872.267	3298
872.397	3169
872.526	3077
872.656	3028
872.785	3112
872.915	3207
873.044	3306
873.173	3211
873.303	3268
873.432	3222
873.561	3241
873.69	3199
873.819	3123
873.948	3203
874.077	3104
874.206	3051
874.335	3058
874.464	3249
874.593	3302
874.722	3222
874.851	3386
874.979	3332
875.108	3332
875.237	3173
875.365	3131
875.494	3157
875.623	3214
875.751	3077
875.88	3104
876.008	3188
876.136	3230
876.265	3424
876.393	3485
876.521	3439
876.65	3393
876.778	3370
876.906	3245
877.034	3203
877.162	3214
877.29	3180
877.418	3249
877.546	3233
877.674	3253
877.802	3272
877.93	3214
878.058	3100
878.185	3085
878.313	3218
878.441	3237
878.568	3070
878.696	3131
878.824	3237
878.951	3272
879.079	3416
879.206	3568
879.333	3443
879.461	3329
879.588	3332
879.715	3458
879.842	3599
879.97	3393
880.097	3157
880.224	3104
880.351	3218
880.478	3222
880.605	3203
880.732	3176
880.859	3504
880.986	3298
881.112	3298
881.239	3237
881.366	3074
881.493	3058
881.619	2998
881.746	3089
881.872	3070
881.999	3062
882.125	3161
882.252	3268
882.378	3302
882.505	3409
882.631	3283
882.757	3138
882.883	3222
883.01	3211
883.136	3127
883.262	3085
883.388	3131
883.514	3298
883.64	3359
883.766	3291
883.892	3207
884.018	3230
884.143	3412
884.269	3557
884.395	3222
884.52	3165
884.646	3154
884.772	3123
884.897	3093
885.023	3188
885.148	3317
885.274	3458
885.399	3367
885.524	3226
885.65	3230
885.775	3332
885.9	3249
886.025	3409
886.15	3363
886.275	3336
886.4	3199
886.525	3325
886.65	3268
886.775	3275
886.9	3488
887.025	3587
887.149	3397
887.274	3279
887.399	3154
887.523	3211
887.648	3169
887.773	3157
887.897	3374
888.021	3420
888.146	3283
888.27	3428
888.395	3519
888.519	3412
888.643	3435
888.767	3431
888.891	3287
889.015	3207
889.139	3294
889.263	3230
889.387	3382
889.511	3504
889.635	3428
889.759	3287
889.883	3279
890.006	3389
890.13	3504
890.254	3287
890.377	3332
890.501	3233
890.624	3180
890.748	3313
890.871	3173
890.995	3123
891.118	3058
891.241	3169
891.364	3207
891.488	3370
891.611	3173
891.734	3195
891.857	3291
891.98	3226
892.103	3351
892.226	3260
892.349	3233
892.471	3097
892.594	3222
892.717	3291
892.839	3287
892.962	3310
893.085	3367
893.207	3279
893.33	3138
893.452	3203
893.575	3355
893.697	3222
893.819	3473
893.941	3504
894.064	3443
894.186	3256
894.308	3241
894.43	3439
894.552	3500
894.674	3447
894.796	3287
894.918	3329
895.04	3302
895.161	3447
895.283	3382
895.405	3294
895.526	3397
895.648	3420
895.769	3416
895.891	3458
896.012	3447
896.134	3458
896.255	3443
896.376	3389
896.498	3351
896.619	3428
896.74	3355
896.861	3397
896.982	3610
897.103	3835
897.224	3542
897.345	3481
897.466	3473
897.587	3473
897.708	3629
897.828	3526
897.949	3443
898.07	3268
898.19	3416
898.311	3610
898.431	3450
898.552	3507
898.672	3595
898.792	3599
898.913	3515
899.033	3416
899.153	3237
899.273	3245
899.393	3287
899.513	3325
899.633	3317
899.753	3306
899.873	3287
899.993	3389
900.113	3313
900.232	3370
900.352	3332
900.472	3275
900.591	3192
900.711	3249
900.83	3233
900.95	3412
901.069	3492
901.189	3340
901.308	3195
901.427	3188
901.546	3195
901.665	3264
901.784	3321
901.904	3214
902.023	3157
902.141	2971
902.26	2979
902.379	3142
902.498	3085
902.617	3070
902.735	3207
902.854	3237
902.973	3173
903.091	2986
903.21	3062
903.328	3142
903.446	3089
903.565	3081
903.683	3214
903.801	3104
903.919	3222
904.038	3260
904.156	3218
904.274	3268
904.392	3245
904.51	3275
904.627	3298
904.745	3447
904.863	3492
904.981	3241
905.098	3188
905.216	3199
905.334	3283
905.451	3321
905.569	3264
905.686	3386
905.803	3389
905.921	3272
906.038	3439
906.155	3359
906.272	3275
906.389	3340
906.506	3237
906.623	3226
906.74	3310
906.857	3176
906.974	3237
907.091	3492
907.208	3580
907.324	3473
907.441	3348
907.557	3222
907.674	3260
907.79	3195
907.907	3268
908.023	3374
908.139	3363
908.256	3256
908.372	3355
908.488	3355
908.604	3272
908.72	3260
908.836	3237
908.952	3287
909.068	3317
909.184	3473
909.3	3374
909.415	3488
909.531	3462
909.647	3264
909.762	3310
909.878	3226
909.993	3351
910.108	3302
910.224	3306
910.339	3424
910.454	3359
910.57	3294
910.685	3264
910.8	3591
910.915	3511
911.03	3443
911.145	3275
911.259	3283
911.374	3329
911.489	3241
911.604	3218
911.718	3116
911.833	3199
911.947	3047
912.062	2986
912.176	3119
912.291	3169
912.405	3184
912.519	3412
912.633	3462
912.748	3348
912.862	3291
912.976	3161
913.09	3058
913.204	3135
913.318	3195
913.431	3336
913.545	3348
913.659	3443
913.772	3351
913.886	3256
914	3180
914.113	3363
914.226	3435
914.34	3370
914.453	3226
914.566	3382
914.68	3283
914.793	3279
914.906	3169
915.019	3112
915.132	3051
915.245	3184
915.358	3195
915.47	3230
915.583	3264
915.696	3287
915.809	3435
915.921	3439
916.034	3233
916.146	3237
916.259	3226
916.371	3367
916.483	3363
916.595	3302
916.708	3348
916.82	3329
916.932	3332
917.044	3344
917.156	3348
917.268	3264
917.38	3313
917.491	3336
917.603	3351
917.715	3424
917.826	3450
917.938	3351
918.049	3264
918.161	3409
918.272	3564
918.384	3568
918.495	3454
918.606	3306
918.717	3275
918.828	3351
918.939	3428
919.05	3306
919.161	3367
919.272	3180
919.383	3313
919.494	3504
919.604	3667
919.715	3466
919.826	3397
919.936	3428
920.047	3610
920.157	3511
920.267	3732
920.378	3610
920.488	3564
920.598	3785
920.708	3945
920.818	3838
920.928	3823
921.038	4040
921.148	3975
921.258	3732
921.368	3633
921.477	3584
921.587	3530
921.697	3462
921.806	3633
921.916	3526
922.025	3370
922.134	3325
922.244	3348
922.353	3412
922.462	3249
922.571	3245
922.68	3097
922.789	3077
922.898	3138
923.007	3077
923.116	3226
923.224	3218
923.333	3192
923.442	3112
923.55	3039
923.659	3127
923.767	3218
923.876	3074
923.984	3264
924.092	3085
924.201	3173
924.309	3192
924.417	3226
924.525	3214
924.633	3260
924.741	4002
924.849	3097
924.956	3241
925.064	3070
925.172	3085
925.279	3077
925.387	3180
925.494	3199
925.602	3344
925.709	3359
925.816	3199
925.924	3245
926.031	3382
926.138	3336
926.245	3355
926.352	3241
926.459	3424
926.566	3519
926.673	3310
926.779	3237
926.886	3226
926.993	3135
927.099	3131
927.206	3123
927.312	3077
927.419	3245
927.525	3192
927.631	3275
927.737	3150
927.843	3077
927.95	3024
928.056	3119
928.162	3150
928.267	3253
928.373	3884
928.479	3256
928.585	3093
928.69	3192
928.796	3294
928.901	3157
929.007	3070
929.112	3230
929.218	3176
929.323	3116
929.428	3157
929.533	3310
929.638	3058
929.743	3165
929.848	3249
929.953	3199
930.058	3119
930.163	3020
930.267	3055
930.372	3214
930.477	3020
930.581	3283
930.685	3142
930.79	3085
930.894	3131
930.998	3074
931.103	3272
931.207	2944
931.311	2937
931.415	2941
931.519	2792
931.623	2804
