Data from test_V78500241_952.txt Node
Date: Fri Mar 25 16:21:47 CST 2022
User: usil
Spectrometer: V785-0024
Trigger mode: 0
Integration Time (sec): 4.000000E-1
Scans to average: 1
Nonlinearity correction enabled: false
Boxcar width: 0
Storing dark spectrum: false
XAxis mode: Wavelengths
Number of Pixels in Spectrum: 1024
>>>>>Begin Spectral Data<<<<<
801.071	2918
801.214	2933
801.356	2857
801.499	2845
801.641	2819
801.783	2910
801.926	3070
802.068	2963
802.211	2975
802.353	3036
802.496	2922
802.638	2982
802.78	3043
802.923	3062
803.065	2994
803.208	2864
803.35	2918
803.492	2876
803.635	2887
803.777	2762
803.919	2830
804.061	3192
804.204	2990
804.346	2868
804.488	2845
804.63	2952
804.773	2857
804.915	2933
805.057	3074
805.199	2918
805.341	2952
805.483	3009
805.626	3005
805.768	2944
805.91	3070
806.052	3116
806.194	3032
806.336	3226
806.478	3017
806.62	2937
806.762	2975
806.904	3047
807.046	3173
807.188	2998
807.33	2933
807.472	2956
807.614	2883
807.756	2967
807.898	2941
808.04	2895
808.182	2986
808.324	3005
808.465	2872
808.607	2883
808.749	2785
808.891	2842
809.033	2963
809.174	2979
809.316	2876
809.458	2861
809.6	2766
809.741	2781
809.883	2800
810.025	2800
810.166	2842
810.308	2838
810.45	2853
810.591	2750
810.733	2754
810.875	2815
811.016	2792
811.158	2754
811.299	2781
811.441	2910
811.582	2902
811.724	2845
811.865	2834
812.007	2891
812.148	2868
812.29	2834
812.431	2872
812.573	2910
812.714	2929
812.855	3020
812.997	3066
813.138	3108
813.279	2963
813.421	2963
813.562	2967
813.703	2895
813.845	2910
813.986	2750
814.127	2735
814.268	2807
814.41	2838
814.551	2868
814.692	2868
814.833	2811
814.974	2910
815.115	2933
815.256	2804
815.397	2792
815.539	2811
815.68	2792
815.821	2769
815.962	2948
816.103	2918
816.244	2876
816.385	2872
816.526	2979
816.666	2895
816.807	2739
816.948	2868
817.089	2906
817.23	2838
817.371	2766
817.512	2781
817.653	2811
817.793	2830
817.934	2887
818.075	2956
818.216	2990
818.356	3013
818.497	2849
818.638	2777
818.778	2826
818.919	2796
819.06	2788
819.2	2895
819.341	2792
819.481	2815
819.622	2910
819.762	3062
819.903	3039
820.043	2922
820.184	2910
820.324	2922
820.465	2998
820.605	2982
820.746	3017
820.886	2918
821.026	3100
821.167	3195
821.307	3268
821.447	3275
821.588	3226
821.728	3245
821.868	3180
822.008	3066
822.149	3203
822.289	3230
822.429	3055
822.569	3066
822.709	3188
822.849	3028
822.99	3043
823.13	3188
823.27	3207
823.41	3097
823.55	3146
823.69	3150
823.83	3188
823.97	3066
824.11	2994
824.25	2963
824.389	3047
824.529	3100
824.669	3055
824.809	3214
824.949	3237
825.089	3211
825.228	3146
825.368	2967
825.508	2937
825.648	2979
825.787	2979
825.927	3020
826.067	2952
826.206	2960
826.346	3039
826.485	3077
826.625	3104
826.765	3279
826.904	3188
827.044	3001
827.183	2929
827.323	2902
827.462	2963
827.601	2906
827.741	2883
827.88	2971
828.02	2842
828.159	2960
828.298	3043
828.437	3055
828.577	3032
828.716	3249
828.855	3097
828.994	2887
829.134	2914
829.273	2937
829.412	2895
829.551	2842
829.69	2895
829.829	2956
829.968	3138
830.107	2967
830.246	3028
830.385	2937
830.524	2819
830.663	2811
830.802	2720
830.941	2644
831.08	2613
831.219	2762
831.357	2724
831.496	2979
831.635	2708
831.774	2648
831.913	2625
832.051	2564
832.19	2560
832.329	2632
832.467	2530
832.606	2495
832.744	2590
832.883	2598
833.022	2583
833.16	2629
833.299	2682
833.437	2667
833.576	2686
833.714	2727
833.852	2735
833.991	2754
834.129	2845
834.267	2842
834.406	2781
834.544	2823
834.682	2868
834.821	2887
834.959	3043
835.097	2838
835.235	3009
835.373	2967
835.511	2948
835.65	2956
835.788	2929
835.926	2834
836.064	2807
836.202	2845
836.34	3047
836.478	3131
836.615	3077
836.753	3127
836.891	3195
837.029	3161
837.167	3055
837.305	3077
837.443	3017
837.58	2960
837.718	3131
837.856	3066
837.993	2986
838.131	3074
838.269	3081
838.406	3104
838.544	3066
838.681	2910
838.819	2929
838.956	2804
839.094	2804
839.231	2902
839.369	3009
839.506	3351
839.643	3222
839.781	3028
839.918	2975
840.055	3036
840.193	3066
840.33	3089
840.467	3058
840.604	3150
840.742	3412
840.879	3028
841.016	3032
841.153	3100
841.29	3332
841.427	3256
841.564	3226
841.701	3287
841.838	3237
841.975	3161
842.112	3180
842.249	3077
842.385	3051
842.522	3230
842.659	3055
842.796	3043
842.933	3051
843.069	3074
843.206	3043
843.343	3173
843.479	3085
843.616	3123
843.752	2880
843.889	2857
844.025	3043
844.162	2880
844.298	3081
844.435	2933
844.571	2895
844.708	3062
844.844	3154
844.98	3203
845.117	3169
845.253	3043
845.389	2975
845.525	3097
845.661	3108
845.798	2998
845.934	3127
846.07	3051
846.206	3188
846.342	3298
846.478	3264
846.614	3051
846.75	3047
846.886	3009
847.022	3218
847.158	3135
847.294	3211
847.429	3233
847.565	3203
847.701	3450
847.837	2998
847.972	2994
848.108	3138
848.244	3135
848.379	3032
848.515	2956
848.65	2910
848.786	2963
848.921	3051
849.057	3108
849.192	3154
849.328	3039
849.463	3085
849.598	3077
849.734	3055
849.869	2979
850.004	2906
850.14	2971
850.275	2948
850.41	2834
850.545	2861
850.68	2922
850.815	2952
850.95	2937
851.085	3176
851.22	3085
851.355	3020
851.49	2948
851.625	2986
851.76	3001
851.895	2933
852.03	2941
852.165	3005
852.299	3039
852.434	3184
852.569	3135
852.703	3161
852.838	3211
852.973	3321
853.107	3321
853.242	3173
853.376	3066
853.511	2967
853.645	3036
853.78	3226
853.914	3104
854.048	3093
854.183	3093
854.317	3112
854.451	3272
854.585	3119
854.72	3043
854.854	3173
854.988	3036
855.122	3055
855.256	2933
855.39	3154
855.524	3211
855.658	3157
855.792	3142
855.926	3176
856.06	3207
856.194	3226
856.327	3176
856.461	3081
856.595	3100
856.729	3077
856.862	3199
856.996	3157
857.13	3218
857.263	3199
857.397	3256
857.53	3062
857.664	3169
857.797	3203
857.931	3264
858.064	3161
858.197	3214
858.331	3131
858.464	3066
858.597	2990
858.731	3097
858.864	3108
858.997	3081
859.13	3123
859.263	3195
859.396	3184
859.529	3039
859.662	3055
859.795	3039
859.928	3135
860.061	3260
860.194	3253
860.327	3127
860.46	3104
860.592	3214
860.725	3218
860.858	3230
860.99	3081
861.123	3036
861.256	3028
861.388	3138
861.521	3804
861.653	2990
861.786	2941
861.918	2937
862.05	3058
862.183	3100
862.315	3169
862.447	3188
862.58	3108
862.712	2971
862.844	2864
862.976	3017
863.108	2994
863.24	3454
863.372	2838
863.504	2998
863.636	2963
863.768	2998
863.9	2960
864.032	2910
864.164	2963
864.296	3013
864.428	3062
864.559	3093
864.691	3089
864.823	2979
864.954	3017
865.086	3028
865.217	2979
865.349	2918
865.48	2975
865.612	3001
865.743	3138
865.875	2960
866.006	2937
866.137	2952
866.269	2948
866.4	2952
866.531	2914
866.662	2880
866.793	2906
866.924	2937
867.055	2960
867.186	2929
867.317	2883
867.448	2849
867.579	2804
867.71	2826
867.841	2823
867.972	2887
868.103	2880
868.233	2872
868.364	2864
868.495	2887
868.625	3058
868.756	3131
868.886	2967
869.017	3028
869.147	3207
869.278	3195
869.408	3062
869.539	3028
869.669	3089
869.799	3017
869.929	3104
870.06	3119
870.19	3336
870.32	3279
870.45	3249
870.58	3382
870.71	3447
870.84	3485
870.97	3291
871.1	3199
871.23	3473
871.36	3447
871.489	3317
871.619	3401
871.749	3405
871.879	3443
872.008	3488
872.138	3355
872.267	3260
872.397	3138
872.526	3108
872.656	3009
872.785	3104
872.915	3233
873.044	3272
873.173	3214
873.303	3218
873.432	3237
873.561	3192
873.69	3150
873.819	3127
873.948	3192
874.077	3077
874.206	3001
874.335	3085
874.464	3188
874.593	3310
874.722	3253
874.851	3378
874.979	3294
875.108	3302
875.237	3165
875.365	3169
875.494	3146
875.623	3249
875.751	3081
875.88	3104
876.008	3173
876.136	3207
876.265	3359
876.393	3511
876.521	3435
876.65	3378
876.778	3275
876.906	3211
877.034	3169
877.162	3184
877.29	3169
877.418	3218
877.546	3230
877.674	3222
877.802	3230
877.93	3203
878.058	3142
878.185	3085
878.313	3199
878.441	3188
878.568	3104
878.696	3154
878.824	3233
878.951	3268
879.079	3447
879.206	3595
879.333	3431
879.461	3317
879.588	3363
879.715	3488
879.842	3576
879.97	3351
880.097	3176
880.224	3097
880.351	3173
880.478	3192
880.605	3222
880.732	3138
880.859	3466
880.986	3291
881.112	3310
881.239	3195
881.366	3108
881.493	3013
881.619	2986
881.746	3028
881.872	3085
881.999	3119
882.125	3119
882.252	3218
882.378	3298
882.505	3393
882.631	3291
882.757	3146
882.883	3192
883.01	3203
883.136	3135
883.262	3062
883.388	3131
883.514	3310
883.64	3359
883.766	3291
883.892	3214
884.018	3233
884.143	3424
884.269	3526
884.395	3180
884.52	3161
884.646	3176
884.772	3138
884.897	3089
885.023	3188
885.148	3275
885.274	3424
885.399	3310
885.524	3233
885.65	3287
885.775	3344
885.9	3298
886.025	3412
886.15	3332
886.275	3275
886.4	3237
886.525	3268
886.65	3279
886.775	3218
886.9	3523
887.025	3618
887.149	3416
887.274	3302
887.399	3192
887.523	3188
887.648	3161
887.773	3180
887.897	3340
888.021	3397
888.146	3306
888.27	3428
888.395	3530
888.519	3393
888.643	3454
888.767	3466
888.891	3329
889.015	3226
889.139	3294
889.263	3203
889.387	3386
889.511	3458
889.635	3397
889.759	3222
889.883	3245
890.006	3370
890.13	3454
890.254	3256
890.377	3306
890.501	3211
890.624	3165
890.748	3287
890.871	3176
890.995	3062
891.118	3062
891.241	3195
891.364	3214
891.488	3298
891.611	3123
891.734	3222
891.857	3294
891.98	3226
892.103	3332
892.226	3249
892.349	3161
892.471	3119
892.594	3268
892.717	3256
892.839	3218
892.962	3260
893.085	3321
893.207	3264
893.33	3146
893.452	3180
893.575	3313
893.697	3241
893.819	3428
893.941	3496
894.064	3405
894.186	3230
894.308	3287
894.43	3405
894.552	3549
894.674	3420
894.796	3249
894.918	3298
895.04	3302
895.161	3435
895.283	3344
895.405	3294
895.526	3367
895.648	3386
895.769	3409
895.891	3466
896.012	3454
896.134	3431
896.255	3416
896.376	3370
896.498	3378
896.619	3443
896.74	3348
896.861	3397
896.982	3690
897.103	3850
897.224	3576
897.345	3545
897.466	3469
897.587	3542
897.708	3610
897.828	3553
897.949	3443
898.07	3355
898.19	3416
898.311	3625
898.431	3477
898.552	3538
898.672	3568
898.792	3599
898.913	3504
899.033	3469
899.153	3298
899.273	3272
899.393	3256
899.513	3367
899.633	3340
899.753	3359
899.873	3340
899.993	3382
900.113	3389
900.232	3412
900.352	3397
900.472	3287
900.591	3233
900.711	3344
900.83	3325
900.95	3462
901.069	3519
901.189	3409
901.308	3192
901.427	3188
901.546	3211
901.665	3336
901.784	3367
901.904	3268
902.023	3173
902.141	3070
902.26	3032
902.379	3180
902.498	3097
902.617	3119
902.735	3241
902.854	3291
902.973	3218
903.091	3104
903.21	3135
903.328	3146
903.446	3165
903.565	3138
903.683	3214
903.801	3176
903.919	3256
904.038	3325
904.156	3199
904.274	3340
904.392	3222
904.51	3313
904.627	3378
904.745	3435
904.863	3568
904.981	3279
905.098	3226
905.216	3253
905.334	3344
905.451	3340
905.569	3367
905.686	3485
905.803	3469
905.921	3321
906.038	3466
906.155	3370
906.272	3321
906.389	3348
906.506	3272
906.623	3302
906.74	3302
906.857	3207
906.974	3279
907.091	3458
907.208	3572
907.324	3511
907.441	3439
907.557	3264
907.674	3241
907.79	3268
907.907	3294
908.023	3420
908.139	3363
908.256	3332
908.372	3416
908.488	3397
908.604	3264
908.72	3264
908.836	3310
908.952	3317
909.068	3382
909.184	3507
909.3	3431
909.415	3557
909.531	3500
909.647	3298
909.762	3348
909.878	3294
909.993	3405
910.108	3386
910.224	3283
910.339	3458
910.454	3374
910.57	3359
910.685	3313
910.8	3614
910.915	3572
911.03	3428
911.145	3287
911.259	3275
911.374	3367
911.489	3264
911.604	3279
911.718	3146
911.833	3146
911.947	3058
912.062	3036
912.176	3199
912.291	3241
912.405	3256
912.519	3469
912.633	3481
912.748	3351
912.862	3310
912.976	3184
913.09	3062
913.204	3165
913.318	3260
913.431	3325
913.545	3355
913.659	3481
913.772	3332
913.886	3291
914	3214
914.113	3359
914.226	3473
914.34	3409
914.453	3253
914.566	3428
914.68	3313
914.793	3370
914.906	3188
915.019	3138
915.132	3085
915.245	3230
915.358	3237
915.47	3272
915.583	3283
915.696	3317
915.809	3462
915.921	3500
916.034	3275
916.146	3310
916.259	3245
916.371	3435
916.483	3359
916.595	3329
916.708	3374
916.82	3355
916.932	3374
917.044	3393
917.156	3359
917.268	3294
917.38	3332
917.491	3336
917.603	3389
917.715	3454
917.826	3485
917.938	3447
918.049	3325
918.161	3492
918.272	3595
918.384	3614
918.495	3519
918.606	3351
918.717	3279
918.828	3443
918.939	3462
919.05	3317
919.161	3428
919.272	3161
919.383	3302
919.494	3523
919.604	3682
919.715	3545
919.826	3431
919.936	3458
920.047	3648
920.157	3599
920.267	3781
920.378	3633
920.488	3587
920.598	3819
920.708	3975
920.818	3831
920.928	3831
921.038	4040
921.148	4051
921.258	3701
921.368	3641
921.477	3599
921.587	3564
921.697	3469
921.806	3671
921.916	3538
922.025	3370
922.134	3389
922.244	3355
922.353	3477
922.462	3298
922.571	3253
922.68	3154
922.789	3131
922.898	3150
923.007	3100
923.116	3211
923.224	3211
923.333	3218
923.442	3154
923.55	3123
923.659	3157
923.767	3195
923.876	3138
923.984	3264
924.092	3146
924.201	3256
924.309	3230
924.417	3310
924.525	3237
924.633	3218
924.741	4181
924.849	3077
924.956	3317
925.064	3104
925.172	3066
925.279	3150
925.387	3218
925.494	3249
925.602	3439
925.709	3351
925.816	3245
925.924	3298
926.031	3401
926.138	3374
926.245	3397
926.352	3287
926.459	3409
926.566	3504
926.673	3389
926.779	3249
926.886	3283
926.993	3169
927.099	3116
927.206	3161
927.312	3119
927.419	3253
927.525	3241
927.631	3351
927.737	3154
927.843	3180
927.95	3047
928.056	3157
928.162	3199
928.267	3272
928.373	3892
928.479	3317
928.585	3081
928.69	3226
928.796	3268
928.901	3214
929.007	3074
929.112	3207
929.218	3203
929.323	3150
929.428	3150
929.533	3325
929.638	3135
929.743	3199
929.848	3272
929.953	3214
930.058	3169
930.163	3028
930.267	3081
930.372	3253
930.477	3028
930.581	3363
930.685	3188
930.79	3081
930.894	3127
930.998	3097
931.103	3287
931.207	2963
931.311	2979
931.415	2937
931.519	2815
931.623	2849
