Data from test_V78500241_1190.txt Node
Date: Fri Mar 25 16:23:26 CST 2022
User: usil
Spectrometer: V785-0024
Trigger mode: 0
Integration Time (sec): 4.000000E-1
Scans to average: 1
Nonlinearity correction enabled: false
Boxcar width: 0
Storing dark spectrum: false
XAxis mode: Wavelengths
Number of Pixels in Spectrum: 1024
>>>>>Begin Spectral Data<<<<<
801.071	2925
801.214	2925
801.356	2864
801.499	2880
801.641	2880
801.783	2922
801.926	3047
802.068	2975
802.211	2975
802.353	3024
802.496	2952
802.638	3032
802.78	3020
802.923	3085
803.065	3058
803.208	2872
803.35	2918
803.492	2902
803.635	2906
803.777	2788
803.919	2857
804.061	3173
804.204	2922
804.346	2918
804.488	2826
804.63	2963
804.773	2853
804.915	2899
805.057	3085
805.199	2910
805.341	2986
805.483	3043
805.626	2979
805.768	3005
805.91	3089
806.052	3100
806.194	3058
806.336	3260
806.478	2986
806.62	2994
806.762	2948
806.904	3024
807.046	3146
807.188	2982
807.33	2914
807.472	2986
807.614	2910
807.756	3028
807.898	2906
808.04	2899
808.182	2971
808.324	2925
808.465	2895
808.607	2880
808.749	2804
808.891	2857
809.033	2963
809.174	2994
809.316	2910
809.458	2906
809.6	2781
809.741	2766
809.883	2777
810.025	2819
810.166	2823
810.308	2800
810.45	2842
810.591	2762
810.733	2773
810.875	2834
811.016	2804
811.158	2754
811.299	2826
811.441	2910
811.582	2895
811.724	2834
811.865	2842
812.007	2887
812.148	2857
812.29	2807
812.431	2864
812.573	2960
812.714	2952
812.855	3047
812.997	3058
813.138	3112
813.279	2975
813.421	2967
813.562	2937
813.703	2861
813.845	2914
813.986	2773
814.127	2708
814.268	2781
814.41	2868
814.551	2811
814.692	2845
814.833	2788
814.974	2880
815.115	2929
815.256	2834
815.397	2796
815.539	2864
815.68	2762
815.821	2750
815.962	2925
816.103	2922
816.244	2868
816.385	2872
816.526	2937
816.666	2914
816.807	2701
816.948	2872
817.089	2941
817.23	2876
817.371	2743
817.512	2766
817.653	2849
817.793	2811
817.934	2861
818.075	2941
818.216	3009
818.356	2998
818.497	2868
818.638	2796
818.778	2834
818.919	2823
819.06	2762
819.2	2887
819.341	2792
819.481	2800
819.622	2914
819.762	3070
819.903	3039
820.043	2933
820.184	2880
820.324	2887
820.465	3005
820.605	3024
820.746	3036
820.886	2895
821.026	3097
821.167	3157
821.307	3291
821.447	3245
821.588	3253
821.728	3157
821.868	3184
822.008	3051
822.149	3161
822.289	3237
822.429	3043
822.569	3108
822.709	3173
822.849	3024
822.99	3085
823.13	3165
823.27	3150
823.41	3089
823.55	3127
823.69	3142
823.83	3157
823.97	3066
824.11	3013
824.25	2982
824.389	3047
824.529	3116
824.669	3043
824.809	3161
824.949	3233
825.089	3222
825.228	3154
825.368	2986
825.508	2952
825.648	2937
825.787	3020
825.927	3005
826.067	2952
826.206	2899
826.346	3062
826.485	3024
826.625	3116
826.765	3245
826.904	3173
827.044	2990
827.183	2902
827.323	2880
827.462	2979
827.601	2906
827.741	2918
827.88	2979
828.02	2857
828.159	2956
828.298	3013
828.437	3123
828.577	3043
828.716	3275
828.855	3081
828.994	2906
829.134	2880
829.273	2899
829.412	2864
829.551	2857
829.69	2887
829.829	2979
829.968	3112
830.107	2982
830.246	2998
830.385	2906
830.524	2891
830.663	2800
830.802	2724
830.941	2670
831.08	2621
831.219	2746
831.357	2754
831.496	2956
831.635	2724
831.774	2648
831.913	2629
832.051	2552
832.19	2575
832.329	2712
832.467	2518
832.606	2473
832.744	2533
832.883	2571
833.022	2575
833.16	2625
833.299	2674
833.437	2682
833.576	2686
833.714	2693
833.852	2712
833.991	2735
834.129	2811
834.267	2830
834.406	2773
834.544	2876
834.682	2861
834.821	2830
834.959	3039
835.097	2891
835.235	3066
835.373	2979
835.511	2998
835.65	2929
835.788	2971
835.926	2800
836.064	2804
836.202	2788
836.34	3077
836.478	3157
836.615	3036
836.753	3108
836.891	3195
837.029	3123
837.167	3077
837.305	3047
837.443	3017
837.58	2952
837.718	3154
837.856	3104
837.993	3013
838.131	3089
838.269	3089
838.406	3127
838.544	3077
838.681	2933
838.819	2918
838.956	2811
839.094	2861
839.231	2887
839.369	3005
839.506	3348
839.643	3203
839.781	2982
839.918	2952
840.055	3070
840.193	3043
840.33	3051
840.467	3104
840.604	3138
840.742	3370
840.879	2990
841.016	3058
841.153	3104
841.29	3313
841.427	3294
841.564	3241
841.701	3298
841.838	3188
841.975	3180
842.112	3222
842.249	3036
842.385	3036
842.522	3256
842.659	3070
842.796	3032
842.933	3089
843.069	3024
843.206	3032
843.343	3207
843.479	3093
843.616	3127
843.752	2906
843.889	2891
844.025	3051
844.162	2872
844.298	3055
844.435	2963
844.571	2887
844.708	3081
844.844	3154
844.98	3245
845.117	3173
845.253	3039
845.389	2979
845.525	3127
845.661	3093
845.798	3020
845.934	3097
846.07	3062
846.206	3169
846.342	3272
846.478	3188
846.614	3100
846.75	3047
846.886	3013
847.022	3207
847.158	3093
847.294	3176
847.429	3226
847.565	3192
847.701	3481
847.837	3070
847.972	2986
848.108	3180
848.244	3146
848.379	3005
848.515	2929
848.65	2922
848.786	2982
848.921	2979
849.057	3058
849.192	3161
849.328	3062
849.463	3089
849.598	3043
849.734	3020
849.869	2990
850.004	2937
850.14	2944
850.275	2895
850.41	2807
850.545	2857
850.68	2944
850.815	2956
850.95	2986
851.085	3142
851.22	3074
851.355	3036
851.49	2963
851.625	2982
851.76	2990
851.895	2902
852.03	2895
852.165	3020
852.299	3100
852.434	3176
852.569	3131
852.703	3184
852.838	3249
852.973	3340
853.107	3313
853.242	3157
853.376	3070
853.511	2960
853.645	3032
853.78	3199
853.914	3104
854.048	3074
854.183	3074
854.317	3146
854.451	3272
854.585	3154
854.72	3058
854.854	3188
854.988	3047
855.122	3058
855.256	2918
855.39	3116
855.524	3222
855.658	3154
855.792	3154
855.926	3192
856.06	3211
856.194	3245
856.327	3169
856.461	3062
856.595	3097
856.729	3077
856.862	3184
856.996	3123
857.13	3218
857.263	3253
857.397	3283
857.53	3112
857.664	3184
857.797	3218
857.931	3249
858.064	3150
858.197	3184
858.331	3112
858.464	3104
858.597	3009
858.731	3131
858.864	3135
858.997	3074
859.13	3173
859.263	3138
859.396	3192
859.529	3074
859.662	3077
859.795	3055
859.928	3131
860.061	3253
860.194	3287
860.327	3142
860.46	3093
860.592	3218
860.725	3256
860.858	3230
860.99	3062
861.123	3062
861.256	3058
861.388	3116
861.521	3656
861.653	3001
861.786	2975
861.918	2982
862.05	3028
862.183	3108
862.315	3192
862.447	3188
862.58	3097
862.712	2937
862.844	2883
862.976	3005
863.108	2986
863.24	3287
863.372	2895
863.504	2967
863.636	2922
863.768	3055
863.9	2956
864.032	2899
864.164	2906
864.296	3017
864.428	3047
864.559	3081
864.691	3070
864.823	3028
864.954	3036
865.086	3028
865.217	2960
865.349	2960
865.48	2994
865.612	3032
865.743	3116
865.875	2979
866.006	2925
866.137	2937
866.269	2929
866.4	2937
866.531	2918
866.662	2842
866.793	2868
866.924	2891
867.055	2956
867.186	2906
867.317	2849
867.448	2838
867.579	2838
867.71	2834
867.841	2781
867.972	2887
868.103	2891
868.233	2849
868.364	2868
868.495	2899
868.625	3070
868.756	3142
868.886	2948
869.017	3005
869.147	3135
869.278	3131
869.408	3013
869.539	3032
869.669	3097
869.799	3032
869.929	3119
870.06	3123
870.19	3310
870.32	3279
870.45	3340
870.58	3363
870.71	3447
870.84	3454
870.97	3291
871.1	3253
871.23	3428
871.36	3462
871.489	3340
871.619	3355
871.749	3374
871.879	3439
872.008	3469
872.138	3329
872.267	3260
872.397	3146
872.526	3070
872.656	3032
872.785	3108
872.915	3241
873.044	3313
873.173	3214
873.303	3237
873.432	3226
873.561	3218
873.69	3138
873.819	3127
873.948	3180
874.077	3108
874.206	3009
874.335	3093
874.464	3184
874.593	3348
874.722	3188
874.851	3382
874.979	3332
875.108	3313
875.237	3146
875.365	3127
875.494	3131
875.623	3237
875.751	3058
875.88	3123
876.008	3173
876.136	3245
876.265	3382
876.393	3500
876.521	3378
876.65	3389
876.778	3344
876.906	3207
877.034	3176
877.162	3233
877.29	3188
877.418	3287
877.546	3237
877.674	3214
877.802	3233
877.93	3222
878.058	3135
878.185	3108
878.313	3237
878.441	3207
878.568	3062
878.696	3116
878.824	3222
878.951	3306
879.079	3386
879.206	3625
879.333	3428
879.461	3317
879.588	3374
879.715	3504
879.842	3591
879.97	3405
880.097	3157
880.224	3142
880.351	3218
880.478	3241
880.605	3165
880.732	3184
880.859	3504
880.986	3264
881.112	3313
881.239	3192
881.366	3112
881.493	3043
881.619	3009
881.746	3077
881.872	3089
881.999	3058
882.125	3173
882.252	3241
882.378	3321
882.505	3416
882.631	3275
882.757	3146
882.883	3180
883.01	3203
883.136	3150
883.262	3104
883.388	3097
883.514	3317
883.64	3348
883.766	3298
883.892	3184
884.018	3230
884.143	3374
884.269	3542
884.395	3218
884.52	3127
884.646	3207
884.772	3104
884.897	3131
885.023	3203
885.148	3329
885.274	3386
885.399	3374
885.524	3287
885.65	3264
885.775	3317
885.9	3325
886.025	3420
886.15	3321
886.275	3336
886.4	3233
886.525	3272
886.65	3279
886.775	3260
886.9	3507
887.025	3606
887.149	3393
887.274	3245
887.399	3150
887.523	3214
887.648	3176
887.773	3142
887.897	3359
888.021	3412
888.146	3260
888.27	3481
888.395	3515
888.519	3477
888.643	3443
888.767	3454
888.891	3291
889.015	3249
889.139	3302
889.263	3218
889.387	3412
889.511	3485
889.635	3439
889.759	3298
889.883	3283
890.006	3397
890.13	3504
890.254	3264
890.377	3332
890.501	3195
890.624	3173
890.748	3222
890.871	3195
890.995	3077
891.118	3043
891.241	3192
891.364	3237
891.488	3287
891.611	3180
891.734	3230
891.857	3268
891.98	3211
892.103	3298
892.226	3260
892.349	3241
892.471	3135
892.594	3241
892.717	3241
892.839	3233
892.962	3245
893.085	3359
893.207	3287
893.33	3093
893.452	3173
893.575	3359
893.697	3237
893.819	3469
893.941	3530
894.064	3447
894.186	3245
894.308	3264
894.43	3439
894.552	3504
894.674	3443
894.796	3233
894.918	3321
895.04	3245
895.161	3431
895.283	3374
895.405	3275
895.526	3374
895.648	3428
895.769	3378
895.891	3447
896.012	3488
896.134	3443
896.255	3382
896.376	3401
896.498	3367
896.619	3443
896.74	3344
896.861	3405
896.982	3694
897.103	3842
897.224	3587
897.345	3504
897.466	3435
897.587	3462
897.708	3633
897.828	3538
897.949	3428
898.07	3332
898.19	3420
898.311	3629
898.431	3428
898.552	3519
898.672	3595
898.792	3542
898.913	3545
899.033	3439
899.153	3294
899.273	3218
899.393	3237
899.513	3313
899.633	3310
899.753	3294
899.873	3291
899.993	3336
900.113	3325
900.232	3412
900.352	3344
900.472	3279
900.591	3214
900.711	3283
900.83	3264
900.95	3416
901.069	3481
901.189	3344
901.308	3165
901.427	3108
901.546	3119
901.665	3249
901.784	3340
901.904	3199
902.023	3131
902.141	3001
902.26	3017
902.379	3116
902.498	3081
902.617	3051
902.735	3184
902.854	3214
902.973	3184
903.091	3062
903.21	3074
903.328	3135
903.446	3157
903.565	3085
903.683	3146
903.801	3146
903.919	3226
904.038	3321
904.156	3180
904.274	3294
904.392	3214
904.51	3291
904.627	3351
904.745	3431
904.863	3496
904.981	3222
905.098	3169
905.216	3226
905.334	3325
905.451	3279
905.569	3264
905.686	3469
905.803	3397
905.921	3298
906.038	3370
906.155	3313
906.272	3287
906.389	3260
906.506	3253
906.623	3275
906.74	3275
906.857	3188
906.974	3226
907.091	3420
907.208	3542
907.324	3481
907.441	3367
907.557	3226
907.674	3241
907.79	3211
907.907	3256
908.023	3351
908.139	3329
908.256	3344
908.372	3374
908.488	3348
908.604	3245
908.72	3241
908.836	3332
908.952	3294
909.068	3355
909.184	3511
909.3	3431
909.415	3492
909.531	3450
909.647	3275
909.762	3268
909.878	3256
909.993	3329
910.108	3332
910.224	3306
910.339	3363
910.454	3317
910.57	3306
910.685	3256
910.8	3584
910.915	3507
911.03	3439
911.145	3275
911.259	3287
911.374	3310
911.489	3230
911.604	3207
911.718	3108
911.833	3138
911.947	2994
912.062	2956
912.176	3184
912.291	3211
912.405	3180
912.519	3428
912.633	3473
912.748	3317
912.862	3294
912.976	3180
913.09	3058
913.204	3135
913.318	3203
913.431	3283
913.545	3363
913.659	3374
913.772	3313
913.886	3233
914	3230
914.113	3336
914.226	3431
914.34	3340
914.453	3192
914.566	3412
914.68	3275
914.793	3283
914.906	3116
915.019	3104
915.132	3058
915.245	3192
915.358	3199
915.47	3222
915.583	3268
915.696	3275
915.809	3389
915.921	3393
916.034	3275
916.146	3211
916.259	3195
916.371	3378
916.483	3378
916.595	3256
916.708	3351
916.82	3348
916.932	3344
917.044	3332
917.156	3348
917.268	3237
917.38	3302
917.491	3291
917.603	3378
917.715	3412
917.826	3431
917.938	3367
918.049	3256
918.161	3412
918.272	3568
918.384	3584
918.495	3485
918.606	3302
918.717	3283
918.828	3359
918.939	3420
919.05	3294
919.161	3393
919.272	3195
919.383	3298
919.494	3507
919.604	3694
919.715	3485
919.826	3389
919.936	3458
920.047	3603
920.157	3557
920.267	3736
920.378	3564
920.488	3530
920.598	3762
920.708	3987
920.818	3850
920.928	3800
921.038	4002
921.148	4036
921.258	3740
921.368	3652
921.477	3584
921.587	3477
921.697	3447
921.806	3641
921.916	3534
922.025	3378
922.134	3367
922.244	3291
922.353	3409
922.462	3218
922.571	3199
922.68	3085
922.789	3100
922.898	3119
923.007	3131
923.116	3150
923.224	3131
923.333	3203
923.442	3104
923.55	3074
923.659	3131
923.767	3192
923.876	3119
923.984	3260
924.092	3104
924.201	3195
924.309	3188
924.417	3268
924.525	3184
924.633	3279
924.741	4002
924.849	3028
924.956	3214
925.064	3104
925.172	3070
925.279	3074
925.387	3157
925.494	3203
925.602	3340
925.709	3302
925.816	3230
925.924	3317
926.031	3348
926.138	3340
926.245	3382
926.352	3237
926.459	3420
926.566	3477
926.673	3268
926.779	3287
926.886	3237
926.993	3142
927.099	3119
927.206	3119
927.312	3131
927.419	3218
927.525	3256
927.631	3283
927.737	3119
927.843	3131
927.95	3009
928.056	3154
928.162	3176
928.267	3291
928.373	3835
928.479	3332
928.585	3055
928.69	3211
928.796	3264
928.901	3135
929.007	3051
929.112	3195
929.218	3161
929.323	3131
929.428	3135
929.533	3302
929.638	3093
929.743	3150
929.848	3199
929.953	3195
930.058	3150
930.163	2990
930.267	3032
930.372	3188
930.477	2982
930.581	3302
930.685	3180
930.79	3055
930.894	3104
930.998	3119
931.103	3279
931.207	2960
931.311	2960
931.415	2910
931.519	2800
931.623	2826
