Data from test_V78500241_220.txt Node
Date: Fri Mar 25 16:16:43 CST 2022
User: usil
Spectrometer: V785-0024
Trigger mode: 0
Integration Time (sec): 4.000000E-1
Scans to average: 1
Nonlinearity correction enabled: false
Boxcar width: 0
Storing dark spectrum: false
XAxis mode: Wavelengths
Number of Pixels in Spectrum: 1024
>>>>>Begin Spectral Data<<<<<
801.071	2933
801.214	3005
801.356	2872
801.499	2933
801.641	2895
801.783	2952
801.926	3058
802.068	3028
802.211	3036
802.353	3074
802.496	2998
802.638	2979
802.78	3058
802.923	3119
803.065	3024
803.208	2941
803.35	2963
803.492	2975
803.635	2948
803.777	2777
803.919	2883
804.061	3233
804.204	2967
804.346	2899
804.488	2834
804.63	2979
804.773	2895
804.915	2952
805.057	3070
805.199	2979
805.341	2956
805.483	3020
805.626	2994
805.768	2956
805.91	3119
806.052	3127
806.194	3047
806.336	3260
806.478	2990
806.62	2990
806.762	2960
806.904	3062
807.046	3161
807.188	3013
807.33	2902
807.472	3013
807.614	2925
807.756	2979
807.898	2937
808.04	2864
808.182	2967
808.324	2979
808.465	2899
808.607	2891
808.749	2823
808.891	2876
809.033	2975
809.174	2990
809.316	2876
809.458	2883
809.6	2777
809.741	2773
809.883	2762
810.025	2887
810.166	2857
810.308	2868
810.45	2891
810.591	2788
810.733	2758
810.875	2788
811.016	2777
811.158	2750
811.299	2792
811.441	2933
811.582	2876
811.724	2849
811.865	2842
812.007	2895
812.148	2891
812.29	2823
812.431	2876
812.573	2948
812.714	2982
812.855	3066
812.997	3081
813.138	3104
813.279	3009
813.421	3005
813.562	2979
813.703	2864
813.845	2929
813.986	2766
814.127	2727
814.268	2842
814.41	2834
814.551	2807
814.692	2857
814.833	2845
814.974	2895
815.115	2967
815.256	2826
815.397	2811
815.539	2876
815.68	2766
815.821	2811
815.962	2925
816.103	2944
816.244	2845
816.385	2880
816.526	2960
816.666	2944
816.807	2746
816.948	2891
817.089	2887
817.23	2861
817.371	2743
817.512	2788
817.653	2872
817.793	2864
817.934	2876
818.075	2952
818.216	2994
818.356	3085
818.497	2914
818.638	2777
818.778	2811
818.919	2815
819.06	2788
819.2	2891
819.341	2800
819.481	2826
819.622	2925
819.762	3100
819.903	3028
820.043	2899
820.184	2876
820.324	2887
820.465	3009
820.605	3032
820.746	2982
820.886	2929
821.026	3123
821.167	3161
821.307	3294
821.447	3275
821.588	3241
821.728	3218
821.868	3207
822.008	3077
822.149	3222
822.289	3264
822.429	3100
822.569	3123
822.709	3214
822.849	3070
822.99	3093
823.13	3226
823.27	3260
823.41	3131
823.55	3199
823.69	3176
823.83	3233
823.97	3108
824.11	3028
824.25	3039
824.389	3123
824.529	3176
824.669	3089
824.809	3268
824.949	3313
825.089	3253
825.228	3192
825.368	3047
825.508	3009
825.648	2986
825.787	3032
825.927	3043
826.067	3020
826.206	2998
826.346	3108
826.485	3119
826.625	3165
826.765	3291
826.904	3264
827.044	3028
827.183	2967
827.323	2914
827.462	3047
827.601	2944
827.741	2979
827.88	2990
828.02	2887
828.159	3005
828.298	3142
828.437	3199
828.577	3097
828.716	3298
828.855	3119
828.994	2982
829.134	2910
829.273	2982
829.412	2933
829.551	2906
829.69	2929
829.829	3047
829.968	3222
830.107	3066
830.246	3074
830.385	2967
830.524	2902
830.663	2864
830.802	2800
830.941	2727
831.08	2705
831.219	2811
831.357	2815
831.496	3001
831.635	2773
831.774	2705
831.913	2705
832.051	2594
832.19	2613
832.329	2731
832.467	2590
832.606	2541
832.744	2613
832.883	2571
833.022	2648
833.16	2693
833.299	2712
833.437	2689
833.576	2743
833.714	2815
833.852	2823
833.991	2811
834.129	2819
834.267	2853
834.406	2864
834.544	2933
834.682	2941
834.821	2887
834.959	3131
835.097	2948
835.235	3104
835.373	3043
835.511	3032
835.65	3009
835.788	3001
835.926	2880
836.064	2849
836.202	2857
836.34	3135
836.478	3199
836.615	3116
836.753	3192
836.891	3245
837.029	3188
837.167	3161
837.305	3116
837.443	3039
837.58	2998
837.718	3207
837.856	3154
837.993	3024
838.131	3123
838.269	3173
838.406	3142
838.544	3104
838.681	3009
838.819	2948
838.956	2830
839.094	2876
839.231	2967
839.369	3066
839.506	3397
839.643	3245
839.781	3089
839.918	3028
840.055	3077
840.193	3081
840.33	3100
840.467	3146
840.604	3203
840.742	3431
840.879	3100
841.016	3089
841.153	3150
841.29	3378
841.427	3374
841.564	3313
841.701	3359
841.838	3256
841.975	3214
842.112	3253
842.249	3116
842.385	3089
842.522	3336
842.659	3142
842.796	3089
842.933	3157
843.069	3085
843.206	3066
843.343	3222
843.479	3192
843.616	3176
843.752	2925
843.889	2952
844.025	3127
844.162	2929
844.298	3116
844.435	3005
844.571	2941
844.708	3127
844.844	3226
844.98	3283
845.117	3241
845.253	3112
845.389	3055
845.525	3169
845.661	3138
845.798	3005
845.934	3146
846.07	3097
846.206	3233
846.342	3355
846.478	3268
846.614	3138
846.75	3089
846.886	3058
847.022	3291
847.158	3195
847.294	3211
847.429	3310
847.565	3230
847.701	3519
847.837	3070
847.972	3039
848.108	3199
848.244	3199
848.379	3028
848.515	2967
848.65	2956
848.786	2986
848.921	3043
849.057	3154
849.192	3184
849.328	3146
849.463	3135
849.598	3081
849.734	3097
849.869	3028
850.004	2944
850.14	3047
850.275	2986
850.41	2880
850.545	2933
850.68	2956
850.815	2990
850.95	3005
851.085	3233
851.22	3154
851.355	3100
851.49	3036
851.625	3028
851.76	3036
851.895	2982
852.03	2929
852.165	3093
852.299	3146
852.434	3199
852.569	3173
852.703	3253
852.838	3268
852.973	3378
853.107	3363
853.242	3176
853.376	3146
853.511	3009
853.645	3051
853.78	3268
853.914	3142
854.048	3165
854.183	3157
854.317	3218
854.451	3317
854.585	3131
854.72	3123
854.854	3214
854.988	3077
855.122	3100
855.256	2967
855.39	3165
855.524	3283
855.658	3230
855.792	3214
855.926	3253
856.06	3268
856.194	3294
856.327	3218
856.461	3123
856.595	3108
856.729	3119
856.862	3237
856.996	3180
857.13	3237
857.263	3245
857.397	3332
857.53	3173
857.664	3203
857.797	3272
857.931	3325
858.064	3188
858.197	3233
858.331	3173
858.464	3142
858.597	3009
858.731	3146
858.864	3173
858.997	3112
859.13	3218
859.263	3214
859.396	3195
859.529	3104
859.662	3077
859.795	3077
859.928	3173
860.061	3310
860.194	3317
860.327	3176
860.46	3135
860.592	3256
860.725	3283
860.858	3260
860.99	3157
861.123	3077
861.256	3074
861.388	3218
861.521	3888
861.653	3074
861.786	3032
861.918	3062
862.05	3074
862.183	3150
862.315	3211
862.447	3211
862.58	3116
862.712	2990
862.844	2933
862.976	3039
863.108	3043
863.24	3412
863.372	2918
863.504	2982
863.636	2975
863.768	3066
863.9	3017
864.032	2948
864.164	3001
864.296	3051
864.428	3146
864.559	3123
864.691	3108
864.823	3112
864.954	3055
865.086	3066
865.217	3028
865.349	2948
865.48	3001
865.612	3032
865.743	3173
865.875	3020
866.006	2986
866.137	3013
866.269	2979
866.4	2975
866.531	2952
866.662	2918
866.793	2914
866.924	2902
867.055	3009
867.186	2998
867.317	2883
867.448	2895
867.579	2849
867.71	2922
867.841	2830
867.972	2906
868.103	2910
868.233	2918
868.364	2937
868.495	2937
868.625	3085
868.756	3211
868.886	2990
869.017	3039
869.147	3233
869.278	3192
869.408	3097
869.539	3058
869.669	3165
869.799	3055
869.929	3138
870.06	3138
870.19	3363
870.32	3336
870.45	3340
870.58	3401
870.71	3450
870.84	3454
870.97	3306
871.1	3283
871.23	3496
871.36	3523
871.489	3348
871.619	3439
871.749	3431
871.879	3473
872.008	3511
872.138	3382
872.267	3291
872.397	3165
872.526	3104
872.656	3081
872.785	3161
872.915	3226
873.044	3348
873.173	3233
873.303	3283
873.432	3298
873.561	3298
873.69	3195
873.819	3184
873.948	3207
874.077	3123
874.206	3055
874.335	3077
874.464	3253
874.593	3393
874.722	3279
874.851	3420
874.979	3363
875.108	3355
875.237	3207
875.365	3207
875.494	3214
875.623	3275
875.751	3104
875.88	3154
876.008	3226
876.136	3264
876.265	3393
876.393	3538
876.521	3447
876.65	3397
876.778	3374
876.906	3313
877.034	3214
877.162	3272
877.29	3203
877.418	3313
877.546	3253
877.674	3306
877.802	3253
877.93	3256
878.058	3211
878.185	3100
878.313	3233
878.441	3241
878.568	3127
878.696	3150
878.824	3313
878.951	3310
879.079	3466
879.206	3652
879.333	3454
879.461	3332
879.588	3340
879.715	3500
879.842	3599
879.97	3431
880.097	3157
880.224	3138
880.351	3207
880.478	3249
880.605	3245
880.732	3165
880.859	3492
880.986	3310
881.112	3351
881.239	3264
881.366	3112
881.493	3093
881.619	3036
881.746	3093
881.872	3123
881.999	3104
882.125	3207
882.252	3272
882.378	3321
882.505	3485
882.631	3332
882.757	3138
882.883	3253
883.01	3241
883.136	3199
883.262	3142
883.388	3123
883.514	3367
883.64	3382
883.766	3370
883.892	3260
884.018	3245
884.143	3401
884.269	3587
884.395	3180
884.52	3176
884.646	3192
884.772	3131
884.897	3104
885.023	3218
885.148	3367
885.274	3439
885.399	3397
885.524	3302
885.65	3298
885.775	3321
885.9	3306
886.025	3458
886.15	3409
886.275	3332
886.4	3260
886.525	3310
886.65	3283
886.775	3275
886.9	3564
887.025	3644
887.149	3435
887.274	3275
887.399	3211
887.523	3207
887.648	3211
887.773	3237
887.897	3405
888.021	3420
888.146	3294
888.27	3443
888.395	3568
888.519	3466
888.643	3477
888.767	3458
888.891	3344
889.015	3214
889.139	3325
889.263	3249
889.387	3473
889.511	3530
889.635	3424
889.759	3268
889.883	3310
890.006	3409
890.13	3485
890.254	3306
890.377	3317
890.501	3195
890.624	3272
890.748	3317
890.871	3249
890.995	3112
891.118	3089
891.241	3233
891.364	3237
891.488	3386
891.611	3199
891.734	3249
891.857	3294
891.98	3253
892.103	3325
892.226	3306
892.349	3226
892.471	3112
892.594	3260
892.717	3329
892.839	3272
892.962	3298
893.085	3397
893.207	3321
893.33	3188
893.452	3218
893.575	3355
893.697	3279
893.819	3504
893.941	3500
894.064	3477
894.186	3279
894.308	3294
894.43	3420
894.552	3538
894.674	3515
894.796	3294
894.918	3340
895.04	3321
895.161	3473
895.283	3405
895.405	3344
895.526	3374
895.648	3431
895.769	3424
895.891	3485
896.012	3496
896.134	3469
896.255	3412
896.376	3405
896.498	3382
896.619	3462
896.74	3409
896.861	3420
896.982	3743
897.103	3880
897.224	3618
897.345	3545
897.466	3466
897.587	3507
897.708	3682
897.828	3610
897.949	3469
898.07	3332
898.19	3416
898.311	3625
898.431	3443
898.552	3553
898.672	3622
898.792	3637
898.913	3523
899.033	3447
899.153	3298
899.273	3222
899.393	3310
899.513	3321
899.633	3355
899.753	3359
899.873	3329
899.993	3409
900.113	3382
900.232	3382
900.352	3340
900.472	3294
900.591	3233
900.711	3336
900.83	3264
900.95	3447
901.069	3515
901.189	3382
901.308	3192
901.427	3146
901.546	3226
901.665	3268
901.784	3336
901.904	3245
902.023	3112
902.141	3051
902.26	3017
902.379	3195
902.498	3108
902.617	3055
902.735	3222
902.854	3275
902.973	3222
903.091	3097
903.21	3142
903.328	3142
903.446	3077
903.565	3100
903.683	3207
903.801	3157
903.919	3233
904.038	3287
904.156	3188
904.274	3310
904.392	3272
904.51	3329
904.627	3374
904.745	3435
904.863	3526
904.981	3256
905.098	3192
905.216	3253
905.334	3291
905.451	3321
905.569	3336
905.686	3443
905.803	3462
905.921	3264
906.038	3443
906.155	3340
906.272	3291
906.389	3329
906.506	3245
906.623	3287
906.74	3291
906.857	3192
906.974	3275
907.091	3454
907.208	3614
907.324	3496
907.441	3431
907.557	3256
907.674	3245
907.79	3260
907.907	3317
908.023	3382
908.139	3370
908.256	3332
908.372	3401
908.488	3382
908.604	3245
908.72	3275
908.836	3302
908.952	3283
909.068	3363
909.184	3466
909.3	3382
909.415	3492
909.531	3469
909.647	3302
909.762	3294
909.878	3253
909.993	3329
910.108	3355
910.224	3378
910.339	3466
910.454	3351
910.57	3260
910.685	3283
910.8	3603
910.915	3530
911.03	3435
911.145	3279
911.259	3260
911.374	3340
911.489	3294
911.604	3260
911.718	3123
911.833	3116
911.947	3070
912.062	3024
912.176	3184
912.291	3199
912.405	3233
912.519	3443
912.633	3504
912.748	3348
912.862	3264
912.976	3173
913.09	3039
913.204	3116
913.318	3230
913.431	3344
913.545	3363
913.659	3447
913.772	3367
913.886	3222
914	3192
914.113	3344
914.226	3466
914.34	3397
914.453	3222
914.566	3409
914.68	3313
914.793	3313
914.906	3184
915.019	3135
915.132	3127
915.245	3199
915.358	3291
915.47	3272
915.583	3222
915.696	3298
915.809	3389
915.921	3431
916.034	3321
916.146	3302
916.259	3256
916.371	3367
916.483	3386
916.595	3283
916.708	3344
916.82	3397
916.932	3401
917.044	3310
917.156	3351
917.268	3241
917.38	3291
917.491	3321
917.603	3363
917.715	3439
917.826	3492
917.938	3416
918.049	3264
918.161	3469
918.272	3595
918.384	3587
918.495	3485
918.606	3351
918.717	3317
918.828	3386
918.939	3424
919.05	3332
919.161	3389
919.272	3173
919.383	3268
919.494	3542
919.604	3698
919.715	3507
919.826	3412
919.936	3443
920.047	3576
920.157	3534
920.267	3781
920.378	3610
920.488	3530
920.598	3800
920.708	3949
920.818	3876
920.928	3838
921.038	3975
921.148	4017
921.258	3701
921.368	3633
921.477	3599
921.587	3523
921.697	3469
921.806	3671
921.916	3553
922.025	3344
922.134	3397
922.244	3367
922.353	3431
922.462	3287
922.571	3268
922.68	3116
922.789	3100
922.898	3138
923.007	3104
923.116	3226
923.224	3184
923.333	3207
923.442	3093
923.55	3108
923.659	3192
923.767	3207
923.876	3135
923.984	3199
924.092	3146
924.201	3203
924.309	3237
924.417	3260
924.525	3211
924.633	3203
924.741	4173
924.849	3074
924.956	3287
925.064	3135
925.172	3070
925.279	3100
925.387	3226
925.494	3214
925.602	3382
925.709	3348
925.816	3195
925.924	3272
926.031	3412
926.138	3340
926.245	3329
926.352	3253
926.459	3412
926.566	3534
926.673	3302
926.779	3279
926.886	3283
926.993	3184
927.099	3150
927.206	3116
927.312	3097
927.419	3260
927.525	3203
927.631	3294
927.737	3142
927.843	3123
927.95	3062
928.056	3154
928.162	3165
928.267	3313
928.373	3896
928.479	3306
928.585	3058
928.69	3256
928.796	3272
928.901	3161
929.007	3017
929.112	3230
929.218	3226
929.323	3142
929.428	3161
929.533	3260
929.638	3100
929.743	3203
929.848	3275
929.953	3226
930.058	3157
930.163	3020
930.267	3047
930.372	3233
930.477	3093
930.581	3344
930.685	3207
930.79	3081
930.894	3142
930.998	3081
931.103	3294
931.207	2963
931.311	2937
931.415	2910
931.519	2781
931.623	2811
