Data from test_V78500241_1118.txt Node
Date: Fri Mar 25 16:22:56 CST 2022
User: usil
Spectrometer: V785-0024
Trigger mode: 0
Integration Time (sec): 4.000000E-1
Scans to average: 1
Nonlinearity correction enabled: false
Boxcar width: 0
Storing dark spectrum: false
XAxis mode: Wavelengths
Number of Pixels in Spectrum: 1024
>>>>>Begin Spectral Data<<<<<
801.071	2952
801.214	2933
801.356	2895
801.499	2880
801.641	2880
801.783	2960
801.926	3043
802.068	3013
802.211	3051
802.353	3066
802.496	2960
802.638	3058
802.78	3051
802.923	3135
803.065	3013
803.208	2876
803.35	2937
803.492	2948
803.635	2952
803.777	2766
803.919	2876
804.061	3222
804.204	2960
804.346	2929
804.488	2849
804.63	2982
804.773	2872
804.915	2960
805.057	3077
805.199	2963
805.341	2948
805.483	3032
805.626	3009
805.768	2967
805.91	3104
806.052	3131
806.194	3055
806.336	3233
806.478	3051
806.62	2944
806.762	2963
806.904	3070
807.046	3176
807.188	2960
807.33	2918
807.472	2967
807.614	2872
807.756	3017
807.898	2906
808.04	2899
808.182	2967
808.324	2967
808.465	2864
808.607	2876
808.749	2853
808.891	2838
809.033	2971
809.174	2963
809.316	2876
809.458	2929
809.6	2785
809.741	2750
809.883	2781
810.025	2853
810.166	2861
810.308	2811
810.45	2830
810.591	2739
810.733	2743
810.875	2872
811.016	2766
811.158	2766
811.299	2815
811.441	2910
811.582	2880
811.724	2819
811.865	2826
812.007	2910
812.148	2861
812.29	2845
812.431	2883
812.573	2899
812.714	2971
812.855	3070
812.997	3055
813.138	3123
813.279	3009
813.421	3001
813.562	2948
813.703	2819
813.845	2933
813.986	2758
814.127	2746
814.268	2861
814.41	2861
814.551	2823
814.692	2845
814.833	2823
814.974	2902
815.115	2975
815.256	2792
815.397	2819
815.539	2872
815.68	2788
815.821	2758
815.962	2952
816.103	2922
816.244	2922
816.385	2868
816.526	2982
816.666	2899
816.807	2758
816.948	2891
817.089	2914
817.23	2815
817.371	2792
817.512	2796
817.653	2842
817.793	2838
817.934	2883
818.075	2975
818.216	3001
818.356	3005
818.497	2830
818.638	2796
818.778	2777
818.919	2788
819.06	2769
819.2	2861
819.341	2796
819.481	2804
819.622	2914
819.762	3093
819.903	3036
820.043	2948
820.184	2895
820.324	2872
820.465	3032
820.605	3055
820.746	2998
820.886	2895
821.026	3066
821.167	3192
821.307	3222
821.447	3260
821.588	3237
821.728	3157
821.868	3192
822.008	3062
822.149	3173
822.289	3245
822.429	3108
822.569	3074
822.709	3173
822.849	3005
822.99	3036
823.13	3146
823.27	3214
823.41	3119
823.55	3108
823.69	3146
823.83	3169
823.97	3077
824.11	3013
824.25	2982
824.389	3058
824.529	3123
824.669	3047
824.809	3195
824.949	3287
825.089	3245
825.228	3157
825.368	3024
825.508	2971
825.648	2990
825.787	3055
825.927	3032
826.067	3009
826.206	2963
826.346	3055
826.485	3085
826.625	3135
826.765	3241
826.904	3230
827.044	2998
827.183	2963
827.323	2872
827.462	3039
827.601	2960
827.741	2956
827.88	2979
828.02	2853
828.159	3020
828.298	3066
828.437	3142
828.577	3074
828.716	3287
828.855	3112
828.994	2963
829.134	2941
829.273	2982
829.412	2910
829.551	2891
829.69	2925
829.829	3020
829.968	3169
830.107	3074
830.246	3043
830.385	2952
830.524	2887
830.663	2876
830.802	2743
830.941	2727
831.08	2743
831.219	2769
831.357	2796
831.496	2971
831.635	2777
831.774	2636
831.913	2678
832.051	2610
832.19	2602
832.329	2701
832.467	2568
832.606	2511
832.744	2610
832.883	2621
833.022	2640
833.16	2743
833.299	2708
833.437	2766
833.576	2735
833.714	2758
833.852	2754
833.991	2807
834.129	2857
834.267	2853
834.406	2845
834.544	2880
834.682	2868
834.821	2906
834.959	3104
835.097	2929
835.235	3108
835.373	3055
835.511	3062
835.65	2994
835.788	2998
835.926	2880
836.064	2872
836.202	2872
836.34	3131
836.478	3203
836.615	3100
836.753	3180
836.891	3279
837.029	3138
837.167	3123
837.305	3066
837.443	3047
837.58	3001
837.718	3150
837.856	3093
837.993	3043
838.131	3169
838.269	3165
838.406	3100
838.544	3127
838.681	2944
838.819	2975
838.956	2826
839.094	2895
839.231	2967
839.369	3070
839.506	3428
839.643	3283
839.781	3032
839.918	3043
840.055	3051
840.193	3104
840.33	3089
840.467	3142
840.604	3169
840.742	3454
840.879	3085
841.016	3089
841.153	3123
841.29	3363
841.427	3317
841.564	3291
841.701	3325
841.838	3268
841.975	3199
842.112	3245
842.249	3119
842.385	3055
842.522	3287
842.659	3123
842.796	3097
842.933	3169
843.069	3093
843.206	3100
843.343	3218
843.479	3169
843.616	3195
843.752	2963
843.889	2906
844.025	3108
844.162	2941
844.298	3123
844.435	2979
844.571	2944
844.708	3077
844.844	3214
844.98	3256
845.117	3214
845.253	3070
845.389	3077
845.525	3184
845.661	3108
845.798	3043
845.934	3184
846.07	3074
846.206	3237
846.342	3310
846.478	3214
846.614	3127
846.75	3081
846.886	3108
847.022	3302
847.158	3146
847.294	3237
847.429	3321
847.565	3184
847.701	3515
847.837	3081
847.972	3020
848.108	3169
848.244	3184
848.379	3024
848.515	2963
848.65	2975
848.786	3017
848.921	3074
849.057	3142
849.192	3192
849.328	3127
849.463	3154
849.598	3116
849.734	3093
849.869	3032
850.004	2967
850.14	2986
850.275	2967
850.41	2864
850.545	2918
850.68	2967
850.815	2979
850.95	3009
851.085	3226
851.22	3165
851.355	3020
851.49	3024
851.625	3036
851.76	3043
851.895	2975
852.03	2933
852.165	3085
852.299	3123
852.434	3188
852.569	3180
852.703	3214
852.838	3275
852.973	3332
853.107	3340
853.242	3165
853.376	3100
853.511	3001
853.645	3093
853.78	3268
853.914	3154
854.048	3131
854.183	3131
854.317	3123
854.451	3310
854.585	3195
854.72	3135
854.854	3222
854.988	3062
855.122	3100
855.256	2994
855.39	3169
855.524	3241
855.658	3192
855.792	3176
855.926	3218
856.06	3253
856.194	3294
856.327	3176
856.461	3131
856.595	3108
856.729	3112
856.862	3264
856.996	3188
857.13	3199
857.263	3260
857.397	3317
857.53	3188
857.664	3237
857.797	3237
857.931	3275
858.064	3173
858.197	3256
858.331	3154
858.464	3119
858.597	3017
858.731	3123
858.864	3138
858.997	3085
859.13	3157
859.263	3241
859.396	3245
859.529	3123
859.662	3123
859.795	3077
859.928	3154
860.061	3325
860.194	3310
860.327	3150
860.46	3142
860.592	3218
860.725	3245
860.858	3325
860.99	3127
861.123	3028
861.256	3089
861.388	3169
861.521	3755
861.653	2994
861.786	2998
861.918	3036
862.05	3089
862.183	3074
862.315	3169
862.447	3214
862.58	3138
862.712	2948
862.844	2914
862.976	3066
863.108	3028
863.24	3294
863.372	2899
863.504	2990
863.636	2963
863.768	3062
863.9	3020
864.032	2918
864.164	2952
864.296	3055
864.428	3104
864.559	3135
864.691	3081
864.823	3085
864.954	3047
865.086	3066
865.217	2986
865.349	2952
865.48	3020
865.612	3051
865.743	3161
865.875	3013
866.006	2937
866.137	2990
866.269	2986
866.4	2979
866.531	2948
866.662	2895
866.793	2902
866.924	2918
867.055	2982
867.186	2937
867.317	2906
867.448	2895
867.579	2872
867.71	2910
867.841	2849
867.972	2918
868.103	2952
868.233	2922
868.364	2944
868.495	2922
868.625	3093
868.756	3169
868.886	2998
869.017	3024
869.147	3173
869.278	3161
869.408	3097
869.539	3055
869.669	3131
869.799	3066
869.929	3142
870.06	3077
870.19	3348
870.32	3287
870.45	3317
870.58	3405
870.71	3492
870.84	3473
870.97	3310
871.1	3233
871.23	3473
871.36	3485
871.489	3355
871.619	3435
871.749	3447
871.879	3454
872.008	3492
872.138	3363
872.267	3287
872.397	3142
872.526	3081
872.656	3009
872.785	3138
872.915	3302
873.044	3332
873.173	3253
873.303	3264
873.432	3302
873.561	3222
873.69	3176
873.819	3195
873.948	3199
874.077	3135
874.206	3062
874.335	3081
874.464	3214
874.593	3351
874.722	3317
874.851	3389
874.979	3336
875.108	3363
875.237	3203
875.365	3218
875.494	3218
875.623	3241
875.751	3108
875.88	3165
876.008	3203
876.136	3279
876.265	3397
876.393	3549
876.521	3450
876.65	3412
876.778	3382
876.906	3249
877.034	3180
877.162	3214
877.29	3192
877.418	3253
877.546	3272
877.674	3275
877.802	3268
877.93	3291
878.058	3176
878.185	3093
878.313	3203
878.441	3214
878.568	3077
878.696	3150
878.824	3245
878.951	3321
879.079	3485
879.206	3603
879.333	3485
879.461	3325
879.588	3340
879.715	3496
879.842	3614
879.97	3397
880.097	3173
880.224	3165
880.351	3211
880.478	3230
880.605	3245
880.732	3241
880.859	3530
880.986	3294
881.112	3329
881.239	3192
881.366	3127
881.493	3055
881.619	3013
881.746	3112
881.872	3081
881.999	3108
882.125	3169
882.252	3256
882.378	3279
882.505	3420
882.631	3287
882.757	3146
882.883	3226
883.01	3233
883.136	3188
883.262	3131
883.388	3161
883.514	3348
883.64	3363
883.766	3317
883.892	3211
884.018	3245
884.143	3420
884.269	3523
884.395	3249
884.52	3142
884.646	3165
884.772	3154
884.897	3119
885.023	3226
885.148	3367
885.274	3428
885.399	3355
885.524	3283
885.65	3275
885.775	3329
885.9	3287
886.025	3435
886.15	3363
886.275	3332
886.4	3237
886.525	3389
886.65	3249
886.775	3275
886.9	3545
887.025	3652
887.149	3435
887.274	3260
887.399	3222
887.523	3211
887.648	3192
887.773	3211
887.897	3401
888.021	3363
888.146	3329
888.27	3447
888.395	3580
888.519	3454
888.643	3458
888.767	3454
888.891	3332
889.015	3218
889.139	3264
889.263	3260
889.387	3401
889.511	3492
889.635	3481
889.759	3332
889.883	3302
890.006	3378
890.13	3496
890.254	3260
890.377	3370
890.501	3214
890.624	3199
890.748	3332
890.871	3203
890.995	3131
891.118	3104
891.241	3226
891.364	3253
891.488	3302
891.611	3157
891.734	3233
891.857	3336
891.98	3260
892.103	3336
892.226	3291
892.349	3207
892.471	3127
892.594	3233
892.717	3275
892.839	3291
892.962	3310
893.085	3397
893.207	3294
893.33	3157
893.452	3260
893.575	3348
893.697	3241
893.819	3473
893.941	3485
894.064	3462
894.186	3317
894.308	3298
894.43	3420
894.552	3507
894.674	3466
894.796	3313
894.918	3287
895.04	3321
895.161	3469
895.283	3424
895.405	3321
895.526	3382
895.648	3416
895.769	3458
895.891	3450
896.012	3458
896.134	3477
896.255	3409
896.376	3359
896.498	3355
896.619	3401
896.74	3344
896.861	3374
896.982	3701
897.103	3854
897.224	3557
897.345	3553
897.466	3447
897.587	3519
897.708	3633
897.828	3606
897.949	3481
898.07	3321
898.19	3397
898.311	3629
898.431	3431
898.552	3519
898.672	3637
898.792	3584
898.913	3538
899.033	3424
899.153	3294
899.273	3222
899.393	3294
899.513	3336
899.633	3313
899.753	3351
899.873	3329
899.993	3374
900.113	3374
900.232	3344
900.352	3348
900.472	3306
900.591	3241
900.711	3306
900.83	3245
900.95	3431
901.069	3507
901.189	3382
901.308	3195
901.427	3150
901.546	3199
901.665	3313
901.784	3355
901.904	3214
902.023	3176
902.141	3024
902.26	3020
902.379	3100
902.498	3074
902.617	3074
902.735	3237
902.854	3230
902.973	3211
903.091	3051
903.21	3077
903.328	3154
903.446	3127
903.565	3108
903.683	3211
903.801	3119
903.919	3245
904.038	3260
904.156	3184
904.274	3313
904.392	3264
904.51	3283
904.627	3340
904.745	3450
904.863	3477
904.981	3237
905.098	3165
905.216	3249
905.334	3279
905.451	3329
905.569	3313
905.686	3450
905.803	3454
905.921	3317
906.038	3435
906.155	3374
906.272	3222
906.389	3340
906.506	3245
906.623	3283
906.74	3313
906.857	3207
906.974	3272
907.091	3466
907.208	3610
907.324	3515
907.441	3351
907.557	3283
907.674	3260
907.79	3214
907.907	3298
908.023	3401
908.139	3382
908.256	3321
908.372	3351
908.488	3344
908.604	3268
908.72	3264
908.836	3287
908.952	3245
909.068	3363
909.184	3515
909.3	3420
909.415	3492
909.531	3462
909.647	3279
909.762	3256
909.878	3287
909.993	3386
910.108	3306
910.224	3313
910.339	3424
910.454	3355
910.57	3321
910.685	3268
910.8	3610
910.915	3534
911.03	3458
911.145	3211
911.259	3283
911.374	3283
911.489	3230
911.604	3222
911.718	3123
911.833	3154
911.947	3043
912.062	2998
912.176	3199
912.291	3203
912.405	3233
912.519	3466
912.633	3466
912.748	3340
912.862	3275
912.976	3184
913.09	3081
913.204	3146
913.318	3199
913.431	3374
913.545	3336
913.659	3412
913.772	3336
913.886	3214
914	3150
914.113	3378
914.226	3439
914.34	3374
914.453	3165
914.566	3450
914.68	3313
914.793	3325
914.906	3173
915.019	3077
915.132	3081
915.245	3214
915.358	3192
915.47	3233
915.583	3283
915.696	3291
915.809	3386
915.921	3416
916.034	3279
916.146	3260
916.259	3199
916.371	3412
916.483	3332
916.595	3253
916.708	3291
916.82	3336
916.932	3344
917.044	3370
917.156	3367
917.268	3275
917.38	3325
917.491	3336
917.603	3386
917.715	3424
917.826	3469
917.938	3397
918.049	3268
918.161	3424
918.272	3576
918.384	3595
918.495	3526
918.606	3348
918.717	3275
918.828	3374
918.939	3401
919.05	3294
919.161	3367
919.272	3184
919.383	3294
919.494	3473
919.604	3705
919.715	3458
919.826	3386
919.936	3500
920.047	3591
920.157	3549
920.267	3766
920.378	3614
920.488	3584
920.598	3762
920.708	3983
920.818	3850
920.928	3808
921.038	4097
921.148	3983
921.258	3701
921.368	3660
921.477	3549
921.587	3534
921.697	3428
921.806	3641
921.916	3526
922.025	3336
922.134	3367
922.244	3351
922.353	3420
922.462	3298
922.571	3203
922.68	3108
922.789	3104
922.898	3108
923.007	3112
923.116	3230
923.224	3157
923.333	3188
923.442	3081
923.55	3077
923.659	3154
923.767	3241
923.876	3108
923.984	3211
924.092	3104
924.201	3176
924.309	3226
924.417	3256
924.525	3184
924.633	3237
924.741	4036
924.849	3043
924.956	3207
925.064	3135
925.172	3039
925.279	3116
925.387	3173
925.494	3169
925.602	3382
925.709	3329
925.816	3195
925.924	3233
926.031	3409
926.138	3340
926.245	3351
926.352	3283
926.459	3393
926.566	3454
926.673	3340
926.779	3237
926.886	3230
926.993	3173
927.099	3150
927.206	3142
927.312	3127
927.419	3253
927.525	3176
927.631	3253
927.737	3157
927.843	3131
927.95	3005
928.056	3104
928.162	3176
928.267	3253
928.373	3865
928.479	3283
928.585	3039
928.69	3195
928.796	3306
928.901	3142
929.007	3093
929.112	3203
929.218	3192
929.323	3131
929.428	3161
929.533	3313
929.638	3131
929.743	3195
929.848	3272
929.953	3188
930.058	3131
930.163	3051
930.267	3036
930.372	3184
930.477	3058
930.581	3344
930.685	3173
930.79	3024
930.894	3119
930.998	3104
931.103	3275
931.207	2986
931.311	2918
931.415	2906
931.519	2781
931.623	2811
