Data from test_V78500241_251.txt Node
Date: Fri Mar 25 16:16:56 CST 2022
User: usil
Spectrometer: V785-0024
Trigger mode: 0
Integration Time (sec): 4.000000E-1
Scans to average: 1
Nonlinearity correction enabled: false
Boxcar width: 0
Storing dark spectrum: false
XAxis mode: Wavelengths
Number of Pixels in Spectrum: 1024
>>>>>Begin Spectral Data<<<<<
801.071	2895
801.214	2948
801.356	2826
801.499	2899
801.641	2868
801.783	2910
801.926	3074
802.068	2975
802.211	3009
802.353	3058
802.496	2971
802.638	2986
802.78	3058
802.923	3051
803.065	2967
803.208	2861
803.35	2914
803.492	2975
803.635	2922
803.777	2754
803.919	2849
804.061	3173
804.204	2944
804.346	2906
804.488	2861
804.63	3013
804.773	2887
804.915	2895
805.057	3081
805.199	2933
805.341	3047
805.483	3043
805.626	3036
805.768	2982
805.91	3047
806.052	3081
806.194	3039
806.336	3233
806.478	3017
806.62	2952
806.762	2967
806.904	3089
807.046	3203
807.188	3017
807.33	2895
807.472	2982
807.614	2906
807.756	2990
807.898	2910
808.04	2906
808.182	2975
808.324	2967
808.465	2868
808.607	2857
808.749	2819
808.891	2845
809.033	2963
809.174	2956
809.316	2883
809.458	2899
809.6	2777
809.741	2800
809.883	2758
810.025	2830
810.166	2849
810.308	2826
810.45	2861
810.591	2800
810.733	2766
810.875	2823
811.016	2773
811.158	2766
811.299	2834
811.441	2929
811.582	2887
811.724	2842
811.865	2849
812.007	2910
812.148	2883
812.29	2849
812.431	2891
812.573	2971
812.714	2986
812.855	3055
812.997	3043
813.138	3154
813.279	2998
813.421	2982
813.562	2994
813.703	2887
813.845	2868
813.986	2804
814.127	2754
814.268	2811
814.41	2830
814.551	2830
814.692	2918
814.833	2838
814.974	2883
815.115	2914
815.256	2838
815.397	2830
815.539	2830
815.68	2819
815.821	2788
815.962	2937
816.103	2960
816.244	2880
816.385	2891
816.526	2998
816.666	2902
816.807	2735
816.948	2910
817.089	2914
817.23	2830
817.371	2758
817.512	2823
817.653	2845
817.793	2826
817.934	2883
818.075	2971
818.216	2990
818.356	3001
818.497	2883
818.638	2785
818.778	2838
818.919	2815
819.06	2769
819.2	2895
819.341	2830
819.481	2811
819.622	2914
819.762	3116
819.903	3043
820.043	2914
820.184	2876
820.324	2902
820.465	3009
820.605	2975
820.746	3032
820.886	2922
821.026	3070
821.167	3161
821.307	3253
821.447	3306
821.588	3226
821.728	3214
821.868	3207
822.008	3108
822.149	3192
822.289	3245
822.429	3097
822.569	3074
822.709	3203
822.849	3043
822.99	3047
823.13	3154
823.27	3233
823.41	3104
823.55	3154
823.69	3173
823.83	3184
823.97	3112
824.11	2986
824.25	3032
824.389	3062
824.529	3104
824.669	3093
824.809	3192
824.949	3233
825.089	3245
825.228	3176
825.368	2990
825.508	2963
825.648	2967
825.787	2994
825.927	3005
826.067	2971
826.206	2960
826.346	3036
826.485	3074
826.625	3089
826.765	3256
826.904	3203
827.044	2994
827.183	2925
827.323	2872
827.462	2990
827.601	2887
827.741	2929
827.88	2967
828.02	2849
828.159	2952
828.298	3020
828.437	3074
828.577	3017
828.716	3245
828.855	3119
828.994	2933
829.134	2902
829.273	2906
829.412	2868
829.551	2853
829.69	2906
829.829	3005
829.968	3100
830.107	3013
830.246	3039
830.385	2902
830.524	2902
830.663	2826
830.802	2766
830.941	2648
831.08	2648
831.219	2796
831.357	2773
831.496	2952
831.635	2712
831.774	2663
831.913	2648
832.051	2533
832.19	2590
832.329	2716
832.467	2568
832.606	2476
832.744	2568
832.883	2610
833.022	2613
833.16	2659
833.299	2659
833.437	2674
833.576	2693
833.714	2689
833.852	2735
833.991	2769
834.129	2819
834.267	2864
834.406	2826
834.544	2857
834.682	2861
834.821	2891
834.959	3055
835.097	2872
835.235	3074
835.373	2990
835.511	3047
835.65	2944
835.788	2982
835.926	2883
836.064	2823
836.202	2868
836.34	3112
836.478	3150
836.615	3051
836.753	3116
836.891	3245
837.029	3146
837.167	3142
837.305	3112
837.443	3062
837.58	2971
837.718	3135
837.856	3055
837.993	3032
838.131	3127
838.269	3116
838.406	3089
838.544	3100
838.681	2944
838.819	2899
838.956	2785
839.094	2838
839.231	2899
839.369	3017
839.506	3351
839.643	3203
839.781	3013
839.918	2956
840.055	3047
840.193	3039
840.33	3036
840.467	3131
840.604	3138
840.742	3416
840.879	3032
841.016	3058
841.153	3112
841.29	3306
841.427	3302
841.564	3241
841.701	3340
841.838	3222
841.975	3173
842.112	3180
842.249	3085
842.385	3020
842.522	3279
842.659	3097
842.796	3100
842.933	3131
843.069	3028
843.206	3058
843.343	3192
843.479	3089
843.616	3127
843.752	2918
843.889	2857
844.025	3108
844.162	2880
844.298	3077
844.435	2929
844.571	2899
844.708	3055
844.844	3184
844.98	3256
845.117	3142
845.253	3066
845.389	2994
845.525	3104
845.661	3112
845.798	3005
845.934	3108
846.07	3062
846.206	3218
846.342	3294
846.478	3207
846.614	3043
846.75	3081
846.886	3001
847.022	3260
847.158	3161
847.294	3188
847.429	3218
847.565	3199
847.701	3507
847.837	3051
847.972	3039
848.108	3188
848.244	3123
848.379	2982
848.515	2975
848.65	2944
848.786	2937
848.921	3017
849.057	3081
849.192	3138
849.328	3085
849.463	3093
849.598	3077
849.734	3028
849.869	2994
850.004	2937
850.14	2979
850.275	2937
850.41	2849
850.545	2876
850.68	2925
850.815	2971
850.95	2967
851.085	3188
851.22	3108
851.355	3062
851.49	2990
851.625	3036
851.76	2998
851.895	2925
852.03	2944
852.165	3032
852.299	3100
852.434	3188
852.569	3127
852.703	3207
852.838	3214
852.973	3332
853.107	3344
853.242	3150
853.376	3123
853.511	2971
853.645	3051
853.78	3222
853.914	3108
854.048	3108
854.183	3104
854.317	3138
854.451	3298
854.585	3100
854.72	3043
854.854	3188
854.988	3081
855.122	3127
855.256	2982
855.39	3119
855.524	3256
855.658	3161
855.792	3135
855.926	3176
856.06	3222
856.194	3268
856.327	3127
856.461	3036
856.595	3066
856.729	3135
856.862	3222
856.996	3161
857.13	3214
857.263	3268
857.397	3272
857.53	3112
857.664	3237
857.797	3218
857.931	3249
858.064	3157
858.197	3226
858.331	3119
858.464	3104
858.597	3024
858.731	3077
858.864	3135
858.997	3116
859.13	3131
859.263	3173
859.396	3184
859.529	3097
859.662	3081
859.795	3047
859.928	3157
860.061	3256
860.194	3275
860.327	3142
860.46	3116
860.592	3256
860.725	3226
860.858	3253
860.99	3131
861.123	3036
861.256	3062
861.388	3123
861.521	3846
861.653	3070
861.786	2982
861.918	2982
862.05	3097
862.183	3085
862.315	3161
862.447	3184
862.58	3108
862.712	2956
862.844	2845
862.976	3028
863.108	3001
863.24	3310
863.372	2880
863.504	2956
863.636	2982
863.768	3039
863.9	2979
864.032	2914
864.164	2982
864.296	3005
864.428	3077
864.559	3100
864.691	3074
864.823	3043
864.954	3024
865.086	3051
865.217	2986
865.349	2948
865.48	2990
865.612	3013
865.743	3150
865.875	2975
866.006	2963
866.137	3009
866.269	2929
866.4	2941
866.531	2918
866.662	2925
866.793	2918
866.924	2883
867.055	2960
867.186	2925
867.317	2883
867.448	2853
867.579	2815
867.71	2857
867.841	2830
867.972	2895
868.103	2880
868.233	2880
868.364	2876
868.495	2899
868.625	3093
868.756	3150
868.886	2982
869.017	3036
869.147	3169
869.278	3138
869.408	3047
869.539	2994
869.669	3089
869.799	3043
869.929	3104
870.06	3100
870.19	3336
870.32	3275
870.45	3298
870.58	3389
870.71	3462
870.84	3458
870.97	3310
871.1	3264
871.23	3511
871.36	3481
871.489	3367
871.619	3401
871.749	3409
871.879	3431
872.008	3504
872.138	3340
872.267	3306
872.397	3097
872.526	3093
872.656	2986
872.785	3100
872.915	3195
873.044	3260
873.173	3237
873.303	3237
873.432	3218
873.561	3264
873.69	3176
873.819	3176
873.948	3176
874.077	3116
874.206	3055
874.335	3089
874.464	3222
874.593	3291
874.722	3256
874.851	3420
874.979	3370
875.108	3294
875.237	3165
875.365	3169
875.494	3154
875.623	3245
875.751	3070
875.88	3108
876.008	3138
876.136	3233
876.265	3355
876.393	3511
876.521	3359
876.65	3409
876.778	3329
876.906	3230
877.034	3203
877.162	3199
877.29	3199
877.418	3253
877.546	3245
877.674	3253
877.802	3211
877.93	3275
878.058	3173
878.185	3127
878.313	3195
878.441	3214
878.568	3081
878.696	3119
878.824	3237
878.951	3260
879.079	3488
879.206	3618
879.333	3431
879.461	3325
879.588	3332
879.715	3477
879.842	3580
879.97	3389
880.097	3199
880.224	3131
880.351	3184
880.478	3222
880.605	3211
880.732	3199
880.859	3477
880.986	3298
881.112	3344
881.239	3222
881.366	3089
881.493	3039
881.619	3013
881.746	3058
881.872	3104
881.999	3100
882.125	3123
882.252	3268
882.378	3344
882.505	3401
882.631	3233
882.757	3169
882.883	3253
883.01	3195
883.136	3157
883.262	3100
883.388	3100
883.514	3344
883.64	3393
883.766	3306
883.892	3165
884.018	3279
884.143	3428
884.269	3561
884.395	3230
884.52	3169
884.646	3165
884.772	3146
884.897	3100
885.023	3207
885.148	3355
885.274	3443
885.399	3344
885.524	3268
885.65	3230
885.775	3310
885.9	3275
886.025	3416
886.15	3397
886.275	3351
886.4	3264
886.525	3264
886.65	3283
886.775	3253
886.9	3504
887.025	3614
887.149	3412
887.274	3283
887.399	3199
887.523	3218
887.648	3199
887.773	3184
887.897	3370
888.021	3378
888.146	3294
888.27	3420
888.395	3488
888.519	3435
888.643	3447
888.767	3435
888.891	3287
889.015	3253
889.139	3260
889.263	3249
889.387	3386
889.511	3515
889.635	3488
889.759	3287
889.883	3279
890.006	3386
890.13	3481
890.254	3256
890.377	3287
890.501	3230
890.624	3203
890.748	3291
890.871	3176
890.995	3108
891.118	3024
891.241	3184
891.364	3249
891.488	3329
891.611	3207
891.734	3226
891.857	3287
891.98	3207
892.103	3386
892.226	3237
892.349	3203
892.471	3142
892.594	3230
892.717	3275
892.839	3245
892.962	3275
893.085	3393
893.207	3310
893.33	3138
893.452	3256
893.575	3351
893.697	3237
893.819	3481
893.941	3507
894.064	3466
894.186	3294
894.308	3268
894.43	3416
894.552	3561
894.674	3469
894.796	3268
894.918	3291
895.04	3260
895.161	3424
895.283	3382
895.405	3317
895.526	3393
895.648	3431
895.769	3416
895.891	3462
896.012	3443
896.134	3488
896.255	3439
896.376	3409
896.498	3359
896.619	3466
896.74	3348
896.861	3424
896.982	3679
897.103	3804
897.224	3614
897.345	3519
897.466	3416
897.587	3500
897.708	3618
897.828	3557
897.949	3431
898.07	3348
898.19	3401
898.311	3614
898.431	3435
898.552	3488
898.672	3557
898.792	3584
898.913	3500
899.033	3420
899.153	3287
899.273	3237
899.393	3272
899.513	3287
899.633	3294
899.753	3344
899.873	3291
899.993	3447
900.113	3355
900.232	3409
900.352	3348
900.472	3283
900.591	3199
900.711	3317
900.83	3241
900.95	3454
901.069	3473
901.189	3344
901.308	3195
901.427	3116
901.546	3245
901.665	3294
901.784	3332
901.904	3230
902.023	3161
902.141	3024
902.26	2975
902.379	3138
902.498	3055
902.617	3070
902.735	3192
902.854	3264
902.973	3184
903.091	3051
903.21	3058
903.328	3116
903.446	3138
903.565	3112
903.683	3214
903.801	3116
903.919	3214
904.038	3325
904.156	3146
904.274	3264
904.392	3241
904.51	3287
904.627	3344
904.745	3458
904.863	3496
904.981	3222
905.098	3199
905.216	3245
905.334	3302
905.451	3283
905.569	3291
905.686	3412
905.803	3450
905.921	3260
906.038	3424
906.155	3397
906.272	3260
906.389	3310
906.506	3233
906.623	3264
906.74	3306
906.857	3218
906.974	3260
907.091	3416
907.208	3557
907.324	3488
907.441	3351
907.557	3233
907.674	3264
907.79	3226
907.907	3298
908.023	3355
908.139	3340
908.256	3306
908.372	3321
908.488	3378
908.604	3222
908.72	3222
908.836	3287
908.952	3249
909.068	3344
909.184	3477
909.3	3389
909.415	3523
909.531	3469
909.647	3264
909.762	3260
909.878	3226
909.993	3359
910.108	3370
910.224	3332
910.339	3428
910.454	3332
910.57	3294
910.685	3253
910.8	3599
910.915	3530
911.03	3386
911.145	3264
911.259	3245
911.374	3306
911.489	3230
911.604	3226
911.718	3112
911.833	3150
911.947	3055
912.062	2990
912.176	3173
912.291	3199
912.405	3214
912.519	3428
912.633	3492
912.748	3359
912.862	3302
912.976	3188
913.09	3058
913.204	3150
913.318	3245
913.431	3344
913.545	3374
913.659	3428
913.772	3374
913.886	3249
914	3192
914.113	3424
914.226	3447
914.34	3473
914.453	3287
914.566	3435
914.68	3313
914.793	3359
914.906	3199
915.019	3123
915.132	3123
915.245	3260
915.358	3256
915.47	3283
915.583	3291
915.696	3340
915.809	3488
915.921	3450
916.034	3325
916.146	3306
916.259	3283
916.371	3443
916.483	3439
916.595	3306
916.708	3389
916.82	3412
916.932	3412
917.044	3393
917.156	3382
917.268	3279
917.38	3355
917.491	3306
917.603	3447
917.715	3515
917.826	3500
917.938	3397
918.049	3340
918.161	3488
918.272	3648
918.384	3606
918.495	3538
918.606	3367
918.717	3302
918.828	3428
918.939	3477
919.05	3370
919.161	3389
919.272	3192
919.383	3367
919.494	3568
919.604	3705
919.715	3530
919.826	3488
919.936	3519
920.047	3633
920.157	3587
920.267	3850
920.378	3648
920.488	3603
920.598	3831
920.708	3960
920.818	3876
920.928	3926
921.038	4078
921.148	4051
921.258	3747
921.368	3663
921.477	3660
921.587	3553
921.697	3515
921.806	3705
921.916	3576
922.025	3428
922.134	3389
922.244	3348
922.353	3458
922.462	3332
922.571	3291
922.68	3203
922.789	3123
922.898	3188
923.007	3154
923.116	3249
923.224	3233
923.333	3249
923.442	3146
923.55	3165
923.659	3165
923.767	3245
923.876	3165
923.984	3313
924.092	3146
924.201	3260
924.309	3268
924.417	3279
924.525	3233
924.633	3264
924.741	4230
924.849	3112
924.956	3294
925.064	3100
925.172	3017
925.279	3104
925.387	3264
925.494	3279
925.602	3401
925.709	3370
925.816	3203
925.924	3287
926.031	3439
926.138	3363
926.245	3405
926.352	3268
926.459	3458
926.566	3542
926.673	3382
926.779	3279
926.886	3283
926.993	3226
927.099	3169
927.206	3138
927.312	3157
927.419	3275
927.525	3237
927.631	3302
927.737	3146
927.843	3127
927.95	3051
928.056	3157
928.162	3207
928.267	3294
928.373	3888
928.479	3336
928.585	3116
928.69	3226
928.796	3272
928.901	3226
929.007	3108
929.112	3260
929.218	3199
929.323	3176
929.428	3180
929.533	3359
929.638	3173
929.743	3176
929.848	3264
929.953	3237
930.058	3157
930.163	3024
930.267	3093
930.372	3203
930.477	3081
930.581	3374
930.685	3249
930.79	3074
930.894	3131
930.998	3119
931.103	3332
931.207	2986
931.311	2986
931.415	2944
931.519	2819
931.623	2834
