Data from test_V78500241_1572.txt Node
Date: Fri Mar 25 16:26:05 CST 2022
User: usil
Spectrometer: V785-0024
Trigger mode: 0
Integration Time (sec): 4.000000E-1
Scans to average: 1
Nonlinearity correction enabled: false
Boxcar width: 0
Storing dark spectrum: false
XAxis mode: Wavelengths
Number of Pixels in Spectrum: 1024
>>>>>Begin Spectral Data<<<<<
801.071	2902
801.214	2986
801.356	2872
801.499	2902
801.641	2906
801.783	2937
801.926	3017
802.068	2967
802.211	3024
802.353	3051
802.496	2944
802.638	3032
802.78	3028
802.923	3066
803.065	3005
803.208	2887
803.35	2948
803.492	2922
803.635	2956
803.777	2781
803.919	2857
804.061	3207
804.204	2948
804.346	2895
804.488	2857
804.63	3013
804.773	2887
804.915	2887
805.057	3043
805.199	2929
805.341	2948
805.483	3043
805.626	2979
805.768	2922
805.91	3085
806.052	3146
806.194	3043
806.336	3233
806.478	3024
806.62	2948
806.762	3009
806.904	3017
807.046	3154
807.188	2971
807.33	2914
807.472	2982
807.614	2933
807.756	2986
807.898	2922
808.04	2876
808.182	2967
808.324	2944
808.465	2872
808.607	2872
808.749	2807
808.891	2830
809.033	2963
809.174	2956
809.316	2891
809.458	2922
809.6	2762
809.741	2781
809.883	2807
810.025	2838
810.166	2857
810.308	2857
810.45	2830
810.591	2766
810.733	2766
810.875	2807
811.016	2785
811.158	2766
811.299	2826
811.441	2941
811.582	2868
811.724	2819
811.865	2811
812.007	2906
812.148	2857
812.29	2842
812.431	2868
812.573	2933
812.714	2994
812.855	2982
812.997	3036
813.138	3154
813.279	2979
813.421	2967
813.562	2963
813.703	2872
813.845	2880
813.986	2788
814.127	2735
814.268	2838
814.41	2853
814.551	2800
814.692	2880
814.833	2777
814.974	2918
815.115	2967
815.256	2834
815.397	2804
815.539	2868
815.68	2807
815.821	2804
815.962	2933
816.103	2933
816.244	2872
816.385	2902
816.526	2982
816.666	2918
816.807	2720
816.948	2910
817.089	2891
817.23	2868
817.371	2777
817.512	2796
817.653	2838
817.793	2830
817.934	2887
818.075	2979
818.216	2979
818.356	2998
818.497	2891
818.638	2781
818.778	2826
818.919	2811
819.06	2766
819.2	2864
819.341	2804
819.481	2842
819.622	2918
819.762	3104
819.903	3047
820.043	2910
820.184	2941
820.324	2895
820.465	3017
820.605	3017
820.746	3070
820.886	2937
821.026	3089
821.167	3138
821.307	3211
821.447	3264
821.588	3230
821.728	3214
821.868	3173
822.008	3100
822.149	3150
822.289	3230
822.429	3055
822.569	3085
822.709	3184
822.849	3032
822.99	3062
823.13	3154
823.27	3214
823.41	3123
823.55	3138
823.69	3142
823.83	3173
823.97	3112
824.11	3032
824.25	2979
824.389	3062
824.529	3089
824.669	3032
824.809	3184
824.949	3230
825.089	3211
825.228	3173
825.368	2967
825.508	2948
825.648	2948
825.787	3028
825.927	2990
826.067	2982
826.206	2941
826.346	3058
826.485	3043
826.625	3135
826.765	3256
826.904	3195
827.044	2982
827.183	2956
827.323	2876
827.462	2960
827.601	2922
827.741	2902
827.88	2975
828.02	2834
828.159	2998
828.298	3013
828.437	3104
828.577	3013
828.716	3207
828.855	3089
828.994	2925
829.134	2891
829.273	2933
829.412	2861
829.551	2838
829.69	2902
829.829	2975
829.968	3112
830.107	2971
830.246	3032
830.385	2914
830.524	2842
830.663	2796
830.802	2743
830.941	2651
831.08	2625
831.219	2769
831.357	2746
831.496	2948
831.635	2689
831.774	2629
831.913	2651
832.051	2556
832.19	2560
832.329	2686
832.467	2549
832.606	2454
832.744	2579
832.883	2606
833.022	2568
833.16	2625
833.299	2674
833.437	2708
833.576	2693
833.714	2735
833.852	2724
833.991	2785
834.129	2796
834.267	2785
834.406	2800
834.544	2887
834.682	2883
834.821	2864
834.959	3066
835.097	2910
835.235	3005
835.373	2986
835.511	3005
835.65	2925
835.788	2933
835.926	2830
836.064	2792
836.202	2807
836.34	3104
836.478	3104
836.615	3013
836.753	3116
836.891	3188
837.029	3154
837.167	3077
837.305	3017
837.443	3032
837.58	2986
837.718	3146
837.856	3066
837.993	2986
838.131	3138
838.269	3055
838.406	3070
838.544	3051
838.681	2937
838.819	2918
838.956	2785
839.094	2864
839.231	2906
839.369	3001
839.506	3332
839.643	3230
839.781	3001
839.918	2960
840.055	3009
840.193	3039
840.33	3062
840.467	3097
840.604	3161
840.742	3405
840.879	3028
841.016	2998
841.153	3097
841.29	3355
841.427	3283
841.564	3256
841.701	3275
841.838	3188
841.975	3218
842.112	3199
842.249	3077
842.385	3036
842.522	3256
842.659	3055
842.796	3081
842.933	3085
843.069	3058
843.206	2982
843.343	3138
843.479	3077
843.616	3112
843.752	2857
843.889	2880
844.025	3089
844.162	2868
844.298	3089
844.435	2933
844.571	2902
844.708	3036
844.844	3184
844.98	3222
845.117	3226
845.253	3051
845.389	2990
845.525	3070
845.661	3074
845.798	3028
845.934	3131
846.07	3047
846.206	3237
846.342	3313
846.478	3237
846.614	3074
846.75	3085
846.886	3032
847.022	3226
847.158	3100
847.294	3195
847.429	3245
847.565	3176
847.701	3477
847.837	3020
847.972	2990
848.108	3150
848.244	3100
848.379	2967
848.515	2941
848.65	2929
848.786	2952
848.921	2998
849.057	3108
849.192	3135
849.328	3070
849.463	3093
849.598	3097
849.734	3055
849.869	2971
850.004	2910
850.14	2967
850.275	2902
850.41	2861
850.545	2853
850.68	2929
850.815	2922
850.95	2990
851.085	3214
851.22	3097
851.355	3036
851.49	2967
851.625	3032
851.76	2982
851.895	2941
852.03	2902
852.165	3039
852.299	3131
852.434	3207
852.569	3146
852.703	3169
852.838	3233
852.973	3344
853.107	3310
853.242	3127
853.376	3093
853.511	2975
853.645	3047
853.78	3214
853.914	3142
854.048	3116
854.183	3062
854.317	3119
854.451	3279
854.585	3097
854.72	3085
854.854	3192
854.988	3051
855.122	3020
855.256	2944
855.39	3089
855.524	3211
855.658	3214
855.792	3150
855.926	3176
856.06	3207
856.194	3256
856.327	3165
856.461	3085
856.595	3074
856.729	3135
856.862	3207
856.996	3150
857.13	3195
857.263	3241
857.397	3256
857.53	3104
857.664	3192
857.797	3226
857.931	3218
858.064	3173
858.197	3222
858.331	3104
858.464	3051
858.597	3001
858.731	3108
858.864	3104
858.997	3085
859.13	3127
859.263	3146
859.396	3176
859.529	3066
859.662	3066
859.795	3032
859.928	3127
860.061	3283
860.194	3268
860.327	3135
860.46	3131
860.592	3249
860.725	3192
860.858	3264
860.99	3051
861.123	3062
861.256	3047
861.388	3138
861.521	3854
861.653	2990
861.786	2963
861.918	3009
862.05	3058
862.183	3062
862.315	3169
862.447	3176
862.58	3047
862.712	2906
862.844	2887
862.976	2994
863.108	2986
863.24	3268
863.372	2887
863.504	2975
863.636	2929
863.768	2998
863.9	2994
864.032	2918
864.164	2944
864.296	2967
864.428	3077
864.559	3047
864.691	3039
864.823	3070
864.954	3028
865.086	3017
865.217	2982
865.349	2952
865.48	2971
865.612	3013
865.743	3150
865.875	2979
866.006	2902
866.137	2937
866.269	2922
866.4	2929
866.531	2925
866.662	2883
866.793	2861
866.924	2883
867.055	2960
867.186	2914
867.317	2864
867.448	2807
867.579	2853
867.71	2830
867.841	2792
867.972	2906
868.103	2849
868.233	2864
868.364	2838
868.495	2902
868.625	3085
868.756	3142
868.886	2956
869.017	3001
869.147	3173
869.278	3173
869.408	3024
869.539	3043
869.669	3077
869.799	3028
869.929	3123
870.06	3100
870.19	3325
870.32	3264
870.45	3272
870.58	3412
870.71	3469
870.84	3447
870.97	3298
871.1	3226
871.23	3500
871.36	3458
871.489	3340
871.619	3393
871.749	3370
871.879	3409
872.008	3439
872.138	3355
872.267	3260
872.397	3123
872.526	3081
872.656	3005
872.785	3116
872.915	3211
873.044	3294
873.173	3222
873.303	3230
873.432	3230
873.561	3245
873.69	3157
873.819	3138
873.948	3188
874.077	3100
874.206	3005
874.335	3112
874.464	3195
874.593	3336
874.722	3260
874.851	3393
874.979	3340
875.108	3317
875.237	3211
875.365	3157
875.494	3150
875.623	3230
875.751	3077
875.88	3062
876.008	3150
876.136	3211
876.265	3302
876.393	3477
876.521	3431
876.65	3382
876.778	3306
876.906	3214
877.034	3192
877.162	3195
877.29	3176
877.418	3222
877.546	3260
877.674	3237
877.802	3230
877.93	3241
878.058	3116
878.185	3112
878.313	3165
878.441	3226
878.568	3066
878.696	3116
878.824	3226
878.951	3268
879.079	3405
879.206	3603
879.333	3431
879.461	3321
879.588	3332
879.715	3492
879.842	3591
879.97	3351
880.097	3188
880.224	3104
880.351	3131
880.478	3226
880.605	3192
880.732	3165
880.859	3469
880.986	3283
881.112	3332
881.239	3195
881.366	3089
881.493	2994
881.619	2998
881.746	3047
881.872	3100
881.999	3066
882.125	3116
882.252	3218
882.378	3253
882.505	3386
882.631	3253
882.757	3142
882.883	3195
883.01	3161
883.136	3169
883.262	3070
883.388	3100
883.514	3336
883.64	3291
883.766	3275
883.892	3180
884.018	3226
884.143	3420
884.269	3496
884.395	3188
884.52	3154
884.646	3180
884.772	3108
884.897	3070
885.023	3199
885.148	3321
885.274	3409
885.399	3348
885.524	3245
885.65	3298
885.775	3275
885.9	3272
886.025	3401
886.15	3355
886.275	3336
886.4	3233
886.525	3317
886.65	3275
886.775	3275
886.9	3504
887.025	3679
887.149	3374
887.274	3233
887.399	3188
887.523	3233
887.648	3203
887.773	3249
887.897	3409
888.021	3389
888.146	3302
888.27	3450
888.395	3534
888.519	3454
888.643	3462
888.767	3488
888.891	3340
889.015	3253
889.139	3325
889.263	3298
889.387	3424
889.511	3519
889.635	3481
889.759	3302
889.883	3340
890.006	3374
890.13	3511
890.254	3370
890.377	3351
890.501	3214
890.624	3260
890.748	3344
890.871	3222
890.995	3146
891.118	3062
891.241	3245
891.364	3283
891.488	3382
891.611	3199
891.734	3260
891.857	3329
891.98	3256
892.103	3336
892.226	3348
892.349	3249
892.471	3142
892.594	3268
892.717	3287
892.839	3313
892.962	3348
893.085	3469
893.207	3340
893.33	3211
893.452	3226
893.575	3386
893.697	3298
893.819	3477
893.941	3564
894.064	3507
894.186	3287
894.308	3317
894.43	3500
894.552	3580
894.674	3469
894.796	3336
894.918	3401
895.04	3310
895.161	3485
895.283	3401
895.405	3329
895.526	3351
895.648	3424
895.769	3485
895.891	3526
896.012	3500
896.134	3488
896.255	3450
896.376	3401
896.498	3401
896.619	3450
896.74	3393
896.861	3458
896.982	3724
897.103	3869
897.224	3641
897.345	3564
897.466	3458
897.587	3523
897.708	3679
897.828	3561
897.949	3443
898.07	3389
898.19	3466
898.311	3686
898.431	3473
898.552	3530
898.672	3675
898.792	3622
898.913	3564
899.033	3389
899.153	3302
899.273	3253
899.393	3291
899.513	3367
899.633	3325
899.753	3397
899.873	3313
899.993	3370
900.113	3344
900.232	3431
900.352	3378
900.472	3329
900.591	3264
900.711	3321
900.83	3291
900.95	3469
901.069	3545
901.189	3363
901.308	3226
901.427	3146
901.546	3169
901.665	3329
901.784	3382
901.904	3241
902.023	3173
902.141	3024
902.26	2994
902.379	3142
902.498	3119
902.617	3104
902.735	3218
902.854	3256
902.973	3199
903.091	3097
903.21	3070
903.328	3173
903.446	3123
903.565	3146
903.683	3233
903.801	3116
903.919	3275
904.038	3321
904.156	3214
904.274	3355
904.392	3222
904.51	3321
904.627	3363
904.745	3447
904.863	3500
904.981	3306
905.098	3192
905.216	3233
905.334	3336
905.451	3340
905.569	3344
905.686	3397
905.803	3477
905.921	3294
906.038	3439
906.155	3386
906.272	3325
906.389	3355
906.506	3272
906.623	3275
906.74	3306
906.857	3230
906.974	3249
907.091	3447
907.208	3580
907.324	3519
907.441	3420
907.557	3291
907.674	3306
907.79	3233
907.907	3325
908.023	3424
908.139	3431
908.256	3351
908.372	3412
908.488	3401
908.604	3268
908.72	3249
908.836	3310
908.952	3268
909.068	3359
909.184	3507
909.3	3416
909.415	3545
909.531	3507
909.647	3321
909.762	3329
909.878	3291
909.993	3389
910.108	3325
910.224	3389
910.339	3454
910.454	3382
910.57	3298
910.685	3268
910.8	3591
910.915	3523
911.03	3469
911.145	3310
911.259	3310
911.374	3359
911.489	3275
911.604	3241
911.718	3119
911.833	3203
911.947	3062
912.062	3017
912.176	3169
912.291	3264
912.405	3237
912.519	3477
912.633	3507
912.748	3336
912.862	3268
912.976	3195
913.09	3142
913.204	3154
913.318	3245
913.431	3401
913.545	3351
913.659	3428
913.772	3378
913.886	3237
914	3253
914.113	3374
914.226	3389
914.34	3428
914.453	3233
914.566	3397
914.68	3313
914.793	3351
914.906	3142
915.019	3150
915.132	3070
915.245	3230
915.358	3218
915.47	3218
915.583	3264
915.696	3378
915.809	3439
915.921	3485
916.034	3253
916.146	3283
916.259	3230
916.371	3409
916.483	3382
916.595	3287
916.708	3344
916.82	3359
916.932	3363
917.044	3412
917.156	3409
917.268	3249
917.38	3370
917.491	3313
917.603	3420
917.715	3454
917.826	3473
917.938	3378
918.049	3264
918.161	3424
918.272	3618
918.384	3614
918.495	3481
918.606	3359
918.717	3313
918.828	3401
918.939	3477
919.05	3317
919.161	3405
919.272	3237
919.383	3329
919.494	3542
919.604	3701
919.715	3530
919.826	3435
919.936	3515
920.047	3622
920.157	3568
920.267	3785
920.378	3629
920.488	3633
920.598	3785
920.708	4021
920.818	3903
920.928	3827
921.038	4044
921.148	3983
921.258	3698
921.368	3667
921.477	3595
921.587	3553
921.697	3454
921.806	3652
921.916	3549
922.025	3405
922.134	3355
922.244	3359
922.353	3462
922.462	3249
922.571	3256
922.68	3116
922.789	3074
922.898	3173
923.007	3100
923.116	3226
923.224	3214
923.333	3214
923.442	3165
923.55	3108
923.659	3142
923.767	3226
923.876	3112
923.984	3249
924.092	3150
924.201	3184
924.309	3264
924.417	3317
924.525	3233
924.633	3195
924.741	4188
924.849	3077
924.956	3302
925.064	3119
925.172	3058
925.279	3100
925.387	3233
925.494	3222
925.602	3378
925.709	3359
925.816	3211
925.924	3306
926.031	3340
926.138	3386
926.245	3382
926.352	3253
926.459	3389
926.566	3481
926.673	3321
926.779	3249
926.886	3283
926.993	3173
927.099	3150
927.206	3131
927.312	3161
927.419	3279
927.525	3275
927.631	3268
927.737	3165
927.843	3135
927.95	3058
928.056	3146
928.162	3154
928.267	3287
928.373	3838
928.479	3310
928.585	3119
928.69	3264
928.796	3272
928.901	3211
929.007	3062
929.112	3230
929.218	3203
929.323	3165
929.428	3142
929.533	3332
929.638	3138
929.743	3173
929.848	3275
929.953	3218
930.058	3188
930.163	3001
930.267	3077
930.372	3245
930.477	3062
930.581	3332
930.685	3195
930.79	3108
930.894	3131
930.998	3138
931.103	3249
931.207	3001
931.311	2944
931.415	2941
931.519	2815
931.623	2815
