Data from test_V78500241_1296.txt Node
Date: Fri Mar 25 16:24:10 CST 2022
User: usil
Spectrometer: V785-0024
Trigger mode: 0
Integration Time (sec): 4.000000E-1
Scans to average: 1
Nonlinearity correction enabled: false
Boxcar width: 0
Storing dark spectrum: false
XAxis mode: Wavelengths
Number of Pixels in Spectrum: 1024
>>>>>Begin Spectral Data<<<<<
801.071	2933
801.214	2960
801.356	2887
801.499	2872
801.641	2872
801.783	2952
801.926	3074
802.068	2990
802.211	3036
802.353	3043
802.496	2979
802.638	3036
802.78	3058
802.923	3039
803.065	3039
803.208	2880
803.35	2902
803.492	2948
803.635	2944
803.777	2766
803.919	2880
804.061	3150
804.204	2929
804.346	2910
804.488	2895
804.63	2990
804.773	2880
804.915	2918
805.057	3066
805.199	2929
805.341	2979
805.483	3017
805.626	3013
805.768	2971
805.91	3116
806.052	3119
806.194	3009
806.336	3268
806.478	3001
806.62	2971
806.762	2967
806.904	3043
807.046	3173
807.188	2967
807.33	2883
807.472	2979
807.614	2925
807.756	2986
807.898	2914
808.04	2933
808.182	3001
808.324	2941
808.465	2902
808.607	2861
808.749	2800
808.891	2872
809.033	2960
809.174	2998
809.316	2906
809.458	2880
809.6	2792
809.741	2743
809.883	2769
810.025	2838
810.166	2872
810.308	2830
810.45	2838
810.591	2781
810.733	2773
810.875	2838
811.016	2819
811.158	2769
811.299	2815
811.441	2880
811.582	2876
811.724	2849
811.865	2804
812.007	2925
812.148	2887
812.29	2838
812.431	2861
812.573	2933
812.714	2979
812.855	3043
812.997	3070
813.138	3077
813.279	3055
813.421	2982
813.562	2899
813.703	2872
813.845	2899
813.986	2788
814.127	2724
814.268	2788
814.41	2811
814.551	2785
814.692	2883
814.833	2800
814.974	2914
815.115	2960
815.256	2849
815.397	2792
815.539	2868
815.68	2743
815.821	2792
815.962	2880
816.103	2929
816.244	2857
816.385	2868
816.526	2967
816.666	2918
816.807	2712
816.948	2902
817.089	2925
817.23	2838
817.371	2750
817.512	2792
817.653	2857
817.793	2845
817.934	2853
818.075	2956
818.216	3005
818.356	2967
818.497	2838
818.638	2769
818.778	2830
818.919	2762
819.06	2773
819.2	2872
819.341	2811
819.481	2792
819.622	2902
819.762	3131
819.903	3017
820.043	2910
820.184	2883
820.324	2883
820.465	2979
820.605	3013
820.746	3036
820.886	2922
821.026	3077
821.167	3203
821.307	3249
821.447	3218
821.588	3207
821.728	3203
821.868	3169
822.008	3104
822.149	3173
822.289	3180
822.429	3093
822.569	3074
822.709	3142
822.849	2998
822.99	3074
823.13	3116
823.27	3161
823.41	3116
823.55	3142
823.69	3142
823.83	3161
823.97	3047
824.11	2994
824.25	3047
824.389	3055
824.529	3127
824.669	3089
824.809	3173
824.949	3256
825.089	3256
825.228	3192
825.368	2998
825.508	2922
825.648	3009
825.787	3028
825.927	3047
826.067	2948
826.206	2982
826.346	3089
826.485	3093
826.625	3161
826.765	3283
826.904	3214
827.044	3017
827.183	2922
827.323	2887
827.462	3028
827.601	2952
827.741	2960
827.88	3013
828.02	2902
828.159	3001
828.298	3070
828.437	3123
828.577	3066
828.716	3310
828.855	3112
828.994	2971
829.134	2933
829.273	2929
829.412	2902
829.551	2883
829.69	2960
829.829	3032
829.968	3161
830.107	3074
830.246	3070
830.385	2963
830.524	2906
830.663	2872
830.802	2785
830.941	2701
831.08	2693
831.219	2826
831.357	2781
831.496	3005
831.635	2754
831.774	2674
831.913	2682
832.051	2598
832.19	2598
832.329	2716
832.467	2587
832.606	2518
832.744	2613
832.883	2621
833.022	2632
833.16	2663
833.299	2746
833.437	2739
833.576	2720
833.714	2769
833.852	2777
833.991	2785
834.129	2880
834.267	2895
834.406	2826
834.544	2922
834.682	2910
834.821	2914
834.959	3093
835.097	2937
835.235	3138
835.373	3055
835.511	3062
835.65	3001
835.788	2975
835.926	2902
836.064	2853
836.202	2853
836.34	3127
836.478	3184
836.615	3077
836.753	3135
836.891	3249
837.029	3184
837.167	3135
837.305	3131
837.443	3089
837.58	3009
837.718	3195
837.856	3131
837.993	3039
838.131	3142
838.269	3150
838.406	3119
838.544	3085
838.681	2982
838.819	2975
838.956	2826
839.094	2883
839.231	2948
839.369	3074
839.506	3374
839.643	3230
839.781	3024
839.918	2986
840.055	3085
840.193	3066
840.33	3100
840.467	3108
840.604	3199
840.742	3424
840.879	3066
841.016	3112
841.153	3127
841.29	3363
841.427	3332
841.564	3298
841.701	3340
841.838	3237
841.975	3195
842.112	3233
842.249	3146
842.385	3089
842.522	3264
842.659	3116
842.796	3100
842.933	3173
843.069	3104
843.206	3077
843.343	3218
843.479	3157
843.616	3169
843.752	2922
843.889	2887
844.025	3108
844.162	2910
844.298	3104
844.435	3005
844.571	2956
844.708	3100
844.844	3207
844.98	3260
845.117	3176
845.253	3089
845.389	3058
845.525	3131
845.661	3131
845.798	3058
845.934	3176
846.07	3077
846.206	3272
846.342	3344
846.478	3283
846.614	3100
846.75	3097
846.886	3055
847.022	3256
847.158	3138
847.294	3226
847.429	3230
847.565	3245
847.701	3469
847.837	3093
847.972	3055
848.108	3173
848.244	3180
848.379	3032
848.515	2944
848.65	2944
848.786	3028
848.921	3104
849.057	3142
849.192	3184
849.328	3112
849.463	3127
849.598	3089
849.734	3051
849.869	3017
850.004	2937
850.14	2994
850.275	2933
850.41	2864
850.545	2937
850.68	2952
850.815	2986
850.95	2979
851.085	3218
851.22	3108
851.355	3047
851.49	3039
851.625	3039
851.76	3058
851.895	2971
852.03	2933
852.165	3058
852.299	3146
852.434	3226
852.569	3180
852.703	3180
852.838	3253
852.973	3382
853.107	3340
853.242	3207
853.376	3100
853.511	3005
853.645	3104
853.78	3256
853.914	3161
854.048	3176
854.183	3131
854.317	3192
854.451	3321
854.585	3142
854.72	3131
854.854	3214
854.988	3032
855.122	3108
855.256	3039
855.39	3157
855.524	3294
855.658	3184
855.792	3207
855.926	3207
856.06	3272
856.194	3283
856.327	3180
856.461	3081
856.595	3116
856.729	3116
856.862	3237
856.996	3192
857.13	3226
857.263	3245
857.397	3256
857.53	3157
857.664	3230
857.797	3233
857.931	3291
858.064	3169
858.197	3264
858.331	3165
858.464	3108
858.597	3024
858.731	3123
858.864	3154
858.997	3138
859.13	3230
859.263	3180
859.396	3241
859.529	3089
859.662	3112
859.795	3077
859.928	3142
860.061	3264
860.194	3302
860.327	3157
860.46	3104
860.592	3260
860.725	3321
860.858	3256
860.99	3123
861.123	3070
861.256	3074
861.388	3180
861.521	3736
861.653	3028
861.786	2979
861.918	3024
862.05	3077
862.183	3097
862.315	3184
862.447	3226
862.58	3100
862.712	3013
862.844	2914
862.976	3070
863.108	3055
863.24	3363
863.372	2910
863.504	2979
863.636	2937
863.768	3070
863.9	2986
864.032	2979
864.164	2952
864.296	3009
864.428	3116
864.559	3161
864.691	3100
864.823	3055
864.954	3043
865.086	3028
865.217	2986
865.349	2975
865.48	3024
865.612	3028
865.743	3188
865.875	2975
866.006	2952
866.137	3009
866.269	2994
866.4	2941
866.531	2952
866.662	2899
866.793	2899
866.924	2906
867.055	2994
867.186	2929
867.317	2899
867.448	2899
867.579	2902
867.71	2883
867.841	2868
867.972	2929
868.103	2918
868.233	2883
868.364	2937
868.495	2956
868.625	3089
868.756	3165
868.886	3017
869.017	3043
869.147	3161
869.278	3146
869.408	3074
869.539	3081
869.669	3138
869.799	3058
869.929	3154
870.06	3089
870.19	3367
870.32	3317
870.45	3302
870.58	3378
870.71	3454
870.84	3462
870.97	3321
871.1	3256
871.23	3519
871.36	3473
871.489	3393
871.619	3428
871.749	3416
871.879	3389
872.008	3534
872.138	3424
872.267	3302
872.397	3154
872.526	3135
872.656	3047
872.785	3104
872.915	3249
873.044	3306
873.173	3222
873.303	3218
873.432	3287
873.561	3264
873.69	3154
873.819	3165
873.948	3233
874.077	3142
874.206	3055
874.335	3085
874.464	3249
874.593	3359
874.722	3275
874.851	3412
874.979	3359
875.108	3370
875.237	3230
875.365	3150
875.494	3184
875.623	3233
875.751	3066
875.88	3138
876.008	3192
876.136	3241
876.265	3386
876.393	3511
876.521	3462
876.65	3431
876.778	3344
876.906	3241
877.034	3268
877.162	3230
877.29	3176
877.418	3207
877.546	3253
877.674	3245
877.802	3260
877.93	3211
878.058	3180
878.185	3104
878.313	3192
878.441	3245
878.568	3085
878.696	3176
878.824	3245
878.951	3302
879.079	3492
879.206	3618
879.333	3450
879.461	3351
879.588	3378
879.715	3542
879.842	3618
879.97	3397
880.097	3184
880.224	3116
880.351	3218
880.478	3222
880.605	3230
880.732	3226
880.859	3519
880.986	3306
881.112	3329
881.239	3222
881.366	3123
881.493	3017
881.619	3047
881.746	3055
881.872	3119
881.999	3119
882.125	3169
882.252	3291
882.378	3336
882.505	3454
882.631	3355
882.757	3112
882.883	3214
883.01	3218
883.136	3180
883.262	3089
883.388	3150
883.514	3310
883.64	3397
883.766	3348
883.892	3199
884.018	3306
884.143	3443
884.269	3572
884.395	3253
884.52	3173
884.646	3180
884.772	3173
884.897	3135
885.023	3230
885.148	3325
885.274	3462
885.399	3393
885.524	3294
885.65	3279
885.775	3313
885.9	3272
886.025	3439
886.15	3416
886.275	3306
886.4	3264
886.525	3325
886.65	3306
886.775	3279
886.9	3496
887.025	3637
887.149	3431
887.274	3283
887.399	3218
887.523	3207
887.648	3195
887.773	3211
887.897	3382
888.021	3405
888.146	3340
888.27	3405
888.395	3553
888.519	3481
888.643	3481
888.767	3473
888.891	3332
889.015	3268
889.139	3344
889.263	3245
889.387	3405
889.511	3542
889.635	3466
889.759	3294
889.883	3302
890.006	3370
890.13	3485
890.254	3287
890.377	3386
890.501	3249
890.624	3199
890.748	3294
890.871	3218
890.995	3150
891.118	3093
891.241	3207
891.364	3260
891.488	3325
891.611	3173
891.734	3199
891.857	3283
891.98	3260
892.103	3329
892.226	3268
892.349	3218
892.471	3097
892.594	3218
892.717	3302
892.839	3268
892.962	3317
893.085	3348
893.207	3298
893.33	3195
893.452	3207
893.575	3363
893.697	3256
893.819	3447
893.941	3507
894.064	3389
894.186	3306
894.308	3260
894.43	3454
894.552	3519
894.674	3481
894.796	3294
894.918	3340
895.04	3355
895.161	3435
895.283	3386
895.405	3336
895.526	3336
895.648	3469
895.769	3439
895.891	3469
896.012	3458
896.134	3447
896.255	3412
896.376	3409
896.498	3382
896.619	3462
896.74	3374
896.861	3458
896.982	3686
897.103	3846
897.224	3568
897.345	3538
897.466	3424
897.587	3523
897.708	3618
897.828	3576
897.949	3458
898.07	3317
898.19	3443
898.311	3614
898.431	3443
898.552	3538
898.672	3618
898.792	3587
898.913	3549
899.033	3351
899.153	3283
899.273	3226
899.393	3264
899.513	3329
899.633	3294
899.753	3310
899.873	3291
899.993	3401
900.113	3363
900.232	3416
900.352	3313
900.472	3348
900.591	3218
900.711	3321
900.83	3241
900.95	3401
901.069	3496
901.189	3348
901.308	3192
901.427	3085
901.546	3241
901.665	3291
901.784	3310
901.904	3211
902.023	3176
902.141	3032
902.26	2979
902.379	3138
902.498	3104
902.617	3074
902.735	3214
902.854	3268
902.973	3199
903.091	3032
903.21	3058
903.328	3154
903.446	3100
903.565	3104
903.683	3188
903.801	3123
903.919	3249
904.038	3298
904.156	3199
904.274	3321
904.392	3256
904.51	3302
904.627	3329
904.745	3412
904.863	3507
904.981	3294
905.098	3180
905.216	3207
905.334	3313
905.451	3275
905.569	3294
905.686	3450
905.803	3443
905.921	3287
906.038	3420
906.155	3367
906.272	3283
906.389	3359
906.506	3241
906.623	3275
906.74	3302
906.857	3207
906.974	3283
907.091	3428
907.208	3557
907.324	3420
907.441	3370
907.557	3256
907.674	3230
907.79	3180
907.907	3260
908.023	3397
908.139	3367
908.256	3367
908.372	3374
908.488	3363
908.604	3279
908.72	3222
908.836	3294
908.952	3287
909.068	3306
909.184	3500
909.3	3382
909.415	3538
909.531	3466
909.647	3264
909.762	3264
909.878	3256
909.993	3389
910.108	3336
910.224	3336
910.339	3412
910.454	3332
910.57	3275
910.685	3218
910.8	3580
910.915	3500
911.03	3454
911.145	3275
911.259	3298
911.374	3340
911.489	3241
911.604	3222
911.718	3097
911.833	3180
911.947	3070
912.062	2990
912.176	3184
912.291	3203
912.405	3230
912.519	3401
912.633	3450
912.748	3344
912.862	3245
912.976	3188
913.09	3093
913.204	3108
913.318	3230
913.431	3363
913.545	3313
913.659	3428
913.772	3348
913.886	3222
914	3188
914.113	3367
914.226	3428
914.34	3344
914.453	3214
914.566	3450
914.68	3275
914.793	3336
914.906	3173
915.019	3085
915.132	3055
915.245	3165
915.358	3203
915.47	3226
915.583	3298
915.696	3313
915.809	3359
915.921	3431
916.034	3237
916.146	3279
916.259	3180
916.371	3386
916.483	3370
916.595	3298
916.708	3367
916.82	3340
916.932	3344
917.044	3306
917.156	3344
917.268	3249
917.38	3329
917.491	3317
917.603	3363
917.715	3435
917.826	3507
917.938	3386
918.049	3264
918.161	3401
918.272	3584
918.384	3553
918.495	3492
918.606	3359
918.717	3283
918.828	3348
918.939	3420
919.05	3275
919.161	3355
919.272	3233
919.383	3268
919.494	3485
919.604	3667
919.715	3504
919.826	3405
919.936	3447
920.047	3576
920.157	3557
920.267	3743
920.378	3572
920.488	3622
920.598	3808
920.708	3941
920.818	3835
920.928	3857
921.038	4017
921.148	3987
921.258	3698
921.368	3644
921.477	3591
921.587	3557
921.697	3447
921.806	3599
921.916	3485
922.025	3336
922.134	3359
922.244	3298
922.353	3409
922.462	3268
922.571	3218
922.68	3093
922.789	3077
922.898	3127
923.007	3104
923.116	3233
923.224	3176
923.333	3192
923.442	3104
923.55	3093
923.659	3165
923.767	3237
923.876	3112
923.984	3226
924.092	3100
924.201	3230
924.309	3203
924.417	3264
924.525	3176
924.633	3222
924.741	4029
924.849	3055
924.956	3260
925.064	3104
925.172	3051
925.279	3070
925.387	3222
925.494	3173
925.602	3386
925.709	3329
925.816	3176
925.924	3272
926.031	3370
926.138	3340
926.245	3370
926.352	3214
926.459	3428
926.566	3435
926.673	3344
926.779	3237
926.886	3226
926.993	3173
927.099	3123
927.206	3085
927.312	3142
927.419	3233
927.525	3188
927.631	3249
927.737	3157
927.843	3146
927.95	3017
928.056	3104
928.162	3123
928.267	3249
928.373	3857
928.479	3329
928.585	3066
928.69	3199
928.796	3268
928.901	3127
929.007	3058
929.112	3188
929.218	3180
929.323	3161
929.428	3154
929.533	3325
929.638	3135
929.743	3161
929.848	3260
929.953	3218
930.058	3165
930.163	3013
930.267	3066
930.372	3176
930.477	3055
930.581	3310
930.685	3176
930.79	3093
930.894	3154
930.998	3100
931.103	3245
931.207	2948
931.311	2948
931.415	2922
931.519	2781
931.623	2796
