Data from test_V78500241_835.txt Node
Date: Fri Mar 25 16:20:59 CST 2022
User: usil
Spectrometer: V785-0024
Trigger mode: 0
Integration Time (sec): 4.000000E-1
Scans to average: 1
Nonlinearity correction enabled: false
Boxcar width: 0
Storing dark spectrum: false
XAxis mode: Wavelengths
Number of Pixels in Spectrum: 1024
>>>>>Begin Spectral Data<<<<<
801.071	2895
801.214	2925
801.356	2880
801.499	2941
801.641	2906
801.783	2925
801.926	3024
802.068	2960
802.211	2998
802.353	3036
802.496	2944
802.638	3028
802.78	3047
802.923	3055
803.065	2967
803.208	2868
803.35	2906
803.492	2952
803.635	2918
803.777	2743
803.919	2861
804.061	3207
804.204	2979
804.346	2883
804.488	2842
804.63	2994
804.773	2853
804.915	2895
805.057	3074
805.199	2963
805.341	3013
805.483	3039
805.626	3009
805.768	2944
805.91	3108
806.052	3119
806.194	3047
806.336	3245
806.478	3020
806.62	2982
806.762	3013
806.904	3062
807.046	3195
807.188	3005
807.33	2918
807.472	3028
807.614	2956
807.756	3043
807.898	2967
808.04	2895
808.182	3001
808.324	2960
808.465	2876
808.607	2880
808.749	2815
808.891	2872
809.033	2986
809.174	3001
809.316	2925
809.458	2929
809.6	2788
809.741	2796
809.883	2838
810.025	2891
810.166	2891
810.308	2883
810.45	2883
810.591	2864
810.733	2792
810.875	2853
811.016	2796
811.158	2773
811.299	2842
811.441	2975
811.582	2918
811.724	2883
811.865	2864
812.007	2952
812.148	2895
812.29	2902
812.431	2902
812.573	2986
812.714	2982
812.855	3112
812.997	3108
813.138	3169
813.279	3070
813.421	3058
813.562	3001
813.703	2902
813.845	2925
813.986	2769
814.127	2781
814.268	2899
814.41	2883
814.551	2842
814.692	2872
814.833	2823
814.974	2929
815.115	2998
815.256	2857
815.397	2815
815.539	2914
815.68	2807
815.821	2785
815.962	2971
816.103	2944
816.244	2925
816.385	2864
816.526	3001
816.666	2937
816.807	2769
816.948	2925
817.089	2937
817.23	2887
817.371	2838
817.512	2826
817.653	2883
817.793	2834
817.934	2967
818.075	2986
818.216	3043
818.356	3055
818.497	2906
818.638	2819
818.778	2849
818.919	2834
819.06	2785
819.2	2910
819.341	2845
819.481	2842
819.622	2963
819.762	3180
819.903	3051
820.043	2937
820.184	2914
820.324	2918
820.465	3062
820.605	3089
820.746	3043
820.886	2994
821.026	3131
821.167	3188
821.307	3275
821.447	3283
821.588	3249
821.728	3226
821.868	3237
822.008	3108
822.149	3241
822.289	3264
822.429	3093
822.569	3116
822.709	3184
822.849	3058
822.99	3077
823.13	3195
823.27	3211
823.41	3104
823.55	3180
823.69	3199
823.83	3211
823.97	3070
824.11	3032
824.25	2994
824.389	3047
824.529	3116
824.669	3100
824.809	3169
824.949	3272
825.089	3233
825.228	3195
825.368	3024
825.508	3005
825.648	2994
825.787	2990
825.927	3036
826.067	3009
826.206	3009
826.346	3043
826.485	3104
826.625	3131
826.765	3283
826.904	3253
827.044	3009
827.183	2990
827.323	2880
827.462	3017
827.601	2918
827.741	2944
827.88	2971
828.02	2891
828.159	3001
828.298	3047
828.437	3161
828.577	3089
828.716	3268
828.855	3085
828.994	2941
829.134	2925
829.273	2933
829.412	2899
829.551	2861
829.69	2929
829.829	3062
829.968	3161
830.107	3043
830.246	3039
830.385	2963
830.524	2868
830.663	2796
830.802	2758
830.941	2667
831.08	2674
831.219	2792
831.357	2807
831.496	2963
831.635	2766
831.774	2655
831.913	2693
832.051	2579
832.19	2632
832.329	2724
832.467	2552
832.606	2495
832.744	2594
832.883	2610
833.022	2625
833.16	2678
833.299	2689
833.437	2743
833.576	2716
833.714	2727
833.852	2727
833.991	2811
834.129	2849
834.267	2849
834.406	2823
834.544	2891
834.682	2925
834.821	2861
834.959	3104
835.097	2880
835.235	3062
835.373	3020
835.511	3055
835.65	2979
835.788	2963
835.926	2857
836.064	2845
836.202	2895
836.34	3142
836.478	3211
836.615	3047
836.753	3176
836.891	3207
837.029	3176
837.167	3127
837.305	3066
837.443	3055
837.58	2952
837.718	3180
837.856	3104
837.993	3051
838.131	3169
838.269	3146
838.406	3138
838.544	3108
838.681	2918
838.819	2960
838.956	2815
839.094	2861
839.231	2918
839.369	3043
839.506	3389
839.643	3272
839.781	3058
839.918	3001
840.055	3093
840.193	3028
840.33	3089
840.467	3108
840.604	3192
840.742	3393
840.879	3085
841.016	3070
841.153	3112
841.29	3348
841.427	3313
841.564	3226
841.701	3344
841.838	3253
841.975	3207
842.112	3214
842.249	3131
842.385	3089
842.522	3275
842.659	3127
842.796	3093
842.933	3154
843.069	3055
843.206	3062
843.343	3203
843.479	3138
843.616	3195
843.752	2891
843.889	2872
844.025	3127
844.162	2899
844.298	3119
844.435	2963
844.571	2906
844.708	3066
844.844	3180
844.98	3291
845.117	3233
845.253	3077
845.389	3005
845.525	3154
845.661	3123
845.798	3013
845.934	3116
846.07	3085
846.206	3214
846.342	3260
846.478	3241
846.614	3085
846.75	3066
846.886	3005
847.022	3264
847.158	3123
847.294	3233
847.429	3211
847.565	3203
847.701	3439
847.837	3066
847.972	3013
848.108	3195
848.244	3199
848.379	3028
848.515	2967
848.65	2933
848.786	2952
848.921	2998
849.057	3146
849.192	3135
849.328	3074
849.463	3146
849.598	3089
849.734	3074
849.869	3005
850.004	2922
850.14	2994
850.275	2902
850.41	2891
850.545	2880
850.68	2956
850.815	2994
850.95	2982
851.085	3230
851.22	3142
851.355	3017
851.49	2990
851.625	3028
851.76	3047
851.895	2979
852.03	2918
852.165	3051
852.299	3104
852.434	3214
852.569	3157
852.703	3146
852.838	3268
852.973	3348
853.107	3332
853.242	3138
853.376	3097
853.511	2994
853.645	3058
853.78	3245
853.914	3138
854.048	3146
854.183	3089
854.317	3169
854.451	3279
854.585	3123
854.72	3070
854.854	3218
854.988	3055
855.122	3089
855.256	2975
855.39	3119
855.524	3233
855.658	3207
855.792	3150
855.926	3184
856.06	3226
856.194	3264
856.327	3146
856.461	3070
856.595	3081
856.729	3089
856.862	3233
856.996	3142
857.13	3192
857.263	3264
857.397	3272
857.53	3119
857.664	3176
857.797	3233
857.931	3298
858.064	3165
858.197	3256
858.331	3135
858.464	3131
858.597	3077
858.731	3108
858.864	3154
858.997	3135
859.13	3203
859.263	3180
859.396	3222
859.529	3104
859.662	3089
859.795	3028
859.928	3142
860.061	3241
860.194	3329
860.327	3157
860.46	3116
860.592	3230
860.725	3230
860.858	3264
860.99	3116
861.123	3104
861.256	3070
861.388	3180
861.521	3907
861.653	2994
861.786	2986
861.918	2971
862.05	3085
862.183	3104
862.315	3184
862.447	3203
862.58	3108
862.712	2967
862.844	2914
862.976	3020
863.108	3013
863.24	3287
863.372	2925
863.504	2967
863.636	2944
863.768	3039
863.9	2998
864.032	2910
864.164	2960
864.296	3009
864.428	3066
864.559	3131
864.691	3097
864.823	3077
864.954	3070
865.086	3043
865.217	2960
865.349	2994
865.48	3036
865.612	3013
865.743	3169
865.875	2986
866.006	2944
866.137	2990
866.269	2941
866.4	2944
866.531	2899
866.662	2880
866.793	2876
866.924	2891
867.055	2971
867.186	2941
867.317	2891
867.448	2845
867.579	2815
867.71	2899
867.841	2834
867.972	2937
868.103	2887
868.233	2906
868.364	2883
868.495	2937
868.625	3097
868.756	3184
868.886	2975
869.017	3017
869.147	3188
869.278	3203
869.408	3055
869.539	3058
869.669	3093
869.799	3097
869.929	3119
870.06	3127
870.19	3321
870.32	3283
870.45	3302
870.58	3367
870.71	3443
870.84	3462
870.97	3317
871.1	3222
871.23	3488
871.36	3515
871.489	3340
871.619	3374
871.749	3409
871.879	3447
872.008	3458
872.138	3378
872.267	3294
872.397	3161
872.526	3116
872.656	3024
872.785	3104
872.915	3272
873.044	3275
873.173	3249
873.303	3245
873.432	3253
873.561	3222
873.69	3176
873.819	3123
873.948	3192
874.077	3077
874.206	3028
874.335	3112
874.464	3192
874.593	3340
874.722	3264
874.851	3397
874.979	3351
875.108	3325
875.237	3218
875.365	3165
875.494	3157
875.623	3230
875.751	3066
875.88	3135
876.008	3195
876.136	3214
876.265	3351
876.393	3511
876.521	3409
876.65	3374
876.778	3351
876.906	3222
877.034	3184
877.162	3211
877.29	3218
877.418	3268
877.546	3268
877.674	3256
877.802	3264
877.93	3245
878.058	3188
878.185	3127
878.313	3268
878.441	3226
878.568	3116
878.696	3146
878.824	3264
878.951	3317
879.079	3462
879.206	3629
879.333	3416
879.461	3344
879.588	3348
879.715	3454
879.842	3610
879.97	3389
880.097	3142
880.224	3150
880.351	3192
880.478	3199
880.605	3180
880.732	3195
880.859	3485
880.986	3313
881.112	3321
881.239	3199
881.366	3112
881.493	3085
881.619	3036
881.746	3104
881.872	3123
881.999	3104
882.125	3123
882.252	3253
882.378	3317
882.505	3443
882.631	3283
882.757	3192
882.883	3222
883.01	3260
883.136	3176
883.262	3089
883.388	3127
883.514	3329
883.64	3382
883.766	3332
883.892	3150
884.018	3230
884.143	3435
884.269	3553
884.395	3195
884.52	3119
884.646	3195
884.772	3161
884.897	3104
885.023	3253
885.148	3374
885.274	3401
885.399	3370
885.524	3279
885.65	3260
885.775	3279
885.9	3287
886.025	3409
886.15	3378
886.275	3283
886.4	3214
886.525	3302
886.65	3291
886.775	3268
886.9	3507
887.025	3652
887.149	3393
887.274	3237
887.399	3176
887.523	3203
887.648	3173
887.773	3180
887.897	3344
888.021	3401
888.146	3298
888.27	3420
888.395	3542
888.519	3447
888.643	3443
888.767	3511
888.891	3329
889.015	3211
889.139	3264
889.263	3268
889.387	3412
889.511	3526
889.635	3481
889.759	3374
889.883	3310
890.006	3351
890.13	3492
890.254	3260
890.377	3321
890.501	3230
890.624	3192
890.748	3298
890.871	3214
890.995	3127
891.118	3066
891.241	3222
891.364	3264
891.488	3287
891.611	3169
891.734	3214
891.857	3298
891.98	3218
892.103	3329
892.226	3279
892.349	3211
892.471	3127
892.594	3249
892.717	3287
892.839	3287
892.962	3321
893.085	3355
893.207	3313
893.33	3184
893.452	3233
893.575	3355
893.697	3237
893.819	3431
893.941	3519
894.064	3435
894.186	3287
894.308	3272
894.43	3447
894.552	3504
894.674	3473
894.796	3268
894.918	3321
895.04	3275
895.161	3435
895.283	3420
895.405	3306
895.526	3359
895.648	3386
895.769	3435
895.891	3454
896.012	3485
896.134	3466
896.255	3405
896.376	3374
896.498	3389
896.619	3424
896.74	3370
896.861	3386
896.982	3698
897.103	3850
897.224	3618
897.345	3515
897.466	3401
897.587	3500
897.708	3580
897.828	3557
897.949	3466
898.07	3313
898.19	3397
898.311	3584
898.431	3466
898.552	3496
898.672	3568
898.792	3523
898.913	3492
899.033	3405
899.153	3302
899.273	3207
899.393	3325
899.513	3332
899.633	3283
899.753	3370
899.873	3336
899.993	3374
900.113	3348
900.232	3393
900.352	3336
900.472	3298
900.591	3241
900.711	3268
900.83	3245
900.95	3393
901.069	3473
901.189	3321
901.308	3207
901.427	3146
901.546	3192
901.665	3260
901.784	3325
901.904	3237
902.023	3138
902.141	2986
902.26	3024
902.379	3138
902.498	3062
902.617	3051
902.735	3165
902.854	3241
902.973	3203
903.091	3066
903.21	3093
903.328	3131
903.446	3104
903.565	3089
903.683	3169
903.801	3089
903.919	3249
904.038	3275
904.156	3161
904.274	3272
904.392	3264
904.51	3298
904.627	3332
904.745	3428
904.863	3450
904.981	3253
905.098	3195
905.216	3237
905.334	3310
905.451	3313
905.569	3310
905.686	3435
905.803	3416
905.921	3249
906.038	3420
906.155	3378
906.272	3268
906.389	3298
906.506	3268
906.623	3264
906.74	3268
906.857	3199
906.974	3283
907.091	3416
907.208	3557
907.324	3485
907.441	3409
907.557	3218
907.674	3256
907.79	3233
907.907	3241
908.023	3401
908.139	3382
908.256	3359
908.372	3386
908.488	3367
908.604	3226
908.72	3249
908.836	3275
908.952	3268
909.068	3332
909.184	3462
909.3	3397
909.415	3469
909.531	3488
909.647	3298
909.762	3287
909.878	3264
909.993	3386
910.108	3310
910.224	3321
910.339	3374
910.454	3332
910.57	3298
910.685	3180
910.8	3572
910.915	3557
911.03	3458
911.145	3291
911.259	3302
911.374	3283
911.489	3245
911.604	3233
911.718	3161
911.833	3138
911.947	3024
912.062	2982
912.176	3188
912.291	3184
912.405	3203
912.519	3409
912.633	3473
912.748	3317
912.862	3302
912.976	3173
913.09	3070
913.204	3116
913.318	3241
913.431	3317
913.545	3351
913.659	3405
913.772	3355
913.886	3222
914	3195
914.113	3363
914.226	3428
914.34	3378
914.453	3203
914.566	3428
914.68	3291
914.793	3317
914.906	3150
915.019	3085
915.132	3093
915.245	3180
915.358	3188
915.47	3207
915.583	3291
915.696	3279
915.809	3409
915.921	3367
916.034	3230
916.146	3253
916.259	3233
916.371	3367
916.483	3344
916.595	3268
916.708	3329
916.82	3321
916.932	3321
917.044	3348
917.156	3321
917.268	3249
917.38	3264
917.491	3310
917.603	3370
917.715	3462
917.826	3466
917.938	3363
918.049	3279
918.161	3401
918.272	3576
918.384	3568
918.495	3469
918.606	3336
918.717	3275
918.828	3382
918.939	3397
919.05	3275
919.161	3355
919.272	3173
919.383	3275
919.494	3511
919.604	3694
919.715	3469
919.826	3416
919.936	3507
920.047	3572
920.157	3523
920.267	3778
920.378	3641
920.488	3606
920.598	3720
920.708	3945
920.818	3876
920.928	3812
921.038	3991
921.148	4002
921.258	3705
921.368	3652
921.477	3564
921.587	3580
921.697	3447
921.806	3622
921.916	3538
922.025	3359
922.134	3378
922.244	3321
922.353	3454
922.462	3222
922.571	3211
922.68	3089
922.789	3081
922.898	3142
923.007	3077
923.116	3169
923.224	3161
923.333	3184
923.442	3116
923.55	3089
923.659	3116
923.767	3222
923.876	3138
923.984	3241
924.092	3074
924.201	3180
924.309	3184
924.417	3237
924.525	3180
924.633	3207
924.741	4021
924.849	3032
924.956	3230
925.064	3074
925.172	3036
925.279	3108
925.387	3203
925.494	3184
925.602	3321
925.709	3317
925.816	3192
925.924	3264
926.031	3355
926.138	3283
926.245	3367
926.352	3222
926.459	3450
926.566	3466
926.673	3325
926.779	3245
926.886	3264
926.993	3108
927.099	3135
927.206	3085
927.312	3081
927.419	3237
927.525	3199
927.631	3302
927.737	3150
927.843	3135
927.95	3047
928.056	3123
928.162	3150
928.267	3245
928.373	3747
928.479	3325
928.585	3055
928.69	3214
928.796	3214
928.901	3176
929.007	3024
929.112	3195
929.218	3173
929.323	3142
929.428	3112
929.533	3310
929.638	3100
929.743	3173
929.848	3237
929.953	3192
930.058	3157
930.163	2986
930.267	3051
930.372	3233
930.477	3062
930.581	3306
930.685	3184
930.79	3093
930.894	3123
930.998	3108
931.103	3253
931.207	2960
931.311	2963
931.415	2933
931.519	2731
931.623	2792
