Data from test_V78500241_600.txt Node
Date: Fri Mar 25 16:19:21 CST 2022
User: usil
Spectrometer: V785-0024
Trigger mode: 0
Integration Time (sec): 4.000000E-1
Scans to average: 1
Nonlinearity correction enabled: false
Boxcar width: 0
Storing dark spectrum: false
XAxis mode: Wavelengths
Number of Pixels in Spectrum: 1024
>>>>>Begin Spectral Data<<<<<
801.071	2887
801.214	2918
801.356	2823
801.499	2910
801.641	2857
801.783	2933
801.926	3062
802.068	2975
802.211	2960
802.353	3066
802.496	2967
802.638	3017
802.78	3036
802.923	3077
803.065	3028
803.208	2899
803.35	2910
803.492	2948
803.635	2910
803.777	2769
803.919	2819
804.061	3207
804.204	2929
804.346	2895
804.488	2853
804.63	2998
804.773	2853
804.915	2952
805.057	3074
805.199	2906
805.341	2956
805.483	3036
805.626	3032
805.768	2922
805.91	3100
806.052	3104
806.194	3032
806.336	3214
806.478	3005
806.62	2967
806.762	2982
806.904	3039
807.046	3123
807.188	2960
807.33	2914
807.472	2979
807.614	2876
807.756	2982
807.898	2952
808.04	2895
808.182	2922
808.324	2925
808.465	2922
808.607	2853
808.749	2758
808.891	2876
809.033	2979
809.174	3005
809.316	2895
809.458	2899
809.6	2788
809.741	2769
809.883	2773
810.025	2887
810.166	2845
810.308	2826
810.45	2842
810.591	2754
810.733	2781
810.875	2838
811.016	2762
811.158	2746
811.299	2849
811.441	2929
811.582	2887
811.724	2845
811.865	2826
812.007	2864
812.148	2845
812.29	2861
812.431	2937
812.573	2891
812.714	2952
812.855	3058
812.997	3058
813.138	3097
813.279	3017
813.421	2971
813.562	2975
813.703	2872
813.845	2883
813.986	2743
814.127	2739
814.268	2807
814.41	2826
814.551	2769
814.692	2876
814.833	2758
814.974	2910
815.115	2899
815.256	2853
815.397	2845
815.539	2826
815.68	2766
815.821	2777
815.962	2899
816.103	2902
816.244	2902
816.385	2872
816.526	2998
816.666	2891
816.807	2777
816.948	2906
817.089	2895
817.23	2849
817.371	2758
817.512	2811
817.653	2857
817.793	2804
817.934	2887
818.075	2941
818.216	2986
818.356	3039
818.497	2864
818.638	2743
818.778	2800
818.919	2785
819.06	2758
819.2	2845
819.341	2826
819.481	2834
819.622	2918
819.762	3089
819.903	3051
820.043	2922
820.184	2922
820.324	2895
820.465	3009
820.605	3013
820.746	3024
820.886	2941
821.026	3089
821.167	3173
821.307	3268
821.447	3291
821.588	3195
821.728	3218
821.868	3165
822.008	3089
822.149	3119
822.289	3222
822.429	3093
822.569	3062
822.709	3184
822.849	3024
822.99	3058
823.13	3180
823.27	3233
823.41	3085
823.55	3116
823.69	3150
823.83	3188
823.97	3108
824.11	2998
824.25	2990
824.389	3036
824.529	3085
824.669	3055
824.809	3169
824.949	3237
825.089	3241
825.228	3154
825.368	2979
825.508	2986
825.648	2979
825.787	2975
825.927	3017
826.067	2929
826.206	2937
826.346	3039
826.485	3036
826.625	3135
826.765	3230
826.904	3241
827.044	2979
827.183	2922
827.323	2868
827.462	2998
827.601	2910
827.741	2914
827.88	2918
828.02	2868
828.159	2971
828.298	3028
828.437	3127
828.577	3039
828.716	3253
828.855	3043
828.994	2910
829.134	2834
829.273	2906
829.412	2842
829.551	2849
829.69	2880
829.829	2963
829.968	3104
830.107	3017
830.246	3032
830.385	2948
830.524	2876
830.663	2792
830.802	2716
830.941	2670
831.08	2621
831.219	2762
831.357	2754
831.496	2948
831.635	2720
831.774	2648
831.913	2644
832.051	2545
832.19	2549
832.329	2644
832.467	2503
832.606	2499
832.744	2575
832.883	2568
833.022	2598
833.16	2636
833.299	2708
833.437	2697
833.576	2682
833.714	2708
833.852	2712
833.991	2743
834.129	2823
834.267	2807
834.406	2792
834.544	2872
834.682	2876
834.821	2853
834.959	3070
835.097	2910
835.235	3070
835.373	2986
835.511	3032
835.65	2933
835.788	2986
835.926	2823
836.064	2823
836.202	2830
836.34	3100
836.478	3165
836.615	3024
836.753	3119
836.891	3230
837.029	3138
837.167	3119
837.305	3062
837.443	3066
837.58	2967
837.718	3142
837.856	3062
837.993	3032
838.131	3093
838.269	3127
838.406	3066
838.544	3093
838.681	2925
838.819	2887
838.956	2800
839.094	2842
839.231	2914
839.369	3028
839.506	3321
839.643	3226
839.781	3024
839.918	2941
840.055	3062
840.193	3028
840.33	3039
840.467	3062
840.604	3154
840.742	3401
840.879	3062
841.016	3020
841.153	3089
841.29	3298
841.427	3283
841.564	3253
841.701	3245
841.838	3192
841.975	3180
842.112	3218
842.249	3097
842.385	3043
842.522	3226
842.659	3100
842.796	3081
842.933	3085
843.069	3036
843.206	3062
843.343	3146
843.479	3108
843.616	3119
843.752	2880
843.889	2872
844.025	3058
844.162	2899
844.298	3100
844.435	2960
844.571	2925
844.708	3074
844.844	3184
844.98	3218
845.117	3188
845.253	3058
845.389	2990
845.525	3062
845.661	3116
845.798	2998
845.934	3131
846.07	3058
846.206	3226
846.342	3272
846.478	3176
846.614	3066
846.75	3028
846.886	3020
847.022	3264
847.158	3135
847.294	3218
847.429	3268
847.565	3214
847.701	3473
847.837	3001
847.972	3028
848.108	3176
848.244	3138
848.379	2971
848.515	2960
848.65	2963
848.786	2967
848.921	3013
849.057	3089
849.192	3123
849.328	3051
849.463	3108
849.598	3024
849.734	3051
849.869	2982
850.004	2918
850.14	2960
850.275	2914
850.41	2845
850.545	2868
850.68	2948
850.815	2948
850.95	2948
851.085	3199
851.22	3093
851.355	2990
851.49	2979
851.625	3017
851.76	3005
851.895	2895
852.03	2895
852.165	3047
852.299	3100
852.434	3176
852.569	3131
852.703	3146
852.838	3218
852.973	3321
853.107	3321
853.242	3150
853.376	3112
853.511	2975
853.645	3005
853.78	3207
853.914	3093
854.048	3077
854.183	3036
854.317	3131
854.451	3272
854.585	3116
854.72	3058
854.854	3192
854.988	3013
855.122	3077
855.256	2979
855.39	3081
855.524	3233
855.658	3195
855.792	3123
855.926	3176
856.06	3226
856.194	3256
856.327	3131
856.461	3081
856.595	3058
856.729	3066
856.862	3188
856.996	3131
857.13	3214
857.263	3176
857.397	3260
857.53	3104
857.664	3154
857.797	3222
857.931	3272
858.064	3157
858.197	3199
858.331	3173
858.464	3093
858.597	3028
858.731	3100
858.864	3138
858.997	3093
859.13	3138
859.263	3165
859.396	3176
859.529	3047
859.662	3085
859.795	3028
859.928	3119
860.061	3313
860.194	3283
860.327	3135
860.46	3077
860.592	3203
860.725	3207
860.858	3253
860.99	3123
861.123	3055
861.256	3036
861.388	3150
861.521	3701
861.653	2990
861.786	3001
861.918	2971
862.05	3047
862.183	3043
862.315	3131
862.447	3188
862.58	3089
862.712	2922
862.844	2922
862.976	3020
863.108	2986
863.24	3389
863.372	2887
863.504	2956
863.636	2963
863.768	3020
863.9	2990
864.032	2922
864.164	2979
864.296	3009
864.428	3077
864.559	3070
864.691	3058
864.823	3055
864.954	3039
865.086	3043
865.217	2994
865.349	2944
865.48	2986
865.612	3005
865.743	3127
865.875	2963
866.006	2937
866.137	2929
866.269	2963
866.4	2910
866.531	2914
866.662	2872
866.793	2902
866.924	2918
867.055	2967
867.186	2941
867.317	2883
867.448	2834
867.579	2838
867.71	2868
867.841	2804
867.972	2922
868.103	2895
868.233	2868
868.364	2845
868.495	2872
868.625	3085
868.756	3154
868.886	2982
869.017	3009
869.147	3195
869.278	3154
869.408	3055
869.539	3028
869.669	3089
869.799	3047
869.929	3081
870.06	3089
870.19	3348
870.32	3283
870.45	3253
870.58	3359
870.71	3435
870.84	3447
870.97	3298
871.1	3233
871.23	3424
871.36	3443
871.489	3310
871.619	3393
871.749	3397
871.879	3424
872.008	3507
872.138	3355
872.267	3275
872.397	3131
872.526	3119
872.656	3036
872.785	3123
872.915	3184
873.044	3321
873.173	3180
873.303	3218
873.432	3211
873.561	3237
873.69	3135
873.819	3116
873.948	3207
874.077	3108
874.206	3039
874.335	3100
874.464	3195
874.593	3313
874.722	3211
874.851	3386
874.979	3329
875.108	3291
875.237	3192
875.365	3154
875.494	3157
875.623	3237
875.751	3070
875.88	3074
876.008	3188
876.136	3230
876.265	3321
876.393	3477
876.521	3401
876.65	3382
876.778	3283
876.906	3253
877.034	3195
877.162	3207
877.29	3211
877.418	3230
877.546	3233
877.674	3264
877.802	3264
877.93	3211
878.058	3127
878.185	3100
878.313	3192
878.441	3195
878.568	3066
878.696	3157
878.824	3233
878.951	3287
879.079	3416
879.206	3667
879.333	3397
879.461	3306
879.588	3321
879.715	3496
879.842	3572
879.97	3355
880.097	3154
880.224	3131
880.351	3169
880.478	3230
880.605	3188
880.732	3180
880.859	3477
880.986	3306
881.112	3336
881.239	3184
881.366	3085
881.493	3009
881.619	3013
881.746	3089
881.872	3074
881.999	3108
882.125	3123
882.252	3176
882.378	3298
882.505	3435
882.631	3310
882.757	3135
882.883	3180
883.01	3218
883.136	3135
883.262	3051
883.388	3100
883.514	3310
883.64	3370
883.766	3313
883.892	3173
884.018	3256
884.143	3447
884.269	3553
884.395	3188
884.52	3195
884.646	3176
884.772	3100
884.897	3119
885.023	3207
885.148	3348
885.274	3401
885.399	3367
885.524	3233
885.65	3245
885.775	3291
885.9	3283
886.025	3386
886.15	3370
886.275	3264
886.4	3195
886.525	3313
886.65	3268
886.775	3275
886.9	3485
887.025	3656
887.149	3439
887.274	3226
887.399	3195
887.523	3207
887.648	3173
887.773	3226
887.897	3348
888.021	3359
888.146	3275
888.27	3431
888.395	3515
888.519	3439
888.643	3477
888.767	3405
888.891	3294
889.015	3253
889.139	3298
889.263	3249
889.387	3401
889.511	3530
889.635	3378
889.759	3306
889.883	3310
890.006	3344
890.13	3492
890.254	3302
890.377	3340
890.501	3176
890.624	3207
890.748	3260
890.871	3192
890.995	3104
891.118	3081
891.241	3218
891.364	3237
891.488	3325
891.611	3127
891.734	3222
891.857	3294
891.98	3207
892.103	3363
892.226	3268
892.349	3233
892.471	3123
892.594	3241
892.717	3283
892.839	3283
892.962	3321
893.085	3363
893.207	3287
893.33	3195
893.452	3207
893.575	3317
893.697	3241
893.819	3458
893.941	3504
894.064	3439
894.186	3241
894.308	3253
894.43	3412
894.552	3530
894.674	3450
894.796	3245
894.918	3298
895.04	3294
895.161	3428
895.283	3397
895.405	3302
895.526	3317
895.648	3435
895.769	3435
895.891	3466
896.012	3469
896.134	3500
896.255	3386
896.376	3378
896.498	3389
896.619	3405
896.74	3363
896.861	3386
896.982	3637
897.103	3800
897.224	3587
897.345	3488
897.466	3401
897.587	3507
897.708	3595
897.828	3530
897.949	3462
898.07	3340
898.19	3370
898.311	3603
898.431	3435
898.552	3488
898.672	3564
898.792	3568
898.913	3515
899.033	3424
899.153	3306
899.273	3199
899.393	3298
899.513	3283
899.633	3310
899.753	3359
899.873	3268
899.993	3363
900.113	3291
900.232	3397
900.352	3294
900.472	3302
900.591	3154
900.711	3313
900.83	3218
900.95	3420
901.069	3477
901.189	3325
901.308	3180
901.427	3070
901.546	3199
901.665	3287
901.784	3340
901.904	3203
902.023	3138
902.141	3039
902.26	2975
902.379	3119
902.498	3032
902.617	3055
902.735	3218
902.854	3249
902.973	3192
903.091	3036
903.21	3085
903.328	3138
903.446	3127
903.565	3070
903.683	3188
903.801	3119
903.919	3249
904.038	3275
904.156	3138
904.274	3253
904.392	3268
904.51	3249
904.627	3313
904.745	3431
904.863	3519
904.981	3272
905.098	3161
905.216	3230
905.334	3279
905.451	3283
905.569	3279
905.686	3393
905.803	3435
905.921	3260
906.038	3412
906.155	3317
906.272	3268
906.389	3306
906.506	3184
906.623	3218
906.74	3245
906.857	3211
906.974	3233
907.091	3481
907.208	3542
907.324	3378
907.441	3382
907.557	3214
907.674	3218
907.79	3188
907.907	3241
908.023	3386
908.139	3340
908.256	3275
908.372	3363
908.488	3340
908.604	3249
908.72	3233
908.836	3283
908.952	3291
909.068	3291
909.184	3473
909.3	3401
909.415	3462
909.531	3431
909.647	3310
909.762	3268
909.878	3256
909.993	3363
910.108	3336
910.224	3294
910.339	3416
910.454	3397
910.57	3298
910.685	3275
910.8	3606
910.915	3504
911.03	3447
911.145	3272
911.259	3245
911.374	3355
911.489	3241
911.604	3272
911.718	3142
911.833	3176
911.947	3055
912.062	3005
912.176	3169
912.291	3241
912.405	3214
912.519	3435
912.633	3530
912.748	3329
912.862	3272
912.976	3211
913.09	3081
913.204	3135
913.318	3272
913.431	3348
913.545	3336
913.659	3435
913.772	3351
913.886	3294
914	3199
914.113	3393
914.226	3485
914.34	3367
914.453	3245
914.566	3435
914.68	3374
914.793	3348
914.906	3211
915.019	3169
915.132	3123
915.245	3237
915.358	3256
915.47	3264
915.583	3329
915.696	3351
915.809	3435
915.921	3469
916.034	3298
916.146	3302
916.259	3275
916.371	3428
916.483	3428
916.595	3325
916.708	3416
916.82	3351
916.932	3367
917.044	3416
917.156	3378
917.268	3310
917.38	3367
917.491	3340
917.603	3386
917.715	3473
917.826	3500
917.938	3405
918.049	3317
918.161	3450
918.272	3622
918.384	3610
918.495	3515
918.606	3409
918.717	3306
918.828	3382
918.939	3462
919.05	3355
919.161	3428
919.272	3192
919.383	3332
919.494	3542
919.604	3709
919.715	3515
919.826	3412
919.936	3519
920.047	3595
920.157	3580
920.267	3774
920.378	3606
920.488	3599
920.598	3831
920.708	3991
920.818	3873
920.928	3865
921.038	4021
921.148	4048
921.258	3720
921.368	3652
921.477	3587
921.587	3580
921.697	3500
921.806	3667
921.916	3500
922.025	3370
922.134	3378
922.244	3325
922.353	3458
922.462	3291
922.571	3260
922.68	3142
922.789	3112
922.898	3199
923.007	3154
923.116	3188
923.224	3188
923.333	3207
923.442	3116
923.55	3142
923.659	3165
923.767	3245
923.876	3142
923.984	3313
924.092	3142
924.201	3237
924.309	3245
924.417	3272
924.525	3226
924.633	3264
924.741	4006
924.849	3100
924.956	3306
925.064	3135
925.172	3047
925.279	3138
925.387	3264
925.494	3207
925.602	3370
925.709	3416
925.816	3188
925.924	3317
926.031	3428
926.138	3374
926.245	3389
926.352	3306
926.459	3466
926.566	3481
926.673	3370
926.779	3306
926.886	3294
926.993	3173
927.099	3184
927.206	3157
927.312	3146
927.419	3222
927.525	3218
927.631	3302
927.737	3135
927.843	3180
927.95	3081
928.056	3184
928.162	3180
928.267	3241
928.373	3831
928.479	3340
928.585	3058
928.69	3283
928.796	3283
928.901	3142
929.007	3097
929.112	3245
929.218	3211
929.323	3176
929.428	3169
929.533	3359
929.638	3123
929.743	3226
929.848	3268
929.953	3237
930.058	3192
930.163	3081
930.267	3058
930.372	3253
930.477	3036
930.581	3351
930.685	3207
930.79	3070
930.894	3165
930.998	3104
931.103	3283
931.207	2979
931.311	2971
931.415	2994
931.519	2796
931.623	2842
