Data from test_V78500241_153.txt Node
Date: Fri Mar 25 16:16:15 CST 2022
User: usil
Spectrometer: V785-0024
Trigger mode: 0
Integration Time (sec): 4.000000E-1
Scans to average: 1
Nonlinearity correction enabled: false
Boxcar width: 0
Storing dark spectrum: false
XAxis mode: Wavelengths
Number of Pixels in Spectrum: 1024
>>>>>Begin Spectral Data<<<<<
801.071	2937
801.214	2960
801.356	2891
801.499	2891
801.641	2902
801.783	2956
801.926	3097
802.068	3005
802.211	3001
802.353	3043
802.496	2963
802.638	3020
802.78	3039
802.923	3077
803.065	3039
803.208	2899
803.35	2967
803.492	2963
803.635	2960
803.777	2781
803.919	2899
804.061	3237
804.204	2967
804.346	2925
804.488	2861
804.63	3028
804.773	2891
804.915	2944
805.057	3089
805.199	2963
805.341	2952
805.483	3043
805.626	3024
805.768	2963
805.91	3093
806.052	3150
806.194	3036
806.336	3256
806.478	3032
806.62	2971
806.762	2986
806.904	3081
807.046	3146
807.188	3001
807.33	2952
807.472	2967
807.614	2937
807.756	3028
807.898	2967
808.04	2906
808.182	3001
808.324	2979
808.465	2891
808.607	2910
808.749	2819
808.891	2876
809.033	3001
809.174	2986
809.316	2937
809.458	2910
809.6	2777
809.741	2807
809.883	2746
810.025	2842
810.166	2853
810.308	2842
810.45	2857
810.591	2785
810.733	2773
810.875	2902
811.016	2807
811.158	2773
811.299	2819
811.441	2925
811.582	2895
811.724	2838
811.865	2823
812.007	2956
812.148	2876
812.29	2880
812.431	2944
812.573	2937
812.714	3001
812.855	3058
812.997	3043
813.138	3135
813.279	3013
813.421	2967
813.562	2960
813.703	2906
813.845	2857
813.986	2811
814.127	2735
814.268	2849
814.41	2883
814.551	2815
814.692	2910
814.833	2842
814.974	2864
815.115	2967
815.256	2834
815.397	2811
815.539	2880
815.68	2766
815.821	2815
815.962	2922
816.103	2899
816.244	2872
816.385	2883
816.526	2963
816.666	2914
816.807	2766
816.948	2887
817.089	2933
817.23	2872
817.371	2777
817.512	2819
817.653	2842
817.793	2834
817.934	2880
818.075	2967
818.216	2979
818.356	3020
818.497	2899
818.638	2781
818.778	2796
818.919	2796
819.06	2758
819.2	2887
819.341	2815
819.481	2853
819.622	2952
819.762	3131
819.903	3070
820.043	2941
820.184	2895
820.324	2941
820.465	3009
820.605	3032
820.746	3039
820.886	2914
821.026	3138
821.167	3176
821.307	3298
821.447	3332
821.588	3275
821.728	3256
821.868	3214
822.008	3112
822.149	3207
822.289	3230
822.429	3100
822.569	3138
822.709	3214
822.849	3062
822.99	3100
823.13	3199
823.27	3226
823.41	3150
823.55	3207
823.69	3180
823.83	3241
823.97	3146
824.11	3036
824.25	3051
824.389	3100
824.529	3169
824.669	3093
824.809	3264
824.949	3275
825.089	3241
825.228	3241
825.368	3062
825.508	2990
825.648	3024
825.787	3036
825.927	3066
826.067	3017
826.206	3024
826.346	3085
826.485	3131
826.625	3180
826.765	3298
826.904	3272
827.044	3020
827.183	3017
827.323	2944
827.462	3017
827.601	3024
827.741	2994
827.88	3005
828.02	2857
828.159	2994
828.298	3104
828.437	3161
828.577	3123
828.716	3298
828.855	3127
828.994	2960
829.134	2979
829.273	3001
829.412	2922
829.551	2937
829.69	2914
829.829	3028
829.968	3222
830.107	3051
830.246	3131
830.385	2986
830.524	2929
830.663	2861
830.802	2792
830.941	2724
831.08	2689
831.219	2807
831.357	2823
831.496	3013
831.635	2785
831.774	2655
831.913	2693
832.051	2640
832.19	2613
832.329	2720
832.467	2579
832.606	2556
832.744	2644
832.883	2644
833.022	2640
833.16	2724
833.299	2716
833.437	2735
833.576	2731
833.714	2804
833.852	2792
833.991	2807
834.129	2868
834.267	2872
834.406	2826
834.544	2948
834.682	2963
834.821	2891
834.959	3127
835.097	2952
835.235	3127
835.373	3070
835.511	3097
835.65	3043
835.788	2994
835.926	2883
836.064	2872
836.202	2876
836.34	3150
836.478	3184
836.615	3077
836.753	3199
836.891	3226
837.029	3207
837.167	3150
837.305	3131
837.443	3138
837.58	3032
837.718	3199
837.856	3104
837.993	3058
838.131	3184
838.269	3165
838.406	3157
838.544	3142
838.681	2986
838.819	2941
838.956	2830
839.094	2899
839.231	3020
839.369	3081
839.506	3424
839.643	3275
839.781	3077
839.918	3005
840.055	3085
840.193	3104
840.33	3093
840.467	3123
840.604	3199
840.742	3447
840.879	3104
841.016	3085
841.153	3180
841.29	3386
841.427	3348
841.564	3340
841.701	3367
841.838	3272
841.975	3218
842.112	3275
842.249	3112
842.385	3097
842.522	3287
842.659	3146
842.796	3138
842.933	3154
843.069	3097
843.206	3081
843.343	3211
843.479	3165
843.616	3154
843.752	2933
843.889	2910
844.025	3123
844.162	2941
844.298	3119
844.435	3024
844.571	2922
844.708	3150
844.844	3279
844.98	3306
845.117	3272
845.253	3085
845.389	3058
845.525	3131
845.661	3176
845.798	3036
845.934	3192
846.07	3112
846.206	3253
846.342	3340
846.478	3298
846.614	3142
846.75	3085
846.886	3077
847.022	3283
847.158	3214
847.294	3249
847.429	3294
847.565	3264
847.701	3561
847.837	3108
847.972	3051
848.108	3169
848.244	3203
848.379	3039
848.515	2956
848.65	2960
848.786	3028
848.921	3028
849.057	3165
849.192	3214
849.328	3100
849.463	3157
849.598	3066
849.734	3085
849.869	2994
850.004	2960
850.14	3047
850.275	2967
850.41	2853
850.545	2922
850.68	2967
850.815	2971
850.95	2967
851.085	3199
851.22	3154
851.355	3047
851.49	3017
851.625	3028
851.76	3074
851.895	2948
852.03	2975
852.165	3055
852.299	3138
852.434	3226
852.569	3203
852.703	3233
852.838	3313
852.973	3359
853.107	3393
853.242	3188
853.376	3127
853.511	3009
853.645	3074
853.78	3291
853.914	3184
854.048	3165
854.183	3150
854.317	3218
854.451	3321
854.585	3161
854.72	3123
854.854	3253
854.988	3097
855.122	3112
855.256	3058
855.39	3161
855.524	3283
855.658	3214
855.792	3218
855.926	3173
856.06	3256
856.194	3275
856.327	3154
856.461	3119
856.595	3119
856.729	3104
856.862	3256
856.996	3214
857.13	3218
857.263	3268
857.397	3302
857.53	3169
857.664	3245
857.797	3222
857.931	3283
858.064	3195
858.197	3302
858.331	3218
858.464	3146
858.597	3013
858.731	3142
858.864	3154
858.997	3123
859.13	3199
859.263	3256
859.396	3226
859.529	3150
859.662	3100
859.795	3077
859.928	3176
860.061	3329
860.194	3294
860.327	3180
860.46	3154
860.592	3287
860.725	3298
860.858	3245
860.99	3116
861.123	3100
861.256	3127
861.388	3218
861.521	3747
861.653	3051
861.786	3028
861.918	3043
862.05	3138
862.183	3142
862.315	3233
862.447	3233
862.58	3131
862.712	2998
862.844	2941
862.976	3055
863.108	3051
863.24	3370
863.372	2891
863.504	3017
863.636	2990
863.768	3081
863.9	3028
864.032	2948
864.164	2929
864.296	3081
864.428	3108
864.559	3176
864.691	3100
864.823	3119
864.954	3077
865.086	3097
865.217	3058
865.349	2994
865.48	3055
865.612	3062
865.743	3214
865.875	3009
866.006	2998
866.137	2986
866.269	2994
866.4	2975
866.531	2956
866.662	2899
866.793	2933
866.924	2944
867.055	2998
867.186	2952
867.317	2918
867.448	2906
867.579	2883
867.71	2891
867.841	2823
867.972	2963
868.103	2910
868.233	2902
868.364	2925
868.495	2960
868.625	3119
868.756	3184
868.886	3024
869.017	3066
869.147	3207
869.278	3199
869.408	3097
869.539	3058
869.669	3127
869.799	3062
869.929	3146
870.06	3173
870.19	3359
870.32	3302
870.45	3363
870.58	3378
870.71	3473
870.84	3488
870.97	3313
871.1	3283
871.23	3572
871.36	3519
871.489	3363
871.619	3443
871.749	3447
871.879	3473
872.008	3553
872.138	3393
872.267	3321
872.397	3176
872.526	3157
872.656	3051
872.785	3093
872.915	3298
873.044	3329
873.173	3237
873.303	3256
873.432	3256
873.561	3233
873.69	3207
873.819	3222
873.948	3237
874.077	3135
874.206	3097
874.335	3077
874.464	3272
874.593	3389
874.722	3272
874.851	3447
874.979	3359
875.108	3336
875.237	3253
875.365	3195
875.494	3176
875.623	3283
875.751	3116
875.88	3119
876.008	3150
876.136	3253
876.265	3386
876.393	3572
876.521	3439
876.65	3435
876.778	3348
876.906	3249
877.034	3291
877.162	3268
877.29	3245
877.418	3313
877.546	3272
877.674	3294
877.802	3279
877.93	3249
878.058	3161
878.185	3165
878.313	3226
878.441	3256
878.568	3085
878.696	3222
878.824	3283
878.951	3332
879.079	3443
879.206	3682
879.333	3462
879.461	3389
879.588	3378
879.715	3500
879.842	3648
879.97	3416
880.097	3180
880.224	3131
880.351	3256
880.478	3287
880.605	3230
880.732	3230
880.859	3534
880.986	3332
881.112	3348
881.239	3222
881.366	3093
881.493	3055
881.619	3024
881.746	3127
881.872	3135
881.999	3131
882.125	3154
882.252	3279
882.378	3348
882.505	3496
882.631	3325
882.757	3169
882.883	3226
883.01	3211
883.136	3211
883.262	3146
883.388	3154
883.514	3367
883.64	3401
883.766	3336
883.892	3207
884.018	3279
884.143	3454
884.269	3553
884.395	3184
884.52	3199
884.646	3203
884.772	3184
884.897	3142
885.023	3268
885.148	3355
885.274	3454
885.399	3405
885.524	3310
885.65	3321
885.775	3325
885.9	3329
886.025	3447
886.15	3351
886.275	3351
886.4	3283
886.525	3325
886.65	3332
886.775	3306
886.9	3530
887.025	3614
887.149	3443
887.274	3260
887.399	3211
887.523	3230
887.648	3222
887.773	3237
887.897	3386
888.021	3439
888.146	3302
888.27	3504
888.395	3576
888.519	3454
888.643	3488
888.767	3526
888.891	3306
889.015	3272
889.139	3298
889.263	3264
889.387	3405
889.511	3553
889.635	3485
889.759	3329
889.883	3325
890.006	3443
890.13	3507
890.254	3272
890.377	3428
890.501	3249
890.624	3207
890.748	3325
890.871	3188
890.995	3150
891.118	3062
891.241	3230
891.364	3264
891.488	3325
891.611	3180
891.734	3253
891.857	3306
891.98	3268
892.103	3393
892.226	3325
892.349	3233
892.471	3142
892.594	3253
892.717	3348
892.839	3306
892.962	3340
893.085	3405
893.207	3355
893.33	3218
893.452	3222
893.575	3401
893.697	3249
893.819	3492
893.941	3515
894.064	3492
894.186	3283
894.308	3302
894.43	3469
894.552	3576
894.674	3492
894.796	3313
894.918	3348
895.04	3344
895.161	3450
895.283	3439
895.405	3340
895.526	3412
895.648	3469
895.769	3439
895.891	3481
896.012	3504
896.134	3473
896.255	3435
896.376	3409
896.498	3386
896.619	3435
896.74	3416
896.861	3462
896.982	3675
897.103	3846
897.224	3614
897.345	3538
897.466	3443
897.587	3538
897.708	3625
897.828	3515
897.949	3469
898.07	3374
898.19	3454
898.311	3625
898.431	3492
898.552	3530
898.672	3625
898.792	3622
898.913	3591
899.033	3458
899.153	3340
899.273	3222
899.393	3313
899.513	3348
899.633	3325
899.753	3355
899.873	3374
899.993	3409
900.113	3393
900.232	3447
900.352	3378
900.472	3329
900.591	3214
900.711	3336
900.83	3233
900.95	3439
901.069	3504
901.189	3393
901.308	3188
901.427	3154
901.546	3218
901.665	3325
901.784	3344
901.904	3218
902.023	3142
902.141	3032
902.26	3017
902.379	3142
902.498	3093
902.617	3058
902.735	3218
902.854	3275
902.973	3188
903.091	3043
903.21	3066
903.328	3104
903.446	3142
903.565	3135
903.683	3241
903.801	3161
903.919	3283
904.038	3325
904.156	3188
904.274	3283
904.392	3272
904.51	3329
904.627	3351
904.745	3477
904.863	3564
904.981	3275
905.098	3195
905.216	3260
905.334	3298
905.451	3378
905.569	3317
905.686	3458
905.803	3500
905.921	3329
906.038	3488
906.155	3405
906.272	3302
906.389	3370
906.506	3268
906.623	3302
906.74	3268
906.857	3203
906.974	3291
907.091	3485
907.208	3587
907.324	3477
907.441	3367
907.557	3233
907.674	3237
907.79	3272
907.907	3302
908.023	3382
908.139	3424
908.256	3310
908.372	3405
908.488	3389
908.604	3268
908.72	3256
908.836	3287
908.952	3329
909.068	3336
909.184	3519
909.3	3458
909.415	3504
909.531	3523
909.647	3325
909.762	3291
909.878	3298
909.993	3397
910.108	3367
910.224	3329
910.339	3481
910.454	3367
910.57	3329
910.685	3268
910.8	3614
910.915	3549
911.03	3416
911.145	3287
911.259	3298
911.374	3348
911.489	3313
911.604	3272
911.718	3157
911.833	3176
911.947	3089
912.062	3005
912.176	3176
912.291	3203
912.405	3207
912.519	3466
912.633	3507
912.748	3325
912.862	3310
912.976	3188
913.09	3104
913.204	3169
913.318	3241
913.431	3355
913.545	3355
913.659	3412
913.772	3393
913.886	3237
914	3218
914.113	3344
914.226	3428
914.34	3370
914.453	3249
914.566	3428
914.68	3310
914.793	3329
914.906	3142
915.019	3142
915.132	3055
915.245	3207
915.358	3207
915.47	3245
915.583	3298
915.696	3317
915.809	3393
915.921	3447
916.034	3253
916.146	3298
916.259	3226
916.371	3428
916.483	3389
916.595	3294
916.708	3355
916.82	3313
916.932	3363
917.044	3382
917.156	3382
917.268	3264
917.38	3317
917.491	3287
917.603	3409
917.715	3485
917.826	3481
917.938	3374
918.049	3283
918.161	3435
918.272	3606
918.384	3561
918.495	3500
918.606	3363
918.717	3283
918.828	3431
918.939	3431
919.05	3332
919.161	3382
919.272	3222
919.383	3313
919.494	3530
919.604	3705
919.715	3561
919.826	3412
919.936	3504
920.047	3618
920.157	3580
920.267	3789
920.378	3637
920.488	3625
920.598	3827
920.708	3953
920.818	3869
920.928	3865
921.038	4029
921.148	4048
921.258	3755
921.368	3686
921.477	3625
921.587	3557
921.697	3450
921.806	3667
921.916	3519
922.025	3389
922.134	3405
922.244	3298
922.353	3424
922.462	3272
922.571	3222
922.68	3173
922.789	3097
922.898	3146
923.007	3108
923.116	3184
923.224	3203
923.333	3233
923.442	3097
923.55	3104
923.659	3142
923.767	3214
923.876	3138
923.984	3226
924.092	3112
924.201	3211
924.309	3241
924.417	3275
924.525	3203
924.633	3268
924.741	4200
924.849	3043
924.956	3275
925.064	3108
925.172	3055
925.279	3150
925.387	3233
925.494	3253
925.602	3348
925.709	3397
925.816	3207
925.924	3306
926.031	3401
926.138	3386
926.245	3397
926.352	3268
926.459	3462
926.566	3466
926.673	3336
926.779	3298
926.886	3253
926.993	3157
927.099	3165
927.206	3123
927.312	3100
927.419	3272
927.525	3241
927.631	3329
927.737	3169
927.843	3173
927.95	3032
928.056	3119
928.162	3230
928.267	3268
928.373	3857
928.479	3344
928.585	3070
928.69	3218
928.796	3310
928.901	3195
929.007	3070
929.112	3188
929.218	3173
929.323	3154
929.428	3173
929.533	3321
929.638	3150
929.743	3188
929.848	3294
929.953	3245
930.058	3184
930.163	3013
930.267	3020
930.372	3184
930.477	3055
930.581	3340
930.685	3195
930.79	3051
930.894	3146
930.998	3123
931.103	3332
931.207	2979
931.311	2952
931.415	2948
931.519	2804
931.623	2838
