Data from test_V78500241_2045.txt Node
Date: Fri Mar 25 16:29:22 CST 2022
User: usil
Spectrometer: V785-0024
Trigger mode: 0
Integration Time (sec): 4.000000E-1
Scans to average: 1
Nonlinearity correction enabled: false
Boxcar width: 0
Storing dark spectrum: false
XAxis mode: Wavelengths
Number of Pixels in Spectrum: 1024
>>>>>Begin Spectral Data<<<<<
801.071	2891
801.214	2918
801.356	2895
801.499	2933
801.641	2880
801.783	2910
801.926	3020
802.068	2967
802.211	2948
802.353	3043
802.496	2914
802.638	2998
802.78	3055
802.923	3074
803.065	2994
803.208	2891
803.35	2910
803.492	2941
803.635	2902
803.777	2777
803.919	2872
804.061	3207
804.204	2952
804.346	2922
804.488	2842
804.63	2963
804.773	2906
804.915	2941
805.057	3066
805.199	2918
805.341	2994
805.483	3005
805.626	3001
805.768	2952
805.91	3039
806.052	3097
806.194	3005
806.336	3241
806.478	3013
806.62	2944
806.762	2967
806.904	3055
807.046	3154
807.188	2971
807.33	2872
807.472	2998
807.614	2902
807.756	2979
807.898	2899
808.04	2880
808.182	2960
808.324	2960
808.465	2853
808.607	2895
808.749	2758
808.891	2826
809.033	2994
809.174	2979
809.316	2910
809.458	2902
809.6	2777
809.741	2739
809.883	2781
810.025	2868
810.166	2819
810.308	2826
810.45	2864
810.591	2788
810.733	2758
810.875	2815
811.016	2743
811.158	2743
811.299	2807
811.441	2914
811.582	2864
811.724	2838
811.865	2834
812.007	2883
812.148	2845
812.29	2861
812.431	2864
812.573	2929
812.714	2937
812.855	3055
812.997	3024
813.138	3116
813.279	3005
813.421	2937
813.562	2963
813.703	2872
813.845	2876
813.986	2766
814.127	2727
814.268	2823
814.41	2830
814.551	2785
814.692	2891
814.833	2819
814.974	2922
815.115	2937
815.256	2788
815.397	2811
815.539	2845
815.68	2781
815.821	2788
815.962	2880
816.103	2899
816.244	2849
816.385	2849
816.526	2948
816.666	2880
816.807	2781
816.948	2906
817.089	2880
817.23	2834
817.371	2754
817.512	2807
817.653	2826
817.793	2826
817.934	2842
818.075	2979
818.216	2986
818.356	3062
818.497	2883
818.638	2773
818.778	2785
818.919	2785
819.06	2792
819.2	2861
819.341	2807
819.481	2823
819.622	2880
819.762	3100
819.903	3043
820.043	2929
820.184	2914
820.324	2880
820.465	3028
820.605	2975
820.746	2975
820.886	2948
821.026	3108
821.167	3150
821.307	3237
821.447	3260
821.588	3195
821.728	3192
821.868	3188
822.008	3070
822.149	3165
822.289	3214
822.429	3070
822.569	3074
822.709	3127
822.849	3024
822.99	3043
823.13	3165
823.27	3199
823.41	3108
823.55	3131
823.69	3127
823.83	3199
823.97	3104
824.11	3013
824.25	2998
824.389	3036
824.529	3112
824.669	3097
824.809	3173
824.949	3237
825.089	3154
825.228	3138
825.368	3028
825.508	2967
825.648	2971
825.787	2998
825.927	3020
826.067	2922
826.206	2944
826.346	3036
826.485	3062
826.625	3089
826.765	3268
826.904	3195
827.044	2956
827.183	2925
827.323	2845
827.462	2971
827.601	2933
827.741	2933
827.88	2925
828.02	2849
828.159	2906
828.298	3020
828.437	3089
828.577	2998
828.716	3260
828.855	3047
828.994	2914
829.134	2883
829.273	2910
829.412	2857
829.551	2872
829.69	2880
829.829	2975
829.968	3104
830.107	2963
830.246	3005
830.385	2929
830.524	2891
830.663	2800
830.802	2727
830.941	2640
831.08	2670
831.219	2758
831.357	2720
831.496	2925
831.635	2720
831.774	2625
831.913	2636
832.051	2507
832.19	2571
832.329	2651
832.467	2522
832.606	2446
832.744	2549
832.883	2598
833.022	2571
833.16	2632
833.299	2689
833.437	2667
833.576	2724
833.714	2739
833.852	2739
833.991	2712
834.129	2800
834.267	2853
834.406	2758
834.544	2861
834.682	2876
834.821	2834
834.959	3077
835.097	2880
835.235	3062
835.373	2979
835.511	2982
835.65	2948
835.788	2952
835.926	2834
836.064	2796
836.202	2861
836.34	3043
836.478	3123
836.615	3047
836.753	3089
836.891	3203
837.029	3161
837.167	3100
837.305	3058
837.443	3028
837.58	2963
837.718	3100
837.856	3081
837.993	3013
838.131	3127
838.269	3081
838.406	3089
838.544	3024
838.681	2929
838.819	2967
838.956	2826
839.094	2811
839.231	2922
839.369	3024
839.506	3378
839.643	3214
839.781	3013
839.918	2960
840.055	3039
840.193	3039
840.33	3028
840.467	3093
840.604	3127
840.742	3378
840.879	3055
841.016	3032
841.153	3097
841.29	3321
841.427	3283
841.564	3283
841.701	3279
841.838	3218
841.975	3150
842.112	3207
842.249	3036
842.385	3017
842.522	3272
842.659	3097
842.796	3028
842.933	3116
843.069	3043
843.206	3024
843.343	3135
843.479	3104
843.616	3116
843.752	2891
843.889	2883
844.025	3089
844.162	2861
844.298	3055
844.435	2937
844.571	2925
844.708	3066
844.844	3173
844.98	3256
845.117	3180
845.253	3032
845.389	2979
845.525	3070
845.661	3116
845.798	3001
845.934	3119
846.07	3028
846.206	3192
846.342	3306
846.478	3237
846.614	3062
846.75	3020
846.886	2998
847.022	3226
847.158	3142
847.294	3199
847.429	3218
847.565	3199
847.701	3462
847.837	3009
847.972	3005
848.108	3142
848.244	3119
848.379	2963
848.515	2960
848.65	2914
848.786	2986
848.921	2994
849.057	3051
849.192	3131
849.328	3013
849.463	3077
849.598	3047
849.734	3062
849.869	2944
850.004	2918
850.14	2975
850.275	2902
850.41	2834
850.545	2880
850.68	2922
850.815	2925
850.95	2963
851.085	3161
851.22	3085
851.355	3028
851.49	2933
851.625	2982
851.76	2979
851.895	2929
852.03	2937
852.165	3039
852.299	3104
852.434	3150
852.569	3097
852.703	3165
852.838	3241
852.973	3317
853.107	3310
853.242	3135
853.376	3062
853.511	2944
853.645	2986
853.78	3184
853.914	3119
854.048	3112
854.183	3077
854.317	3127
854.451	3275
854.585	3093
854.72	3066
854.854	3165
854.988	3005
855.122	3074
855.256	2956
855.39	3097
855.524	3237
855.658	3176
855.792	3146
855.926	3146
856.06	3161
856.194	3237
856.327	3135
856.461	3036
856.595	3024
856.729	3062
856.862	3211
856.996	3146
857.13	3184
857.263	3199
857.397	3256
857.53	3100
857.664	3173
857.797	3249
857.931	3241
858.064	3138
858.197	3218
858.331	3104
858.464	3089
858.597	2986
858.731	3135
858.864	3154
858.997	3085
859.13	3108
859.263	3146
859.396	3176
859.529	3085
859.662	3074
859.795	3024
859.928	3116
860.061	3260
860.194	3302
860.327	3169
860.46	3066
860.592	3241
860.725	3222
860.858	3279
860.99	3100
861.123	3062
861.256	3112
861.388	3184
861.521	3884
861.653	3024
861.786	2960
861.918	3020
862.05	3051
862.183	3131
862.315	3169
862.447	3222
862.58	3093
862.712	2963
862.844	2925
862.976	3100
863.108	3055
863.24	3344
863.372	2937
863.504	3024
863.636	3009
863.768	3055
863.9	3017
864.032	2922
864.164	2982
864.296	3043
864.428	3108
864.559	3123
864.691	3123
864.823	3089
864.954	3047
865.086	3081
865.217	3043
865.349	2979
865.48	3028
865.612	3077
865.743	3226
865.875	3024
866.006	2967
866.137	3051
866.269	2994
866.4	2990
866.531	2952
866.662	2910
866.793	2941
866.924	2944
867.055	2979
867.186	2979
867.317	2887
867.448	2899
867.579	2914
867.71	2891
867.841	2861
867.972	2933
868.103	2941
868.233	2944
868.364	2914
868.495	2956
868.625	3081
868.756	3188
868.886	2994
869.017	3055
869.147	3211
869.278	3157
869.408	3055
869.539	3081
869.669	3135
869.799	3074
869.929	3127
870.06	3150
870.19	3351
870.32	3359
870.45	3351
870.58	3428
870.71	3496
870.84	3488
870.97	3287
871.1	3272
871.23	3492
871.36	3511
871.489	3344
871.619	3458
871.749	3412
871.879	3443
872.008	3507
872.138	3386
872.267	3310
872.397	3161
872.526	3131
872.656	3043
872.785	3097
872.915	3256
873.044	3348
873.173	3237
873.303	3298
873.432	3253
873.561	3272
873.69	3199
873.819	3173
873.948	3195
874.077	3123
874.206	3093
874.335	3085
874.464	3268
874.593	3389
874.722	3241
874.851	3454
874.979	3393
875.108	3344
875.237	3207
875.365	3222
875.494	3192
875.623	3253
875.751	3097
875.88	3154
876.008	3272
876.136	3264
876.265	3367
876.393	3526
876.521	3439
876.65	3420
876.778	3378
876.906	3268
877.034	3188
877.162	3272
877.29	3230
877.418	3287
877.546	3233
877.674	3264
877.802	3283
877.93	3264
878.058	3123
878.185	3142
878.313	3241
878.441	3218
878.568	3108
878.696	3161
878.824	3279
878.951	3317
879.079	3473
879.206	3660
879.333	3466
879.461	3363
879.588	3382
879.715	3492
879.842	3622
879.97	3382
880.097	3192
880.224	3161
880.351	3192
880.478	3260
880.605	3237
880.732	3203
880.859	3458
880.986	3329
881.112	3340
881.239	3192
881.366	3119
881.493	3077
881.619	3074
881.746	3093
881.872	3112
881.999	3112
882.125	3165
882.252	3283
882.378	3336
882.505	3466
882.631	3302
882.757	3203
882.883	3199
883.01	3241
883.136	3203
883.262	3138
883.388	3184
883.514	3348
883.64	3393
883.766	3367
883.892	3245
884.018	3264
884.143	3443
884.269	3545
884.395	3268
884.52	3195
884.646	3207
884.772	3100
884.897	3123
885.023	3218
885.148	3332
885.274	3454
885.399	3401
885.524	3302
885.65	3272
885.775	3374
885.9	3302
886.025	3485
886.15	3370
886.275	3332
886.4	3268
886.525	3336
886.65	3306
886.775	3332
886.9	3492
887.025	3618
887.149	3466
887.274	3287
887.399	3218
887.523	3245
887.648	3188
887.773	3207
887.897	3401
888.021	3424
888.146	3321
888.27	3466
888.395	3526
888.519	3435
888.643	3481
888.767	3485
888.891	3348
889.015	3256
889.139	3355
889.263	3279
889.387	3428
889.511	3549
889.635	3507
889.759	3313
889.883	3351
890.006	3416
890.13	3519
890.254	3310
890.377	3367
890.501	3230
890.624	3169
890.748	3310
890.871	3222
890.995	3127
891.118	3074
891.241	3222
891.364	3249
891.488	3329
891.611	3226
891.734	3237
891.857	3317
891.98	3272
892.103	3344
892.226	3310
892.349	3237
892.471	3150
892.594	3272
892.717	3291
892.839	3313
892.962	3283
893.085	3386
893.207	3294
893.33	3188
893.452	3199
893.575	3378
893.697	3272
893.819	3481
893.941	3538
894.064	3458
894.186	3298
894.308	3283
894.43	3473
894.552	3580
894.674	3477
894.796	3298
894.918	3340
895.04	3317
895.161	3469
895.283	3393
895.405	3332
895.526	3420
895.648	3439
895.769	3466
895.891	3504
896.012	3481
896.134	3488
896.255	3409
896.376	3401
896.498	3351
896.619	3439
896.74	3386
896.861	3431
896.982	3705
897.103	3865
897.224	3614
897.345	3500
897.466	3435
897.587	3526
897.708	3660
897.828	3568
897.949	3477
898.07	3378
898.19	3424
898.311	3671
898.431	3454
898.552	3553
898.672	3648
898.792	3587
898.913	3534
899.033	3462
899.153	3283
899.273	3230
899.393	3310
899.513	3336
899.633	3344
899.753	3370
899.873	3332
899.993	3424
900.113	3325
900.232	3439
900.352	3348
900.472	3321
900.591	3222
900.711	3310
900.83	3283
900.95	3428
901.069	3481
901.189	3355
901.308	3157
901.427	3142
901.546	3192
901.665	3310
901.784	3348
901.904	3245
902.023	3146
902.141	3051
902.26	2967
902.379	3173
902.498	3108
902.617	3070
902.735	3226
902.854	3256
902.973	3203
903.091	3039
903.21	3097
903.328	3165
903.446	3142
903.565	3100
903.683	3192
903.801	3131
903.919	3298
904.038	3298
904.156	3176
904.274	3298
904.392	3287
904.51	3317
904.627	3313
904.745	3439
904.863	3466
904.981	3275
905.098	3218
905.216	3237
905.334	3325
905.451	3291
905.569	3344
905.686	3450
905.803	3447
905.921	3336
906.038	3435
906.155	3370
906.272	3279
906.389	3321
906.506	3241
906.623	3291
906.74	3302
906.857	3207
906.974	3268
907.091	3420
907.208	3584
907.324	3485
907.441	3367
907.557	3256
907.674	3233
907.79	3211
907.907	3287
908.023	3424
908.139	3355
908.256	3313
908.372	3397
908.488	3389
908.604	3275
908.72	3256
908.836	3256
908.952	3264
909.068	3321
909.184	3507
909.3	3435
909.415	3534
909.531	3473
909.647	3272
909.762	3313
909.878	3275
909.993	3382
910.108	3348
910.224	3336
910.339	3409
910.454	3374
910.57	3325
910.685	3291
910.8	3610
910.915	3530
911.03	3428
911.145	3268
911.259	3272
911.374	3325
911.489	3313
911.604	3233
911.718	3138
911.833	3123
911.947	3062
912.062	3017
912.176	3192
912.291	3218
912.405	3226
912.519	3443
912.633	3481
912.748	3340
912.862	3306
912.976	3195
913.09	3058
913.204	3157
913.318	3233
913.431	3306
913.545	3370
913.659	3416
913.772	3325
913.886	3211
914	3188
914.113	3367
914.226	3405
914.34	3389
914.453	3253
914.566	3405
914.68	3283
914.793	3310
914.906	3161
915.019	3176
915.132	3112
915.245	3195
915.358	3214
915.47	3211
915.583	3298
915.696	3283
915.809	3454
915.921	3428
916.034	3253
916.146	3306
916.259	3253
916.371	3389
916.483	3325
916.595	3268
916.708	3329
916.82	3370
916.932	3351
917.044	3397
917.156	3359
917.268	3264
917.38	3279
917.491	3268
917.603	3393
917.715	3466
917.826	3462
917.938	3397
918.049	3294
918.161	3435
918.272	3599
918.384	3595
918.495	3496
918.606	3367
918.717	3272
918.828	3405
918.939	3420
919.05	3336
919.161	3382
919.272	3207
919.383	3325
919.494	3523
919.604	3690
919.715	3473
919.826	3405
919.936	3450
920.047	3625
920.157	3530
920.267	3774
920.378	3584
920.488	3584
920.598	3770
920.708	3949
920.818	3838
920.928	3819
921.038	4051
921.148	4036
921.258	3713
921.368	3648
921.477	3591
921.587	3561
921.697	3447
921.806	3644
921.916	3545
922.025	3378
922.134	3397
922.244	3317
922.353	3462
922.462	3306
922.571	3230
922.68	3085
922.789	3047
922.898	3135
923.007	3074
923.116	3241
923.224	3192
923.333	3165
923.442	3100
923.55	3104
923.659	3104
923.767	3256
923.876	3142
923.984	3268
924.092	3108
924.201	3211
924.309	3214
924.417	3272
924.525	3211
924.633	3218
924.741	4154
924.849	3085
924.956	3264
925.064	3074
925.172	3062
925.279	3108
925.387	3211
925.494	3222
925.602	3332
925.709	3359
925.816	3135
925.924	3279
926.031	3378
926.138	3325
926.245	3393
926.352	3287
926.459	3405
926.566	3439
926.673	3302
926.779	3260
926.886	3264
926.993	3180
927.099	3135
927.206	3131
927.312	3169
927.419	3264
927.525	3233
927.631	3279
927.737	3154
927.843	3123
927.95	3055
928.056	3108
928.162	3195
928.267	3275
928.373	3892
928.479	3336
928.585	3104
928.69	3245
928.796	3344
928.901	3188
929.007	3051
929.112	3195
929.218	3218
929.323	3173
929.428	3199
929.533	3348
929.638	3142
929.743	3230
929.848	3287
929.953	3218
930.058	3207
930.163	3009
930.267	3077
930.372	3233
930.477	3066
930.581	3321
930.685	3195
930.79	3085
930.894	3188
930.998	3116
931.103	3332
931.207	2990
931.311	2994
931.415	2948
931.519	2830
931.623	2853
