Data from test_V78500241_908.txt Node
Date: Fri Mar 25 16:21:29 CST 2022
User: usil
Spectrometer: V785-0024
Trigger mode: 0
Integration Time (sec): 4.000000E-1
Scans to average: 1
Nonlinearity correction enabled: false
Boxcar width: 0
Storing dark spectrum: false
XAxis mode: Wavelengths
Number of Pixels in Spectrum: 1024
>>>>>Begin Spectral Data<<<<<
801.071	2876
801.214	2941
801.356	2891
801.499	2906
801.641	2868
801.783	2925
801.926	3043
802.068	2948
802.211	2998
802.353	3043
802.496	2952
802.638	2979
802.78	3047
802.923	3024
803.065	3024
803.208	2887
803.35	2910
803.492	2925
803.635	2956
803.777	2739
803.919	2864
804.061	3211
804.204	2929
804.346	2895
804.488	2826
804.63	3020
804.773	2857
804.915	2876
805.057	3066
805.199	2922
805.341	2971
805.483	3039
805.626	2982
805.768	2937
805.91	3093
806.052	3097
806.194	3047
806.336	3180
806.478	3013
806.62	2963
806.762	2952
806.904	3005
807.046	3157
807.188	2963
807.33	2910
807.472	2990
807.614	2902
807.756	2982
807.898	2944
808.04	2868
808.182	2971
808.324	2941
808.465	2899
808.607	2853
808.749	2796
808.891	2807
809.033	2971
809.174	2952
809.316	2876
809.458	2887
809.6	2762
809.741	2739
809.883	2773
810.025	2826
810.166	2838
810.308	2834
810.45	2842
810.591	2773
810.733	2754
810.875	2777
811.016	2766
811.158	2727
811.299	2815
811.441	2925
811.582	2872
811.724	2796
811.865	2819
812.007	2876
812.148	2826
812.29	2815
812.431	2838
812.573	2922
812.714	2952
812.855	3055
812.997	3055
813.138	3062
813.279	2982
813.421	2986
813.562	2979
813.703	2876
813.845	2883
813.986	2796
814.127	2739
814.268	2788
814.41	2826
814.551	2769
814.692	2857
814.833	2777
814.974	2861
815.115	2963
815.256	2811
815.397	2792
815.539	2849
815.68	2746
815.821	2807
815.962	2922
816.103	2914
816.244	2838
816.385	2864
816.526	2952
816.666	2895
816.807	2735
816.948	2876
817.089	2868
817.23	2834
817.371	2796
817.512	2785
817.653	2842
817.793	2834
817.934	2861
818.075	2963
818.216	3001
818.356	3036
818.497	2861
818.638	2781
818.778	2845
818.919	2811
819.06	2769
819.2	2876
819.341	2834
819.481	2811
819.622	2933
819.762	3097
819.903	3077
820.043	2918
820.184	2944
820.324	2910
820.465	3043
820.605	3032
820.746	3024
820.886	2922
821.026	3138
821.167	3188
821.307	3256
821.447	3283
821.588	3218
821.728	3237
821.868	3188
822.008	3093
822.149	3207
822.289	3214
822.429	3112
822.569	3127
822.709	3184
822.849	3055
822.99	3081
823.13	3180
823.27	3207
823.41	3116
823.55	3184
823.69	3138
823.83	3230
823.97	3127
824.11	3017
824.25	3055
824.389	3100
824.529	3123
824.669	3116
824.809	3218
824.949	3275
825.089	3264
825.228	3199
825.368	3032
825.508	2990
825.648	3013
825.787	3089
825.927	3047
826.067	2994
826.206	3001
826.346	3112
826.485	3127
826.625	3146
826.765	3302
826.904	3283
827.044	3017
827.183	2998
827.323	2902
827.462	3028
827.601	2956
827.741	2990
827.88	3017
828.02	2887
828.159	2986
828.298	3047
828.437	3180
828.577	3066
828.716	3253
828.855	3112
828.994	2960
829.134	2925
829.273	2979
829.412	2895
829.551	2899
829.69	2952
829.829	3024
829.968	3154
830.107	3036
830.246	3047
830.385	2952
830.524	2929
830.663	2857
830.802	2766
830.941	2712
831.08	2678
831.219	2823
831.357	2785
831.496	3020
831.635	2735
831.774	2663
831.913	2701
832.051	2587
832.19	2594
832.329	2743
832.467	2545
832.606	2488
832.744	2594
832.883	2629
833.022	2629
833.16	2659
833.299	2727
833.437	2735
833.576	2712
833.714	2750
833.852	2762
833.991	2781
834.129	2819
834.267	2876
834.406	2830
834.544	2891
834.682	2914
834.821	2887
834.959	3089
835.097	2937
835.235	3085
835.373	3043
835.511	3039
835.65	2956
835.788	3005
835.926	2842
836.064	2838
836.202	2880
836.34	3116
836.478	3173
836.615	3138
836.753	3176
836.891	3245
837.029	3176
837.167	3142
837.305	3100
837.443	3100
837.58	3017
837.718	3165
837.856	3127
837.993	3070
838.131	3161
838.269	3165
838.406	3176
838.544	3112
838.681	2952
838.819	2963
838.956	2830
839.094	2883
839.231	2956
839.369	3043
839.506	3428
839.643	3237
839.781	3024
839.918	3013
840.055	3039
840.193	3081
840.33	3081
840.467	3127
840.604	3173
840.742	3428
840.879	3077
841.016	3070
841.153	3135
841.29	3351
841.427	3351
841.564	3321
841.701	3306
841.838	3218
841.975	3211
842.112	3237
842.249	3070
842.385	3066
842.522	3298
842.659	3116
842.796	3047
842.933	3135
843.069	3051
843.206	3043
843.343	3199
843.479	3138
843.616	3165
843.752	2948
843.889	2925
844.025	3112
844.162	2895
844.298	3123
844.435	2982
844.571	2937
844.708	3127
844.844	3214
844.98	3268
845.117	3199
845.253	3089
845.389	3036
845.525	3169
845.661	3138
845.798	3028
845.934	3146
846.07	3051
846.206	3188
846.342	3336
846.478	3222
846.614	3123
846.75	3093
846.886	3047
847.022	3298
847.158	3180
847.294	3199
847.429	3283
847.565	3230
847.701	3504
847.837	3077
847.972	3039
848.108	3180
848.244	3169
848.379	3032
848.515	2952
848.65	2956
848.786	2975
848.921	3017
849.057	3169
849.192	3169
849.328	3089
849.463	3157
849.598	3097
849.734	3043
849.869	3005
850.004	2952
850.14	3005
850.275	2956
850.41	2880
850.545	2914
850.68	2967
850.815	2963
850.95	3020
851.085	3214
851.22	3142
851.355	3077
851.49	3020
851.625	3062
851.76	3020
851.895	2944
852.03	2914
852.165	2994
852.299	3108
852.434	3188
852.569	3173
852.703	3192
852.838	3291
852.973	3359
853.107	3351
853.242	3154
853.376	3165
853.511	2994
853.645	3062
853.78	3275
853.914	3157
854.048	3146
854.183	3116
854.317	3127
854.451	3332
854.585	3169
854.72	3104
854.854	3211
854.988	3074
855.122	3127
855.256	3005
855.39	3154
855.524	3306
855.658	3207
855.792	3173
855.926	3214
856.06	3249
856.194	3260
856.327	3192
856.461	3108
856.595	3074
856.729	3074
856.862	3233
856.996	3188
857.13	3192
857.263	3237
857.397	3256
857.53	3146
857.664	3188
857.797	3279
857.931	3260
858.064	3150
858.197	3256
858.331	3154
858.464	3089
858.597	3005
858.731	3150
858.864	3127
858.997	3123
859.13	3150
859.263	3214
859.396	3184
859.529	3062
859.662	3093
859.795	3074
859.928	3169
860.061	3287
860.194	3287
860.327	3150
860.46	3104
860.592	3264
860.725	3260
860.858	3245
860.99	3108
861.123	3093
861.256	3066
861.388	3173
861.521	3842
861.653	3058
861.786	2963
861.918	2979
862.05	3100
862.183	3112
862.315	3165
862.447	3226
862.58	3097
862.712	2971
862.844	2895
862.976	2990
863.108	3020
863.24	3329
863.372	2864
863.504	2956
863.636	2918
863.768	3058
863.9	2990
864.032	2952
864.164	2941
864.296	3062
864.428	3119
864.559	3119
864.691	3077
864.823	3112
864.954	3043
865.086	3070
865.217	2998
865.349	3005
865.48	3009
865.612	3013
865.743	3203
865.875	2986
866.006	2982
866.137	2975
866.269	2960
866.4	2960
866.531	2910
866.662	2948
866.793	2925
866.924	2906
867.055	2990
867.186	2967
867.317	2891
867.448	2864
867.579	2880
867.71	2857
867.841	2842
867.972	2910
868.103	2918
868.233	2887
868.364	2918
868.495	2906
868.625	3055
868.756	3188
868.886	2937
869.017	3017
869.147	3165
869.278	3192
869.408	3051
869.539	3055
869.669	3123
869.799	3055
869.929	3104
870.06	3127
870.19	3329
870.32	3317
870.45	3325
870.58	3409
870.71	3462
870.84	3458
870.97	3313
871.1	3253
871.23	3473
871.36	3477
871.489	3363
871.619	3370
871.749	3416
871.879	3458
872.008	3511
872.138	3370
872.267	3298
872.397	3138
872.526	3100
872.656	3043
872.785	3119
872.915	3249
873.044	3321
873.173	3233
873.303	3272
873.432	3268
873.561	3260
873.69	3173
873.819	3169
873.948	3184
874.077	3116
874.206	3074
874.335	3074
874.464	3253
874.593	3359
874.722	3245
874.851	3389
874.979	3378
875.108	3306
875.237	3237
875.365	3195
875.494	3199
875.623	3245
875.751	3100
875.88	3123
876.008	3249
876.136	3222
876.265	3389
876.393	3526
876.521	3416
876.65	3420
876.778	3359
876.906	3264
877.034	3207
877.162	3211
877.29	3188
877.418	3256
877.546	3275
877.674	3264
877.802	3195
877.93	3218
878.058	3203
878.185	3116
878.313	3241
878.441	3233
878.568	3116
878.696	3123
878.824	3306
878.951	3355
879.079	3431
879.206	3629
879.333	3462
879.461	3359
879.588	3386
879.715	3530
879.842	3587
879.97	3397
880.097	3176
880.224	3116
880.351	3180
880.478	3203
880.605	3211
880.732	3207
880.859	3507
880.986	3283
881.112	3367
881.239	3199
881.366	3112
881.493	3058
881.619	3047
881.746	3039
881.872	3074
881.999	3119
882.125	3165
882.252	3241
882.378	3275
882.505	3462
882.631	3302
882.757	3157
882.883	3211
883.01	3237
883.136	3199
883.262	3116
883.388	3157
883.514	3329
883.64	3409
883.766	3272
883.892	3211
884.018	3275
884.143	3412
884.269	3530
884.395	3222
884.52	3184
884.646	3203
884.772	3150
884.897	3131
885.023	3222
885.148	3378
885.274	3412
885.399	3325
885.524	3351
885.65	3272
885.775	3340
885.9	3298
886.025	3428
886.15	3378
886.275	3302
886.4	3226
886.525	3348
886.65	3283
886.775	3291
886.9	3523
887.025	3656
887.149	3439
887.274	3241
887.399	3199
887.523	3195
887.648	3154
887.773	3211
887.897	3363
888.021	3431
888.146	3321
888.27	3469
888.395	3515
888.519	3492
888.643	3477
888.767	3450
888.891	3321
889.015	3245
889.139	3294
889.263	3298
889.387	3431
889.511	3504
889.635	3530
889.759	3264
889.883	3294
890.006	3416
890.13	3473
890.254	3317
890.377	3317
890.501	3218
890.624	3150
890.748	3317
890.871	3173
890.995	3112
891.118	3047
891.241	3180
891.364	3268
891.488	3294
891.611	3207
891.734	3214
891.857	3298
891.98	3275
892.103	3359
892.226	3313
892.349	3230
892.471	3135
892.594	3256
892.717	3302
892.839	3302
892.962	3294
893.085	3363
893.207	3317
893.33	3161
893.452	3176
893.575	3359
893.697	3272
893.819	3492
893.941	3496
894.064	3466
894.186	3264
894.308	3302
894.43	3454
894.552	3568
894.674	3515
894.796	3260
894.918	3287
895.04	3287
895.161	3450
895.283	3382
895.405	3367
895.526	3401
895.648	3424
895.769	3443
895.891	3469
896.012	3462
896.134	3473
896.255	3374
896.376	3355
896.498	3374
896.619	3439
896.74	3412
896.861	3424
896.982	3686
897.103	3861
897.224	3587
897.345	3523
897.466	3431
897.587	3511
897.708	3629
897.828	3557
897.949	3469
898.07	3355
898.19	3405
898.311	3618
898.431	3466
898.552	3507
898.672	3576
898.792	3606
898.913	3496
899.033	3409
899.153	3306
899.273	3176
899.393	3291
899.513	3348
899.633	3306
899.753	3359
899.873	3291
899.993	3351
900.113	3317
900.232	3431
900.352	3363
900.472	3317
900.591	3214
900.711	3306
900.83	3253
900.95	3393
901.069	3504
901.189	3374
901.308	3176
901.427	3127
901.546	3199
901.665	3275
901.784	3340
901.904	3226
902.023	3146
902.141	3005
902.26	3013
902.379	3119
902.498	3051
902.617	3047
902.735	3165
902.854	3256
902.973	3207
903.091	3089
903.21	3058
903.328	3165
903.446	3127
903.565	3093
903.683	3226
903.801	3104
903.919	3230
904.038	3340
904.156	3165
904.274	3283
904.392	3245
904.51	3294
904.627	3298
904.745	3450
904.863	3500
904.981	3245
905.098	3173
905.216	3237
905.334	3298
905.451	3313
905.569	3344
905.686	3431
905.803	3447
905.921	3287
906.038	3439
906.155	3363
906.272	3275
906.389	3359
906.506	3283
906.623	3260
906.74	3268
906.857	3180
906.974	3268
907.091	3443
907.208	3572
907.324	3466
907.441	3389
907.557	3237
907.674	3249
907.79	3218
907.907	3302
908.023	3393
908.139	3386
908.256	3302
908.372	3389
908.488	3363
908.604	3264
908.72	3241
908.836	3298
908.952	3249
909.068	3370
909.184	3454
909.3	3355
909.415	3523
909.531	3450
909.647	3291
909.762	3279
909.878	3302
909.993	3363
910.108	3348
910.224	3348
910.339	3405
910.454	3317
910.57	3298
910.685	3237
910.8	3614
910.915	3561
911.03	3424
911.145	3272
911.259	3260
911.374	3321
911.489	3256
911.604	3230
911.718	3142
911.833	3203
911.947	3047
912.062	2990
912.176	3184
912.291	3203
912.405	3207
912.519	3447
912.633	3443
912.748	3344
912.862	3310
912.976	3180
913.09	3085
913.204	3135
913.318	3180
913.431	3294
913.545	3332
913.659	3397
913.772	3374
913.886	3268
914	3256
914.113	3378
914.226	3420
914.34	3355
914.453	3188
914.566	3397
914.68	3313
914.793	3325
914.906	3180
915.019	3112
915.132	3058
915.245	3150
915.358	3237
915.47	3241
915.583	3253
915.696	3306
915.809	3389
915.921	3424
916.034	3260
916.146	3256
916.259	3157
916.371	3405
916.483	3340
916.595	3310
916.708	3363
916.82	3332
916.932	3329
917.044	3355
917.156	3363
917.268	3249
917.38	3336
917.491	3253
917.603	3386
917.715	3469
917.826	3507
917.938	3355
918.049	3268
918.161	3397
918.272	3568
918.384	3542
918.495	3488
918.606	3329
918.717	3294
918.828	3374
918.939	3443
919.05	3272
919.161	3367
919.272	3173
919.383	3260
919.494	3515
919.604	3690
919.715	3469
919.826	3382
919.936	3469
920.047	3587
920.157	3572
920.267	3770
920.378	3648
920.488	3591
920.598	3736
920.708	3960
920.818	3846
920.928	3857
921.038	4017
921.148	4010
921.258	3701
921.368	3641
921.477	3599
921.587	3500
921.697	3428
921.806	3656
921.916	3507
922.025	3359
922.134	3389
922.244	3302
922.353	3443
922.462	3313
922.571	3203
922.68	3097
922.789	3070
922.898	3161
923.007	3119
923.116	3192
923.224	3195
923.333	3214
923.442	3116
923.55	3108
923.659	3161
923.767	3233
923.876	3119
923.984	3260
924.092	3104
924.201	3192
924.309	3207
924.417	3237
924.525	3195
924.633	3226
924.741	4150
924.849	3024
924.956	3233
925.064	3081
925.172	3055
925.279	3112
925.387	3214
925.494	3272
925.602	3351
925.709	3382
925.816	3176
925.924	3325
926.031	3416
926.138	3313
926.245	3367
926.352	3253
926.459	3393
926.566	3466
926.673	3317
926.779	3264
926.886	3283
926.993	3157
927.099	3116
927.206	3123
927.312	3127
927.419	3230
927.525	3233
927.631	3226
927.737	3131
927.843	3127
927.95	3036
928.056	3150
928.162	3169
928.267	3256
928.373	3888
928.479	3294
928.585	3043
928.69	3226
928.796	3253
928.901	3123
929.007	3070
929.112	3207
929.218	3180
929.323	3142
929.428	3154
929.533	3310
929.638	3131
929.743	3135
929.848	3294
929.953	3226
930.058	3157
930.163	3001
930.267	3032
930.372	3184
930.477	3017
930.581	3313
930.685	3180
930.79	3055
930.894	3123
930.998	3108
931.103	3283
931.207	2967
931.311	2952
931.415	2933
931.519	2785
931.623	2769
