Data from test_V78500241_110.txt Node
Date: Fri Mar 25 16:15:57 CST 2022
User: usil
Spectrometer: V785-0024
Trigger mode: 0
Integration Time (sec): 4.000000E-1
Scans to average: 1
Nonlinearity correction enabled: false
Boxcar width: 0
Storing dark spectrum: false
XAxis mode: Wavelengths
Number of Pixels in Spectrum: 1024
>>>>>Begin Spectral Data<<<<<
801.071	2963
801.214	2990
801.356	2914
801.499	2929
801.641	2918
801.783	2971
801.926	3070
802.068	2998
802.211	3043
802.353	3085
802.496	3017
802.638	3074
802.78	3112
802.923	3112
803.065	3024
803.208	2941
803.35	2967
803.492	2979
803.635	2971
803.777	2819
803.919	2914
804.061	3237
804.204	2975
804.346	2986
804.488	2876
804.63	2990
804.773	2895
804.915	2922
805.057	3104
805.199	2994
805.341	2971
805.483	3074
805.626	3047
805.768	2994
805.91	3093
806.052	3157
806.194	3089
806.336	3313
806.478	3058
806.62	3001
806.762	2952
806.904	3116
807.046	3203
807.188	3036
807.33	2963
807.472	3020
807.614	2952
807.756	3009
807.898	2937
808.04	2914
808.182	3009
808.324	2979
808.465	2910
808.607	2914
808.749	2849
808.891	2880
809.033	3013
809.174	2990
809.316	2910
809.458	2944
809.6	2796
809.741	2800
809.883	2807
810.025	2887
810.166	2868
810.308	2876
810.45	2902
810.591	2838
810.733	2773
810.875	2857
811.016	2815
811.158	2807
811.299	2857
811.441	2986
811.582	2914
811.724	2842
811.865	2864
812.007	2933
812.148	2910
812.29	2906
812.431	2906
812.573	2937
812.714	2982
812.855	3058
812.997	3058
813.138	3161
813.279	3047
813.421	2998
813.562	3017
813.703	2880
813.845	2906
813.986	2788
814.127	2758
814.268	2823
814.41	2845
814.551	2876
814.692	2910
814.833	2838
814.974	2895
815.115	2975
815.256	2872
815.397	2815
815.539	2902
815.68	2815
815.821	2819
815.962	2963
816.103	2933
816.244	2899
816.385	2883
816.526	2971
816.666	2925
816.807	2785
816.948	2902
817.089	2925
817.23	2876
817.371	2800
817.512	2819
817.653	2891
817.793	2849
817.934	2914
818.075	3017
818.216	3005
818.356	3074
818.497	2922
818.638	2838
818.778	2842
818.919	2804
819.06	2796
819.2	2899
819.341	2857
819.481	2811
819.622	2975
819.762	3108
819.903	3074
820.043	2952
820.184	2914
820.324	2929
820.465	3047
820.605	3032
820.746	3047
820.886	2986
821.026	3165
821.167	3214
821.307	3245
821.447	3310
821.588	3233
821.728	3207
821.868	3199
822.008	3089
822.149	3222
822.289	3272
822.429	3123
822.569	3135
822.709	3165
822.849	3043
822.99	3123
823.13	3195
823.27	3233
823.41	3146
823.55	3176
823.69	3207
823.83	3218
823.97	3142
824.11	3055
824.25	3039
824.389	3108
824.529	3146
824.669	3104
824.809	3199
824.949	3260
825.089	3275
825.228	3203
825.368	3009
825.508	2960
825.648	3001
825.787	3032
825.927	3032
826.067	2971
826.206	2998
826.346	3058
826.485	3100
826.625	3119
826.765	3279
826.904	3256
827.044	3013
827.183	2937
827.323	2876
827.462	3013
827.601	2918
827.741	2994
827.88	2948
828.02	2864
828.159	2979
828.298	3047
828.437	3138
828.577	3051
828.716	3249
828.855	3093
828.994	2948
829.134	2918
829.273	2914
829.412	2876
829.551	2918
829.69	2895
829.829	3009
829.968	3173
830.107	3024
830.246	3020
830.385	2982
830.524	2876
830.663	2864
830.802	2773
830.941	2674
831.08	2655
831.219	2777
831.357	2754
831.496	2990
831.635	2766
831.774	2682
831.913	2648
832.051	2545
832.19	2594
832.329	2701
832.467	2575
832.606	2522
832.744	2590
832.883	2587
833.022	2606
833.16	2636
833.299	2693
833.437	2743
833.576	2746
833.714	2727
833.852	2746
833.991	2792
834.129	2872
834.267	2849
834.406	2826
834.544	2868
834.682	2899
834.821	2902
834.959	3081
835.097	2910
835.235	3112
835.373	3036
835.511	3058
835.65	2982
835.788	2975
835.926	2864
836.064	2857
836.202	2857
836.34	3104
836.478	3176
836.615	3081
836.753	3127
836.891	3207
837.029	3203
837.167	3154
837.305	3058
837.443	3062
837.58	2960
837.718	3173
837.856	3112
837.993	3097
838.131	3138
838.269	3157
838.406	3093
838.544	3138
838.681	2982
838.819	2922
838.956	2853
839.094	2883
839.231	2948
839.369	3028
839.506	3431
839.643	3272
839.781	3058
839.918	3013
840.055	3062
840.193	3097
840.33	3051
840.467	3150
840.604	3195
840.742	3412
840.879	3100
841.016	3074
841.153	3157
841.29	3370
841.427	3325
841.564	3268
841.701	3332
841.838	3249
841.975	3222
842.112	3203
842.249	3154
842.385	3112
842.522	3287
842.659	3104
842.796	3081
842.933	3146
843.069	3058
843.206	3039
843.343	3218
843.479	3116
843.616	3173
843.752	2963
843.889	2906
844.025	3123
844.162	2918
844.298	3180
844.435	2948
844.571	2971
844.708	3112
844.844	3249
844.98	3253
845.117	3184
845.253	3058
845.389	3032
845.525	3135
845.661	3089
845.798	3039
845.934	3169
846.07	3051
846.206	3245
846.342	3340
846.478	3233
846.614	3089
846.75	3081
846.886	3062
847.022	3233
847.158	3150
847.294	3211
847.429	3241
847.565	3237
847.701	3473
847.837	3097
847.972	3001
848.108	3173
848.244	3176
848.379	3020
848.515	2967
848.65	2963
848.786	2971
848.921	3020
849.057	3131
849.192	3146
849.328	3100
849.463	3165
849.598	3077
849.734	3081
849.869	2967
850.004	2952
850.14	2994
850.275	2937
850.41	2887
850.545	2937
850.68	2956
850.815	2998
850.95	2979
851.085	3233
851.22	3127
851.355	3043
851.49	3036
851.625	3032
851.76	3036
851.895	2922
852.03	2929
852.165	3058
852.299	3112
852.434	3222
852.569	3180
852.703	3214
852.838	3268
852.973	3382
853.107	3351
853.242	3173
853.376	3123
853.511	2971
853.645	3039
853.78	3260
853.914	3150
854.048	3116
854.183	3081
854.317	3173
854.451	3279
854.585	3116
854.72	3112
854.854	3218
854.988	3081
855.122	3089
855.256	3001
855.39	3131
855.524	3245
855.658	3222
855.792	3165
855.926	3207
856.06	3237
856.194	3291
856.327	3142
856.461	3135
856.595	3142
856.729	3116
856.862	3241
856.996	3180
857.13	3203
857.263	3218
857.397	3275
857.53	3138
857.664	3203
857.797	3230
857.931	3264
858.064	3154
858.197	3237
858.331	3150
858.464	3077
858.597	3001
858.731	3161
858.864	3146
858.997	3108
859.13	3154
859.263	3192
859.396	3230
859.529	3108
859.662	3100
859.795	3108
859.928	3157
860.061	3283
860.194	3336
860.327	3176
860.46	3112
860.592	3249
860.725	3272
860.858	3302
860.99	3135
861.123	3081
861.256	3100
861.388	3173
861.521	3717
861.653	3028
861.786	3024
861.918	3024
862.05	3066
862.183	3104
862.315	3157
862.447	3199
862.58	3108
862.712	2925
862.844	2887
862.976	3055
863.108	2990
863.24	3424
863.372	2868
863.504	2982
863.636	2948
863.768	3043
863.9	3017
864.032	2948
864.164	2967
864.296	3036
864.428	3138
864.559	3138
864.691	3127
864.823	3070
864.954	3055
865.086	3066
865.217	2982
865.349	2963
865.48	2998
865.612	3020
865.743	3199
865.875	2979
866.006	2971
866.137	2975
866.269	2979
866.4	2941
866.531	2960
866.662	2899
866.793	2899
866.924	2918
867.055	2986
867.186	2944
867.317	2944
867.448	2853
867.579	2899
867.71	2845
867.841	2830
867.972	2902
868.103	2925
868.233	2895
868.364	2868
868.495	2895
868.625	3108
868.756	3207
868.886	3024
869.017	3005
869.147	3233
869.278	3214
869.408	3085
869.539	3032
869.669	3123
869.799	3043
869.929	3157
870.06	3157
870.19	3355
870.32	3336
870.45	3374
870.58	3409
870.71	3466
870.84	3477
870.97	3329
871.1	3249
871.23	3515
871.36	3462
871.489	3363
871.619	3443
871.749	3431
871.879	3458
872.008	3515
872.138	3370
872.267	3321
872.397	3154
872.526	3119
872.656	3028
872.785	3150
872.915	3287
873.044	3344
873.173	3256
873.303	3237
873.432	3260
873.561	3249
873.69	3157
873.819	3180
873.948	3249
874.077	3104
874.206	3051
874.335	3104
874.464	3253
874.593	3435
874.722	3245
874.851	3386
874.979	3340
875.108	3370
875.237	3211
875.365	3184
875.494	3211
875.623	3260
875.751	3081
875.88	3131
876.008	3237
876.136	3237
876.265	3424
876.393	3519
876.521	3469
876.65	3450
876.778	3374
876.906	3260
877.034	3157
877.162	3260
877.29	3207
877.418	3241
877.546	3279
877.674	3230
877.802	3237
877.93	3287
878.058	3173
878.185	3100
878.313	3211
878.441	3237
878.568	3058
878.696	3173
878.824	3268
878.951	3317
879.079	3469
879.206	3648
879.333	3454
879.461	3302
879.588	3370
879.715	3500
879.842	3587
879.97	3435
880.097	3192
880.224	3157
880.351	3226
880.478	3256
880.605	3226
880.732	3222
880.859	3511
880.986	3344
881.112	3359
881.239	3214
881.366	3097
881.493	3097
881.619	3036
881.746	3112
881.872	3104
881.999	3142
882.125	3157
882.252	3260
882.378	3287
882.505	3469
882.631	3329
882.757	3173
882.883	3233
883.01	3249
883.136	3184
883.262	3093
883.388	3157
883.514	3367
883.64	3458
883.766	3370
883.892	3188
884.018	3264
884.143	3439
884.269	3523
884.395	3207
884.52	3142
884.646	3199
884.772	3150
884.897	3131
885.023	3222
885.148	3397
885.274	3450
885.399	3409
885.524	3313
885.65	3237
885.775	3329
885.9	3298
886.025	3466
886.15	3393
886.275	3306
886.4	3272
886.525	3313
886.65	3272
886.775	3317
886.9	3500
887.025	3656
887.149	3409
887.274	3275
887.399	3195
887.523	3195
887.648	3180
887.773	3203
887.897	3374
888.021	3412
888.146	3329
888.27	3431
888.395	3557
888.519	3450
888.643	3511
888.767	3473
888.891	3321
889.015	3317
889.139	3298
889.263	3260
889.387	3439
889.511	3572
889.635	3462
889.759	3351
889.883	3283
890.006	3420
890.13	3500
890.254	3306
890.377	3351
890.501	3214
890.624	3207
890.748	3340
890.871	3180
890.995	3093
891.118	3077
891.241	3268
891.364	3233
891.488	3348
891.611	3218
891.734	3226
891.857	3332
891.98	3237
892.103	3310
892.226	3310
892.349	3264
892.471	3123
892.594	3256
892.717	3340
892.839	3275
892.962	3344
893.085	3382
893.207	3291
893.33	3180
893.452	3184
893.575	3374
893.697	3298
893.819	3462
893.941	3515
894.064	3458
894.186	3302
894.308	3233
894.43	3485
894.552	3622
894.674	3500
894.796	3302
894.918	3332
895.04	3325
895.161	3435
895.283	3416
895.405	3329
895.526	3348
895.648	3435
895.769	3439
895.891	3428
896.012	3447
896.134	3458
896.255	3447
896.376	3409
896.498	3397
896.619	3462
896.74	3439
896.861	3416
896.982	3652
897.103	3854
897.224	3648
897.345	3553
897.466	3473
897.587	3534
897.708	3629
897.828	3557
897.949	3450
898.07	3359
898.19	3443
898.311	3584
898.431	3469
898.552	3519
898.672	3633
898.792	3610
898.913	3538
899.033	3428
899.153	3321
899.273	3230
899.393	3325
899.513	3336
899.633	3332
899.753	3412
899.873	3351
899.993	3424
900.113	3329
900.232	3386
900.352	3370
900.472	3279
900.591	3222
900.711	3306
900.83	3237
900.95	3420
901.069	3523
901.189	3389
901.308	3173
901.427	3180
901.546	3188
901.665	3310
901.784	3329
901.904	3230
902.023	3165
902.141	3039
902.26	3020
902.379	3169
902.498	3089
902.617	3043
902.735	3237
902.854	3260
902.973	3218
903.091	3077
903.21	3089
903.328	3157
903.446	3165
903.565	3089
903.683	3218
903.801	3157
903.919	3302
904.038	3264
904.156	3207
904.274	3325
904.392	3275
904.51	3306
904.627	3317
904.745	3447
904.863	3526
904.981	3306
905.098	3195
905.216	3226
905.334	3294
905.451	3325
905.569	3325
905.686	3458
905.803	3462
905.921	3268
906.038	3454
906.155	3386
906.272	3264
906.389	3325
906.506	3218
906.623	3287
906.74	3283
906.857	3237
906.974	3237
907.091	3481
907.208	3591
907.324	3515
907.441	3431
907.557	3268
907.674	3268
907.79	3222
907.907	3302
908.023	3431
908.139	3416
908.256	3348
908.372	3401
908.488	3374
908.604	3313
908.72	3222
908.836	3294
908.952	3275
909.068	3336
909.184	3511
909.3	3435
909.415	3515
909.531	3542
909.647	3313
909.762	3336
909.878	3287
909.993	3378
910.108	3389
910.224	3367
910.339	3485
910.454	3359
910.57	3306
910.685	3298
910.8	3641
910.915	3557
911.03	3435
911.145	3321
911.259	3287
911.374	3340
911.489	3260
911.604	3256
911.718	3165
911.833	3154
911.947	3070
912.062	2986
912.176	3184
912.291	3222
912.405	3207
912.519	3488
912.633	3492
912.748	3359
912.862	3325
912.976	3207
913.09	3093
913.204	3165
913.318	3256
913.431	3374
913.545	3367
913.659	3439
913.772	3386
913.886	3230
914	3245
914.113	3382
914.226	3454
914.34	3393
914.453	3233
914.566	3435
914.68	3344
914.793	3313
914.906	3184
915.019	3150
915.132	3062
915.245	3214
915.358	3237
915.47	3272
915.583	3294
915.696	3344
915.809	3477
915.921	3454
916.034	3294
916.146	3279
916.259	3264
916.371	3389
916.483	3382
916.595	3317
916.708	3355
916.82	3344
916.932	3378
917.044	3393
917.156	3367
917.268	3241
917.38	3317
917.491	3313
917.603	3397
917.715	3462
917.826	3466
917.938	3355
918.049	3283
918.161	3462
918.272	3568
918.384	3618
918.495	3572
918.606	3386
918.717	3336
918.828	3382
918.939	3462
919.05	3363
919.161	3412
919.272	3226
919.383	3264
919.494	3561
919.604	3717
919.715	3523
919.826	3420
919.936	3526
920.047	3599
920.157	3564
920.267	3789
920.378	3599
920.488	3572
920.598	3766
920.708	3964
920.818	3869
920.928	3873
921.038	4086
921.148	4074
921.258	3720
921.368	3671
921.477	3660
921.587	3584
921.697	3507
921.806	3701
921.916	3549
922.025	3386
922.134	3424
922.244	3336
922.353	3450
922.462	3306
922.571	3253
922.68	3131
922.789	3116
922.898	3184
923.007	3135
923.116	3207
923.224	3188
923.333	3195
923.442	3097
923.55	3119
923.659	3222
923.767	3275
923.876	3142
923.984	3291
924.092	3138
924.201	3245
924.309	3214
924.417	3272
924.525	3173
924.633	3264
924.741	4192
924.849	3077
924.956	3317
925.064	3119
925.172	3097
925.279	3165
925.387	3226
925.494	3233
925.602	3351
925.709	3340
925.816	3184
925.924	3298
926.031	3428
926.138	3378
926.245	3393
926.352	3256
926.459	3424
926.566	3450
926.673	3336
926.779	3230
926.886	3256
926.993	3195
927.099	3161
927.206	3138
927.312	3142
927.419	3245
927.525	3222
927.631	3298
927.737	3207
927.843	3161
927.95	3066
928.056	3173
928.162	3173
928.267	3272
928.373	3789
928.479	3348
928.585	3112
928.69	3222
928.796	3287
928.901	3192
929.007	3062
929.112	3222
929.218	3195
929.323	3150
929.428	3199
929.533	3351
929.638	3131
929.743	3161
929.848	3256
929.953	3203
930.058	3188
930.163	3032
930.267	3089
930.372	3249
930.477	3058
930.581	3325
930.685	3218
930.79	3089
930.894	3142
930.998	3131
931.103	3275
931.207	2971
931.311	2960
931.415	2937
931.519	2796
931.623	2804
