Data from test_V78500241_1877.txt Node
Date: Fri Mar 25 16:28:12 CST 2022
User: usil
Spectrometer: V785-0024
Trigger mode: 0
Integration Time (sec): 4.000000E-1
Scans to average: 1
Nonlinearity correction enabled: false
Boxcar width: 0
Storing dark spectrum: false
XAxis mode: Wavelengths
Number of Pixels in Spectrum: 1024
>>>>>Begin Spectral Data<<<<<
801.071	2944
801.214	2994
801.356	2887
801.499	2914
801.641	2899
801.783	2929
801.926	3066
802.068	2998
802.211	3028
802.353	3066
802.496	2967
802.638	3036
802.78	3058
802.923	3093
803.065	3017
803.208	2918
803.35	2963
803.492	2952
803.635	2906
803.777	2807
803.919	2933
804.061	3188
804.204	2960
804.346	2883
804.488	2857
804.63	2979
804.773	2914
804.915	2948
805.057	3089
805.199	2933
805.341	3032
805.483	3051
805.626	2979
805.768	2982
805.91	3058
806.052	3112
806.194	3028
806.336	3218
806.478	3047
806.62	2952
806.762	2998
806.904	3123
807.046	3157
807.188	2975
807.33	2910
807.472	3009
807.614	2925
807.756	3039
807.898	2960
808.04	2914
808.182	3001
808.324	2975
808.465	2876
808.607	2910
808.749	2804
808.891	2864
809.033	2979
809.174	2986
809.316	2883
809.458	2906
809.6	2762
809.741	2781
809.883	2773
810.025	2891
810.166	2861
810.308	2883
810.45	2861
810.591	2773
810.733	2796
810.875	2849
811.016	2796
811.158	2773
811.299	2861
811.441	2880
811.582	2880
811.724	2834
811.865	2811
812.007	2922
812.148	2868
812.29	2906
812.431	2899
812.573	2952
812.714	2979
812.855	3043
812.997	3039
813.138	3176
813.279	3047
813.421	2979
813.562	2990
813.703	2891
813.845	2922
813.986	2785
814.127	2796
814.268	2830
814.41	2842
814.551	2823
814.692	2880
814.833	2811
814.974	2902
815.115	2963
815.256	2842
815.397	2845
815.539	2830
815.68	2788
815.821	2781
815.962	2918
816.103	2910
816.244	2864
816.385	2883
816.526	2979
816.666	2895
816.807	2762
816.948	2910
817.089	2929
817.23	2872
817.371	2788
817.512	2845
817.653	2876
817.793	2857
817.934	2880
818.075	2994
818.216	3017
818.356	3028
818.497	2864
818.638	2788
818.778	2838
818.919	2815
819.06	2762
819.2	2880
819.341	2800
819.481	2781
819.622	2952
819.762	3081
819.903	3047
820.043	2944
820.184	2895
820.324	2906
820.465	2982
820.605	3013
820.746	2994
820.886	2971
821.026	3123
821.167	3154
821.307	3241
821.447	3260
821.588	3256
821.728	3199
821.868	3218
822.008	3081
822.149	3180
822.289	3214
822.429	3077
822.569	3112
822.709	3184
822.849	3013
822.99	3077
823.13	3146
823.27	3230
823.41	3138
823.55	3176
823.69	3180
823.83	3195
823.97	3070
824.11	3058
824.25	3013
824.389	3058
824.529	3154
824.669	3081
824.809	3230
824.949	3230
825.089	3207
825.228	3161
825.368	2990
825.508	2937
825.648	2982
825.787	2963
825.927	3001
826.067	2986
826.206	2963
826.346	3058
826.485	3062
826.625	3100
826.765	3249
826.904	3253
827.044	3001
827.183	2944
827.323	2868
827.462	3005
827.601	2925
827.741	2933
827.88	2998
828.02	2864
828.159	2967
828.298	3062
828.437	3108
828.577	3009
828.716	3237
828.855	3062
828.994	2902
829.134	2906
829.273	2971
829.412	2876
829.551	2872
829.69	2914
829.829	2975
829.968	3135
830.107	3039
830.246	3017
830.385	2929
830.524	2914
830.663	2815
830.802	2724
830.941	2670
831.08	2648
831.219	2781
831.357	2754
831.496	2963
831.635	2727
831.774	2655
831.913	2708
832.051	2571
832.19	2583
832.329	2682
832.467	2590
832.606	2442
832.744	2590
832.883	2594
833.022	2602
833.16	2674
833.299	2697
833.437	2705
833.576	2716
833.714	2720
833.852	2731
833.991	2777
834.129	2842
834.267	2804
834.406	2815
834.544	2902
834.682	2834
834.821	2876
834.959	3051
835.097	2956
835.235	3055
835.373	2994
835.511	2994
835.65	2956
835.788	2971
835.926	2845
836.064	2849
836.202	2826
836.34	3074
836.478	3135
836.615	3036
836.753	3161
836.891	3222
837.029	3176
837.167	3085
837.305	3077
837.443	3055
837.58	2963
837.718	3138
837.856	3074
837.993	3013
838.131	3112
838.269	3123
838.406	3066
838.544	3066
838.681	2960
838.819	2895
838.956	2823
839.094	2834
839.231	2891
839.369	3009
839.506	3389
839.643	3176
839.781	3051
839.918	2948
840.055	3028
840.193	3055
840.33	3085
840.467	3097
840.604	3161
840.742	3382
840.879	3032
841.016	3051
841.153	3104
841.29	3351
841.427	3317
841.564	3260
841.701	3298
841.838	3199
841.975	3195
842.112	3203
842.249	3112
842.385	3024
842.522	3268
842.659	3108
842.796	3089
842.933	3093
843.069	3051
843.206	3024
843.343	3211
843.479	3138
843.616	3127
843.752	2887
843.889	2861
844.025	3089
844.162	2864
844.298	3081
844.435	2963
844.571	2963
844.708	3074
844.844	3214
844.98	3245
845.117	3211
845.253	3089
845.389	3017
845.525	3131
845.661	3097
845.798	3028
845.934	3146
846.07	3081
846.206	3253
846.342	3317
846.478	3272
846.614	3131
846.75	3013
846.886	3020
847.022	3249
847.158	3123
847.294	3207
847.429	3214
847.565	3184
847.701	3469
847.837	2994
847.972	3020
848.108	3119
848.244	3123
848.379	3020
848.515	2941
848.65	2914
848.786	2944
848.921	3005
849.057	3100
849.192	3138
849.328	3066
849.463	3112
849.598	3097
849.734	3043
849.869	2971
850.004	2914
850.14	2990
850.275	2925
850.41	2838
850.545	2922
850.68	2956
850.815	2944
850.95	2971
851.085	3169
851.22	3131
851.355	3028
851.49	2998
851.625	2979
851.76	3036
851.895	2933
852.03	2880
852.165	3028
852.299	3108
852.434	3157
852.569	3154
852.703	3207
852.838	3287
852.973	3359
853.107	3332
853.242	3169
853.376	3093
853.511	2982
853.645	3047
853.78	3211
853.914	3093
854.048	3089
854.183	3097
854.317	3157
854.451	3298
854.585	3127
854.72	3074
854.854	3192
854.988	3024
855.122	3077
855.256	2963
855.39	3150
855.524	3241
855.658	3180
855.792	3138
855.926	3203
856.06	3230
856.194	3268
856.327	3142
856.461	3051
856.595	3093
856.729	3093
856.862	3260
856.996	3173
857.13	3207
857.263	3203
857.397	3268
857.53	3119
857.664	3165
857.797	3214
857.931	3245
858.064	3154
858.197	3218
858.331	3104
858.464	3108
858.597	3017
858.731	3142
858.864	3066
858.997	3081
859.13	3116
859.263	3169
859.396	3218
859.529	3051
859.662	3074
859.795	3051
859.928	3157
860.061	3294
860.194	3336
860.327	3119
860.46	3081
860.592	3218
860.725	3264
860.858	3253
860.99	3146
861.123	3047
861.256	3066
861.388	3119
861.521	3781
861.653	3001
861.786	2990
861.918	3020
862.05	3066
862.183	3089
862.315	3119
862.447	3226
862.58	3100
862.712	2933
862.844	2906
862.976	3028
863.108	3017
863.24	3329
863.372	2872
863.504	2952
863.636	2944
863.768	3001
863.9	2986
864.032	2922
864.164	2925
864.296	2998
864.428	3093
864.559	3135
864.691	3093
864.823	3055
864.954	3047
865.086	3036
865.217	2990
865.349	2963
865.48	2982
865.612	3009
865.743	3176
865.875	3009
866.006	2929
866.137	2998
866.269	2967
866.4	2933
866.531	2876
866.662	2899
866.793	2902
866.924	2906
867.055	2956
867.186	2922
867.317	2880
867.448	2834
867.579	2861
867.71	2853
867.841	2838
867.972	2906
868.103	2918
868.233	2864
868.364	2872
868.495	2883
868.625	3074
868.756	3142
868.886	2960
869.017	3005
869.147	3161
869.278	3173
869.408	3058
869.539	3017
869.669	3116
869.799	3043
869.929	3135
870.06	3097
870.19	3351
870.32	3264
870.45	3298
870.58	3367
870.71	3450
870.84	3435
870.97	3268
871.1	3222
871.23	3466
871.36	3447
871.489	3386
871.619	3389
871.749	3367
871.879	3428
872.008	3466
872.138	3367
872.267	3249
872.397	3157
872.526	3093
872.656	2975
872.785	3077
872.915	3237
873.044	3272
873.173	3222
873.303	3279
873.432	3222
873.561	3241
873.69	3112
873.819	3131
873.948	3218
874.077	3131
874.206	3020
874.335	3112
874.464	3222
874.593	3367
874.722	3245
874.851	3355
874.979	3336
875.108	3310
875.237	3173
875.365	3142
875.494	3188
875.623	3218
875.751	3074
875.88	3070
876.008	3218
876.136	3218
876.265	3401
876.393	3545
876.521	3401
876.65	3401
876.778	3287
876.906	3260
877.034	3214
877.162	3161
877.29	3203
877.418	3272
877.546	3272
877.674	3207
877.802	3230
877.93	3203
878.058	3157
878.185	3077
878.313	3154
878.441	3211
878.568	3077
878.696	3180
878.824	3226
878.951	3268
879.079	3435
879.206	3622
879.333	3435
879.461	3325
879.588	3325
879.715	3477
879.842	3553
879.97	3370
880.097	3146
880.224	3135
880.351	3165
880.478	3222
880.605	3241
880.732	3169
880.859	3488
880.986	3291
881.112	3306
881.239	3199
881.366	3093
881.493	3051
881.619	2998
881.746	3066
881.872	3097
881.999	3112
882.125	3138
882.252	3245
882.378	3256
882.505	3439
882.631	3264
882.757	3165
882.883	3222
883.01	3272
883.136	3146
883.262	3062
883.388	3116
883.514	3317
883.64	3313
883.766	3302
883.892	3195
884.018	3237
884.143	3416
884.269	3519
884.395	3195
884.52	3142
884.646	3169
884.772	3116
884.897	3081
885.023	3203
885.148	3340
885.274	3401
885.399	3348
885.524	3268
885.65	3230
885.775	3298
885.9	3272
886.025	3389
886.15	3378
886.275	3340
886.4	3249
886.525	3287
886.65	3233
886.775	3279
886.9	3496
887.025	3637
887.149	3374
887.274	3256
887.399	3154
887.523	3211
887.648	3184
887.773	3180
887.897	3401
888.021	3412
888.146	3298
888.27	3416
888.395	3511
888.519	3389
888.643	3424
888.767	3462
888.891	3310
889.015	3188
889.139	3256
889.263	3237
889.387	3416
889.511	3519
889.635	3447
889.759	3310
889.883	3275
890.006	3386
890.13	3526
890.254	3264
890.377	3325
890.501	3188
890.624	3180
890.748	3325
890.871	3195
890.995	3100
891.118	3055
891.241	3188
891.364	3222
891.488	3329
891.611	3165
891.734	3218
891.857	3310
891.98	3207
892.103	3386
892.226	3287
892.349	3207
892.471	3127
892.594	3211
892.717	3291
892.839	3264
892.962	3302
893.085	3344
893.207	3275
893.33	3150
893.452	3233
893.575	3306
893.697	3241
893.819	3428
893.941	3530
894.064	3443
894.186	3249
894.308	3287
894.43	3431
894.552	3542
894.674	3405
894.796	3313
894.918	3306
895.04	3302
895.161	3393
895.283	3401
895.405	3294
895.526	3344
895.648	3450
895.769	3389
895.891	3409
896.012	3458
896.134	3439
896.255	3401
896.376	3374
896.498	3355
896.619	3454
896.74	3386
896.861	3389
896.982	3667
897.103	3819
897.224	3584
897.345	3511
897.466	3420
897.587	3500
897.708	3629
897.828	3534
897.949	3462
898.07	3332
898.19	3389
898.311	3606
898.431	3435
898.552	3466
898.672	3580
898.792	3545
898.913	3523
899.033	3412
899.153	3256
899.273	3230
899.393	3287
899.513	3344
899.633	3348
899.753	3374
899.873	3283
899.993	3363
900.113	3313
900.232	3382
900.352	3317
900.472	3287
900.591	3207
900.711	3241
900.83	3260
900.95	3401
901.069	3500
901.189	3351
901.308	3169
901.427	3093
901.546	3154
901.665	3306
901.784	3344
901.904	3207
902.023	3131
902.141	3024
902.26	2963
902.379	3142
902.498	3047
902.617	3058
902.735	3169
902.854	3241
902.973	3154
903.091	3047
903.21	3024
903.328	3138
903.446	3119
903.565	3104
903.683	3154
903.801	3097
903.919	3241
904.038	3249
904.156	3180
904.274	3306
904.392	3283
904.51	3306
904.627	3302
904.745	3428
904.863	3504
904.981	3211
905.098	3154
905.216	3218
905.334	3306
905.451	3283
905.569	3283
905.686	3424
905.803	3435
905.921	3291
906.038	3386
906.155	3348
906.272	3287
906.389	3344
906.506	3214
906.623	3268
906.74	3245
906.857	3195
906.974	3237
907.091	3443
907.208	3557
907.324	3454
907.441	3363
907.557	3188
907.674	3211
907.79	3176
907.907	3287
908.023	3340
908.139	3363
908.256	3317
908.372	3382
908.488	3325
908.604	3207
908.72	3230
908.836	3310
908.952	3283
909.068	3325
909.184	3469
909.3	3382
909.415	3511
909.531	3447
909.647	3249
909.762	3260
909.878	3275
909.993	3367
910.108	3329
910.224	3336
910.339	3435
910.454	3340
910.57	3298
910.685	3226
910.8	3584
910.915	3530
911.03	3401
911.145	3256
911.259	3237
911.374	3310
911.489	3256
911.604	3249
911.718	3123
911.833	3131
911.947	3028
912.062	2963
912.176	3150
912.291	3173
912.405	3233
912.519	3412
912.633	3466
912.748	3313
912.862	3272
912.976	3157
913.09	3013
913.204	3116
913.318	3192
913.431	3332
913.545	3348
913.659	3424
913.772	3306
913.886	3199
914	3184
914.113	3336
914.226	3386
914.34	3336
914.453	3233
914.566	3420
914.68	3279
914.793	3302
914.906	3119
915.019	3097
915.132	3043
915.245	3127
915.358	3222
915.47	3184
915.583	3272
915.696	3283
915.809	3420
915.921	3409
916.034	3287
916.146	3249
916.259	3245
916.371	3397
916.483	3363
916.595	3272
916.708	3355
916.82	3336
916.932	3313
917.044	3355
917.156	3332
917.268	3253
917.38	3348
917.491	3310
917.603	3359
917.715	3477
917.826	3492
917.938	3382
918.049	3268
918.161	3412
918.272	3568
918.384	3557
918.495	3492
918.606	3325
918.717	3264
918.828	3382
918.939	3439
919.05	3272
919.161	3389
919.272	3207
919.383	3294
919.494	3515
919.604	3671
919.715	3481
919.826	3416
919.936	3492
920.047	3572
920.157	3549
920.267	3804
920.378	3576
920.488	3542
920.598	3755
920.708	3983
920.818	3808
920.928	3804
921.038	3987
921.148	3983
921.258	3656
921.368	3618
921.477	3542
921.587	3530
921.697	3466
921.806	3610
921.916	3511
922.025	3344
922.134	3355
922.244	3348
922.353	3416
922.462	3241
922.571	3264
922.68	3123
922.789	3089
922.898	3123
923.007	3104
923.116	3207
923.224	3135
923.333	3192
923.442	3108
923.55	3058
923.659	3104
923.767	3226
923.876	3112
923.984	3249
924.092	3089
924.201	3161
924.309	3214
924.417	3222
924.525	3195
924.633	3211
924.741	3987
924.849	3066
924.956	3291
925.064	3058
925.172	3051
925.279	3066
925.387	3192
925.494	3203
925.602	3382
925.709	3317
925.816	3199
925.924	3294
926.031	3382
926.138	3310
926.245	3351
926.352	3237
926.459	3466
926.566	3488
926.673	3332
926.779	3268
926.886	3256
926.993	3123
927.099	3127
927.206	3119
927.312	3123
927.419	3233
927.525	3169
927.631	3233
927.737	3131
927.843	3150
927.95	3013
928.056	3135
928.162	3131
928.267	3283
928.373	3778
928.479	3329
928.585	3062
928.69	3203
928.796	3283
928.901	3173
929.007	3066
929.112	3199
929.218	3195
929.323	3116
929.428	3127
929.533	3332
929.638	3116
929.743	3176
929.848	3241
929.953	3233
930.058	3146
930.163	3020
930.267	3058
930.372	3173
930.477	3039
930.581	3302
930.685	3176
930.79	3085
930.894	3138
930.998	3089
931.103	3272
931.207	2952
931.311	2960
931.415	2922
931.519	2800
931.623	2800
