Data from test_V78500241_974.txt Node
Date: Fri Mar 25 16:21:57 CST 2022
User: usil
Spectrometer: V785-0024
Trigger mode: 0
Integration Time (sec): 4.000000E-1
Scans to average: 1
Nonlinearity correction enabled: false
Boxcar width: 0
Storing dark spectrum: false
XAxis mode: Wavelengths
Number of Pixels in Spectrum: 1024
>>>>>Begin Spectral Data<<<<<
801.071	2937
801.214	2998
801.356	2902
801.499	2929
801.641	2933
801.783	2933
801.926	3081
802.068	3032
802.211	3062
802.353	3036
802.496	2982
802.638	3055
802.78	3077
802.923	3157
803.065	3055
803.208	2929
803.35	2952
803.492	2986
803.635	2937
803.777	2773
803.919	2918
804.061	3230
804.204	3013
804.346	2937
804.488	2868
804.63	3039
804.773	2929
804.915	2925
805.057	3116
805.199	2948
805.341	3005
805.483	3081
805.626	3058
805.768	2994
805.91	3138
806.052	3142
806.194	3066
806.336	3294
806.478	3032
806.62	2998
806.762	3028
806.904	3089
807.046	3195
807.188	2998
807.33	2922
807.472	3013
807.614	2941
807.756	3024
807.898	2956
808.04	2941
808.182	2998
808.324	2967
808.465	2902
808.607	2902
808.749	2823
808.891	2834
809.033	3013
809.174	3005
809.316	2933
809.458	2906
809.6	2815
809.741	2804
809.883	2804
810.025	2914
810.166	2887
810.308	2845
810.45	2902
810.591	2800
810.733	2834
810.875	2864
811.016	2830
811.158	2792
811.299	2838
811.441	2979
811.582	2910
811.724	2887
811.865	2819
812.007	2948
812.148	2937
812.29	2899
812.431	2883
812.573	2937
812.714	2975
812.855	3051
812.997	3081
813.138	3157
813.279	3062
813.421	3017
813.562	2982
813.703	2868
813.845	2902
813.986	2796
814.127	2743
814.268	2857
814.41	2845
814.551	2838
814.692	2925
814.833	2811
814.974	2883
815.115	2982
815.256	2845
815.397	2830
815.539	2883
815.68	2800
815.821	2838
815.962	2967
816.103	2979
816.244	2880
816.385	2834
816.526	2960
816.666	2975
816.807	2785
816.948	2895
817.089	2941
817.23	2872
817.371	2823
817.512	2777
817.653	2883
817.793	2853
817.934	2910
818.075	3017
818.216	2986
818.356	3028
818.497	2914
818.638	2830
818.778	2834
818.919	2842
819.06	2773
819.2	2906
819.341	2815
819.481	2868
819.622	2944
819.762	3154
819.903	3058
820.043	2963
820.184	2937
820.324	2899
820.465	3047
820.605	3047
820.746	2994
820.886	2956
821.026	3131
821.167	3184
821.307	3256
821.447	3302
821.588	3214
821.728	3218
821.868	3253
822.008	3074
822.149	3173
822.289	3264
822.429	3123
822.569	3123
822.709	3207
822.849	3051
822.99	3116
823.13	3195
823.27	3214
823.41	3127
823.55	3173
823.69	3176
823.83	3226
823.97	3138
824.11	3013
824.25	3062
824.389	3089
824.529	3150
824.669	3074
824.809	3211
824.949	3241
825.089	3241
825.228	3173
825.368	3005
825.508	2998
825.648	3017
825.787	3047
825.927	3024
826.067	2944
826.206	2994
826.346	3051
826.485	3119
826.625	3165
826.765	3294
826.904	3218
827.044	3013
827.183	2986
827.323	2864
827.462	2990
827.601	2944
827.741	2971
827.88	2982
828.02	2845
828.159	3013
828.298	3043
828.437	3112
828.577	3043
828.716	3272
828.855	3116
828.994	2948
829.134	2906
829.273	2952
829.412	2895
829.551	2864
829.69	2906
829.829	3001
829.968	3165
830.107	3020
830.246	3039
830.385	2941
830.524	2876
830.663	2861
830.802	2788
830.941	2648
831.08	2670
831.219	2815
831.357	2750
831.496	3013
831.635	2727
831.774	2674
831.913	2670
832.051	2587
832.19	2610
832.329	2712
832.467	2522
832.606	2476
832.744	2617
832.883	2598
833.022	2644
833.16	2670
833.299	2716
833.437	2724
833.576	2701
833.714	2746
833.852	2750
833.991	2773
834.129	2834
834.267	2853
834.406	2853
834.544	2887
834.682	2891
834.821	2937
834.959	3085
835.097	2887
835.235	3131
835.373	3020
835.511	3028
835.65	2941
835.788	2937
835.926	2826
836.064	2849
836.202	2883
836.34	3108
836.478	3123
836.615	3062
836.753	3154
836.891	3211
837.029	3195
837.167	3081
837.305	3081
837.443	3036
837.58	2998
837.718	3161
837.856	3077
837.993	3058
838.131	3138
838.269	3093
838.406	3104
838.544	3112
838.681	2975
838.819	2941
838.956	2800
839.094	2830
839.231	2918
839.369	3009
839.506	3428
839.643	3218
839.781	3032
839.918	2975
840.055	3051
840.193	3058
840.33	3074
840.467	3093
840.604	3157
840.742	3405
840.879	3097
841.016	3062
841.153	3131
841.29	3344
841.427	3298
841.564	3256
841.701	3336
841.838	3230
841.975	3199
842.112	3214
842.249	3070
842.385	3051
842.522	3268
842.659	3108
842.796	3074
842.933	3169
843.069	3036
843.206	3051
843.343	3180
843.479	3100
843.616	3146
843.752	2906
843.889	2883
844.025	3119
844.162	2868
844.298	3097
844.435	2944
844.571	2948
844.708	3070
844.844	3203
844.98	3272
845.117	3222
845.253	3074
845.389	2998
845.525	3131
845.661	3127
845.798	3005
845.934	3157
846.07	3055
846.206	3253
846.342	3340
846.478	3237
846.614	3142
846.75	3104
846.886	2994
847.022	3253
847.158	3154
847.294	3211
847.429	3253
847.565	3233
847.701	3485
847.837	3062
847.972	2994
848.108	3165
848.244	3138
848.379	3017
848.515	2956
848.65	2914
848.786	2990
848.921	3005
849.057	3112
849.192	3161
849.328	3062
849.463	3146
849.598	3043
849.734	2994
849.869	2990
850.004	2952
850.14	3017
850.275	2914
850.41	2880
850.545	2906
850.68	2929
850.815	2990
850.95	3005
851.085	3253
851.22	3081
851.355	3036
851.49	3009
851.625	2986
851.76	3001
851.895	2944
852.03	2902
852.165	3020
852.299	3131
852.434	3173
852.569	3173
852.703	3203
852.838	3245
852.973	3336
853.107	3325
853.242	3157
853.376	3097
853.511	2986
853.645	3081
853.78	3268
853.914	3131
854.048	3142
854.183	3089
854.317	3131
854.451	3313
854.585	3127
854.72	3097
854.854	3218
854.988	3043
855.122	3081
855.256	2982
855.39	3135
855.524	3233
855.658	3188
855.792	3154
855.926	3192
856.06	3249
856.194	3260
856.327	3180
856.461	3074
856.595	3081
856.729	3112
856.862	3241
856.996	3142
857.13	3188
857.263	3249
857.397	3275
857.53	3142
857.664	3169
857.797	3245
857.931	3253
858.064	3173
858.197	3203
858.331	3138
858.464	3055
858.597	3039
858.731	3127
858.864	3150
858.997	3097
859.13	3161
859.263	3157
859.396	3192
859.529	3123
859.662	3146
859.795	3081
859.928	3165
860.061	3279
860.194	3294
860.327	3127
860.46	3089
860.592	3275
860.725	3275
860.858	3260
860.99	3093
861.123	3112
861.256	3039
861.388	3157
861.521	3827
861.653	2967
861.786	2944
861.918	2998
862.05	3062
862.183	3112
862.315	3157
862.447	3195
862.58	3104
862.712	2922
862.844	2872
862.976	3009
863.108	3039
863.24	3447
863.372	2902
863.504	2956
863.636	2948
863.768	2986
863.9	2979
864.032	2918
864.164	2910
864.296	3070
864.428	3089
864.559	3135
864.691	3119
864.823	3074
864.954	3051
865.086	3074
865.217	2948
865.349	2933
865.48	2998
865.612	2975
865.743	3176
865.875	2975
866.006	2929
866.137	2979
866.269	2902
866.4	2948
866.531	2967
866.662	2868
866.793	2876
866.924	2910
867.055	2986
867.186	2925
867.317	2880
867.448	2868
867.579	2838
867.71	2868
867.841	2823
867.972	2906
868.103	2933
868.233	2887
868.364	2906
868.495	2918
868.625	3104
868.756	3176
868.886	2979
869.017	3043
869.147	3169
869.278	3176
869.408	3055
869.539	3058
869.669	3116
869.799	3036
869.929	3150
870.06	3116
870.19	3359
870.32	3291
870.45	3313
870.58	3348
870.71	3473
870.84	3443
870.97	3287
871.1	3272
871.23	3485
871.36	3466
871.489	3382
871.619	3439
871.749	3389
871.879	3420
872.008	3469
872.138	3382
872.267	3317
872.397	3154
872.526	3119
872.656	3039
872.785	3123
872.915	3245
873.044	3294
873.173	3226
873.303	3260
873.432	3249
873.561	3230
873.69	3176
873.819	3131
873.948	3237
874.077	3112
874.206	3055
874.335	3055
874.464	3214
874.593	3332
874.722	3214
874.851	3431
874.979	3374
875.108	3291
875.237	3192
875.365	3161
875.494	3157
875.623	3260
875.751	3036
875.88	3112
876.008	3195
876.136	3249
876.265	3359
876.393	3519
876.521	3355
876.65	3370
876.778	3313
876.906	3264
877.034	3192
877.162	3237
877.29	3180
877.418	3241
877.546	3226
877.674	3264
877.802	3218
877.93	3222
878.058	3161
878.185	3112
878.313	3195
878.441	3226
878.568	3066
878.696	3093
878.824	3237
878.951	3344
879.079	3401
879.206	3622
879.333	3439
879.461	3298
879.588	3370
879.715	3496
879.842	3599
879.97	3367
880.097	3154
880.224	3112
880.351	3157
880.478	3211
880.605	3207
880.732	3173
880.859	3473
880.986	3302
881.112	3298
881.239	3199
881.366	3135
881.493	3081
881.619	3024
881.746	3062
881.872	3093
881.999	3127
882.125	3157
882.252	3294
882.378	3279
882.505	3439
882.631	3275
882.757	3138
882.883	3237
883.01	3214
883.136	3161
883.262	3085
883.388	3123
883.514	3275
883.64	3336
883.766	3329
883.892	3199
884.018	3211
884.143	3409
884.269	3523
884.395	3195
884.52	3119
884.646	3192
884.772	3135
884.897	3097
885.023	3192
885.148	3310
885.274	3416
885.399	3367
885.524	3294
885.65	3298
885.775	3340
885.9	3298
886.025	3424
886.15	3363
886.275	3332
886.4	3249
886.525	3275
886.65	3260
886.775	3245
886.9	3485
887.025	3606
887.149	3389
887.274	3306
887.399	3173
887.523	3188
887.648	3211
887.773	3161
887.897	3363
888.021	3355
888.146	3264
888.27	3447
888.395	3511
888.519	3473
888.643	3443
888.767	3443
888.891	3302
889.015	3237
889.139	3268
889.263	3241
889.387	3435
889.511	3496
889.635	3450
889.759	3268
889.883	3264
890.006	3367
890.13	3481
890.254	3249
890.377	3329
890.501	3214
890.624	3169
890.748	3317
890.871	3173
890.995	3074
891.118	3074
891.241	3226
891.364	3233
891.488	3302
891.611	3146
891.734	3226
891.857	3268
891.98	3233
892.103	3321
892.226	3272
892.349	3192
892.471	3081
892.594	3249
892.717	3237
892.839	3317
892.962	3268
893.085	3378
893.207	3256
893.33	3154
893.452	3188
893.575	3336
893.697	3260
893.819	3424
893.941	3488
894.064	3428
894.186	3256
894.308	3253
894.43	3469
894.552	3538
894.674	3477
894.796	3268
894.918	3325
895.04	3249
895.161	3420
895.283	3374
895.405	3321
895.526	3336
895.648	3450
895.769	3435
895.891	3458
896.012	3454
896.134	3462
896.255	3431
896.376	3370
896.498	3329
896.619	3424
896.74	3412
896.861	3424
896.982	3713
897.103	3823
897.224	3576
897.345	3492
897.466	3405
897.587	3496
897.708	3641
897.828	3557
897.949	3405
898.07	3363
898.19	3389
898.311	3530
898.431	3405
898.552	3481
898.672	3610
898.792	3542
898.913	3519
899.033	3367
899.153	3275
899.273	3176
899.393	3287
899.513	3279
899.633	3294
899.753	3306
899.873	3306
899.993	3389
900.113	3332
900.232	3401
900.352	3367
900.472	3298
900.591	3226
900.711	3275
900.83	3207
900.95	3420
901.069	3488
901.189	3348
901.308	3173
901.427	3116
901.546	3192
901.665	3313
901.784	3321
901.904	3188
902.023	3173
902.141	3013
902.26	2990
902.379	3135
902.498	3093
902.617	3058
902.735	3214
902.854	3230
902.973	3230
903.091	3055
903.21	3047
903.328	3123
903.446	3146
903.565	3108
903.683	3207
903.801	3150
903.919	3264
904.038	3275
904.156	3138
904.274	3310
904.392	3233
904.51	3287
904.627	3321
904.745	3412
904.863	3492
904.981	3272
905.098	3154
905.216	3230
905.334	3306
905.451	3321
905.569	3302
905.686	3431
905.803	3412
905.921	3298
906.038	3393
906.155	3355
906.272	3275
906.389	3313
906.506	3211
906.623	3260
906.74	3294
906.857	3195
906.974	3226
907.091	3462
907.208	3553
907.324	3473
907.441	3351
907.557	3245
907.674	3237
907.79	3184
907.907	3310
908.023	3370
908.139	3393
908.256	3340
908.372	3363
908.488	3370
908.604	3268
908.72	3195
908.836	3329
908.952	3272
909.068	3374
909.184	3439
909.3	3416
909.415	3507
909.531	3481
909.647	3260
909.762	3268
909.878	3268
909.993	3363
910.108	3336
910.224	3325
910.339	3405
910.454	3340
910.57	3279
910.685	3218
910.8	3545
910.915	3530
911.03	3386
911.145	3233
911.259	3283
911.374	3287
911.489	3279
911.604	3245
911.718	3093
911.833	3138
911.947	3036
912.062	2948
912.176	3169
912.291	3184
912.405	3173
912.519	3416
912.633	3458
912.748	3310
912.862	3249
912.976	3142
913.09	3043
913.204	3169
913.318	3245
913.431	3329
913.545	3355
913.659	3420
913.772	3351
913.886	3279
914	3188
914.113	3355
914.226	3378
914.34	3344
914.453	3222
914.566	3393
914.68	3298
914.793	3287
914.906	3176
915.019	3100
915.132	3070
915.245	3188
915.358	3165
915.47	3211
915.583	3268
915.696	3302
915.809	3389
915.921	3431
916.034	3268
916.146	3268
916.259	3188
916.371	3397
916.483	3332
916.595	3233
916.708	3310
916.82	3355
916.932	3321
917.044	3363
917.156	3344
917.268	3237
917.38	3249
917.491	3325
917.603	3325
917.715	3405
917.826	3473
917.938	3370
918.049	3275
918.161	3428
918.272	3572
918.384	3584
918.495	3450
918.606	3313
918.717	3253
918.828	3355
918.939	3431
919.05	3283
919.161	3363
919.272	3161
919.383	3313
919.494	3507
919.604	3682
919.715	3488
919.826	3367
919.936	3462
920.047	3629
920.157	3515
920.267	3740
920.378	3614
920.488	3580
920.598	3736
920.708	3949
920.818	3857
920.928	3827
921.038	4010
921.148	3941
921.258	3705
921.368	3625
921.477	3568
921.587	3549
921.697	3473
921.806	3629
921.916	3485
922.025	3344
922.134	3321
922.244	3325
922.353	3397
922.462	3260
922.571	3222
922.68	3100
922.789	3047
922.898	3146
923.007	3119
923.116	3173
923.224	3154
923.333	3173
923.442	3100
923.55	3085
923.659	3173
923.767	3192
923.876	3116
923.984	3237
924.092	3116
924.201	3184
924.309	3222
924.417	3218
924.525	3180
924.633	3241
924.741	4158
924.849	3017
924.956	3249
925.064	3112
925.172	3020
925.279	3100
925.387	3184
925.494	3176
925.602	3340
925.709	3329
925.816	3165
925.924	3302
926.031	3355
926.138	3302
926.245	3336
926.352	3207
926.459	3428
926.566	3435
926.673	3367
926.779	3249
926.886	3283
926.993	3127
927.099	3097
927.206	3081
927.312	3093
927.419	3180
927.525	3195
927.631	3268
927.737	3138
927.843	3138
927.95	3005
928.056	3127
928.162	3192
928.267	3275
928.373	3827
928.479	3294
928.585	3066
928.69	3211
928.796	3230
928.901	3203
929.007	3055
929.112	3199
929.218	3173
929.323	3157
929.428	3173
929.533	3287
929.638	3108
929.743	3154
929.848	3226
929.953	3207
930.058	3142
930.163	2975
930.267	3066
930.372	3222
930.477	3036
930.581	3313
930.685	3184
930.79	3047
930.894	3100
930.998	3085
931.103	3291
931.207	2929
931.311	2891
931.415	2887
931.519	2754
931.623	2800
