Data from test_V78500241_644.txt Node
Date: Fri Mar 25 16:19:39 CST 2022
User: usil
Spectrometer: V785-0024
Trigger mode: 0
Integration Time (sec): 4.000000E-1
Scans to average: 1
Nonlinearity correction enabled: false
Boxcar width: 0
Storing dark spectrum: false
XAxis mode: Wavelengths
Number of Pixels in Spectrum: 1024
>>>>>Begin Spectral Data<<<<<
801.071	2902
801.214	2971
801.356	2864
801.499	2933
801.641	2838
801.783	2925
801.926	3043
802.068	2944
802.211	2963
802.353	3024
802.496	2952
802.638	3028
802.78	3017
802.923	3093
803.065	2994
803.208	2895
803.35	2925
803.492	2925
803.635	2929
803.777	2762
803.919	2834
804.061	3157
804.204	2906
804.346	2899
804.488	2845
804.63	2967
804.773	2868
804.915	2922
805.057	3070
805.199	2941
805.341	2975
805.483	3020
805.626	2994
805.768	2952
805.91	3100
806.052	3112
806.194	3047
806.336	3214
806.478	3020
806.62	2918
806.762	2956
806.904	3074
807.046	3173
807.188	2982
807.33	2910
807.472	2963
807.614	2887
807.756	3001
807.898	2902
808.04	2906
808.182	2975
808.324	2963
808.465	2887
808.607	2864
808.749	2804
808.891	2823
809.033	2975
809.174	3001
809.316	2883
809.458	2887
809.6	2788
809.741	2754
809.883	2800
810.025	2819
810.166	2872
810.308	2807
810.45	2864
810.591	2746
810.733	2762
810.875	2842
811.016	2788
811.158	2746
811.299	2792
811.441	2944
811.582	2952
811.724	2834
811.865	2842
812.007	2929
812.148	2910
812.29	2880
812.431	2906
812.573	2944
812.714	2975
812.855	3028
812.997	3036
813.138	3081
813.279	3024
813.421	3020
813.562	2944
813.703	2861
813.845	2899
813.986	2788
814.127	2724
814.268	2811
814.41	2823
814.551	2796
814.692	2880
814.833	2823
814.974	2895
815.115	2941
815.256	2807
815.397	2804
815.539	2887
815.68	2746
815.821	2785
815.962	2922
816.103	2922
816.244	2914
816.385	2891
816.526	2952
816.666	2929
816.807	2750
816.948	2937
817.089	2899
817.23	2868
817.371	2766
817.512	2781
817.653	2826
817.793	2823
817.934	2857
818.075	2963
818.216	2956
818.356	3001
818.497	2891
818.638	2781
818.778	2804
818.919	2777
819.06	2769
819.2	2880
819.341	2815
819.481	2785
819.622	2910
819.762	3100
819.903	3032
820.043	2902
820.184	2876
820.324	2883
820.465	2998
820.605	2982
820.746	2998
820.886	2937
821.026	3081
821.167	3135
821.307	3237
821.447	3237
821.588	3237
821.728	3161
821.868	3188
822.008	3100
822.149	3154
822.289	3237
822.429	3070
822.569	3043
822.709	3173
822.849	3028
822.99	3043
823.13	3127
823.27	3176
823.41	3104
823.55	3154
823.69	3142
823.83	3173
823.97	3100
824.11	3005
824.25	3005
824.389	3058
824.529	3100
824.669	3058
824.809	3199
824.949	3237
825.089	3241
825.228	3157
825.368	3017
825.508	2963
825.648	2986
825.787	2986
825.927	3017
826.067	2956
826.206	2986
826.346	3051
826.485	3055
826.625	3131
826.765	3230
826.904	3207
827.044	2944
827.183	2925
827.323	2857
827.462	2975
827.601	2941
827.741	2922
827.88	2948
828.02	2868
828.159	2990
828.298	3028
828.437	3116
828.577	3024
828.716	3233
828.855	3047
828.994	2891
829.134	2891
829.273	2895
829.412	2868
829.551	2887
829.69	2857
829.829	2975
829.968	3116
830.107	3005
830.246	3005
830.385	2895
830.524	2857
830.663	2826
830.802	2716
830.941	2644
831.08	2651
831.219	2727
831.357	2762
831.496	2918
831.635	2727
831.774	2648
831.913	2648
832.051	2522
832.19	2583
832.329	2686
832.467	2541
832.606	2476
832.744	2571
832.883	2575
833.022	2571
833.16	2674
833.299	2651
833.437	2686
833.576	2678
833.714	2720
833.852	2708
833.991	2746
834.129	2842
834.267	2811
834.406	2766
834.544	2883
834.682	2902
834.821	2868
834.959	3093
835.097	2914
835.235	3058
835.373	2994
835.511	3028
835.65	2956
835.788	2941
835.926	2811
836.064	2815
836.202	2845
836.34	3093
836.478	3157
836.615	3028
836.753	3135
836.891	3161
837.029	3131
837.167	3070
837.305	3055
837.443	3017
837.58	2944
837.718	3131
837.856	3058
837.993	3020
838.131	3070
838.269	3089
838.406	3093
838.544	3097
838.681	2925
838.819	2925
838.956	2830
839.094	2826
839.231	2952
839.369	3020
839.506	3359
839.643	3241
839.781	3009
839.918	2963
840.055	3055
840.193	3017
840.33	3089
840.467	3131
840.604	3161
840.742	3378
840.879	3043
841.016	3024
841.153	3127
841.29	3279
841.427	3336
841.564	3237
841.701	3310
841.838	3226
841.975	3157
842.112	3233
842.249	3062
842.385	3028
842.522	3283
842.659	3116
842.796	3077
842.933	3097
843.069	3074
843.206	3039
843.343	3173
843.479	3077
843.616	3135
843.752	2872
843.889	2872
844.025	3074
844.162	2883
844.298	3043
844.435	2956
844.571	2895
844.708	3066
844.844	3203
844.98	3222
845.117	3150
845.253	3055
845.389	2994
845.525	3112
845.661	3070
845.798	3013
845.934	3093
846.07	3017
846.206	3222
846.342	3294
846.478	3230
846.614	3089
846.75	3055
846.886	3070
847.022	3211
847.158	3157
847.294	3199
847.429	3249
847.565	3230
847.701	3450
847.837	3024
847.972	2994
848.108	3142
848.244	3116
848.379	2925
848.515	2914
848.65	2944
848.786	2933
848.921	2998
849.057	3074
849.192	3127
849.328	3043
849.463	3097
849.598	3097
849.734	3043
849.869	2937
850.004	2918
850.14	2944
850.275	2914
850.41	2826
850.545	2849
850.68	2922
850.815	2929
850.95	2944
851.085	3180
851.22	3097
851.355	3020
851.49	2967
851.625	2971
851.76	2990
851.895	2933
852.03	2910
852.165	3047
852.299	3089
852.434	3161
852.569	3138
852.703	3142
852.838	3211
852.973	3340
853.107	3313
853.242	3146
853.376	3119
853.511	2944
853.645	3024
853.78	3222
853.914	3085
854.048	3131
854.183	3097
854.317	3146
854.451	3294
854.585	3123
854.72	3028
854.854	3245
854.988	3032
855.122	3089
855.256	2963
855.39	3077
855.524	3218
855.658	3165
855.792	3135
855.926	3184
856.06	3188
856.194	3283
856.327	3138
856.461	3070
856.595	3074
856.729	3116
856.862	3241
856.996	3131
857.13	3214
857.263	3245
857.397	3230
857.53	3066
857.664	3138
857.797	3203
857.931	3249
858.064	3173
858.197	3192
858.331	3138
858.464	3081
858.597	3028
858.731	3070
858.864	3127
858.997	3085
859.13	3138
859.263	3195
859.396	3218
859.529	3055
859.662	3074
859.795	3039
859.928	3116
860.061	3268
860.194	3291
860.327	3131
860.46	3097
860.592	3268
860.725	3218
860.858	3245
860.99	3104
861.123	3039
861.256	3051
861.388	3116
861.521	3918
861.653	2998
861.786	2963
861.918	3009
862.05	3036
862.183	3077
862.315	3150
862.447	3184
862.58	3089
862.712	2963
862.844	2853
862.976	3081
863.108	2994
863.24	3405
863.372	2914
863.504	2952
863.636	2937
863.768	3047
863.9	2998
864.032	2895
864.164	2944
864.296	3043
864.428	3058
864.559	3116
864.691	3039
864.823	3062
864.954	2998
865.086	2982
865.217	2990
865.349	2937
865.48	3032
865.612	2990
865.743	3123
865.875	2986
866.006	2952
866.137	2963
866.269	2948
866.4	2925
866.531	2895
866.662	2868
866.793	2918
866.924	2883
867.055	2956
867.186	2914
867.317	2842
867.448	2834
867.579	2861
867.71	2849
867.841	2868
867.972	2918
868.103	2853
868.233	2899
868.364	2849
868.495	2918
868.625	3089
868.756	3161
868.886	2952
869.017	2998
869.147	3138
869.278	3165
869.408	3009
869.539	3005
869.669	3108
869.799	3047
869.929	3116
870.06	3070
870.19	3313
870.32	3287
870.45	3313
870.58	3313
870.71	3439
870.84	3393
870.97	3298
871.1	3214
871.23	3443
871.36	3420
871.489	3329
871.619	3370
871.749	3416
871.879	3409
872.008	3435
872.138	3367
872.267	3272
872.397	3157
872.526	3081
872.656	3005
872.785	3097
872.915	3283
873.044	3313
873.173	3260
873.303	3260
873.432	3211
873.561	3192
873.69	3135
873.819	3127
873.948	3184
874.077	3127
874.206	3020
874.335	3108
874.464	3211
874.593	3321
874.722	3207
874.851	3409
874.979	3348
875.108	3306
875.237	3199
875.365	3173
875.494	3180
875.623	3260
875.751	3081
875.88	3104
876.008	3169
876.136	3214
876.265	3351
876.393	3492
876.521	3409
876.65	3401
876.778	3340
876.906	3241
877.034	3188
877.162	3222
877.29	3173
877.418	3256
877.546	3203
877.674	3233
877.802	3226
877.93	3199
878.058	3131
878.185	3089
878.313	3188
878.441	3211
878.568	3093
878.696	3154
878.824	3241
878.951	3298
879.079	3431
879.206	3584
879.333	3458
879.461	3336
879.588	3340
879.715	3511
879.842	3580
879.97	3393
880.097	3184
880.224	3108
880.351	3222
880.478	3230
880.605	3169
880.732	3188
880.859	3469
880.986	3283
881.112	3336
881.239	3211
881.366	3116
881.493	3028
881.619	2994
881.746	3047
881.872	3112
881.999	3123
882.125	3169
882.252	3214
882.378	3272
882.505	3420
882.631	3306
882.757	3131
882.883	3176
883.01	3214
883.136	3142
883.262	3108
883.388	3119
883.514	3268
883.64	3355
883.766	3317
883.892	3154
884.018	3203
884.143	3359
884.269	3526
884.395	3192
884.52	3146
884.646	3195
884.772	3100
884.897	3062
885.023	3222
885.148	3363
885.274	3439
885.399	3382
885.524	3291
885.65	3294
885.775	3298
885.9	3279
886.025	3435
886.15	3363
886.275	3264
886.4	3233
886.525	3321
886.65	3268
886.775	3302
886.9	3488
887.025	3660
887.149	3382
887.274	3249
887.399	3180
887.523	3188
887.648	3230
887.773	3184
887.897	3363
888.021	3405
888.146	3264
888.27	3443
888.395	3526
888.519	3416
888.643	3466
888.767	3469
888.891	3294
889.015	3268
889.139	3283
889.263	3272
889.387	3424
889.511	3458
889.635	3462
889.759	3264
889.883	3310
890.006	3374
890.13	3481
890.254	3230
890.377	3302
890.501	3211
890.624	3169
890.748	3279
890.871	3169
890.995	3138
891.118	3066
891.241	3226
891.364	3226
891.488	3287
891.611	3146
891.734	3241
891.857	3313
891.98	3241
892.103	3340
892.226	3260
892.349	3211
892.471	3077
892.594	3230
892.717	3279
892.839	3237
892.962	3306
893.085	3355
893.207	3291
893.33	3150
893.452	3199
893.575	3325
893.697	3230
893.819	3462
893.941	3485
894.064	3439
894.186	3287
894.308	3253
894.43	3473
894.552	3507
894.674	3447
894.796	3222
894.918	3321
895.04	3264
895.161	3424
895.283	3351
895.405	3367
895.526	3359
895.648	3401
895.769	3416
895.891	3469
896.012	3523
896.134	3469
896.255	3401
896.376	3374
896.498	3355
896.619	3428
896.74	3393
896.861	3374
896.982	3667
897.103	3854
897.224	3595
897.345	3523
897.466	3428
897.587	3534
897.708	3644
897.828	3488
897.949	3397
898.07	3348
898.19	3370
898.311	3603
898.431	3428
898.552	3496
898.672	3595
898.792	3549
898.913	3519
899.033	3431
899.153	3264
899.273	3203
899.393	3268
899.513	3325
899.633	3329
899.753	3355
899.873	3306
899.993	3348
900.113	3329
900.232	3416
900.352	3332
900.472	3264
900.591	3249
900.711	3313
900.83	3199
900.95	3374
901.069	3481
901.189	3344
901.308	3203
901.427	3127
901.546	3176
901.665	3279
901.784	3336
901.904	3226
902.023	3150
902.141	3036
902.26	2971
902.379	3131
902.498	3100
902.617	3032
902.735	3161
902.854	3230
902.973	3157
903.091	3005
903.21	3062
903.328	3165
903.446	3108
903.565	3104
903.683	3192
903.801	3104
903.919	3241
904.038	3294
904.156	3161
904.274	3283
904.392	3218
904.51	3268
904.627	3332
904.745	3405
904.863	3477
904.981	3233
905.098	3188
905.216	3245
905.334	3294
905.451	3313
905.569	3306
905.686	3439
905.803	3431
905.921	3245
906.038	3416
906.155	3374
906.272	3268
906.389	3329
906.506	3222
906.623	3272
906.74	3264
906.857	3195
906.974	3283
907.091	3428
907.208	3538
907.324	3500
907.441	3370
907.557	3230
907.674	3218
907.79	3207
907.907	3283
908.023	3374
908.139	3382
908.256	3325
908.372	3336
908.488	3344
908.604	3256
908.72	3211
908.836	3256
908.952	3272
909.068	3329
909.184	3481
909.3	3344
909.415	3538
909.531	3462
909.647	3310
909.762	3298
909.878	3272
909.993	3359
910.108	3325
910.224	3321
910.339	3409
910.454	3355
910.57	3321
910.685	3222
910.8	3610
910.915	3511
911.03	3420
911.145	3275
911.259	3294
911.374	3283
911.489	3253
911.604	3207
911.718	3135
911.833	3176
911.947	3020
912.062	2986
912.176	3207
912.291	3218
912.405	3222
912.519	3420
912.633	3420
912.748	3306
912.862	3253
912.976	3135
913.09	3062
913.204	3119
913.318	3233
913.431	3348
913.545	3317
913.659	3397
913.772	3306
913.886	3192
914	3161
914.113	3405
914.226	3401
914.34	3336
914.453	3207
914.566	3450
914.68	3264
914.793	3325
914.906	3165
915.019	3097
915.132	3066
915.245	3195
915.358	3165
915.47	3245
915.583	3260
915.696	3291
915.809	3389
915.921	3435
916.034	3241
916.146	3279
916.259	3180
916.371	3363
916.483	3401
916.595	3264
916.708	3294
916.82	3329
916.932	3355
917.044	3351
917.156	3340
917.268	3256
917.38	3287
917.491	3256
917.603	3401
917.715	3439
917.826	3473
917.938	3351
918.049	3287
918.161	3439
918.272	3595
918.384	3572
918.495	3473
918.606	3332
918.717	3298
918.828	3336
918.939	3374
919.05	3302
919.161	3374
919.272	3180
919.383	3283
919.494	3507
919.604	3675
919.715	3443
919.826	3409
919.936	3473
920.047	3564
920.157	3542
920.267	3717
920.378	3625
920.488	3587
920.598	3755
920.708	3953
920.818	3808
920.928	3880
921.038	3972
921.148	4029
921.258	3705
921.368	3580
921.477	3584
921.587	3523
921.697	3492
921.806	3576
921.916	3526
922.025	3359
922.134	3386
922.244	3298
922.353	3428
922.462	3279
922.571	3245
922.68	3108
922.789	3093
922.898	3180
923.007	3097
923.116	3203
923.224	3180
923.333	3165
923.442	3119
923.55	3077
923.659	3100
923.767	3218
923.876	3112
923.984	3226
924.092	3070
924.201	3176
924.309	3214
924.417	3272
924.525	3150
924.633	3203
924.741	3968
924.849	3070
924.956	3253
925.064	3043
925.172	3036
925.279	3135
925.387	3176
925.494	3218
925.602	3393
925.709	3336
925.816	3180
925.924	3268
926.031	3355
926.138	3344
926.245	3386
926.352	3214
926.459	3416
926.566	3447
926.673	3294
926.779	3264
926.886	3268
926.993	3123
927.099	3104
927.206	3131
927.312	3146
927.419	3237
927.525	3165
927.631	3283
927.737	3112
927.843	3104
927.95	3036
928.056	3127
928.162	3188
928.267	3241
928.373	3789
928.479	3302
928.585	3097
928.69	3195
928.796	3214
928.901	3116
929.007	3074
929.112	3199
929.218	3154
929.323	3184
929.428	3123
929.533	3287
929.638	3131
929.743	3157
929.848	3249
929.953	3222
930.058	3138
930.163	2998
930.267	3009
930.372	3195
930.477	2994
930.581	3336
930.685	3150
930.79	3074
930.894	3097
930.998	3081
931.103	3287
931.207	2963
931.311	2944
931.415	2925
931.519	2785
931.623	2842
