Data from test_V78500241_81.txt Node
Date: Fri Mar 25 16:15:45 CST 2022
User: usil
Spectrometer: V785-0024
Trigger mode: 0
Integration Time (sec): 4.000000E-1
Scans to average: 1
Nonlinearity correction enabled: false
Boxcar width: 0
Storing dark spectrum: false
XAxis mode: Wavelengths
Number of Pixels in Spectrum: 1024
>>>>>Begin Spectral Data<<<<<
801.071	2948
801.214	3024
801.356	2925
801.499	2975
801.641	2963
801.783	3013
801.926	3081
802.068	3047
802.211	2979
802.353	3093
802.496	3001
802.638	3058
802.78	3100
802.923	3085
803.065	3070
803.208	2956
803.35	2952
803.492	3001
803.635	2963
803.777	2823
803.919	2933
804.061	3230
804.204	3001
804.346	2929
804.488	2880
804.63	3032
804.773	2929
804.915	2963
805.057	3127
805.199	2963
805.341	3020
805.483	3077
805.626	3024
805.768	3009
805.91	3146
806.052	3169
806.194	3074
806.336	3226
806.478	3055
806.62	2979
806.762	3051
806.904	3146
807.046	3214
807.188	3001
807.33	2982
807.472	3005
807.614	2963
807.756	3028
807.898	2956
808.04	2922
808.182	2998
808.324	2998
808.465	2948
808.607	2925
808.749	2815
808.891	2864
809.033	3001
809.174	2998
809.316	2895
809.458	2918
809.6	2807
809.741	2823
809.883	2804
810.025	2937
810.166	2899
810.308	2918
810.45	2861
810.591	2811
810.733	2834
810.875	2872
811.016	2811
811.158	2746
811.299	2868
811.441	2952
811.582	2941
811.724	2830
811.865	2864
812.007	2910
812.148	2925
812.29	2895
812.431	2902
812.573	2986
812.714	3005
812.855	3089
812.997	3074
813.138	3176
813.279	3036
813.421	2998
813.562	3032
813.703	2933
813.845	2956
813.986	2796
814.127	2788
814.268	2853
814.41	2853
814.551	2853
814.692	2918
814.833	2891
814.974	2899
815.115	2986
815.256	2868
815.397	2842
815.539	2876
815.68	2830
815.821	2853
815.962	2952
816.103	2982
816.244	2902
816.385	2883
816.526	3001
816.666	2952
816.807	2815
816.948	2944
817.089	2929
817.23	2891
817.371	2823
817.512	2845
817.653	2868
817.793	2823
817.934	2880
818.075	2971
818.216	3001
818.356	3039
818.497	2922
818.638	2773
818.778	2845
818.919	2838
819.06	2777
819.2	2880
819.341	2849
819.481	2861
819.622	2952
819.762	3154
819.903	3062
820.043	2979
820.184	2944
820.324	2948
820.465	3043
820.605	3039
820.746	3043
820.886	2963
821.026	3142
821.167	3199
821.307	3264
821.447	3325
821.588	3275
821.728	3260
821.868	3218
822.008	3097
822.149	3214
822.289	3272
822.429	3104
822.569	3108
822.709	3222
822.849	3039
822.99	3108
823.13	3188
823.27	3207
823.41	3154
823.55	3195
823.69	3188
823.83	3230
823.97	3154
824.11	3047
824.25	3017
824.389	3093
824.529	3161
824.669	3119
824.809	3260
824.949	3283
825.089	3283
825.228	3214
825.368	3039
825.508	3009
825.648	2982
825.787	3104
825.927	3066
826.067	3024
826.206	3024
826.346	3119
826.485	3123
826.625	3165
826.765	3310
826.904	3279
827.044	3055
827.183	3005
827.323	2941
827.462	3058
827.601	2986
827.741	2982
827.88	3020
828.02	2925
828.159	3032
828.298	3138
828.437	3176
828.577	3154
828.716	3313
828.855	3146
828.994	2994
829.134	2956
829.273	2994
829.412	2941
829.551	2937
829.69	2941
829.829	3047
829.968	3211
830.107	3074
830.246	3119
830.385	3017
830.524	2933
830.663	2937
830.802	2800
830.941	2720
831.08	2739
831.219	2834
831.357	2842
831.496	3070
831.635	2785
831.774	2693
831.913	2735
832.051	2632
832.19	2667
832.329	2754
832.467	2625
832.606	2522
832.744	2636
832.883	2674
833.022	2651
833.16	2693
833.299	2769
833.437	2785
833.576	2769
833.714	2800
833.852	2781
833.991	2857
834.129	2910
834.267	2872
834.406	2872
834.544	2963
834.682	2944
834.821	2952
834.959	3154
835.097	2937
835.235	3131
835.373	3051
835.511	3104
835.65	3032
835.788	3032
835.926	2933
836.064	2891
836.202	2918
836.34	3154
836.478	3222
836.615	3112
836.753	3222
836.891	3298
837.029	3241
837.167	3157
837.305	3127
837.443	3142
837.58	3009
837.718	3207
837.856	3154
837.993	3116
838.131	3192
838.269	3188
838.406	3123
838.544	3142
838.681	3005
838.819	2979
838.956	2910
839.094	2891
839.231	2979
839.369	3085
839.506	3458
839.643	3272
839.781	3108
839.918	3020
840.055	3119
840.193	3097
840.33	3116
840.467	3154
840.604	3211
840.742	3504
840.879	3062
841.016	3089
841.153	3150
841.29	3420
841.427	3374
841.564	3359
841.701	3348
841.838	3272
841.975	3230
842.112	3302
842.249	3192
842.385	3089
842.522	3310
842.659	3135
842.796	3131
842.933	3123
843.069	3108
843.206	3077
843.343	3233
843.479	3142
843.616	3195
843.752	2941
843.889	2925
844.025	3142
844.162	2941
844.298	3161
844.435	3009
844.571	3009
844.708	3138
844.844	3253
844.98	3321
845.117	3294
845.253	3100
845.389	3047
845.525	3157
845.661	3173
845.798	3093
845.934	3188
846.07	3119
846.206	3306
846.342	3355
846.478	3306
846.614	3119
846.75	3131
846.886	3104
847.022	3310
847.158	3173
847.294	3249
847.429	3287
847.565	3233
847.701	3580
847.837	3093
847.972	3077
848.108	3230
848.244	3211
848.379	3085
848.515	3001
848.65	3005
848.786	3020
848.921	3108
849.057	3157
849.192	3195
849.328	3131
849.463	3154
849.598	3123
849.734	3116
849.869	3036
850.004	2960
850.14	3013
850.275	3005
850.41	2914
850.545	2918
850.68	3013
850.815	3005
850.95	3001
851.085	3249
851.22	3157
851.355	3051
851.49	3055
851.625	3066
851.76	3039
851.895	3032
852.03	2948
852.165	3085
852.299	3230
852.434	3275
852.569	3180
852.703	3253
852.838	3306
852.973	3401
853.107	3386
853.242	3192
853.376	3135
853.511	3032
853.645	3074
853.78	3275
853.914	3169
854.048	3142
854.183	3123
854.317	3188
854.451	3382
854.585	3184
854.72	3154
854.854	3230
854.988	3074
855.122	3123
855.256	3085
855.39	3180
855.524	3291
855.658	3218
855.792	3207
855.926	3237
856.06	3264
856.194	3329
856.327	3222
856.461	3127
856.595	3146
856.729	3157
856.862	3298
856.996	3253
857.13	3275
857.263	3306
857.397	3325
857.53	3154
857.664	3256
857.797	3264
857.931	3313
858.064	3222
858.197	3260
858.331	3207
858.464	3165
858.597	3070
858.731	3127
858.864	3218
858.997	3135
859.13	3264
859.263	3188
859.396	3264
859.529	3157
859.662	3169
859.795	3116
859.928	3207
860.061	3363
860.194	3363
860.327	3192
860.46	3146
860.592	3268
860.725	3329
860.858	3298
860.99	3165
861.123	3081
861.256	3097
861.388	3169
861.521	3751
861.653	3097
861.786	3047
861.918	3032
862.05	3138
862.183	3127
862.315	3226
862.447	3230
862.58	3161
862.712	3024
862.844	2902
862.976	3055
863.108	3055
863.24	3321
863.372	2918
863.504	2990
863.636	2994
863.768	3043
863.9	2998
864.032	2960
864.164	2967
864.296	3119
864.428	3146
864.559	3184
864.691	3116
864.823	3081
864.954	3089
865.086	3119
865.217	3043
865.349	3024
865.48	3089
865.612	3070
865.743	3203
865.875	3070
866.006	2975
866.137	3032
866.269	3009
866.4	3001
866.531	2986
866.662	2937
866.793	2960
866.924	2937
867.055	2998
867.186	2933
867.317	2971
867.448	2902
867.579	2914
867.71	2963
867.841	2857
867.972	2952
868.103	2944
868.233	2944
868.364	2918
868.495	2963
868.625	3100
868.756	3207
868.886	3055
869.017	3077
869.147	3218
869.278	3233
869.408	3104
869.539	3070
869.669	3127
869.799	3097
869.929	3195
870.06	3131
870.19	3332
870.32	3378
870.45	3389
870.58	3447
870.71	3523
870.84	3545
870.97	3382
871.1	3264
871.23	3542
871.36	3496
871.489	3416
871.619	3409
871.749	3473
871.879	3458
872.008	3580
872.138	3435
872.267	3329
872.397	3199
872.526	3165
872.656	3097
872.785	3135
872.915	3291
873.044	3393
873.173	3272
873.303	3306
873.432	3233
873.561	3302
873.69	3180
873.819	3161
873.948	3222
874.077	3173
874.206	3085
874.335	3116
874.464	3233
874.593	3393
874.722	3294
874.851	3428
874.979	3409
875.108	3344
875.237	3249
875.365	3222
875.494	3214
875.623	3294
875.751	3131
875.88	3138
876.008	3233
876.136	3306
876.265	3412
876.393	3591
876.521	3473
876.65	3458
876.778	3386
876.906	3321
877.034	3249
877.162	3283
877.29	3268
877.418	3336
877.546	3283
877.674	3306
877.802	3264
877.93	3310
878.058	3211
878.185	3169
878.313	3230
878.441	3287
878.568	3089
878.696	3173
878.824	3313
878.951	3306
879.079	3496
879.206	3671
879.333	3485
879.461	3363
879.588	3431
879.715	3523
879.842	3694
879.97	3454
880.097	3241
880.224	3150
880.351	3226
880.478	3310
880.605	3245
880.732	3230
880.859	3515
880.986	3332
881.112	3344
881.239	3237
881.366	3127
881.493	3066
881.619	3070
881.746	3085
881.872	3138
881.999	3169
882.125	3192
882.252	3287
882.378	3348
882.505	3507
882.631	3332
882.757	3180
882.883	3260
883.01	3275
883.136	3203
883.262	3173
883.388	3127
883.514	3340
883.64	3409
883.766	3378
883.892	3226
884.018	3306
884.143	3473
884.269	3576
884.395	3264
884.52	3253
884.646	3233
884.772	3131
884.897	3146
885.023	3268
885.148	3370
885.274	3458
885.399	3401
885.524	3340
885.65	3321
885.775	3382
885.9	3298
886.025	3469
886.15	3401
886.275	3340
886.4	3268
886.525	3344
886.65	3321
886.775	3279
886.9	3572
887.025	3667
887.149	3435
887.274	3298
887.399	3241
887.523	3245
887.648	3218
887.773	3253
887.897	3412
888.021	3462
888.146	3370
888.27	3496
888.395	3629
888.519	3496
888.643	3488
888.767	3485
888.891	3348
889.015	3302
889.139	3351
889.263	3283
889.387	3447
889.511	3561
889.635	3496
889.759	3370
889.883	3325
890.006	3416
890.13	3549
890.254	3302
890.377	3367
890.501	3233
890.624	3211
890.748	3386
890.871	3253
890.995	3142
891.118	3100
891.241	3237
891.364	3233
891.488	3355
891.611	3184
891.734	3298
891.857	3317
891.98	3302
892.103	3397
892.226	3306
892.349	3222
892.471	3123
892.594	3268
892.717	3313
892.839	3291
892.962	3355
893.085	3397
893.207	3329
893.33	3211
893.452	3279
893.575	3374
893.697	3302
893.819	3545
893.941	3561
894.064	3500
894.186	3306
894.308	3321
894.43	3515
894.552	3576
894.674	3515
894.796	3329
894.918	3386
895.04	3336
895.161	3447
895.283	3466
895.405	3378
895.526	3424
895.648	3462
895.769	3458
895.891	3526
896.012	3511
896.134	3504
896.255	3466
896.376	3401
896.498	3439
896.619	3504
896.74	3435
896.861	3481
896.982	3717
897.103	3888
897.224	3648
897.345	3572
897.466	3519
897.587	3542
897.708	3648
897.828	3610
897.949	3485
898.07	3367
898.19	3466
898.311	3637
898.431	3485
898.552	3580
898.672	3667
898.792	3633
898.913	3561
899.033	3450
899.153	3348
899.273	3245
899.393	3329
899.513	3340
899.633	3351
899.753	3409
899.873	3336
899.993	3420
900.113	3431
900.232	3393
900.352	3355
900.472	3332
900.591	3237
900.711	3329
900.83	3283
900.95	3450
901.069	3568
901.189	3416
901.308	3173
901.427	3119
901.546	3241
901.665	3340
901.784	3351
901.904	3241
902.023	3188
902.141	3081
902.26	3024
902.379	3165
902.498	3127
902.617	3127
902.735	3260
902.854	3245
902.973	3268
903.091	3066
903.21	3085
903.328	3180
903.446	3154
903.565	3157
903.683	3233
903.801	3169
903.919	3325
904.038	3313
904.156	3218
904.274	3325
904.392	3291
904.51	3321
904.627	3329
904.745	3466
904.863	3523
904.981	3298
905.098	3211
905.216	3306
905.334	3313
905.451	3348
905.569	3325
905.686	3477
905.803	3462
905.921	3336
906.038	3458
906.155	3447
906.272	3340
906.389	3389
906.506	3291
906.623	3294
906.74	3321
906.857	3192
906.974	3321
907.091	3523
907.208	3625
907.324	3507
907.441	3420
907.557	3249
907.674	3268
907.79	3245
907.907	3348
908.023	3412
908.139	3416
908.256	3409
908.372	3393
908.488	3416
908.604	3294
908.72	3291
908.836	3336
908.952	3348
909.068	3428
909.184	3538
909.3	3447
909.415	3538
909.531	3485
909.647	3344
909.762	3359
909.878	3294
909.993	3401
910.108	3363
910.224	3412
910.339	3447
910.454	3424
910.57	3332
910.685	3302
910.8	3644
910.915	3599
911.03	3473
911.145	3302
911.259	3306
911.374	3348
911.489	3268
911.604	3264
911.718	3192
911.833	3199
911.947	3089
912.062	3013
912.176	3161
912.291	3241
912.405	3260
912.519	3469
912.633	3561
912.748	3382
912.862	3329
912.976	3226
913.09	3089
913.204	3199
913.318	3287
913.431	3370
913.545	3370
913.659	3488
913.772	3355
913.886	3222
914	3264
914.113	3412
914.226	3469
914.34	3439
914.453	3260
914.566	3454
914.68	3340
914.793	3401
914.906	3176
915.019	3169
915.132	3100
915.245	3237
915.358	3268
915.47	3310
915.583	3268
915.696	3298
915.809	3397
915.921	3473
916.034	3306
916.146	3283
916.259	3233
916.371	3469
916.483	3443
916.595	3279
916.708	3374
916.82	3363
916.932	3355
917.044	3370
917.156	3405
917.268	3306
917.38	3313
917.491	3355
917.603	3363
917.715	3485
917.826	3500
917.938	3431
918.049	3291
918.161	3447
918.272	3618
918.384	3622
918.495	3549
918.606	3393
918.717	3321
918.828	3401
918.939	3466
919.05	3336
919.161	3374
919.272	3226
919.383	3317
919.494	3496
919.604	3751
919.715	3564
919.826	3450
919.936	3477
920.047	3641
920.157	3576
920.267	3808
920.378	3679
920.488	3618
920.598	3827
920.708	3975
920.818	3869
920.928	3838
921.038	4040
921.148	4021
921.258	3762
921.368	3671
921.477	3641
921.587	3599
921.697	3485
921.806	3660
921.916	3534
922.025	3393
922.134	3428
922.244	3348
922.353	3447
922.462	3340
922.571	3272
922.68	3119
922.789	3135
922.898	3150
923.007	3138
923.116	3249
923.224	3211
923.333	3245
923.442	3108
923.55	3108
923.659	3173
923.767	3230
923.876	3146
923.984	3283
924.092	3119
924.201	3214
924.309	3260
924.417	3291
924.525	3226
924.633	3264
924.741	4223
924.849	3108
924.956	3298
925.064	3119
925.172	3058
925.279	3138
925.387	3237
925.494	3260
925.602	3359
925.709	3367
925.816	3233
925.924	3310
926.031	3424
926.138	3348
926.245	3420
926.352	3245
926.459	3431
926.566	3504
926.673	3370
926.779	3367
926.886	3291
926.993	3165
927.099	3157
927.206	3146
927.312	3146
927.419	3256
927.525	3260
927.631	3275
927.737	3199
927.843	3146
927.95	3062
928.056	3165
928.162	3214
928.267	3268
928.373	3827
928.479	3386
928.585	3119
928.69	3245
928.796	3298
928.901	3176
929.007	3081
929.112	3214
929.218	3237
929.323	3169
929.428	3199
929.533	3317
929.638	3112
929.743	3230
929.848	3298
929.953	3226
930.058	3176
930.163	3001
930.267	3100
930.372	3241
930.477	3100
930.581	3317
930.685	3233
930.79	3097
930.894	3146
930.998	3127
931.103	3287
931.207	3039
931.311	2982
931.415	2956
931.519	2800
931.623	2819
