Data from test_V78500241_1315.txt Node
Date: Fri Mar 25 16:24:18 CST 2022
User: usil
Spectrometer: V785-0024
Trigger mode: 0
Integration Time (sec): 4.000000E-1
Scans to average: 1
Nonlinearity correction enabled: false
Boxcar width: 0
Storing dark spectrum: false
XAxis mode: Wavelengths
Number of Pixels in Spectrum: 1024
>>>>>Begin Spectral Data<<<<<
801.071	2933
801.214	2918
801.356	2906
801.499	2941
801.641	2910
801.783	2944
801.926	3066
802.068	2975
802.211	2982
802.353	3020
802.496	2967
802.638	3017
802.78	3066
802.923	3104
803.065	3020
803.208	2929
803.35	2922
803.492	2956
803.635	2944
803.777	2769
803.919	2864
804.061	3222
804.204	2971
804.346	2925
804.488	2849
804.63	2990
804.773	2891
804.915	2941
805.057	3093
805.199	2906
805.341	2982
805.483	3036
805.626	3001
805.768	2960
805.91	3089
806.052	3131
806.194	3039
806.336	3272
806.478	3009
806.62	2944
806.762	3001
806.904	3017
807.046	3188
807.188	3001
807.33	2910
807.472	2963
807.614	2933
807.756	3009
807.898	2925
808.04	2895
808.182	2941
808.324	2956
808.465	2891
808.607	2845
808.749	2811
808.891	2872
809.033	2944
809.174	3009
809.316	2910
809.458	2914
809.6	2750
809.741	2781
809.883	2769
810.025	2834
810.166	2857
810.308	2861
810.45	2899
810.591	2792
810.733	2750
810.875	2842
811.016	2800
811.158	2758
811.299	2842
811.441	2925
811.582	2902
811.724	2838
811.865	2823
812.007	2925
812.148	2849
812.29	2849
812.431	2868
812.573	2967
812.714	2986
812.855	3051
812.997	3028
813.138	3123
813.279	3047
813.421	2990
813.562	2979
813.703	2887
813.845	2937
813.986	2781
814.127	2746
814.268	2838
814.41	2876
814.551	2811
814.692	2880
814.833	2785
814.974	2880
815.115	2929
815.256	2823
815.397	2811
815.539	2819
815.68	2788
815.821	2766
815.962	2933
816.103	2887
816.244	2857
816.385	2872
816.526	3020
816.666	2891
816.807	2716
816.948	2864
817.089	2857
817.23	2842
817.371	2773
817.512	2815
817.653	2842
817.793	2838
817.934	2842
818.075	2982
818.216	2990
818.356	3036
818.497	2864
818.638	2788
818.778	2807
818.919	2796
819.06	2785
819.2	2872
819.341	2777
819.481	2785
819.622	2872
819.762	3097
819.903	3051
820.043	2925
820.184	2887
820.324	2891
820.465	3013
820.605	2998
820.746	3005
820.886	2941
821.026	3070
821.167	3184
821.307	3268
821.447	3294
821.588	3226
821.728	3203
821.868	3214
822.008	3058
822.149	3195
822.289	3218
822.429	3119
822.569	3081
822.709	3176
822.849	3051
822.99	3119
823.13	3214
823.27	3241
823.41	3154
823.55	3161
823.69	3150
823.83	3207
823.97	3116
824.11	3001
824.25	3001
824.389	3058
824.529	3176
824.669	3089
824.809	3226
824.949	3283
825.089	3287
825.228	3218
825.368	3009
825.508	3009
825.648	3017
825.787	3024
825.927	3032
826.067	3017
826.206	3032
826.346	3100
826.485	3070
826.625	3142
826.765	3283
826.904	3245
827.044	3032
827.183	2975
827.323	2887
827.462	3047
827.601	2944
827.741	2975
827.88	2998
828.02	2902
828.159	3017
828.298	3066
828.437	3169
828.577	3097
828.716	3256
828.855	3116
828.994	2937
829.134	2880
829.273	2967
829.412	2899
829.551	2941
829.69	2933
829.829	3017
829.968	3203
830.107	3020
830.246	3017
830.385	2994
830.524	2910
830.663	2826
830.802	2746
830.941	2720
831.08	2693
831.219	2777
831.357	2796
831.496	3074
831.635	2750
831.774	2705
831.913	2689
832.051	2587
832.19	2621
832.329	2712
832.467	2575
832.606	2533
832.744	2632
832.883	2629
833.022	2621
833.16	2667
833.299	2746
833.437	2708
833.576	2708
833.714	2739
833.852	2792
833.991	2785
834.129	2876
834.267	2830
834.406	2834
834.544	2937
834.682	2861
834.821	2929
834.959	3066
835.097	2944
835.235	3119
835.373	2994
835.511	3074
835.65	2990
835.788	3009
835.926	2872
836.064	2849
836.202	2895
836.34	3157
836.478	3188
836.615	3070
836.753	3154
836.891	3233
837.029	3154
837.167	3142
837.305	3135
837.443	3077
837.58	3028
837.718	3146
837.856	3116
837.993	3066
838.131	3161
838.269	3135
838.406	3150
838.544	3116
838.681	2975
838.819	2982
838.956	2864
839.094	2883
839.231	2929
839.369	3066
839.506	3428
839.643	3245
839.781	3043
839.918	3009
840.055	3100
840.193	3047
840.33	3116
840.467	3142
840.604	3180
840.742	3458
840.879	3089
841.016	3093
841.153	3161
841.29	3332
841.427	3291
841.564	3279
841.701	3363
841.838	3241
841.975	3203
842.112	3184
842.249	3150
842.385	3100
842.522	3264
842.659	3112
842.796	3085
842.933	3142
843.069	3062
843.206	3066
843.343	3211
843.479	3108
843.616	3203
843.752	2925
843.889	2899
844.025	3131
844.162	2929
844.298	3074
844.435	2948
844.571	2937
844.708	3093
844.844	3233
844.98	3253
845.117	3207
845.253	3081
845.389	2998
845.525	3097
845.661	3108
845.798	3024
845.934	3165
846.07	3108
846.206	3245
846.342	3367
846.478	3256
846.614	3146
846.75	3039
846.886	3055
847.022	3275
847.158	3184
847.294	3237
847.429	3306
847.565	3233
847.701	3519
847.837	3062
847.972	3020
848.108	3188
848.244	3169
848.379	3020
848.515	2937
848.65	2956
848.786	2975
848.921	3081
849.057	3123
849.192	3173
849.328	3108
849.463	3146
849.598	3108
849.734	3077
849.869	3032
850.004	2914
850.14	2994
850.275	2948
850.41	2895
850.545	2922
850.68	2967
850.815	2967
850.95	3024
851.085	3230
851.22	3116
851.355	3066
851.49	3024
851.625	3032
851.76	3036
851.895	2975
852.03	2948
852.165	3070
852.299	3119
852.434	3192
852.569	3173
852.703	3207
852.838	3253
852.973	3325
853.107	3348
853.242	3161
853.376	3116
853.511	3017
853.645	3070
853.78	3268
853.914	3138
854.048	3146
854.183	3089
854.317	3184
854.451	3302
854.585	3161
854.72	3100
854.854	3256
854.988	3123
855.122	3135
855.256	3001
855.39	3142
855.524	3272
855.658	3165
855.792	3184
855.926	3218
856.06	3237
856.194	3291
856.327	3176
856.461	3085
856.595	3077
856.729	3116
856.862	3272
856.996	3249
857.13	3211
857.263	3233
857.397	3359
857.53	3138
857.664	3211
857.797	3260
857.931	3264
858.064	3211
858.197	3264
858.331	3180
858.464	3119
858.597	3001
858.731	3142
858.864	3116
858.997	3104
859.13	3195
859.263	3214
859.396	3176
859.529	3123
859.662	3112
859.795	3055
859.928	3165
860.061	3298
860.194	3321
860.327	3127
860.46	3104
860.592	3256
860.725	3268
860.858	3230
860.99	3108
861.123	3043
861.256	3127
861.388	3184
861.521	3759
861.653	3005
861.786	3013
861.918	2994
862.05	3070
862.183	3150
862.315	3218
862.447	3218
862.58	3062
862.712	2979
862.844	2922
862.976	3074
863.108	3039
863.24	3359
863.372	2906
863.504	2937
863.636	2956
863.768	3028
863.9	3028
864.032	2944
864.164	2925
864.296	3058
864.428	3104
864.559	3108
864.691	3112
864.823	3055
864.954	3104
865.086	3070
865.217	3005
865.349	2994
865.48	2975
865.612	3032
865.743	3207
865.875	3062
866.006	2967
866.137	2986
866.269	2933
866.4	2933
866.531	2914
866.662	2925
866.793	2937
866.924	2918
867.055	3028
867.186	2937
867.317	2929
867.448	2861
867.579	2876
867.71	2868
867.841	2842
867.972	2929
868.103	2941
868.233	2925
868.364	2891
868.495	2914
868.625	3112
868.756	3192
868.886	2994
869.017	3055
869.147	3161
869.278	3165
869.408	3077
869.539	3032
869.669	3112
869.799	3039
869.929	3154
870.06	3146
870.19	3367
870.32	3306
870.45	3310
870.58	3420
870.71	3496
870.84	3439
870.97	3256
871.1	3245
871.23	3500
871.36	3488
871.489	3348
871.619	3443
871.749	3428
871.879	3458
872.008	3504
872.138	3355
872.267	3283
872.397	3154
872.526	3089
872.656	3039
872.785	3097
872.915	3241
873.044	3332
873.173	3211
873.303	3283
873.432	3268
873.561	3287
873.69	3184
873.819	3138
873.948	3211
874.077	3135
874.206	3085
874.335	3108
874.464	3218
874.593	3329
874.722	3260
874.851	3374
874.979	3382
875.108	3332
875.237	3245
875.365	3188
875.494	3173
875.623	3264
875.751	3097
875.88	3142
876.008	3169
876.136	3264
876.265	3378
876.393	3526
876.521	3424
876.65	3431
876.778	3359
876.906	3249
877.034	3241
877.162	3245
877.29	3173
877.418	3260
877.546	3272
877.674	3253
877.802	3237
877.93	3249
878.058	3218
878.185	3142
878.313	3207
878.441	3245
878.568	3077
878.696	3161
878.824	3233
878.951	3302
879.079	3473
879.206	3625
879.333	3454
879.461	3310
879.588	3386
879.715	3511
879.842	3633
879.97	3393
880.097	3195
880.224	3138
880.351	3218
880.478	3241
880.605	3203
880.732	3176
880.859	3481
880.986	3313
881.112	3317
881.239	3218
881.366	3142
881.493	3043
881.619	3055
881.746	3112
881.872	3108
881.999	3100
882.125	3138
882.252	3275
882.378	3306
882.505	3439
882.631	3306
882.757	3138
882.883	3218
883.01	3237
883.136	3169
883.262	3119
883.388	3112
883.514	3302
883.64	3378
883.766	3321
883.892	3157
884.018	3226
884.143	3416
884.269	3557
884.395	3249
884.52	3173
884.646	3195
884.772	3154
884.897	3123
885.023	3264
885.148	3336
885.274	3409
885.399	3363
885.524	3313
885.65	3268
885.775	3321
885.9	3272
886.025	3431
886.15	3409
886.275	3321
886.4	3222
886.525	3336
886.65	3325
886.775	3325
886.9	3500
887.025	3633
887.149	3458
887.274	3268
887.399	3199
887.523	3226
887.648	3165
887.773	3214
887.897	3389
888.021	3412
888.146	3344
888.27	3447
888.395	3545
888.519	3454
888.643	3428
888.767	3481
888.891	3294
889.015	3245
889.139	3294
889.263	3249
889.387	3374
889.511	3526
889.635	3473
889.759	3279
889.883	3310
890.006	3355
890.13	3492
890.254	3317
890.377	3325
890.501	3207
890.624	3176
890.748	3332
890.871	3184
890.995	3138
891.118	3097
891.241	3188
891.364	3226
891.488	3340
891.611	3214
891.734	3218
891.857	3336
891.98	3268
892.103	3344
892.226	3298
892.349	3226
892.471	3138
892.594	3249
892.717	3287
892.839	3275
892.962	3313
893.085	3397
893.207	3279
893.33	3188
893.452	3245
893.575	3374
893.697	3241
893.819	3454
893.941	3466
894.064	3454
894.186	3268
894.308	3294
894.43	3416
894.552	3530
894.674	3466
894.796	3279
894.918	3298
895.04	3253
895.161	3435
895.283	3435
895.405	3298
895.526	3412
895.648	3416
895.769	3431
895.891	3458
896.012	3519
896.134	3469
896.255	3466
896.376	3370
896.498	3386
896.619	3466
896.74	3397
896.861	3416
896.982	3698
897.103	3823
897.224	3572
897.345	3488
897.466	3454
897.587	3485
897.708	3599
897.828	3568
897.949	3420
898.07	3367
898.19	3409
898.311	3599
898.431	3466
898.552	3545
898.672	3595
898.792	3557
898.913	3530
899.033	3428
899.153	3287
899.273	3222
899.393	3268
899.513	3313
899.633	3348
899.753	3321
899.873	3313
899.993	3386
900.113	3283
900.232	3378
900.352	3374
900.472	3321
900.591	3249
900.711	3264
900.83	3237
900.95	3393
901.069	3488
901.189	3367
901.308	3184
901.427	3131
901.546	3207
901.665	3313
901.784	3374
901.904	3199
902.023	3135
902.141	3024
902.26	3032
902.379	3157
902.498	3074
902.617	3028
902.735	3195
902.854	3226
902.973	3195
903.091	3028
903.21	3089
903.328	3146
903.446	3097
903.565	3116
903.683	3184
903.801	3123
903.919	3241
904.038	3272
904.156	3199
904.274	3310
904.392	3294
904.51	3313
904.627	3325
904.745	3458
904.863	3523
904.981	3298
905.098	3176
905.216	3264
905.334	3283
905.451	3272
905.569	3317
905.686	3424
905.803	3431
905.921	3317
906.038	3485
906.155	3359
906.272	3298
906.389	3363
906.506	3226
906.623	3256
906.74	3294
906.857	3207
906.974	3241
907.091	3447
907.208	3576
907.324	3439
907.441	3382
907.557	3256
907.674	3222
907.79	3222
907.907	3306
908.023	3351
908.139	3359
908.256	3355
908.372	3370
908.488	3367
908.604	3256
908.72	3256
908.836	3283
908.952	3302
909.068	3344
909.184	3534
909.3	3363
909.415	3519
909.531	3477
909.647	3317
909.762	3279
909.878	3264
909.993	3363
910.108	3367
910.224	3348
910.339	3405
910.454	3321
910.57	3291
910.685	3249
910.8	3584
910.915	3523
911.03	3443
911.145	3268
911.259	3260
911.374	3291
911.489	3294
911.604	3245
911.718	3135
911.833	3188
911.947	3020
912.062	2967
912.176	3176
912.291	3207
912.405	3218
912.519	3416
912.633	3492
912.748	3287
912.862	3294
912.976	3142
913.09	3032
913.204	3127
913.318	3211
913.431	3355
913.545	3351
913.659	3389
913.772	3348
913.886	3253
914	3222
914.113	3351
914.226	3450
914.34	3363
914.453	3260
914.566	3409
914.68	3291
914.793	3355
914.906	3150
915.019	3108
915.132	3066
915.245	3142
915.358	3214
915.47	3268
915.583	3275
915.696	3302
915.809	3397
915.921	3386
916.034	3249
916.146	3253
916.259	3203
916.371	3424
916.483	3332
916.595	3321
916.708	3329
916.82	3321
916.932	3351
917.044	3340
917.156	3367
917.268	3226
917.38	3317
917.491	3294
917.603	3382
917.715	3443
917.826	3485
917.938	3401
918.049	3283
918.161	3435
918.272	3568
918.384	3595
918.495	3469
918.606	3370
918.717	3264
918.828	3409
918.939	3420
919.05	3317
919.161	3409
919.272	3195
919.383	3287
919.494	3519
919.604	3675
919.715	3523
919.826	3409
919.936	3481
920.047	3561
920.157	3515
920.267	3770
920.378	3629
920.488	3568
920.598	3720
920.708	3945
920.818	3823
920.928	3865
921.038	4040
921.148	4040
921.258	3686
921.368	3622
921.477	3606
921.587	3538
921.697	3469
921.806	3663
921.916	3500
922.025	3351
922.134	3363
922.244	3279
922.353	3405
922.462	3291
922.571	3203
922.68	3097
922.789	3074
922.898	3108
923.007	3085
923.116	3245
923.224	3176
923.333	3176
923.442	3116
923.55	3074
923.659	3154
923.767	3211
923.876	3100
923.984	3241
924.092	3127
924.201	3233
924.309	3207
924.417	3272
924.525	3203
924.633	3279
924.741	4002
924.849	3074
924.956	3272
925.064	3123
925.172	3032
925.279	3119
925.387	3211
925.494	3184
925.602	3367
925.709	3348
925.816	3142
925.924	3283
926.031	3416
926.138	3317
926.245	3351
926.352	3294
926.459	3370
926.566	3450
926.673	3306
926.779	3264
926.886	3260
926.993	3173
927.099	3116
927.206	3135
927.312	3127
927.419	3222
927.525	3188
927.631	3302
927.737	3146
927.843	3108
927.95	3005
928.056	3138
928.162	3192
928.267	3279
928.373	3865
928.479	3310
928.585	3039
928.69	3211
928.796	3302
928.901	3192
929.007	3070
929.112	3230
929.218	3150
929.323	3169
929.428	3176
929.533	3279
929.638	3116
929.743	3146
929.848	3287
929.953	3218
930.058	3150
930.163	2967
930.267	3062
930.372	3184
930.477	3028
930.581	3321
930.685	3188
930.79	3013
930.894	3123
930.998	3119
931.103	3275
931.207	2963
931.311	2925
931.415	2880
931.519	2807
931.623	2804
