Data from test_V78500241_1436.txt Node
Date: Fri Mar 25 16:25:09 CST 2022
User: usil
Spectrometer: V785-0024
Trigger mode: 0
Integration Time (sec): 4.000000E-1
Scans to average: 1
Nonlinearity correction enabled: false
Boxcar width: 0
Storing dark spectrum: false
XAxis mode: Wavelengths
Number of Pixels in Spectrum: 1024
>>>>>Begin Spectral Data<<<<<
801.071	2910
801.214	2952
801.356	2891
801.499	2895
801.641	2887
801.783	2906
801.926	3047
802.068	2952
802.211	2967
802.353	3074
802.496	2971
802.638	3009
802.78	3024
802.923	3119
803.065	3001
803.208	2925
803.35	2895
803.492	2910
803.635	2922
803.777	2785
803.919	2849
804.061	3169
804.204	2948
804.346	2902
804.488	2826
804.63	2967
804.773	2864
804.915	2899
805.057	3119
805.199	2910
805.341	2975
805.483	3039
805.626	2998
805.768	2975
805.91	3081
806.052	3142
806.194	3047
806.336	3253
806.478	3039
806.62	2944
806.762	2975
806.904	3009
807.046	3184
807.188	2963
807.33	2937
807.472	3001
807.614	2910
807.756	3028
807.898	2929
808.04	2883
808.182	2925
808.324	2948
808.465	2891
808.607	2861
808.749	2792
808.891	2849
809.033	2963
809.174	3001
809.316	2902
809.458	2929
809.6	2785
809.741	2746
809.883	2762
810.025	2842
810.166	2887
810.308	2800
810.45	2834
810.591	2773
810.733	2750
810.875	2849
811.016	2773
811.158	2750
811.299	2826
811.441	2922
811.582	2895
811.724	2807
811.865	2834
812.007	2910
812.148	2918
812.29	2880
812.431	2883
812.573	2941
812.714	2952
812.855	3036
812.997	3039
813.138	3116
813.279	3001
813.421	2998
813.562	2944
813.703	2864
813.845	2914
813.986	2743
814.127	2724
814.268	2864
814.41	2842
814.551	2785
814.692	2872
814.833	2781
814.974	2868
815.115	2956
815.256	2792
815.397	2861
815.539	2887
815.68	2762
815.821	2754
815.962	2914
816.103	2910
816.244	2845
816.385	2883
816.526	2986
816.666	2922
816.807	2769
816.948	2891
817.089	2944
817.23	2815
817.371	2758
817.512	2788
817.653	2861
817.793	2796
817.934	2910
818.075	2982
818.216	2963
818.356	2971
818.497	2876
818.638	2788
818.778	2834
818.919	2781
819.06	2773
819.2	2842
819.341	2800
819.481	2815
819.622	2891
819.762	3066
819.903	3051
820.043	2941
820.184	2857
820.324	2906
820.465	2990
820.605	3028
820.746	3017
820.886	2933
821.026	3131
821.167	3123
821.307	3233
821.447	3279
821.588	3176
821.728	3211
821.868	3222
822.008	3066
822.149	3169
822.289	3214
822.429	3070
822.569	3108
822.709	3192
822.849	3043
822.99	3043
823.13	3146
823.27	3226
823.41	3093
823.55	3150
823.69	3157
823.83	3173
823.97	3131
824.11	3028
824.25	2971
824.389	3062
824.529	3108
824.669	3051
824.809	3180
824.949	3249
825.089	3173
825.228	3108
825.368	3009
825.508	2918
825.648	2956
825.787	2998
825.927	3005
826.067	2986
826.206	2918
826.346	3032
826.485	3070
826.625	3112
826.765	3272
826.904	3211
827.044	3005
827.183	2925
827.323	2842
827.462	2922
827.601	2880
827.741	2902
827.88	2963
828.02	2842
828.159	2975
828.298	3013
828.437	3039
828.577	2971
828.716	3249
828.855	3123
828.994	2887
829.134	2906
829.273	2899
829.412	2887
829.551	2807
829.69	2929
829.829	2956
829.968	3093
830.107	3017
830.246	3058
830.385	2922
830.524	2853
830.663	2815
830.802	2735
830.941	2663
831.08	2625
831.219	2750
831.357	2750
831.496	2960
831.635	2705
831.774	2655
831.913	2667
832.051	2526
832.19	2579
832.329	2686
832.467	2503
832.606	2465
832.744	2583
832.883	2590
833.022	2575
833.16	2621
833.299	2678
833.437	2659
833.576	2689
833.714	2724
833.852	2735
833.991	2781
834.129	2838
834.267	2792
834.406	2777
834.544	2838
834.682	2876
834.821	2853
834.959	3058
835.097	2906
835.235	3039
835.373	3013
835.511	2982
835.65	2948
835.788	2948
835.926	2834
836.064	2811
836.202	2826
836.34	3043
836.478	3135
836.615	3058
836.753	3112
836.891	3207
837.029	3097
837.167	3097
837.305	3039
837.443	3062
837.58	2979
837.718	3127
837.856	3032
837.993	3066
838.131	3085
838.269	3097
838.406	3047
838.544	3089
838.681	2922
838.819	2910
838.956	2758
839.094	2804
839.231	2933
839.369	3028
839.506	3386
839.643	3207
839.781	3032
839.918	2956
840.055	3013
840.193	3058
840.33	3039
840.467	3108
840.604	3150
840.742	3386
840.879	3058
841.016	3043
841.153	3104
841.29	3256
841.427	3313
841.564	3268
841.701	3268
841.838	3192
841.975	3203
842.112	3180
842.249	3116
842.385	3032
842.522	3230
842.659	3089
842.796	3062
842.933	3070
843.069	3020
843.206	3051
843.343	3157
843.479	3066
843.616	3100
843.752	2899
843.889	2849
844.025	3097
844.162	2872
844.298	3074
844.435	2941
844.571	2922
844.708	3066
844.844	3184
844.98	3233
845.117	3169
845.253	3028
845.389	2990
845.525	3108
845.661	3058
845.798	3017
845.934	3089
846.07	3017
846.206	3199
846.342	3264
846.478	3218
846.614	3081
846.75	3047
846.886	3032
847.022	3249
847.158	3100
847.294	3157
847.429	3230
847.565	3199
847.701	3504
847.837	3043
847.972	2998
848.108	3192
848.244	3100
848.379	2994
848.515	2960
848.65	2941
848.786	2937
848.921	2994
849.057	3108
849.192	3150
849.328	3074
849.463	3116
849.598	3074
849.734	3036
849.869	2975
850.004	2918
850.14	2960
850.275	2925
850.41	2834
850.545	2853
850.68	2906
850.815	2937
850.95	2963
851.085	3169
851.22	3070
851.355	3070
851.49	3001
851.625	2979
851.76	2963
851.895	2895
852.03	2883
852.165	3039
852.299	3142
852.434	3165
852.569	3161
852.703	3188
852.838	3211
852.973	3306
853.107	3325
853.242	3131
853.376	3097
853.511	2971
853.645	3036
853.78	3233
853.914	3146
854.048	3119
854.183	3081
854.317	3119
854.451	3279
854.585	3135
854.72	3085
854.854	3199
854.988	3039
855.122	3100
855.256	2948
855.39	3116
855.524	3222
855.658	3184
855.792	3127
855.926	3199
856.06	3207
856.194	3237
856.327	3157
856.461	3036
856.595	3058
856.729	3074
856.862	3199
856.996	3176
857.13	3169
857.263	3214
857.397	3287
857.53	3108
857.664	3169
857.797	3195
857.931	3249
858.064	3135
858.197	3180
858.331	3135
858.464	3051
858.597	2929
858.731	3100
858.864	3116
858.997	3085
859.13	3127
859.263	3165
859.396	3173
859.529	3077
859.662	3089
859.795	3013
859.928	3146
860.061	3241
860.194	3253
860.327	3127
860.46	3123
860.592	3188
860.725	3230
860.858	3207
860.99	3077
861.123	3039
861.256	3039
861.388	3180
861.521	3842
861.653	3051
861.786	2960
861.918	3043
862.05	3051
862.183	3070
862.315	3154
862.447	3230
862.58	3066
862.712	2918
862.844	2899
862.976	2994
863.108	2979
863.24	3332
863.372	2891
863.504	2937
863.636	2922
863.768	3020
863.9	2967
864.032	2887
864.164	2944
864.296	3013
864.428	3127
864.559	3081
864.691	3074
864.823	3009
864.954	2994
865.086	3024
865.217	3013
865.349	2925
865.48	2948
865.612	3001
865.743	3138
865.875	2956
866.006	2922
866.137	2975
866.269	2902
866.4	2956
866.531	2891
866.662	2872
866.793	2880
866.924	2910
867.055	2956
867.186	2891
867.317	2895
867.448	2834
867.579	2868
867.71	2819
867.841	2823
867.972	2899
868.103	2883
868.233	2849
868.364	2853
868.495	2906
868.625	3047
868.756	3150
868.886	2956
869.017	3005
869.147	3188
869.278	3131
869.408	3039
869.539	2994
869.669	3051
869.799	3032
869.929	3176
870.06	3104
870.19	3313
870.32	3245
870.45	3226
870.58	3397
870.71	3428
870.84	3443
870.97	3302
871.1	3203
871.23	3454
871.36	3435
871.489	3351
871.619	3409
871.749	3344
871.879	3428
872.008	3466
872.138	3325
872.267	3279
872.397	3150
872.526	3108
872.656	3001
872.785	3089
872.915	3230
873.044	3310
873.173	3207
873.303	3199
873.432	3211
873.561	3237
873.69	3161
873.819	3146
873.948	3199
874.077	3097
874.206	3017
874.335	3043
874.464	3192
874.593	3359
874.722	3207
874.851	3355
874.979	3325
875.108	3260
875.237	3233
875.365	3142
875.494	3157
875.623	3256
875.751	3047
875.88	3135
876.008	3173
876.136	3249
876.265	3306
876.393	3504
876.521	3431
876.65	3386
876.778	3329
876.906	3249
877.034	3184
877.162	3218
877.29	3188
877.418	3264
877.546	3203
877.674	3233
877.802	3230
877.93	3195
878.058	3142
878.185	3081
878.313	3161
878.441	3218
878.568	3085
878.696	3150
878.824	3211
878.951	3275
879.079	3469
879.206	3622
879.333	3416
879.461	3321
879.588	3336
879.715	3450
879.842	3542
879.97	3374
880.097	3154
880.224	3161
880.351	3214
880.478	3260
880.605	3199
880.732	3161
880.859	3473
880.986	3294
881.112	3329
881.239	3165
881.366	3104
881.493	3017
881.619	3024
881.746	3047
881.872	3081
881.999	3104
882.125	3116
882.252	3230
882.378	3306
882.505	3431
882.631	3302
882.757	3116
882.883	3218
883.01	3237
883.136	3112
883.262	3085
883.388	3077
883.514	3325
883.64	3355
883.766	3325
883.892	3211
884.018	3233
884.143	3443
884.269	3515
884.395	3211
884.52	3116
884.646	3192
884.772	3097
884.897	3100
885.023	3211
885.148	3298
885.274	3374
885.399	3367
885.524	3249
885.65	3275
885.775	3298
885.9	3291
886.025	3431
886.15	3386
886.275	3287
886.4	3256
886.525	3279
886.65	3237
886.775	3233
886.9	3511
887.025	3599
887.149	3397
887.274	3275
887.399	3188
887.523	3218
887.648	3176
887.773	3161
887.897	3370
888.021	3409
888.146	3313
888.27	3397
888.395	3526
888.519	3435
888.643	3435
888.767	3424
888.891	3291
889.015	3233
889.139	3310
889.263	3214
889.387	3412
889.511	3462
889.635	3450
889.759	3241
889.883	3287
890.006	3348
890.13	3507
890.254	3253
890.377	3310
890.501	3214
890.624	3165
890.748	3306
890.871	3207
890.995	3112
891.118	3077
891.241	3173
891.364	3184
891.488	3332
891.611	3165
891.734	3245
891.857	3294
891.98	3233
892.103	3329
892.226	3268
892.349	3195
892.471	3097
892.594	3245
892.717	3306
892.839	3298
892.962	3249
893.085	3348
893.207	3283
893.33	3127
893.452	3199
893.575	3325
893.697	3298
893.819	3466
893.941	3523
894.064	3443
894.186	3256
894.308	3230
894.43	3393
894.552	3530
894.674	3447
894.796	3241
894.918	3279
895.04	3249
895.161	3454
895.283	3355
895.405	3313
895.526	3367
895.648	3409
895.769	3416
895.891	3401
896.012	3450
896.134	3469
896.255	3420
896.376	3382
896.498	3344
896.619	3378
896.74	3386
896.861	3351
896.982	3648
897.103	3846
897.224	3622
897.345	3473
897.466	3412
897.587	3500
897.708	3614
897.828	3568
897.949	3458
898.07	3302
898.19	3409
898.311	3618
898.431	3450
898.552	3538
898.672	3572
898.792	3568
898.913	3496
899.033	3439
899.153	3287
899.273	3188
899.393	3275
899.513	3321
899.633	3294
899.753	3348
899.873	3332
899.993	3389
900.113	3332
900.232	3374
900.352	3325
900.472	3264
900.591	3184
900.711	3272
900.83	3245
900.95	3386
901.069	3481
901.189	3348
901.308	3173
901.427	3135
901.546	3199
901.665	3275
901.784	3340
901.904	3218
902.023	3138
902.141	3062
902.26	3032
902.379	3142
902.498	3070
902.617	3024
902.735	3192
902.854	3230
902.973	3226
903.091	3036
903.21	3089
903.328	3104
903.446	3089
903.565	3097
903.683	3176
903.801	3104
903.919	3233
904.038	3256
904.156	3161
904.274	3287
904.392	3283
904.51	3275
904.627	3378
904.745	3435
904.863	3500
904.981	3226
905.098	3161
905.216	3165
905.334	3272
905.451	3279
905.569	3233
905.686	3397
905.803	3450
905.921	3264
906.038	3416
906.155	3329
906.272	3264
906.389	3329
906.506	3264
906.623	3256
906.74	3291
906.857	3192
906.974	3249
907.091	3428
907.208	3534
907.324	3466
907.441	3389
907.557	3203
907.674	3192
907.79	3233
907.907	3253
908.023	3382
908.139	3351
908.256	3287
908.372	3340
908.488	3355
908.604	3283
908.72	3233
908.836	3310
908.952	3264
909.068	3359
909.184	3515
909.3	3367
909.415	3473
909.531	3439
909.647	3249
909.762	3291
909.878	3260
909.993	3367
910.108	3344
910.224	3321
910.339	3397
910.454	3359
910.57	3291
910.685	3241
910.8	3576
910.915	3511
911.03	3485
911.145	3291
911.259	3249
911.374	3291
911.489	3260
911.604	3222
911.718	3074
911.833	3123
911.947	3051
912.062	2994
912.176	3203
912.291	3161
912.405	3207
912.519	3428
912.633	3439
912.748	3317
912.862	3264
912.976	3176
913.09	3043
913.204	3135
913.318	3253
913.431	3310
913.545	3310
913.659	3401
913.772	3348
913.886	3207
914	3184
914.113	3332
914.226	3435
914.34	3378
914.453	3173
914.566	3412
914.68	3256
914.793	3317
914.906	3127
915.019	3123
915.132	3055
915.245	3169
915.358	3146
915.47	3203
915.583	3230
915.696	3291
915.809	3386
915.921	3412
916.034	3233
916.146	3218
916.259	3233
916.371	3386
916.483	3340
916.595	3275
916.708	3325
916.82	3355
916.932	3355
917.044	3317
917.156	3321
917.268	3256
917.38	3260
917.491	3272
917.603	3287
917.715	3420
917.826	3462
917.938	3405
918.049	3306
918.161	3397
918.272	3557
918.384	3553
918.495	3435
918.606	3302
918.717	3256
918.828	3359
918.939	3389
919.05	3279
919.161	3359
919.272	3169
919.383	3283
919.494	3450
919.604	3675
919.715	3511
919.826	3389
919.936	3443
920.047	3595
920.157	3519
920.267	3762
920.378	3641
920.488	3599
920.598	3793
920.708	3953
920.818	3804
920.928	3838
921.038	4048
921.148	3983
921.258	3740
921.368	3633
921.477	3549
921.587	3515
921.697	3481
921.806	3690
921.916	3523
922.025	3336
922.134	3386
922.244	3321
922.353	3382
922.462	3298
922.571	3233
922.68	3138
922.789	3127
922.898	3154
923.007	3127
923.116	3214
923.224	3169
923.333	3203
923.442	3112
923.55	3116
923.659	3176
923.767	3249
923.876	3142
923.984	3298
924.092	3142
924.201	3253
924.309	3241
924.417	3249
924.525	3211
924.633	3275
924.741	4196
924.849	3108
924.956	3283
925.064	3150
925.172	3062
925.279	3154
925.387	3260
925.494	3207
925.602	3370
925.709	3321
925.816	3222
925.924	3332
926.031	3435
926.138	3363
926.245	3420
926.352	3264
926.459	3458
926.566	3492
926.673	3370
926.779	3294
926.886	3291
926.993	3180
927.099	3173
927.206	3146
927.312	3146
927.419	3272
927.525	3260
927.631	3340
927.737	3173
927.843	3188
927.95	3039
928.056	3161
928.162	3184
928.267	3275
928.373	3915
928.479	3344
928.585	3085
928.69	3279
928.796	3291
928.901	3226
929.007	3081
929.112	3237
929.218	3184
929.323	3214
929.428	3188
929.533	3351
929.638	3138
929.743	3237
929.848	3294
929.953	3233
930.058	3176
930.163	3020
930.267	3112
930.372	3214
930.477	3051
930.581	3382
930.685	3188
930.79	3058
930.894	3146
930.998	3119
931.103	3329
931.207	2990
931.311	2948
931.415	2975
931.519	2792
931.623	2849
