Data from test_V78500241_239.txt Node
Date: Fri Mar 25 16:16:51 CST 2022
User: usil
Spectrometer: V785-0024
Trigger mode: 0
Integration Time (sec): 4.000000E-1
Scans to average: 1
Nonlinearity correction enabled: false
Boxcar width: 0
Storing dark spectrum: false
XAxis mode: Wavelengths
Number of Pixels in Spectrum: 1024
>>>>>Begin Spectral Data<<<<<
801.071	2902
801.214	2956
801.356	2864
801.499	2944
801.641	2872
801.783	2918
801.926	3070
802.068	2963
802.211	2956
802.353	3058
802.496	2963
802.638	3024
802.78	3039
802.923	3108
803.065	3047
803.208	2941
803.35	2906
803.492	2899
803.635	2925
803.777	2766
803.919	2842
804.061	3214
804.204	2963
804.346	2948
804.488	2872
804.63	2982
804.773	2872
804.915	2925
805.057	3077
805.199	2929
805.341	2990
805.483	3055
805.626	2994
805.768	2975
805.91	3119
806.052	3093
806.194	3039
806.336	3211
806.478	3032
806.62	2952
806.762	2990
806.904	3066
807.046	3154
807.188	3013
807.33	2929
807.472	2994
807.614	2941
807.756	2967
807.898	2922
808.04	2891
808.182	2967
808.324	2956
808.465	2883
808.607	2906
808.749	2815
808.891	2834
809.033	3005
809.174	2986
809.316	2899
809.458	2910
809.6	2769
809.741	2804
809.883	2781
810.025	2876
810.166	2876
810.308	2838
810.45	2823
810.591	2785
810.733	2804
810.875	2838
811.016	2788
811.158	2731
811.299	2823
811.441	2899
811.582	2899
811.724	2853
811.865	2838
812.007	2899
812.148	2891
812.29	2853
812.431	2895
812.573	2963
812.714	2956
812.855	3081
812.997	3062
813.138	3104
813.279	3017
813.421	3024
813.562	2979
813.703	2883
813.845	2876
813.986	2758
814.127	2735
814.268	2796
814.41	2830
814.551	2796
814.692	2918
814.833	2800
814.974	2880
815.115	2933
815.256	2819
815.397	2811
815.539	2895
815.68	2792
815.821	2826
815.962	2956
816.103	2956
816.244	2883
816.385	2895
816.526	3001
816.666	2891
816.807	2762
816.948	2876
817.089	2918
817.23	2876
817.371	2811
817.512	2781
817.653	2853
817.793	2819
817.934	2891
818.075	2986
818.216	3032
818.356	3024
818.497	2883
818.638	2800
818.778	2853
818.919	2796
819.06	2766
819.2	2902
819.341	2823
819.481	2815
819.622	2925
819.762	3112
819.903	3058
820.043	2933
820.184	2933
820.324	2895
820.465	3013
820.605	3001
820.746	3024
820.886	2967
821.026	3089
821.167	3199
821.307	3253
821.447	3283
821.588	3249
821.728	3180
821.868	3203
822.008	3093
822.149	3233
822.289	3195
822.429	3093
822.569	3097
822.709	3165
822.849	3055
822.99	3104
823.13	3173
823.27	3203
823.41	3119
823.55	3138
823.69	3157
823.83	3176
823.97	3135
824.11	2982
824.25	3017
824.389	3055
824.529	3146
824.669	3081
824.809	3157
824.949	3237
825.089	3218
825.228	3104
825.368	3013
825.508	2929
825.648	3013
825.787	3009
825.927	3020
826.067	2994
826.206	2982
826.346	3066
826.485	3097
826.625	3093
826.765	3264
826.904	3211
827.044	2990
827.183	2941
827.323	2876
827.462	2967
827.601	2914
827.741	2914
827.88	2918
828.02	2842
828.159	2967
828.298	3028
828.437	3165
828.577	3036
828.716	3241
828.855	3093
828.994	2918
829.134	2899
829.273	2899
829.412	2880
829.551	2891
829.69	2941
829.829	2982
829.968	3138
830.107	3009
830.246	3028
830.385	2944
830.524	2864
830.663	2807
830.802	2727
830.941	2674
831.08	2644
831.219	2769
831.357	2743
831.496	2960
831.635	2750
831.774	2606
831.913	2678
832.051	2507
832.19	2602
832.329	2659
832.467	2541
832.606	2503
832.744	2583
832.883	2617
833.022	2571
833.16	2651
833.299	2674
833.437	2693
833.576	2716
833.714	2727
833.852	2712
833.991	2800
834.129	2857
834.267	2796
834.406	2773
834.544	2864
834.682	2880
834.821	2902
834.959	3097
835.097	2906
835.235	3055
835.373	2990
835.511	3066
835.65	2967
835.788	2960
835.926	2826
836.064	2815
836.202	2857
836.34	3108
836.478	3184
836.615	3051
836.753	3123
836.891	3195
837.029	3131
837.167	3089
837.305	3077
837.443	2998
837.58	2956
837.718	3150
837.856	3077
837.993	3051
838.131	3173
838.269	3123
838.406	3108
838.544	3093
838.681	2967
838.819	2906
838.956	2811
839.094	2838
839.231	2929
839.369	3020
839.506	3363
839.643	3230
839.781	3028
839.918	2971
840.055	3070
840.193	3062
840.33	3070
840.467	3074
840.604	3165
840.742	3409
840.879	3081
841.016	3097
841.153	3119
841.29	3344
841.427	3272
841.564	3268
841.701	3310
841.838	3214
841.975	3207
842.112	3253
842.249	3104
842.385	3047
842.522	3294
842.659	3119
842.796	3108
842.933	3116
843.069	3028
843.206	3013
843.343	3165
843.479	3089
843.616	3138
843.752	2883
843.889	2895
844.025	3085
844.162	2880
844.298	3093
844.435	2982
844.571	2929
844.708	3058
844.844	3184
844.98	3230
845.117	3199
845.253	3058
845.389	2994
845.525	3138
845.661	3097
845.798	3013
845.934	3116
846.07	3020
846.206	3237
846.342	3355
846.478	3253
846.614	3093
846.75	3070
846.886	3013
847.022	3264
847.158	3116
847.294	3207
847.429	3253
847.565	3222
847.701	3492
847.837	3047
847.972	3005
848.108	3135
848.244	3131
848.379	3001
848.515	2952
848.65	2948
848.786	2975
848.921	3024
849.057	3135
849.192	3142
849.328	3089
849.463	3085
849.598	3081
849.734	3024
849.869	2967
850.004	2918
850.14	2971
850.275	2887
850.41	2842
850.545	2887
850.68	2948
850.815	2925
850.95	2952
851.085	3199
851.22	3116
851.355	3062
851.49	2990
851.625	2979
851.76	3020
851.895	2922
852.03	2922
852.165	3028
852.299	3112
852.434	3165
852.569	3154
852.703	3207
852.838	3253
852.973	3382
853.107	3344
853.242	3131
853.376	3100
853.511	2998
853.645	3032
853.78	3237
853.914	3150
854.048	3119
854.183	3097
854.317	3127
854.451	3291
854.585	3142
854.72	3097
854.854	3192
854.988	3051
855.122	3085
855.256	2979
855.39	3108
855.524	3218
855.658	3203
855.792	3176
855.926	3211
856.06	3222
856.194	3272
856.327	3131
856.461	3097
856.595	3104
856.729	3081
856.862	3226
856.996	3157
857.13	3184
857.263	3211
857.397	3306
857.53	3116
857.664	3226
857.797	3253
857.931	3233
858.064	3146
858.197	3249
858.331	3165
858.464	3127
858.597	3036
858.731	3097
858.864	3150
858.997	3051
859.13	3150
859.263	3203
859.396	3207
859.529	3077
859.662	3100
859.795	3055
859.928	3146
860.061	3237
860.194	3264
860.327	3135
860.46	3119
860.592	3245
860.725	3222
860.858	3264
860.99	3074
861.123	3062
861.256	3081
861.388	3123
861.521	3884
861.653	3005
861.786	2963
861.918	2998
862.05	3043
862.183	3097
862.315	3154
862.447	3207
862.58	3085
862.712	2952
862.844	2895
862.976	3036
863.108	3005
863.24	3313
863.372	2872
863.504	2990
863.636	2956
863.768	3009
863.9	2952
864.032	2906
864.164	2933
864.296	3051
864.428	3074
864.559	3116
864.691	3028
864.823	3043
864.954	2998
865.086	3085
865.217	2975
865.349	2948
865.48	2975
865.612	3020
865.743	3157
865.875	3001
866.006	2948
866.137	3001
866.269	2994
866.4	2914
866.531	2944
866.662	2891
866.793	2906
866.924	2922
867.055	2960
867.186	2929
867.317	2906
867.448	2872
867.579	2834
867.71	2872
867.841	2830
867.972	2918
868.103	2857
868.233	2887
868.364	2853
868.495	2883
868.625	3070
868.756	3154
868.886	2990
869.017	3005
869.147	3169
869.278	3176
869.408	3066
869.539	3047
869.669	3108
869.799	3001
869.929	3154
870.06	3108
870.19	3321
870.32	3287
870.45	3294
870.58	3367
870.71	3447
870.84	3477
870.97	3306
871.1	3237
871.23	3523
871.36	3450
871.489	3374
871.619	3389
871.749	3409
871.879	3443
872.008	3485
872.138	3374
872.267	3287
872.397	3180
872.526	3089
872.656	3017
872.785	3104
872.915	3222
873.044	3351
873.173	3211
873.303	3268
873.432	3253
873.561	3176
873.69	3165
873.819	3119
873.948	3188
874.077	3097
874.206	3058
874.335	3127
874.464	3226
874.593	3397
874.722	3222
874.851	3409
874.979	3370
875.108	3313
875.237	3230
875.365	3169
875.494	3157
875.623	3237
875.751	3070
875.88	3138
876.008	3203
876.136	3249
876.265	3344
876.393	3496
876.521	3447
876.65	3393
876.778	3344
876.906	3264
877.034	3203
877.162	3260
877.29	3214
877.418	3249
877.546	3260
877.674	3287
877.802	3237
877.93	3249
878.058	3184
878.185	3081
878.313	3218
878.441	3211
878.568	3093
878.696	3157
878.824	3268
878.951	3313
879.079	3447
879.206	3610
879.333	3435
879.461	3351
879.588	3359
879.715	3447
879.842	3576
879.97	3351
880.097	3169
880.224	3135
880.351	3173
880.478	3214
880.605	3241
880.732	3245
880.859	3542
880.986	3321
881.112	3355
881.239	3214
881.366	3123
881.493	3055
881.619	3024
881.746	3089
881.872	3085
881.999	3108
882.125	3161
882.252	3245
882.378	3298
882.505	3454
882.631	3291
882.757	3184
882.883	3260
883.01	3214
883.136	3135
883.262	3055
883.388	3093
883.514	3329
883.64	3382
883.766	3306
883.892	3211
884.018	3245
884.143	3405
884.269	3561
884.395	3214
884.52	3138
884.646	3188
884.772	3142
884.897	3093
885.023	3192
885.148	3294
885.274	3424
885.399	3370
885.524	3264
885.65	3241
885.775	3310
885.9	3287
886.025	3435
886.15	3382
886.275	3340
886.4	3237
886.525	3272
886.65	3233
886.775	3287
886.9	3473
887.025	3603
887.149	3378
887.274	3264
887.399	3188
887.523	3188
887.648	3154
887.773	3230
887.897	3344
888.021	3389
888.146	3317
888.27	3435
888.395	3553
888.519	3447
888.643	3466
888.767	3447
888.891	3336
889.015	3237
889.139	3294
889.263	3253
889.387	3412
889.511	3568
889.635	3481
889.759	3287
889.883	3275
890.006	3367
890.13	3485
890.254	3291
890.377	3317
890.501	3211
890.624	3199
890.748	3317
890.871	3180
890.995	3104
891.118	3100
891.241	3203
891.364	3222
891.488	3332
891.611	3176
891.734	3226
891.857	3329
891.98	3249
892.103	3344
892.226	3298
892.349	3237
892.471	3131
892.594	3264
892.717	3291
892.839	3268
892.962	3287
893.085	3378
893.207	3321
893.33	3142
893.452	3195
893.575	3329
893.697	3253
893.819	3447
893.941	3515
894.064	3431
894.186	3298
894.308	3283
894.43	3450
894.552	3523
894.674	3477
894.796	3249
894.918	3310
895.04	3310
895.161	3439
895.283	3420
895.405	3321
895.526	3317
895.648	3424
895.769	3439
895.891	3473
896.012	3469
896.134	3458
896.255	3428
896.376	3420
896.498	3370
896.619	3416
896.74	3374
896.861	3431
896.982	3694
897.103	3846
897.224	3580
897.345	3542
897.466	3439
897.587	3466
897.708	3622
897.828	3591
897.949	3435
898.07	3351
898.19	3416
898.311	3572
898.431	3447
898.552	3492
898.672	3622
898.792	3584
898.913	3523
899.033	3458
899.153	3298
899.273	3169
899.393	3268
899.513	3287
899.633	3332
899.753	3336
899.873	3310
899.993	3367
900.113	3302
900.232	3412
900.352	3340
900.472	3233
900.591	3203
900.711	3321
900.83	3253
900.95	3431
901.069	3523
901.189	3367
901.308	3195
901.427	3169
901.546	3165
901.665	3344
901.784	3294
901.904	3222
902.023	3157
902.141	3032
902.26	3005
902.379	3142
902.498	3081
902.617	3055
902.735	3199
902.854	3211
902.973	3211
903.091	3058
903.21	3043
903.328	3119
903.446	3112
903.565	3108
903.683	3188
903.801	3119
903.919	3272
904.038	3302
904.156	3169
904.274	3306
904.392	3272
904.51	3260
904.627	3359
904.745	3439
904.863	3511
904.981	3302
905.098	3157
905.216	3237
905.334	3313
905.451	3294
905.569	3317
905.686	3435
905.803	3458
905.921	3260
906.038	3382
906.155	3344
906.272	3272
906.389	3363
906.506	3275
906.623	3256
906.74	3310
906.857	3192
906.974	3245
907.091	3443
907.208	3580
907.324	3485
907.441	3374
907.557	3214
907.674	3233
907.79	3176
907.907	3302
908.023	3405
908.139	3386
908.256	3325
908.372	3378
908.488	3348
908.604	3291
908.72	3245
908.836	3283
908.952	3268
909.068	3344
909.184	3481
909.3	3386
909.415	3511
909.531	3443
909.647	3275
909.762	3275
909.878	3249
909.993	3336
910.108	3374
910.224	3348
910.339	3435
910.454	3363
910.57	3279
910.685	3249
910.8	3584
910.915	3504
911.03	3416
911.145	3283
911.259	3291
911.374	3332
911.489	3268
911.604	3195
911.718	3123
911.833	3173
911.947	3043
912.062	2990
912.176	3173
912.291	3169
912.405	3222
912.519	3454
912.633	3450
912.748	3355
912.862	3294
912.976	3180
913.09	3062
913.204	3119
913.318	3256
913.431	3351
913.545	3321
913.659	3412
913.772	3329
913.886	3180
914	3192
914.113	3412
914.226	3447
914.34	3351
914.453	3218
914.566	3412
914.68	3310
914.793	3306
914.906	3146
915.019	3100
915.132	3066
915.245	3161
915.358	3176
915.47	3241
915.583	3272
915.696	3321
915.809	3443
915.921	3447
916.034	3245
916.146	3249
916.259	3230
916.371	3409
916.483	3389
916.595	3317
916.708	3367
916.82	3313
916.932	3336
917.044	3329
917.156	3336
917.268	3287
917.38	3302
917.491	3310
917.603	3382
917.715	3401
917.826	3447
917.938	3397
918.049	3298
918.161	3405
918.272	3610
918.384	3564
918.495	3488
918.606	3340
918.717	3287
918.828	3374
918.939	3481
919.05	3321
919.161	3401
919.272	3184
919.383	3310
919.494	3515
919.604	3682
919.715	3488
919.826	3409
919.936	3481
920.047	3603
920.157	3523
920.267	3755
920.378	3625
920.488	3591
920.598	3720
920.708	3991
920.818	3831
920.928	3812
921.038	4017
921.148	4013
921.258	3682
921.368	3622
921.477	3576
921.587	3572
921.697	3454
921.806	3652
921.916	3507
922.025	3336
922.134	3370
922.244	3306
922.353	3435
922.462	3253
922.571	3241
922.68	3116
922.789	3051
922.898	3161
923.007	3108
923.116	3207
923.224	3154
923.333	3253
923.442	3093
923.55	3104
923.659	3180
923.767	3207
923.876	3123
923.984	3253
924.092	3131
924.201	3173
924.309	3199
924.417	3291
924.525	3211
924.633	3237
924.741	4215
924.849	3070
924.956	3287
925.064	3116
925.172	3013
925.279	3131
925.387	3203
925.494	3226
925.602	3370
925.709	3355
925.816	3214
925.924	3325
926.031	3397
926.138	3344
926.245	3386
926.352	3245
926.459	3420
926.566	3485
926.673	3306
926.779	3272
926.886	3237
926.993	3146
927.099	3150
927.206	3093
927.312	3146
927.419	3268
927.525	3218
927.631	3275
927.737	3142
927.843	3112
927.95	3028
928.056	3161
928.162	3176
928.267	3264
928.373	3861
928.479	3317
928.585	3051
928.69	3203
928.796	3275
928.901	3157
929.007	3055
929.112	3184
929.218	3214
929.323	3165
929.428	3154
929.533	3340
929.638	3138
929.743	3199
929.848	3245
929.953	3218
930.058	3157
930.163	3039
930.267	3043
930.372	3192
930.477	3024
930.581	3313
930.685	3192
930.79	3081
930.894	3146
930.998	3108
931.103	3291
931.207	2937
931.311	2960
931.415	2941
931.519	2788
931.623	2830
