Data from test_V78500241_918.txt Node
Date: Fri Mar 25 16:21:33 CST 2022
User: usil
Spectrometer: V785-0024
Trigger mode: 0
Integration Time (sec): 4.000000E-1
Scans to average: 1
Nonlinearity correction enabled: false
Boxcar width: 0
Storing dark spectrum: false
XAxis mode: Wavelengths
Number of Pixels in Spectrum: 1024
>>>>>Begin Spectral Data<<<<<
801.071	2963
801.214	3005
801.356	2922
801.499	2895
801.641	2845
801.783	2925
801.926	3070
802.068	2998
802.211	3017
802.353	3036
802.496	3017
802.638	3051
802.78	3070
802.923	3108
803.065	3032
803.208	2944
803.35	2963
803.492	2948
803.635	2967
803.777	2777
803.919	2910
804.061	3222
804.204	3005
804.346	2895
804.488	2876
804.63	3032
804.773	2895
804.915	2941
805.057	3085
805.199	2937
805.341	3001
805.483	3104
805.626	3013
805.768	2963
805.91	3138
806.052	3127
806.194	3062
806.336	3256
806.478	3043
806.62	2960
806.762	3017
806.904	3089
807.046	3161
807.188	2986
807.33	2922
807.472	3024
807.614	2948
807.756	3070
807.898	2952
808.04	2922
808.182	2982
808.324	2975
808.465	2891
808.607	2925
808.749	2842
808.891	2849
809.033	2982
809.174	3009
809.316	2918
809.458	2929
809.6	2800
809.741	2823
809.883	2796
810.025	2876
810.166	2899
810.308	2857
810.45	2838
810.591	2819
810.733	2788
810.875	2864
811.016	2800
811.158	2781
811.299	2788
811.441	2967
811.582	2868
811.724	2834
811.865	2857
812.007	2914
812.148	2906
812.29	2864
812.431	2895
812.573	2982
812.714	3009
812.855	3039
812.997	3104
813.138	3161
813.279	3017
813.421	3017
813.562	2975
813.703	2933
813.845	2910
813.986	2773
814.127	2746
814.268	2804
814.41	2861
814.551	2868
814.692	2937
814.833	2838
814.974	2914
815.115	2975
815.256	2861
815.397	2804
815.539	2910
815.68	2815
815.821	2838
815.962	2979
816.103	2967
816.244	2899
816.385	2861
816.526	2971
816.666	2937
816.807	2781
816.948	2883
817.089	2910
817.23	2864
817.371	2800
817.512	2807
817.653	2880
817.793	2830
817.934	2895
818.075	2994
818.216	3020
818.356	3062
818.497	2883
818.638	2842
818.778	2830
818.919	2842
819.06	2785
819.2	2887
819.341	2830
819.481	2823
819.622	2937
819.762	3157
819.903	3077
820.043	2937
820.184	2925
820.324	2910
820.465	3024
820.605	3024
820.746	3058
820.886	2925
821.026	3108
821.167	3192
821.307	3272
821.447	3291
821.588	3249
821.728	3226
821.868	3237
822.008	3043
822.149	3199
822.289	3275
822.429	3089
822.569	3074
822.709	3195
822.849	3085
822.99	3085
823.13	3131
823.27	3226
823.41	3138
823.55	3195
823.69	3165
823.83	3222
823.97	3142
824.11	3077
824.25	3036
824.389	3089
824.529	3112
824.669	3081
824.809	3218
824.949	3264
825.089	3214
825.228	3176
825.368	3001
825.508	2979
825.648	2960
825.787	3039
825.927	3028
826.067	3001
826.206	2963
826.346	3058
826.485	3097
826.625	3135
826.765	3302
826.904	3249
827.044	3028
827.183	2925
827.323	2864
827.462	2982
827.601	2944
827.741	2986
827.88	2986
828.02	2857
828.159	2998
828.298	3070
828.437	3097
828.577	3085
828.716	3279
828.855	3123
828.994	2941
829.134	2895
829.273	2925
829.412	2864
829.551	2902
829.69	2914
829.829	3017
829.968	3169
830.107	3043
830.246	3055
830.385	2948
830.524	2880
830.663	2830
830.802	2773
830.941	2674
831.08	2678
831.219	2804
831.357	2773
831.496	2990
831.635	2743
831.774	2682
831.913	2689
832.051	2564
832.19	2617
832.329	2697
832.467	2533
832.606	2488
832.744	2606
832.883	2598
833.022	2594
833.16	2651
833.299	2678
833.437	2724
833.576	2708
833.714	2762
833.852	2758
833.991	2777
834.129	2834
834.267	2796
834.406	2804
834.544	2891
834.682	2918
834.821	2914
834.959	3081
835.097	2929
835.235	3066
835.373	3001
835.511	3009
835.65	2975
835.788	3001
835.926	2842
836.064	2830
836.202	2887
836.34	3116
836.478	3154
836.615	3070
836.753	3123
836.891	3195
837.029	3173
837.167	3123
837.305	3081
837.443	3066
837.58	2986
837.718	3116
837.856	3093
837.993	3077
838.131	3131
838.269	3119
838.406	3142
838.544	3112
838.681	2986
838.819	2891
838.956	2815
839.094	2864
839.231	2941
839.369	3028
839.506	3374
839.643	3199
839.781	3005
839.918	3020
840.055	3036
840.193	3028
840.33	3100
840.467	3112
840.604	3173
840.742	3378
840.879	3051
841.016	3047
841.153	3127
841.29	3389
841.427	3302
841.564	3310
841.701	3313
841.838	3245
841.975	3173
842.112	3188
842.249	3070
842.385	3074
842.522	3233
842.659	3104
842.796	3085
842.933	3119
843.069	3051
843.206	3058
843.343	3176
843.479	3127
843.616	3165
843.752	2922
843.889	2922
844.025	3097
844.162	2918
844.298	3074
844.435	2982
844.571	2937
844.708	3077
844.844	3222
844.98	3226
845.117	3195
845.253	3047
845.389	3017
845.525	3104
845.661	3112
845.798	3009
845.934	3173
846.07	3039
846.206	3249
846.342	3302
846.478	3279
846.614	3089
846.75	3108
846.886	3051
847.022	3222
847.158	3150
847.294	3222
847.429	3253
847.565	3214
847.701	3507
847.837	3032
847.972	2979
848.108	3157
848.244	3135
848.379	2998
848.515	2929
848.65	2960
848.786	2963
848.921	3039
849.057	3104
849.192	3157
849.328	3077
849.463	3119
849.598	3062
849.734	3017
849.869	2979
850.004	2925
850.14	2948
850.275	2883
850.41	2842
850.545	2895
850.68	2933
850.815	3001
850.95	2998
851.085	3199
851.22	3119
851.355	3043
851.49	2994
851.625	3001
851.76	3028
851.895	2929
852.03	2910
852.165	3039
852.299	3108
852.434	3188
852.569	3150
852.703	3180
852.838	3245
852.973	3363
853.107	3321
853.242	3157
853.376	3070
853.511	2963
853.645	3070
853.78	3237
853.914	3108
854.048	3070
854.183	3138
854.317	3161
854.451	3329
854.585	3138
854.72	3093
854.854	3222
854.988	3062
855.122	3108
855.256	2967
855.39	3146
855.524	3283
855.658	3195
855.792	3173
855.926	3192
856.06	3241
856.194	3275
856.327	3138
856.461	3081
856.595	3085
856.729	3104
856.862	3207
856.996	3180
857.13	3184
857.263	3226
857.397	3264
857.53	3123
857.664	3180
857.797	3241
857.931	3264
858.064	3199
858.197	3241
858.331	3154
858.464	3089
858.597	2998
858.731	3116
858.864	3161
858.997	3108
859.13	3180
859.263	3195
859.396	3211
859.529	3097
859.662	3097
859.795	3066
859.928	3169
860.061	3249
860.194	3302
860.327	3135
860.46	3131
860.592	3226
860.725	3268
860.858	3272
860.99	3112
861.123	3043
861.256	3074
861.388	3173
861.521	3838
861.653	3013
861.786	3024
861.918	2982
862.05	3085
862.183	3081
862.315	3188
862.447	3222
862.58	3097
862.712	2982
862.844	2838
862.976	3036
863.108	3009
863.24	3302
863.372	2887
863.504	2963
863.636	2990
863.768	3036
863.9	2990
864.032	2887
864.164	2948
864.296	3020
864.428	3108
864.559	3119
864.691	3100
864.823	3047
864.954	3017
865.086	3077
865.217	3001
865.349	2918
865.48	2990
865.612	3047
865.743	3127
865.875	2986
866.006	2922
866.137	2963
866.269	2922
866.4	2929
866.531	2933
866.662	2887
866.793	2910
866.924	2872
867.055	2956
867.186	2937
867.317	2880
867.448	2830
867.579	2853
867.71	2864
867.841	2796
867.972	2933
868.103	2895
868.233	2899
868.364	2891
868.495	2933
868.625	3043
868.756	3135
868.886	2982
869.017	3005
869.147	3203
869.278	3184
869.408	3024
869.539	3020
869.669	3127
869.799	3039
869.929	3146
870.06	3104
870.19	3317
870.32	3287
870.45	3287
870.58	3359
870.71	3462
870.84	3466
870.97	3306
871.1	3245
871.23	3504
871.36	3428
871.489	3355
871.619	3420
871.749	3405
871.879	3443
872.008	3469
872.138	3378
872.267	3279
872.397	3127
872.526	3093
872.656	3020
872.785	3081
872.915	3245
873.044	3313
873.173	3203
873.303	3226
873.432	3211
873.561	3230
873.69	3150
873.819	3157
873.948	3195
874.077	3089
874.206	3066
874.335	3070
874.464	3180
874.593	3332
874.722	3233
874.851	3378
874.979	3363
875.108	3321
875.237	3192
875.365	3123
875.494	3135
875.623	3291
875.751	3066
875.88	3116
876.008	3169
876.136	3249
876.265	3359
876.393	3500
876.521	3420
876.65	3431
876.778	3306
876.906	3256
877.034	3176
877.162	3241
877.29	3207
877.418	3245
877.546	3222
877.674	3264
877.802	3218
877.93	3272
878.058	3150
878.185	3119
878.313	3241
878.441	3230
878.568	3028
878.696	3192
878.824	3268
878.951	3294
879.079	3409
879.206	3587
879.333	3469
879.461	3355
879.588	3401
879.715	3477
879.842	3580
879.97	3363
880.097	3127
880.224	3119
880.351	3176
880.478	3230
880.605	3199
880.732	3150
880.859	3504
880.986	3313
881.112	3317
881.239	3173
881.366	3055
881.493	3039
881.619	3036
881.746	3077
881.872	3093
881.999	3146
882.125	3150
882.252	3256
882.378	3294
882.505	3424
882.631	3260
882.757	3154
882.883	3195
883.01	3199
883.136	3157
883.262	3066
883.388	3089
883.514	3291
883.64	3374
883.766	3287
883.892	3176
884.018	3253
884.143	3412
884.269	3519
884.395	3211
884.52	3188
884.646	3188
884.772	3097
884.897	3097
885.023	3233
885.148	3294
885.274	3409
885.399	3359
885.524	3272
885.65	3264
885.775	3313
885.9	3279
886.025	3420
886.15	3359
886.275	3313
886.4	3233
886.525	3344
886.65	3268
886.775	3279
886.9	3485
887.025	3603
887.149	3401
887.274	3253
887.399	3176
887.523	3207
887.648	3188
887.773	3173
887.897	3367
888.021	3378
888.146	3275
888.27	3447
888.395	3534
888.519	3469
888.643	3424
888.767	3481
888.891	3283
889.015	3218
889.139	3279
889.263	3306
889.387	3431
889.511	3511
889.635	3454
889.759	3294
889.883	3321
890.006	3313
890.13	3477
890.254	3249
890.377	3363
890.501	3207
890.624	3203
890.748	3321
890.871	3154
890.995	3100
891.118	3077
891.241	3184
891.364	3195
891.488	3344
891.611	3188
891.734	3203
891.857	3291
891.98	3237
892.103	3325
892.226	3298
892.349	3211
892.471	3123
892.594	3249
892.717	3310
892.839	3272
892.962	3283
893.085	3336
893.207	3294
893.33	3161
893.452	3188
893.575	3336
893.697	3249
893.819	3466
893.941	3500
894.064	3458
894.186	3302
894.308	3275
894.43	3439
894.552	3549
894.674	3507
894.796	3245
894.918	3287
895.04	3291
895.161	3424
895.283	3374
895.405	3275
895.526	3389
895.648	3424
895.769	3428
895.891	3458
896.012	3473
896.134	3523
896.255	3416
896.376	3374
896.498	3363
896.619	3420
896.74	3340
896.861	3401
896.982	3671
897.103	3823
897.224	3564
897.345	3523
897.466	3389
897.587	3477
897.708	3618
897.828	3557
897.949	3382
898.07	3344
898.19	3374
898.311	3580
898.431	3439
898.552	3515
898.672	3572
898.792	3591
898.913	3507
899.033	3416
899.153	3283
899.273	3245
899.393	3306
899.513	3283
899.633	3336
899.753	3332
899.873	3325
899.993	3355
900.113	3355
900.232	3355
900.352	3302
900.472	3321
900.591	3188
900.711	3302
900.83	3230
900.95	3401
901.069	3458
901.189	3344
901.308	3184
901.427	3131
901.546	3127
901.665	3272
901.784	3336
901.904	3195
902.023	3100
902.141	3032
902.26	2998
902.379	3169
902.498	3097
902.617	3077
902.735	3218
902.854	3237
902.973	3165
903.091	3097
903.21	3081
903.328	3142
903.446	3062
903.565	3066
903.683	3203
903.801	3150
903.919	3249
904.038	3294
904.156	3146
904.274	3279
904.392	3226
904.51	3291
904.627	3317
904.745	3439
904.863	3500
904.981	3226
905.098	3123
905.216	3222
905.334	3317
905.451	3306
905.569	3283
905.686	3428
905.803	3458
905.921	3294
906.038	3416
906.155	3329
906.272	3298
906.389	3325
906.506	3241
906.623	3260
906.74	3291
906.857	3188
906.974	3283
907.091	3424
907.208	3545
907.324	3469
907.441	3389
907.557	3203
907.674	3230
907.79	3173
907.907	3279
908.023	3393
908.139	3386
908.256	3294
908.372	3386
908.488	3329
908.604	3245
908.72	3188
908.836	3310
908.952	3226
909.068	3302
909.184	3504
909.3	3393
909.415	3507
909.531	3454
909.647	3268
909.762	3279
909.878	3256
909.993	3355
910.108	3325
910.224	3332
910.339	3439
910.454	3317
910.57	3268
910.685	3226
910.8	3538
910.915	3523
911.03	3416
911.145	3287
911.259	3237
911.374	3287
911.489	3214
911.604	3226
911.718	3131
911.833	3142
911.947	3024
912.062	2963
912.176	3150
912.291	3207
912.405	3188
912.519	3416
912.633	3485
912.748	3340
912.862	3264
912.976	3180
913.09	3024
913.204	3093
913.318	3203
913.431	3317
913.545	3287
913.659	3401
913.772	3332
913.886	3233
914	3180
914.113	3344
914.226	3355
914.34	3336
914.453	3195
914.566	3397
914.68	3287
914.793	3302
914.906	3131
915.019	3077
915.132	3085
915.245	3184
915.358	3192
915.47	3233
915.583	3249
915.696	3256
915.809	3401
915.921	3416
916.034	3237
916.146	3283
916.259	3218
916.371	3367
916.483	3397
916.595	3264
916.708	3344
916.82	3313
916.932	3287
917.044	3348
917.156	3310
917.268	3233
917.38	3291
917.491	3306
917.603	3367
917.715	3424
917.826	3431
917.938	3367
918.049	3275
918.161	3454
918.272	3580
918.384	3561
918.495	3496
918.606	3321
918.717	3268
918.828	3386
918.939	3428
919.05	3294
919.161	3393
919.272	3176
919.383	3298
919.494	3473
919.604	3671
919.715	3485
919.826	3359
919.936	3458
920.047	3580
920.157	3587
920.267	3724
920.378	3603
920.488	3576
920.598	3778
920.708	3945
920.818	3865
920.928	3838
921.038	3972
921.148	3991
921.258	3671
921.368	3629
921.477	3568
921.587	3538
921.697	3454
921.806	3622
921.916	3507
922.025	3389
922.134	3363
922.244	3306
922.353	3397
922.462	3249
922.571	3245
922.68	3066
922.789	3066
922.898	3142
923.007	3074
923.116	3192
923.224	3154
923.333	3165
923.442	3100
923.55	3089
923.659	3142
923.767	3256
923.876	3104
923.984	3226
924.092	3123
924.201	3180
924.309	3176
924.417	3245
924.525	3173
924.633	3264
924.741	4169
924.849	3055
924.956	3291
925.064	3081
925.172	3020
925.279	3043
925.387	3207
925.494	3214
925.602	3321
925.709	3336
925.816	3195
925.924	3218
926.031	3412
926.138	3302
926.245	3378
926.352	3222
926.459	3370
926.566	3454
926.673	3310
926.779	3207
926.886	3222
926.993	3127
927.099	3116
927.206	3077
927.312	3131
927.419	3199
927.525	3176
927.631	3249
927.737	3146
927.843	3112
927.95	3039
928.056	3150
928.162	3188
928.267	3275
928.373	3892
928.479	3268
928.585	3074
928.69	3203
928.796	3268
928.901	3154
929.007	3074
929.112	3154
929.218	3146
929.323	3135
929.428	3138
929.533	3279
929.638	3150
929.743	3112
929.848	3218
929.953	3211
930.058	3123
930.163	2986
930.267	3032
930.372	3207
930.477	2979
930.581	3325
930.685	3184
930.79	3017
930.894	3112
930.998	3070
931.103	3256
931.207	2933
931.311	2895
931.415	2918
931.519	2773
931.623	2804
