Data from test_V78500241_281.txt Node
Date: Fri Mar 25 16:17:09 CST 2022
User: usil
Spectrometer: V785-0024
Trigger mode: 0
Integration Time (sec): 4.000000E-1
Scans to average: 1
Nonlinearity correction enabled: false
Boxcar width: 0
Storing dark spectrum: false
XAxis mode: Wavelengths
Number of Pixels in Spectrum: 1024
>>>>>Begin Spectral Data<<<<<
801.071	2952
801.214	3013
801.356	2845
801.499	2902
801.641	2891
801.783	2960
801.926	3081
802.068	2971
802.211	3001
802.353	3051
802.496	2986
802.638	3036
802.78	3097
802.923	3074
803.065	3051
803.208	2922
803.35	2918
803.492	2952
803.635	2963
803.777	2823
803.919	2857
804.061	3211
804.204	2929
804.346	2922
804.488	2887
804.63	2990
804.773	2918
804.915	2922
805.057	3097
805.199	2963
805.341	2937
805.483	3032
805.626	3001
805.768	2975
805.91	3108
806.052	3150
806.194	2986
806.336	3222
806.478	3047
806.62	2994
806.762	2975
806.904	3074
807.046	3097
807.188	2990
807.33	2941
807.472	3020
807.614	2948
807.756	2979
807.898	2914
808.04	2883
808.182	2956
808.324	2960
808.465	2918
808.607	2914
808.749	2811
808.891	2864
809.033	2948
809.174	2960
809.316	2933
809.458	2853
809.6	2754
809.741	2758
809.883	2781
810.025	2845
810.166	2834
810.308	2868
810.45	2876
810.591	2815
810.733	2766
810.875	2849
811.016	2766
811.158	2731
811.299	2781
811.441	2922
811.582	2925
811.724	2800
811.865	2826
812.007	2910
812.148	2861
812.29	2830
812.431	2880
812.573	2937
812.714	2944
812.855	3024
812.997	3051
813.138	3093
813.279	2979
813.421	2948
813.562	2971
813.703	2895
813.845	2880
813.986	2785
814.127	2762
814.268	2845
814.41	2842
814.551	2811
814.692	2853
814.833	2834
814.974	2891
815.115	2941
815.256	2838
815.397	2834
815.539	2902
815.68	2773
815.821	2819
815.962	2933
816.103	2948
816.244	2895
816.385	2857
816.526	2967
816.666	2887
816.807	2708
816.948	2861
817.089	2899
817.23	2845
817.371	2781
817.512	2826
817.653	2876
817.793	2800
817.934	2864
818.075	2944
818.216	3017
818.356	3036
818.497	2876
818.638	2781
818.778	2792
818.919	2815
819.06	2746
819.2	2883
819.341	2804
819.481	2788
819.622	2956
819.762	3135
819.903	3058
820.043	2902
820.184	2864
820.324	2906
820.465	3058
820.605	3009
820.746	3024
820.886	2956
821.026	3157
821.167	3138
821.307	3260
821.447	3287
821.588	3226
821.728	3211
821.868	3214
822.008	3097
822.149	3214
822.289	3237
822.429	3142
822.569	3104
822.709	3165
822.849	3058
822.99	3100
823.13	3188
823.27	3230
823.41	3161
823.55	3138
823.69	3173
823.83	3260
823.97	3127
824.11	3039
824.25	3009
824.389	3108
824.529	3169
824.669	3127
824.809	3268
824.949	3310
825.089	3264
825.228	3222
825.368	3017
825.508	3017
825.648	2990
825.787	3036
825.927	3085
826.067	3001
826.206	3013
826.346	3085
826.485	3097
826.625	3184
826.765	3283
826.904	3260
827.044	3036
827.183	3005
827.323	2895
827.462	3013
827.601	2971
827.741	2971
827.88	2971
828.02	2895
828.159	3039
828.298	3089
828.437	3146
828.577	3081
828.716	3260
828.855	3116
828.994	2963
829.134	2929
829.273	2967
829.412	2910
829.551	2922
829.69	2944
829.829	3062
829.968	3188
830.107	3066
830.246	3077
830.385	2952
830.524	2929
830.663	2868
830.802	2788
830.941	2705
831.08	2720
831.219	2804
831.357	2792
831.496	3013
831.635	2781
831.774	2686
831.913	2693
832.051	2590
832.19	2636
832.329	2712
832.467	2594
832.606	2541
832.744	2625
832.883	2594
833.022	2640
833.16	2693
833.299	2712
833.437	2716
833.576	2769
833.714	2769
833.852	2781
833.991	2823
834.129	2861
834.267	2861
834.406	2838
834.544	2929
834.682	2918
834.821	2910
834.959	3089
835.097	2952
835.235	3112
835.373	3085
835.511	3085
835.65	3051
835.788	2990
835.926	2922
836.064	2868
836.202	2895
836.34	3116
836.478	3188
836.615	3089
836.753	3173
836.891	3237
837.029	3169
837.167	3169
837.305	3119
837.443	3074
837.58	3001
837.718	3146
837.856	3104
837.993	3043
838.131	3188
838.269	3138
838.406	3119
838.544	3097
838.681	2998
838.819	2910
838.956	2838
839.094	2861
839.231	2944
839.369	3024
839.506	3424
839.643	3260
839.781	3020
839.918	3024
840.055	3097
840.193	3138
840.33	3112
840.467	3119
840.604	3195
840.742	3447
840.879	3097
841.016	3066
841.153	3188
841.29	3374
841.427	3367
841.564	3329
841.701	3359
841.838	3279
841.975	3203
842.112	3275
842.249	3112
842.385	3104
842.522	3317
842.659	3131
842.796	3081
842.933	3127
843.069	3062
843.206	3043
843.343	3199
843.479	3116
843.616	3195
843.752	2960
843.889	2918
844.025	3116
844.162	2899
844.298	3089
844.435	2971
844.571	2914
844.708	3127
844.844	3233
844.98	3253
845.117	3180
845.253	3089
845.389	3055
845.525	3169
845.661	3142
845.798	3028
845.934	3154
846.07	3104
846.206	3253
846.342	3332
846.478	3241
846.614	3138
846.75	3089
846.886	3058
847.022	3317
847.158	3157
847.294	3233
847.429	3275
847.565	3245
847.701	3538
847.837	3066
847.972	3062
848.108	3199
848.244	3165
848.379	3032
848.515	2944
848.65	2967
848.786	2975
848.921	3043
849.057	3176
849.192	3165
849.328	3138
849.463	3138
849.598	3135
849.734	3051
849.869	3020
850.004	2960
850.14	3001
850.275	2941
850.41	2868
850.545	2933
850.68	2922
850.815	2982
850.95	2986
851.085	3237
851.22	3131
851.355	3085
851.49	3017
851.625	3055
851.76	3058
851.895	2967
852.03	2944
852.165	3066
852.299	3116
852.434	3214
852.569	3176
852.703	3226
852.838	3268
852.973	3374
853.107	3332
853.242	3176
853.376	3127
853.511	2994
853.645	3043
853.78	3245
853.914	3165
854.048	3180
854.183	3123
854.317	3184
854.451	3306
854.585	3150
854.72	3131
854.854	3283
854.988	3089
855.122	3100
855.256	3005
855.39	3146
855.524	3294
855.658	3237
855.792	3150
855.926	3256
856.06	3264
856.194	3275
856.327	3169
856.461	3089
856.595	3173
856.729	3119
856.862	3214
856.996	3173
857.13	3192
857.263	3241
857.397	3329
857.53	3142
857.664	3226
857.797	3260
857.931	3294
858.064	3184
858.197	3226
858.331	3157
858.464	3150
858.597	3036
858.731	3131
858.864	3150
858.997	3131
859.13	3188
859.263	3195
859.396	3291
859.529	3131
859.662	3077
859.795	3074
859.928	3195
860.061	3329
860.194	3268
860.327	3192
860.46	3112
860.592	3294
860.725	3272
860.858	3249
860.99	3161
861.123	3097
861.256	3093
861.388	3173
861.521	3831
861.653	3043
861.786	2990
861.918	3028
862.05	3089
862.183	3150
862.315	3188
862.447	3230
862.58	3154
862.712	2979
862.844	2868
862.976	3036
863.108	3028
863.24	3298
863.372	2899
863.504	2986
863.636	2963
863.768	3066
863.9	2979
864.032	2906
864.164	2998
864.296	3047
864.428	3108
864.559	3108
864.691	3066
864.823	3089
864.954	3051
865.086	3047
865.217	3028
865.349	2971
865.48	2994
865.612	3043
865.743	3165
865.875	3017
866.006	2941
866.137	2990
866.269	2986
866.4	2952
866.531	2963
866.662	2933
866.793	2941
866.924	2918
867.055	2986
867.186	2941
867.317	2937
867.448	2880
867.579	2883
867.71	2861
867.841	2845
867.972	2906
868.103	2941
868.233	2910
868.364	2880
868.495	2933
868.625	3062
868.756	3192
868.886	2994
869.017	3036
869.147	3207
869.278	3157
869.408	3108
869.539	3047
869.669	3097
869.799	3024
869.929	3157
870.06	3119
870.19	3348
870.32	3291
870.45	3317
870.58	3397
870.71	3466
870.84	3462
870.97	3344
871.1	3287
871.23	3496
871.36	3481
871.489	3378
871.619	3382
871.749	3416
871.879	3447
872.008	3488
872.138	3389
872.267	3287
872.397	3173
872.526	3119
872.656	3047
872.785	3100
872.915	3264
873.044	3340
873.173	3245
873.303	3226
873.432	3241
873.561	3294
873.69	3199
873.819	3123
873.948	3214
874.077	3131
874.206	3074
874.335	3097
874.464	3249
874.593	3340
874.722	3272
874.851	3401
874.979	3420
875.108	3389
875.237	3275
875.365	3173
875.494	3176
875.623	3253
875.751	3100
875.88	3127
876.008	3195
876.136	3245
876.265	3386
876.393	3538
876.521	3454
876.65	3397
876.778	3359
876.906	3291
877.034	3199
877.162	3256
877.29	3203
877.418	3291
877.546	3287
877.674	3302
877.802	3253
877.93	3218
878.058	3165
878.185	3104
878.313	3214
878.441	3192
878.568	3119
878.696	3192
878.824	3241
878.951	3329
879.079	3485
879.206	3660
879.333	3500
879.461	3386
879.588	3367
879.715	3500
879.842	3618
879.97	3409
880.097	3169
880.224	3161
880.351	3195
880.478	3237
880.605	3211
880.732	3203
880.859	3500
880.986	3298
881.112	3329
881.239	3184
881.366	3093
881.493	3024
881.619	3047
881.746	3081
881.872	3112
881.999	3135
882.125	3142
882.252	3272
882.378	3348
882.505	3412
882.631	3294
882.757	3157
882.883	3233
883.01	3264
883.136	3165
883.262	3127
883.388	3119
883.514	3370
883.64	3412
883.766	3313
883.892	3180
884.018	3260
884.143	3439
884.269	3526
884.395	3256
884.52	3207
884.646	3188
884.772	3146
884.897	3135
885.023	3207
885.148	3332
885.274	3443
885.399	3370
885.524	3291
885.65	3291
885.775	3386
885.9	3275
886.025	3481
886.15	3443
886.275	3287
886.4	3230
886.525	3329
886.65	3272
886.775	3310
886.9	3481
887.025	3652
887.149	3416
887.274	3253
887.399	3161
887.523	3226
887.648	3176
887.773	3230
887.897	3386
888.021	3428
888.146	3313
888.27	3447
888.395	3561
888.519	3496
888.643	3443
888.767	3473
888.891	3317
889.015	3268
889.139	3332
889.263	3272
889.387	3443
889.511	3507
889.635	3405
889.759	3313
889.883	3287
890.006	3454
890.13	3504
890.254	3275
890.377	3355
890.501	3226
890.624	3203
890.748	3317
890.871	3214
890.995	3104
891.118	3119
891.241	3192
891.364	3256
891.488	3325
891.611	3161
891.734	3214
891.857	3302
891.98	3256
892.103	3310
892.226	3302
892.349	3249
892.471	3058
892.594	3245
892.717	3275
892.839	3317
892.962	3344
893.085	3344
893.207	3317
893.33	3154
893.452	3245
893.575	3359
893.697	3256
893.819	3496
893.941	3515
894.064	3462
894.186	3302
894.308	3264
894.43	3473
894.552	3542
894.674	3450
894.796	3310
894.918	3355
895.04	3321
895.161	3412
895.283	3389
895.405	3310
895.526	3359
895.648	3416
895.769	3431
895.891	3477
896.012	3485
896.134	3515
896.255	3420
896.376	3370
896.498	3340
896.619	3409
896.74	3428
896.861	3424
896.982	3728
897.103	3880
897.224	3629
897.345	3557
897.466	3424
897.587	3473
897.708	3656
897.828	3572
897.949	3439
898.07	3310
898.19	3378
898.311	3629
898.431	3454
898.552	3523
898.672	3595
898.792	3580
898.913	3507
899.033	3424
899.153	3306
899.273	3237
899.393	3283
899.513	3386
899.633	3348
899.753	3370
899.873	3321
899.993	3401
900.113	3336
900.232	3401
900.352	3332
900.472	3260
900.591	3188
900.711	3340
900.83	3260
900.95	3428
901.069	3496
901.189	3405
901.308	3180
901.427	3150
901.546	3230
901.665	3291
901.784	3329
901.904	3218
902.023	3195
902.141	2990
902.26	3005
902.379	3131
902.498	3104
902.617	3051
902.735	3211
902.854	3214
902.973	3195
903.091	3066
903.21	3123
903.328	3127
903.446	3070
903.565	3112
903.683	3199
903.801	3135
903.919	3233
904.038	3294
904.156	3176
904.274	3283
904.392	3245
904.51	3291
904.627	3332
904.745	3409
904.863	3519
904.981	3283
905.098	3176
905.216	3241
905.334	3310
905.451	3272
905.569	3325
905.686	3420
905.803	3412
905.921	3313
906.038	3466
906.155	3382
906.272	3283
906.389	3336
906.506	3230
906.623	3283
906.74	3275
906.857	3195
906.974	3245
907.091	3450
907.208	3553
907.324	3488
907.441	3401
907.557	3233
907.674	3222
907.79	3199
907.907	3283
908.023	3382
908.139	3401
908.256	3348
908.372	3367
908.488	3363
908.604	3268
908.72	3256
908.836	3294
908.952	3245
909.068	3336
909.184	3492
909.3	3386
909.415	3534
909.531	3473
909.647	3294
909.762	3272
909.878	3264
909.993	3378
910.108	3355
910.224	3313
910.339	3386
910.454	3367
910.57	3336
910.685	3264
910.8	3614
910.915	3591
911.03	3454
911.145	3294
911.259	3302
911.374	3321
911.489	3264
911.604	3253
911.718	3142
911.833	3169
911.947	3074
912.062	2998
912.176	3146
912.291	3176
912.405	3226
912.519	3431
912.633	3466
912.748	3336
912.862	3272
912.976	3188
913.09	3066
913.204	3154
913.318	3245
913.431	3351
913.545	3359
913.659	3412
913.772	3363
913.886	3211
914	3199
914.113	3363
914.226	3443
914.34	3340
914.453	3226
914.566	3458
914.68	3253
914.793	3355
914.906	3138
915.019	3123
915.132	3116
915.245	3192
915.358	3211
915.47	3237
915.583	3283
915.696	3340
915.809	3424
915.921	3435
916.034	3275
916.146	3249
916.259	3241
916.371	3378
916.483	3321
916.595	3272
916.708	3298
916.82	3302
916.932	3344
917.044	3363
917.156	3363
917.268	3226
917.38	3321
917.491	3279
917.603	3393
917.715	3481
917.826	3431
917.938	3412
918.049	3230
918.161	3454
918.272	3606
918.384	3587
918.495	3534
918.606	3351
918.717	3287
918.828	3367
918.939	3393
919.05	3317
919.161	3374
919.272	3184
919.383	3317
919.494	3492
919.604	3667
919.715	3450
919.826	3435
919.936	3485
920.047	3606
920.157	3553
920.267	3781
920.378	3576
920.488	3568
920.598	3789
920.708	3930
920.818	3804
920.928	3819
921.038	4082
921.148	3964
921.258	3740
921.368	3606
921.477	3584
921.587	3526
921.697	3477
921.806	3641
921.916	3481
922.025	3370
922.134	3355
922.244	3325
922.353	3462
922.462	3279
922.571	3230
922.68	3112
922.789	3039
922.898	3169
923.007	3085
923.116	3237
923.224	3150
923.333	3180
923.442	3093
923.55	3104
923.659	3142
923.767	3245
923.876	3123
923.984	3264
924.092	3112
924.201	3211
924.309	3214
924.417	3272
924.525	3226
924.633	3237
924.741	4177
924.849	3066
924.956	3298
925.064	3070
925.172	3093
925.279	3112
925.387	3192
925.494	3230
925.602	3370
925.709	3298
925.816	3176
925.924	3291
926.031	3386
926.138	3325
926.245	3401
926.352	3268
926.459	3382
926.566	3488
926.673	3329
926.779	3264
926.886	3237
926.993	3165
927.099	3135
927.206	3116
927.312	3100
927.419	3230
927.525	3188
927.631	3279
927.737	3180
927.843	3154
927.95	3062
928.056	3157
928.162	3184
928.267	3249
928.373	3880
928.479	3294
928.585	3074
928.69	3230
928.796	3264
928.901	3169
929.007	3013
929.112	3195
929.218	3131
929.323	3169
929.428	3176
929.533	3329
929.638	3154
929.743	3157
929.848	3256
929.953	3237
930.058	3119
930.163	2986
930.267	3066
930.372	3264
930.477	3062
930.581	3344
930.685	3195
930.79	3055
930.894	3135
930.998	3085
931.103	3268
931.207	2986
931.311	2933
931.415	2925
931.519	2796
931.623	2830
