Data from test_V78500241_1642.txt Node
Date: Fri Mar 25 16:26:34 CST 2022
User: usil
Spectrometer: V785-0024
Trigger mode: 0
Integration Time (sec): 4.000000E-1
Scans to average: 1
Nonlinearity correction enabled: false
Boxcar width: 0
Storing dark spectrum: false
XAxis mode: Wavelengths
Number of Pixels in Spectrum: 1024
>>>>>Begin Spectral Data<<<<<
801.071	2922
801.214	2922
801.356	2857
801.499	2918
801.641	2868
801.783	2952
801.926	3043
802.068	3001
802.211	3013
802.353	3032
802.496	2986
802.638	3032
802.78	3005
802.923	3112
803.065	2990
803.208	2906
803.35	2944
803.492	2967
803.635	2937
803.777	2800
803.919	2883
804.061	3218
804.204	2982
804.346	2941
804.488	2868
804.63	2994
804.773	2857
804.915	2902
805.057	3108
805.199	2948
805.341	3001
805.483	3039
805.626	3020
805.768	2956
805.91	3085
806.052	3146
806.194	3051
806.336	3272
806.478	3017
806.62	2986
806.762	3009
806.904	3058
807.046	3184
807.188	3005
807.33	2960
807.472	3055
807.614	2914
807.756	3017
807.898	2963
808.04	2918
808.182	3028
808.324	2979
808.465	2922
808.607	2891
808.749	2845
808.891	2944
809.033	2986
809.174	3009
809.316	2948
809.458	2952
809.6	2815
809.741	2811
809.883	2800
810.025	2872
810.166	2895
810.308	2895
810.45	2872
810.591	2815
810.733	2815
810.875	2853
811.016	2845
811.158	2807
811.299	2826
811.441	2960
811.582	2914
811.724	2834
811.865	2861
812.007	2967
812.148	2922
812.29	2887
812.431	2922
812.573	2952
812.714	3009
812.855	3024
812.997	3085
813.138	3184
813.279	3036
813.421	3009
813.562	3036
813.703	2922
813.845	2925
813.986	2849
814.127	2781
814.268	2876
814.41	2872
814.551	2830
814.692	2922
814.833	2849
814.974	2941
815.115	2963
815.256	2845
815.397	2838
815.539	2872
815.68	2796
815.821	2807
815.962	2967
816.103	2933
816.244	2914
816.385	2922
816.526	2971
816.666	2914
816.807	2792
816.948	2891
817.089	2914
817.23	2853
817.371	2811
817.512	2842
817.653	2891
817.793	2864
817.934	2883
818.075	2986
818.216	3043
818.356	3055
818.497	2872
818.638	2861
818.778	2849
818.919	2819
819.06	2792
819.2	2876
819.341	2849
819.481	2849
819.622	2967
819.762	3135
819.903	3051
820.043	2933
820.184	2937
820.324	2944
820.465	3051
820.605	3100
820.746	3055
820.886	2960
821.026	3116
821.167	3233
821.307	3287
821.447	3306
821.588	3256
821.728	3233
821.868	3211
822.008	3093
822.149	3226
822.289	3245
822.429	3108
822.569	3131
822.709	3237
822.849	3028
822.99	3097
823.13	3146
823.27	3214
823.41	3131
823.55	3165
823.69	3173
823.83	3207
823.97	3138
824.11	3036
824.25	3017
824.389	3085
824.529	3135
824.669	3135
824.809	3195
824.949	3283
825.089	3226
825.228	3176
825.368	3051
825.508	3013
825.648	2986
825.787	3020
825.927	3047
826.067	3017
826.206	2990
826.346	3051
826.485	3089
826.625	3127
826.765	3317
826.904	3245
827.044	3005
827.183	2971
827.323	2895
827.462	3032
827.601	2952
827.741	2986
827.88	2986
828.02	2887
828.159	2994
828.298	3070
828.437	3097
828.577	3066
828.716	3291
828.855	3093
828.994	2948
829.134	2895
829.273	2948
829.412	2899
829.551	2872
829.69	2895
829.829	3074
829.968	3161
830.107	3017
830.246	3051
830.385	2925
830.524	2914
830.663	2838
830.802	2739
830.941	2644
831.08	2663
831.219	2819
831.357	2758
831.496	2979
831.635	2731
831.774	2632
831.913	2682
832.051	2602
832.19	2617
832.329	2686
832.467	2556
832.606	2526
832.744	2610
832.883	2587
833.022	2613
833.16	2655
833.299	2674
833.437	2750
833.576	2712
833.714	2712
833.852	2762
833.991	2800
834.129	2861
834.267	2830
834.406	2830
834.544	2902
834.682	2891
834.821	2891
834.959	3066
835.097	2937
835.235	3020
835.373	3036
835.511	3032
835.65	2952
835.788	2979
835.926	2880
836.064	2811
836.202	2849
836.34	3066
836.478	3169
836.615	3051
836.753	3135
836.891	3245
837.029	3176
837.167	3112
837.305	3074
837.443	3051
837.58	2990
837.718	3161
837.856	3074
837.993	3062
838.131	3150
838.269	3123
838.406	3097
838.544	3081
838.681	2975
838.819	2944
838.956	2807
839.094	2857
839.231	2986
839.369	3062
839.506	3397
839.643	3214
839.781	3013
839.918	3013
840.055	3047
840.193	3062
840.33	3085
840.467	3119
840.604	3161
840.742	3428
840.879	3077
841.016	3058
841.153	3116
841.29	3329
841.427	3317
841.564	3275
841.701	3306
841.838	3230
841.975	3218
842.112	3230
842.249	3104
842.385	3039
842.522	3313
842.659	3100
842.796	3085
842.933	3089
843.069	3062
843.206	3036
843.343	3218
843.479	3127
843.616	3169
843.752	2906
843.889	2880
844.025	3116
844.162	2937
844.298	3074
844.435	2975
844.571	2960
844.708	3085
844.844	3230
844.98	3233
845.117	3226
845.253	3127
845.389	3001
845.525	3127
845.661	3123
845.798	3009
845.934	3108
846.07	3028
846.206	3230
846.342	3344
846.478	3310
846.614	3100
846.75	3051
846.886	3036
847.022	3279
847.158	3199
847.294	3207
847.429	3256
847.565	3245
847.701	3458
847.837	3047
847.972	3024
848.108	3188
848.244	3184
848.379	3028
848.515	2960
848.65	2960
848.786	2979
848.921	3051
849.057	3097
849.192	3146
849.328	3089
849.463	3138
849.598	3089
849.734	3070
849.869	2998
850.004	2929
850.14	2975
850.275	2922
850.41	2872
850.545	2880
850.68	2944
850.815	2956
850.95	2986
851.085	3226
851.22	3104
851.355	3001
851.49	2986
851.625	3017
851.76	3039
851.895	2929
852.03	2944
852.165	3051
852.299	3116
852.434	3195
852.569	3176
852.703	3180
852.838	3275
852.973	3359
853.107	3367
853.242	3154
853.376	3108
853.511	2952
853.645	3043
853.78	3233
853.914	3104
854.048	3157
854.183	3081
854.317	3173
854.451	3310
854.585	3131
854.72	3097
854.854	3226
854.988	3055
855.122	3127
855.256	2994
855.39	3131
855.524	3218
855.658	3203
855.792	3165
855.926	3203
856.06	3249
856.194	3264
856.327	3199
856.461	3081
856.595	3081
856.729	3108
856.862	3226
856.996	3176
857.13	3195
857.263	3268
857.397	3249
857.53	3131
857.664	3226
857.797	3272
857.931	3268
858.064	3203
858.197	3214
858.331	3097
858.464	3131
858.597	3043
858.731	3104
858.864	3146
858.997	3104
859.13	3169
859.263	3180
859.396	3207
859.529	3097
859.662	3074
859.795	3074
859.928	3093
860.061	3264
860.194	3325
860.327	3180
860.46	3093
860.592	3241
860.725	3230
860.858	3260
860.99	3135
861.123	3055
861.256	3017
861.388	3154
861.521	3896
861.653	3020
861.786	3001
861.918	2994
862.05	3104
862.183	3104
862.315	3135
862.447	3188
862.58	3119
862.712	2933
862.844	2902
862.976	3077
863.108	3039
863.24	3431
863.372	2902
863.504	2960
863.636	2967
863.768	3074
863.9	2967
864.032	2925
864.164	2910
864.296	2975
864.428	3112
864.559	3085
864.691	3055
864.823	3119
864.954	3058
865.086	3055
865.217	3005
865.349	2941
865.48	3028
865.612	2994
865.743	3203
865.875	2967
866.006	2956
866.137	2986
866.269	2956
866.4	2941
866.531	2925
866.662	2902
866.793	2914
866.924	2914
867.055	2922
867.186	2979
867.317	2906
867.448	2845
867.579	2861
867.71	2880
867.841	2781
867.972	2914
868.103	2906
868.233	2864
868.364	2864
868.495	2891
868.625	3108
868.756	3180
868.886	2986
869.017	3013
869.147	3173
869.278	3154
869.408	3051
869.539	3020
869.669	3074
869.799	3043
869.929	3150
870.06	3066
870.19	3317
870.32	3313
870.45	3287
870.58	3397
870.71	3469
870.84	3454
870.97	3283
871.1	3230
871.23	3507
871.36	3439
871.489	3336
871.619	3359
871.749	3428
871.879	3481
872.008	3477
872.138	3332
872.267	3253
872.397	3100
872.526	3119
872.656	2979
872.785	3119
872.915	3272
873.044	3329
873.173	3195
873.303	3230
873.432	3222
873.561	3233
873.69	3150
873.819	3161
873.948	3249
874.077	3074
874.206	3047
874.335	3085
874.464	3233
874.593	3313
874.722	3279
874.851	3397
874.979	3397
875.108	3351
875.237	3180
875.365	3211
875.494	3176
875.623	3245
875.751	3100
875.88	3112
876.008	3218
876.136	3253
876.265	3382
876.393	3507
876.521	3420
876.65	3374
876.778	3355
876.906	3233
877.034	3214
877.162	3230
877.29	3142
877.418	3249
877.546	3233
877.674	3230
877.802	3256
877.93	3249
878.058	3161
878.185	3131
878.313	3214
878.441	3226
878.568	3081
878.696	3150
878.824	3233
878.951	3275
879.079	3485
879.206	3595
879.333	3439
879.461	3302
879.588	3359
879.715	3485
879.842	3595
879.97	3405
880.097	3184
880.224	3142
880.351	3180
880.478	3192
880.605	3180
880.732	3211
880.859	3511
880.986	3332
881.112	3359
881.239	3222
881.366	3100
881.493	3036
881.619	3047
881.746	3039
881.872	3104
881.999	3108
882.125	3119
882.252	3264
882.378	3321
882.505	3424
882.631	3336
882.757	3138
882.883	3207
883.01	3195
883.136	3161
883.262	3097
883.388	3154
883.514	3291
883.64	3374
883.766	3310
883.892	3230
884.018	3237
884.143	3424
884.269	3561
884.395	3233
884.52	3165
884.646	3214
884.772	3127
884.897	3116
885.023	3203
885.148	3313
885.274	3412
885.399	3389
885.524	3294
885.65	3222
885.775	3348
885.9	3294
886.025	3435
886.15	3389
886.275	3317
886.4	3233
886.525	3253
886.65	3264
886.775	3313
886.9	3515
887.025	3629
887.149	3439
887.274	3264
887.399	3184
887.523	3241
887.648	3154
887.773	3230
887.897	3370
888.021	3378
888.146	3279
888.27	3405
888.395	3488
888.519	3416
888.643	3496
888.767	3454
888.891	3325
889.015	3218
889.139	3268
889.263	3241
889.387	3382
889.511	3507
889.635	3454
889.759	3313
889.883	3283
890.006	3420
890.13	3477
890.254	3310
890.377	3359
890.501	3199
890.624	3157
890.748	3317
890.871	3165
890.995	3093
891.118	3074
891.241	3214
891.364	3233
891.488	3321
891.611	3180
891.734	3230
891.857	3302
891.98	3230
892.103	3329
892.226	3298
892.349	3211
892.471	3157
892.594	3218
892.717	3272
892.839	3256
892.962	3264
893.085	3374
893.207	3302
893.33	3165
893.452	3180
893.575	3325
893.697	3256
893.819	3447
893.941	3504
894.064	3386
894.186	3283
894.308	3230
894.43	3416
894.552	3526
894.674	3485
894.796	3245
894.918	3325
895.04	3272
895.161	3374
895.283	3405
895.405	3329
895.526	3359
895.648	3401
895.769	3428
895.891	3405
896.012	3485
896.134	3458
896.255	3401
896.376	3416
896.498	3359
896.619	3412
896.74	3355
896.861	3397
896.982	3720
897.103	3835
897.224	3610
897.345	3477
897.466	3416
897.587	3507
897.708	3641
897.828	3545
897.949	3488
898.07	3355
898.19	3405
898.311	3584
898.431	3439
898.552	3496
898.672	3580
898.792	3595
898.913	3519
899.033	3447
899.153	3291
899.273	3203
899.393	3310
899.513	3279
899.633	3329
899.753	3313
899.873	3291
899.993	3374
900.113	3363
900.232	3401
900.352	3321
900.472	3302
900.591	3195
900.711	3325
900.83	3253
900.95	3378
901.069	3477
901.189	3317
901.308	3157
901.427	3138
901.546	3207
901.665	3294
901.784	3298
901.904	3245
902.023	3123
902.141	3020
902.26	2956
902.379	3131
902.498	3058
902.617	3058
902.735	3218
902.854	3207
902.973	3157
903.091	3058
903.21	3104
903.328	3150
903.446	3089
903.565	3108
903.683	3157
903.801	3127
903.919	3241
904.038	3317
904.156	3154
904.274	3260
904.392	3241
904.51	3279
904.627	3317
904.745	3466
904.863	3488
904.981	3249
905.098	3150
905.216	3203
905.334	3294
905.451	3283
905.569	3287
905.686	3397
905.803	3401
905.921	3268
906.038	3447
906.155	3340
906.272	3264
906.389	3359
906.506	3226
906.623	3275
906.74	3291
906.857	3218
906.974	3268
907.091	3473
907.208	3553
907.324	3481
907.441	3363
907.557	3203
907.674	3222
907.79	3214
907.907	3245
908.023	3374
908.139	3363
908.256	3329
908.372	3355
908.488	3382
908.604	3268
908.72	3268
908.836	3253
908.952	3264
909.068	3329
909.184	3507
909.3	3370
909.415	3485
909.531	3469
909.647	3291
909.762	3306
909.878	3241
909.993	3393
910.108	3370
910.224	3374
910.339	3443
910.454	3355
910.57	3245
910.685	3237
910.8	3580
910.915	3534
911.03	3458
911.145	3275
911.259	3279
911.374	3332
911.489	3264
911.604	3188
911.718	3104
911.833	3131
911.947	3051
912.062	2994
912.176	3138
912.291	3169
912.405	3161
912.519	3435
912.633	3519
912.748	3298
912.862	3272
912.976	3176
913.09	3058
913.204	3150
913.318	3203
913.431	3351
913.545	3348
913.659	3420
913.772	3283
913.886	3226
914	3192
914.113	3370
914.226	3450
914.34	3378
914.453	3207
914.566	3401
914.68	3336
914.793	3317
914.906	3142
915.019	3104
915.132	3093
915.245	3146
915.358	3192
915.47	3245
915.583	3260
915.696	3260
915.809	3386
915.921	3450
916.034	3268
916.146	3272
916.259	3226
916.371	3401
916.483	3378
916.595	3294
916.708	3306
916.82	3340
916.932	3378
917.044	3302
917.156	3336
917.268	3268
917.38	3291
917.491	3287
917.603	3344
917.715	3416
917.826	3443
917.938	3363
918.049	3287
918.161	3424
918.272	3561
918.384	3564
918.495	3488
918.606	3294
918.717	3233
918.828	3397
918.939	3450
919.05	3256
919.161	3332
919.272	3188
919.383	3283
919.494	3458
919.604	3644
919.715	3454
919.826	3401
919.936	3454
920.047	3545
920.157	3572
920.267	3781
920.378	3595
920.488	3553
920.598	3781
920.708	3960
920.818	3865
920.928	3838
921.038	4032
921.148	3994
921.258	3717
921.368	3637
921.477	3591
921.587	3545
921.697	3428
921.806	3606
921.916	3500
922.025	3363
922.134	3355
922.244	3310
922.353	3435
922.462	3298
922.571	3226
922.68	3089
922.789	3062
922.898	3116
923.007	3100
923.116	3211
923.224	3192
923.333	3207
923.442	3089
923.55	3036
923.659	3123
923.767	3245
923.876	3100
923.984	3253
924.092	3104
924.201	3192
924.309	3245
924.417	3237
924.525	3218
924.633	3211
924.741	4177
924.849	3062
924.956	3245
925.064	3070
925.172	3047
925.279	3104
925.387	3207
925.494	3154
925.602	3382
925.709	3332
925.816	3211
925.924	3291
926.031	3401
926.138	3363
926.245	3321
926.352	3222
926.459	3401
926.566	3477
926.673	3329
926.779	3241
926.886	3222
926.993	3154
927.099	3127
927.206	3097
927.312	3077
927.419	3207
927.525	3203
927.631	3302
927.737	3135
927.843	3157
927.95	3001
928.056	3138
928.162	3184
928.267	3233
928.373	3755
928.479	3321
928.585	3055
928.69	3192
928.796	3249
928.901	3203
929.007	3013
929.112	3188
929.218	3184
929.323	3142
929.428	3138
929.533	3302
929.638	3127
929.743	3180
929.848	3275
929.953	3192
930.058	3157
930.163	3009
930.267	3074
930.372	3199
930.477	3055
930.581	3306
930.685	3161
930.79	3081
930.894	3100
930.998	3112
931.103	3256
931.207	2986
931.311	2975
931.415	2944
931.519	2762
931.623	2777
