Data from test_V78500241_180.txt Node
Date: Fri Mar 25 16:16:27 CST 2022
User: usil
Spectrometer: V785-0024
Trigger mode: 0
Integration Time (sec): 4.000000E-1
Scans to average: 1
Nonlinearity correction enabled: false
Boxcar width: 0
Storing dark spectrum: false
XAxis mode: Wavelengths
Number of Pixels in Spectrum: 1024
>>>>>Begin Spectral Data<<<<<
801.071	2944
801.214	3013
801.356	2925
801.499	2925
801.641	2914
801.783	3005
801.926	3097
802.068	3058
802.211	3055
802.353	3097
802.496	3005
802.638	3055
802.78	3112
802.923	3131
803.065	3036
803.208	2941
803.35	2971
803.492	2982
803.635	2952
803.777	2800
803.919	2914
804.061	3256
804.204	2982
804.346	2941
804.488	2899
804.63	3047
804.773	2914
804.915	2925
805.057	3135
805.199	2944
805.341	3013
805.483	3077
805.626	3077
805.768	2998
805.91	3138
806.052	3131
806.194	3070
806.336	3245
806.478	3085
806.62	2979
806.762	3051
806.904	3089
807.046	3214
807.188	3009
807.33	2925
807.472	3020
807.614	2944
807.756	3032
807.898	2979
808.04	2941
808.182	2994
808.324	2979
808.465	2944
808.607	2918
808.749	2811
808.891	2910
809.033	3032
809.174	3043
809.316	2895
809.458	2922
809.6	2792
809.741	2804
809.883	2811
810.025	2891
810.166	2864
810.308	2914
810.45	2883
810.591	2796
810.733	2838
810.875	2902
811.016	2785
811.158	2838
811.299	2838
811.441	2982
811.582	2929
811.724	2868
811.865	2876
812.007	2922
812.148	2899
812.29	2906
812.431	2933
812.573	2975
812.714	3005
812.855	3066
812.997	3081
813.138	3157
813.279	3074
813.421	3036
813.562	3013
813.703	2906
813.845	2941
813.986	2838
814.127	2769
814.268	2826
814.41	2883
814.551	2853
814.692	2887
814.833	2868
814.974	2933
815.115	3020
815.256	2876
815.397	2819
815.539	2891
815.68	2807
815.821	2845
815.962	2944
816.103	2952
816.244	2910
816.385	2883
816.526	3013
816.666	2982
816.807	2788
816.948	2922
817.089	2933
817.23	2838
817.371	2853
817.512	2845
817.653	2857
817.793	2849
817.934	2941
818.075	3001
818.216	3017
818.356	3051
818.497	2910
818.638	2853
818.778	2838
818.919	2807
819.06	2838
819.2	2937
819.341	2819
819.481	2853
819.622	2922
819.762	3112
819.903	3062
820.043	2929
820.184	2937
820.324	2948
820.465	3062
820.605	3055
820.746	3051
820.886	2967
821.026	3161
821.167	3169
821.307	3256
821.447	3367
821.588	3237
821.728	3253
821.868	3253
822.008	3123
822.149	3237
822.289	3272
822.429	3089
822.569	3123
822.709	3230
822.849	3074
822.99	3123
823.13	3180
823.27	3260
823.41	3146
823.55	3184
823.69	3173
823.83	3195
823.97	3104
824.11	3017
824.25	3051
824.389	3066
824.529	3138
824.669	3135
824.809	3173
824.949	3294
825.089	3241
825.228	3165
825.368	3051
825.508	2990
825.648	3009
825.787	3085
825.927	3089
826.067	2975
826.206	2967
826.346	3043
826.485	3150
826.625	3131
826.765	3294
826.904	3241
827.044	3043
827.183	2982
827.323	2895
827.462	3028
827.601	2956
827.741	2952
827.88	2975
828.02	2906
828.159	2982
828.298	3051
828.437	3127
828.577	3097
828.716	3275
828.855	3138
828.994	2918
829.134	2933
829.273	2918
829.412	2952
829.551	2857
829.69	2925
829.829	3032
829.968	3135
830.107	3043
830.246	3081
830.385	2937
830.524	2880
830.663	2868
830.802	2754
830.941	2712
831.08	2689
831.219	2743
831.357	2788
831.496	2929
831.635	2731
831.774	2674
831.913	2670
832.051	2564
832.19	2613
832.329	2716
832.467	2583
832.606	2522
832.744	2632
832.883	2602
833.022	2617
833.16	2670
833.299	2712
833.437	2708
833.576	2705
833.714	2739
833.852	2743
833.991	2762
834.129	2853
834.267	2864
834.406	2815
834.544	2891
834.682	2861
834.821	2910
834.959	3112
835.097	2937
835.235	3058
835.373	3051
835.511	3047
835.65	2944
835.788	2952
835.926	2883
836.064	2838
836.202	2849
836.34	3127
836.478	3184
836.615	3047
836.753	3176
836.891	3230
837.029	3173
837.167	3123
837.305	3089
837.443	3055
837.58	3024
837.718	3180
837.856	3066
837.993	3058
838.131	3142
838.269	3097
838.406	3085
838.544	3070
838.681	2952
838.819	2956
838.956	2857
839.094	2830
839.231	2933
839.369	3066
839.506	3401
839.643	3249
839.781	3047
839.918	2941
840.055	3074
840.193	3055
840.33	3062
840.467	3138
840.604	3192
840.742	3416
840.879	3055
841.016	3051
841.153	3184
841.29	3348
841.427	3329
841.564	3302
841.701	3363
841.838	3218
841.975	3245
842.112	3222
842.249	3123
842.385	3089
842.522	3260
842.659	3131
842.796	3116
842.933	3154
843.069	3066
843.206	3070
843.343	3211
843.479	3116
843.616	3142
843.752	2937
843.889	2880
844.025	3131
844.162	2902
844.298	3150
844.435	2967
844.571	2960
844.708	3077
844.844	3188
844.98	3256
845.117	3218
845.253	3085
845.389	3020
845.525	3142
845.661	3093
845.798	3051
845.934	3150
846.07	3055
846.206	3256
846.342	3348
846.478	3249
846.614	3097
846.75	3036
846.886	3058
847.022	3249
847.158	3154
847.294	3214
847.429	3253
847.565	3218
847.701	3507
847.837	3036
847.972	3028
848.108	3176
848.244	3176
848.379	2982
848.515	2941
848.65	2944
848.786	3005
848.921	3028
849.057	3131
849.192	3176
849.328	3089
849.463	3176
849.598	3089
849.734	3051
849.869	3009
850.004	2956
850.14	2990
850.275	2925
850.41	2853
850.545	2906
850.68	2933
850.815	2975
850.95	2998
851.085	3226
851.22	3150
851.355	3070
851.49	3013
851.625	3009
851.76	3020
851.895	2960
852.03	2975
852.165	3020
852.299	3135
852.434	3195
852.569	3180
852.703	3214
852.838	3222
852.973	3340
853.107	3325
853.242	3138
853.376	3104
853.511	3047
853.645	3047
853.78	3256
853.914	3150
854.048	3123
854.183	3108
854.317	3150
854.451	3294
854.585	3127
854.72	3116
854.854	3222
854.988	3070
855.122	3066
855.256	2986
855.39	3150
855.524	3233
855.658	3222
855.792	3176
855.926	3214
856.06	3279
856.194	3272
856.327	3184
856.461	3089
856.595	3077
856.729	3123
856.862	3195
856.996	3188
857.13	3203
857.263	3260
857.397	3298
857.53	3119
857.664	3211
857.797	3233
857.931	3237
858.064	3146
858.197	3188
858.331	3142
858.464	3066
858.597	3036
858.731	3146
858.864	3119
858.997	3081
859.13	3165
859.263	3211
859.396	3195
859.529	3097
859.662	3097
859.795	3055
859.928	3161
860.061	3291
860.194	3321
860.327	3123
860.46	3112
860.592	3268
860.725	3268
860.858	3253
860.99	3154
861.123	3089
861.256	3066
861.388	3161
861.521	3804
861.653	3020
861.786	3005
861.918	3020
862.05	3097
862.183	3142
862.315	3150
862.447	3199
862.58	3077
862.712	3005
862.844	2899
862.976	3058
863.108	3017
863.24	3325
863.372	2891
863.504	2967
863.636	2960
863.768	3017
863.9	2994
864.032	2925
864.164	2952
864.296	3013
864.428	3108
864.559	3108
864.691	3074
864.823	3077
864.954	3039
865.086	3077
865.217	3017
865.349	2933
865.48	3024
865.612	3047
865.743	3150
865.875	3043
866.006	2967
866.137	2979
866.269	2967
866.4	2960
866.531	2910
866.662	2910
866.793	2895
866.924	2891
867.055	3009
867.186	2982
867.317	2918
867.448	2872
867.579	2883
867.71	2883
867.841	2853
867.972	2918
868.103	2929
868.233	2902
868.364	2914
868.495	2902
868.625	3142
868.756	3230
868.886	2967
869.017	3051
869.147	3169
869.278	3199
869.408	3051
869.539	3093
869.669	3104
869.799	3077
869.929	3184
870.06	3081
870.19	3344
870.32	3310
870.45	3336
870.58	3370
870.71	3485
870.84	3466
870.97	3298
871.1	3233
871.23	3511
871.36	3523
871.489	3367
871.619	3378
871.749	3424
871.879	3492
872.008	3469
872.138	3386
872.267	3260
872.397	3188
872.526	3081
872.656	3017
872.785	3161
872.915	3275
873.044	3332
873.173	3233
873.303	3256
873.432	3233
873.561	3237
873.69	3157
873.819	3146
873.948	3199
874.077	3142
874.206	3047
874.335	3138
874.464	3241
874.593	3336
874.722	3272
874.851	3409
874.979	3348
875.108	3313
875.237	3222
875.365	3188
875.494	3165
875.623	3237
875.751	3112
875.88	3116
876.008	3142
876.136	3245
876.265	3367
876.393	3538
876.521	3431
876.65	3397
876.778	3409
876.906	3291
877.034	3245
877.162	3211
877.29	3169
877.418	3222
877.546	3272
877.674	3253
877.802	3253
877.93	3264
878.058	3157
878.185	3116
878.313	3214
878.441	3207
878.568	3077
878.696	3165
878.824	3260
878.951	3321
879.079	3473
879.206	3591
879.333	3466
879.461	3367
879.588	3405
879.715	3488
879.842	3644
879.97	3401
880.097	3173
880.224	3119
880.351	3207
880.478	3245
880.605	3173
880.732	3226
880.859	3496
880.986	3310
881.112	3329
881.239	3207
881.366	3108
881.493	3043
881.619	3055
881.746	3089
881.872	3119
881.999	3135
882.125	3165
882.252	3241
882.378	3336
882.505	3435
882.631	3287
882.757	3169
882.883	3207
883.01	3233
883.136	3169
883.262	3097
883.388	3112
883.514	3306
883.64	3363
883.766	3317
883.892	3173
884.018	3218
884.143	3435
884.269	3538
884.395	3222
884.52	3180
884.646	3195
884.772	3154
884.897	3104
885.023	3222
885.148	3355
885.274	3428
885.399	3363
885.524	3298
885.65	3253
885.775	3355
885.9	3272
886.025	3439
886.15	3355
886.275	3302
886.4	3256
886.525	3336
886.65	3306
886.775	3310
886.9	3523
887.025	3591
887.149	3443
887.274	3264
887.399	3211
887.523	3211
887.648	3207
887.773	3199
887.897	3420
888.021	3450
888.146	3332
888.27	3469
888.395	3572
888.519	3450
888.643	3462
888.767	3428
888.891	3313
889.015	3279
889.139	3313
889.263	3260
889.387	3439
889.511	3561
889.635	3462
889.759	3317
889.883	3294
890.006	3393
890.13	3504
890.254	3272
890.377	3336
890.501	3233
890.624	3188
890.748	3317
890.871	3165
890.995	3123
891.118	3089
891.241	3214
891.364	3237
891.488	3317
891.611	3214
891.734	3230
891.857	3317
891.98	3291
892.103	3336
892.226	3287
892.349	3203
892.471	3150
892.594	3253
892.717	3294
892.839	3291
892.962	3287
893.085	3386
893.207	3306
893.33	3157
893.452	3214
893.575	3344
893.697	3253
893.819	3458
893.941	3488
894.064	3481
894.186	3302
894.308	3332
894.43	3450
894.552	3545
894.674	3473
894.796	3291
894.918	3325
895.04	3298
895.161	3439
895.283	3405
895.405	3325
895.526	3367
895.648	3447
895.769	3428
895.891	3481
896.012	3515
896.134	3511
896.255	3435
896.376	3420
896.498	3397
896.619	3462
896.74	3378
896.861	3416
896.982	3740
897.103	3937
897.224	3591
897.345	3515
897.466	3504
897.587	3523
897.708	3660
897.828	3595
897.949	3454
898.07	3340
898.19	3424
898.311	3637
898.431	3447
898.552	3538
898.672	3595
898.792	3580
898.913	3534
899.033	3431
899.153	3317
899.273	3230
899.393	3279
899.513	3272
899.633	3329
899.753	3329
899.873	3317
899.993	3382
900.113	3405
900.232	3363
900.352	3363
900.472	3306
900.591	3233
900.711	3302
900.83	3256
900.95	3424
901.069	3530
901.189	3389
901.308	3253
901.427	3146
901.546	3211
901.665	3317
901.784	3344
901.904	3218
902.023	3195
902.141	3039
902.26	3009
902.379	3142
902.498	3097
902.617	3058
902.735	3211
902.854	3245
902.973	3173
903.091	3051
903.21	3074
903.328	3154
903.446	3089
903.565	3127
903.683	3161
903.801	3127
903.919	3214
904.038	3317
904.156	3157
904.274	3287
904.392	3279
904.51	3332
904.627	3306
904.745	3443
904.863	3504
904.981	3253
905.098	3188
905.216	3253
905.334	3321
905.451	3310
905.569	3336
905.686	3428
905.803	3496
905.921	3313
906.038	3420
906.155	3416
906.272	3279
906.389	3340
906.506	3249
906.623	3275
906.74	3268
906.857	3188
906.974	3275
907.091	3477
907.208	3553
907.324	3473
907.441	3431
907.557	3222
907.674	3260
907.79	3245
907.907	3310
908.023	3359
908.139	3359
908.256	3370
908.372	3367
908.488	3355
908.604	3291
908.72	3260
908.836	3291
908.952	3355
909.068	3348
909.184	3473
909.3	3393
909.415	3553
909.531	3485
909.647	3294
909.762	3298
909.878	3237
909.993	3382
910.108	3367
910.224	3344
910.339	3424
910.454	3317
910.57	3325
910.685	3283
910.8	3603
910.915	3580
911.03	3439
911.145	3310
911.259	3298
911.374	3340
911.489	3287
911.604	3256
911.718	3131
911.833	3176
911.947	3047
912.062	3009
912.176	3195
912.291	3222
912.405	3260
912.519	3447
912.633	3492
912.748	3317
912.862	3298
912.976	3195
913.09	3047
913.204	3157
913.318	3283
913.431	3370
913.545	3340
913.659	3412
913.772	3351
913.886	3226
914	3237
914.113	3336
914.226	3424
914.34	3359
914.453	3222
914.566	3428
914.68	3298
914.793	3355
914.906	3165
915.019	3154
915.132	3112
915.245	3188
915.358	3230
915.47	3237
915.583	3310
915.696	3325
915.809	3439
915.921	3439
916.034	3226
916.146	3279
916.259	3256
916.371	3405
916.483	3382
916.595	3302
916.708	3359
916.82	3359
916.932	3310
917.044	3363
917.156	3340
917.268	3283
917.38	3294
917.491	3332
917.603	3344
917.715	3462
917.826	3424
917.938	3412
918.049	3249
918.161	3454
918.272	3568
918.384	3568
918.495	3523
918.606	3367
918.717	3298
918.828	3431
918.939	3412
919.05	3294
919.161	3424
919.272	3230
919.383	3249
919.494	3523
919.604	3717
919.715	3507
919.826	3462
919.936	3504
920.047	3610
920.157	3572
920.267	3755
920.378	3641
920.488	3584
920.598	3774
920.708	3945
920.818	3873
920.928	3869
921.038	4059
921.148	4010
921.258	3724
921.368	3652
921.477	3591
921.587	3591
921.697	3447
921.806	3656
921.916	3504
922.025	3378
922.134	3370
922.244	3340
922.353	3428
922.462	3256
922.571	3237
922.68	3169
922.789	3047
922.898	3192
923.007	3116
923.116	3218
923.224	3161
923.333	3192
923.442	3100
923.55	3089
923.659	3142
923.767	3230
923.876	3104
923.984	3279
924.092	3123
924.201	3237
924.309	3233
924.417	3256
924.525	3218
924.633	3237
924.741	4169
924.849	3085
924.956	3272
925.064	3100
925.172	3036
925.279	3097
925.387	3230
925.494	3195
925.602	3348
925.709	3378
925.816	3192
925.924	3291
926.031	3412
926.138	3374
926.245	3363
926.352	3275
926.459	3405
926.566	3473
926.673	3313
926.779	3264
926.886	3253
926.993	3169
927.099	3135
927.206	3135
927.312	3138
927.419	3241
927.525	3207
927.631	3306
927.737	3131
927.843	3131
927.95	3017
928.056	3108
928.162	3211
928.267	3218
928.373	3930
928.479	3329
928.585	3093
928.69	3207
928.796	3279
928.901	3214
929.007	3043
929.112	3176
929.218	3188
929.323	3195
929.428	3157
929.533	3325
929.638	3131
929.743	3195
929.848	3283
929.953	3218
930.058	3131
930.163	3005
930.267	3051
930.372	3226
930.477	3085
930.581	3359
930.685	3211
930.79	3036
930.894	3138
930.998	3097
931.103	3287
931.207	2994
931.311	2952
931.415	2918
931.519	2807
931.623	2826
