Data from test_V78500241_1048.txt Node
Date: Fri Mar 25 16:22:27 CST 2022
User: usil
Spectrometer: V785-0024
Trigger mode: 0
Integration Time (sec): 4.000000E-1
Scans to average: 1
Nonlinearity correction enabled: false
Boxcar width: 0
Storing dark spectrum: false
XAxis mode: Wavelengths
Number of Pixels in Spectrum: 1024
>>>>>Begin Spectral Data<<<<<
801.071	2918
801.214	2967
801.356	2914
801.499	2956
801.641	2933
801.783	2967
801.926	3074
802.068	3032
802.211	3024
802.353	3085
802.496	3009
802.638	3058
802.78	3055
802.923	3077
803.065	3055
803.208	2925
803.35	2967
803.492	2975
803.635	2963
803.777	2815
803.919	2853
804.061	3233
804.204	2979
804.346	2944
804.488	2857
804.63	2994
804.773	2891
804.915	2929
805.057	3081
805.199	2990
805.341	2979
805.483	3047
805.626	3055
805.768	2986
805.91	3104
806.052	3154
806.194	3036
806.336	3313
806.478	3020
806.62	2963
806.762	2963
806.904	3058
807.046	3199
807.188	3055
807.33	2933
807.472	3005
807.614	2929
807.756	3009
807.898	2937
808.04	2891
808.182	2982
808.324	2963
808.465	2899
808.607	2887
808.749	2804
808.891	2853
809.033	3024
809.174	2982
809.316	2914
809.458	2910
809.6	2750
809.741	2766
809.883	2807
810.025	2906
810.166	2857
810.308	2861
810.45	2861
810.591	2804
810.733	2788
810.875	2853
811.016	2811
811.158	2735
811.299	2861
811.441	2956
811.582	2914
811.724	2853
811.865	2853
812.007	2941
812.148	2906
812.29	2880
812.431	2902
812.573	2925
812.714	2960
812.855	3024
812.997	3058
813.138	3123
813.279	3005
813.421	2982
813.562	2944
813.703	2899
813.845	2891
813.986	2792
814.127	2739
814.268	2853
814.41	2838
814.551	2838
814.692	2895
814.833	2807
814.974	2952
815.115	2952
815.256	2842
815.397	2807
815.539	2868
815.68	2796
815.821	2792
815.962	2952
816.103	2948
816.244	2922
816.385	2880
816.526	2982
816.666	2971
816.807	2750
816.948	2906
817.089	2933
817.23	2899
817.371	2785
817.512	2807
817.653	2853
817.793	2830
817.934	2899
818.075	3013
818.216	2990
818.356	3036
818.497	2910
818.638	2815
818.778	2849
818.919	2800
819.06	2773
819.2	2880
819.341	2785
819.481	2826
819.622	2944
819.762	3119
819.903	3036
820.043	2948
820.184	2891
820.324	2899
820.465	3062
820.605	3058
820.746	3036
820.886	2963
821.026	3127
821.167	3161
821.307	3302
821.447	3332
821.588	3253
821.728	3195
821.868	3165
822.008	3100
822.149	3226
822.289	3237
822.429	3119
822.569	3112
822.709	3173
822.849	3017
822.99	3104
823.13	3173
823.27	3199
823.41	3119
823.55	3154
823.69	3161
823.83	3203
823.97	3070
824.11	3020
824.25	3005
824.389	3089
824.529	3119
824.669	3089
824.809	3222
824.949	3272
825.089	3211
825.228	3195
825.368	3013
825.508	2952
825.648	2963
825.787	3043
825.927	3062
826.067	2994
826.206	2998
826.346	3055
826.485	3081
826.625	3138
826.765	3294
826.904	3211
827.044	3028
827.183	2910
827.323	2868
827.462	3001
827.601	2937
827.741	2929
827.88	2933
828.02	2845
828.159	3032
828.298	3077
828.437	3119
828.577	3066
828.716	3253
828.855	3097
828.994	2952
829.134	2891
829.273	2933
829.412	2887
829.551	2906
829.69	2895
829.829	3001
829.968	3112
830.107	3058
830.246	3028
830.385	2922
830.524	2906
830.663	2804
830.802	2720
830.941	2678
831.08	2659
831.219	2773
831.357	2781
831.496	2944
831.635	2712
831.774	2682
831.913	2659
832.051	2590
832.19	2590
832.329	2701
832.467	2530
832.606	2499
832.744	2617
832.883	2587
833.022	2579
833.16	2670
833.299	2727
833.437	2686
833.576	2724
833.714	2743
833.852	2754
833.991	2781
834.129	2830
834.267	2826
834.406	2819
834.544	2872
834.682	2906
834.821	2887
834.959	3093
835.097	2906
835.235	3089
835.373	3020
835.511	2998
835.65	2967
835.788	3001
835.926	2868
836.064	2830
836.202	2887
836.34	3100
836.478	3135
836.615	3036
836.753	3135
836.891	3203
837.029	3154
837.167	3146
837.305	3116
837.443	3039
837.58	2990
837.718	3146
837.856	3112
837.993	3058
838.131	3100
838.269	3070
838.406	3097
838.544	3085
838.681	2971
838.819	2956
838.956	2830
839.094	2823
839.231	2902
839.369	3032
839.506	3370
839.643	3165
839.781	3032
839.918	2979
840.055	3036
840.193	3036
840.33	3070
840.467	3100
840.604	3146
840.742	3420
840.879	3058
841.016	3066
841.153	3097
841.29	3359
841.427	3321
841.564	3283
841.701	3329
841.838	3192
841.975	3199
842.112	3195
842.249	3066
842.385	3039
842.522	3226
842.659	3119
842.796	3093
842.933	3093
843.069	3066
843.206	3055
843.343	3184
843.479	3085
843.616	3146
843.752	2883
843.889	2895
844.025	3089
844.162	2849
844.298	3127
844.435	2952
844.571	2933
844.708	3062
844.844	3203
844.98	3245
845.117	3195
845.253	3036
845.389	2963
845.525	3100
845.661	3093
845.798	3062
845.934	3123
846.07	3074
846.206	3195
846.342	3329
846.478	3241
846.614	3112
846.75	3077
846.886	3017
847.022	3249
847.158	3131
847.294	3203
847.429	3253
847.565	3188
847.701	3507
847.837	3055
847.972	3001
848.108	3154
848.244	3165
848.379	2990
848.515	2944
848.65	2918
848.786	3020
848.921	2982
849.057	3116
849.192	3123
849.328	3066
849.463	3127
849.598	3043
849.734	3055
849.869	2960
850.004	2902
850.14	2979
850.275	2910
850.41	2838
850.545	2899
850.68	2914
850.815	2944
850.95	2948
851.085	3192
851.22	3138
851.355	3036
851.49	2971
851.625	2960
851.76	3013
851.895	2948
852.03	2906
852.165	3036
852.299	3150
852.434	3192
852.569	3146
852.703	3146
852.838	3253
852.973	3370
853.107	3363
853.242	3154
853.376	3104
853.511	2979
853.645	3036
853.78	3218
853.914	3108
854.048	3138
854.183	3093
854.317	3138
854.451	3260
854.585	3108
854.72	3112
854.854	3203
854.988	3043
855.122	3112
855.256	3001
855.39	3108
855.524	3218
855.658	3184
855.792	3154
855.926	3165
856.06	3192
856.194	3264
856.327	3146
856.461	3043
856.595	3123
856.729	3070
856.862	3192
856.996	3154
857.13	3211
857.263	3245
857.397	3272
857.53	3100
857.664	3207
857.797	3245
857.931	3245
858.064	3165
858.197	3192
858.331	3161
858.464	3058
858.597	3017
858.731	3131
858.864	3116
858.997	3093
859.13	3161
859.263	3165
859.396	3199
859.529	3104
859.662	3066
859.795	3017
859.928	3157
860.061	3260
860.194	3294
860.327	3112
860.46	3081
860.592	3245
860.725	3249
860.858	3245
860.99	3085
861.123	3081
861.256	3058
861.388	3165
861.521	3793
861.653	3036
861.786	3024
861.918	2986
862.05	3058
862.183	3093
862.315	3154
862.447	3188
862.58	3039
862.712	2967
862.844	2864
862.976	3001
863.108	2998
863.24	3454
863.372	2857
863.504	2963
863.636	2952
863.768	3005
863.9	2967
864.032	2891
864.164	2933
864.296	3013
864.428	3081
864.559	3104
864.691	3077
864.823	3062
864.954	3051
865.086	3055
865.217	2994
865.349	2963
865.48	2975
865.612	3009
865.743	3131
865.875	2967
866.006	2937
866.137	2994
866.269	2906
866.4	2922
866.531	2887
866.662	2868
866.793	2868
866.924	2918
867.055	2979
867.186	2941
867.317	2872
867.448	2842
867.579	2849
867.71	2849
867.841	2792
867.972	2895
868.103	2891
868.233	2899
868.364	2895
868.495	2925
868.625	3062
868.756	3154
868.886	2952
869.017	2998
869.147	3192
869.278	3146
869.408	3062
869.539	3066
869.669	3123
869.799	3062
869.929	3119
870.06	3100
870.19	3298
870.32	3294
870.45	3294
870.58	3363
870.71	3458
870.84	3466
870.97	3310
871.1	3245
871.23	3466
871.36	3401
871.489	3359
871.619	3359
871.749	3409
871.879	3424
872.008	3454
872.138	3336
872.267	3260
872.397	3157
872.526	3081
872.656	3028
872.785	3119
872.915	3199
873.044	3275
873.173	3222
873.303	3230
873.432	3222
873.561	3226
873.69	3146
873.819	3127
873.948	3207
874.077	3135
874.206	3024
874.335	3100
874.464	3184
874.593	3355
874.722	3241
874.851	3393
874.979	3321
875.108	3294
875.237	3188
875.365	3173
875.494	3180
875.623	3218
875.751	3074
875.88	3123
876.008	3192
876.136	3226
876.265	3401
876.393	3481
876.521	3386
876.65	3405
876.778	3348
876.906	3214
877.034	3245
877.162	3192
877.29	3165
877.418	3241
877.546	3249
877.674	3287
877.802	3199
877.93	3180
878.058	3157
878.185	3093
878.313	3211
878.441	3237
878.568	3093
878.696	3154
878.824	3226
878.951	3310
879.079	3416
879.206	3610
879.333	3443
879.461	3325
879.588	3378
879.715	3492
879.842	3614
879.97	3420
880.097	3154
880.224	3142
880.351	3195
880.478	3203
880.605	3207
880.732	3192
880.859	3542
880.986	3298
881.112	3325
881.239	3218
881.366	3097
881.493	3036
881.619	3024
881.746	3017
881.872	3123
881.999	3116
882.125	3108
882.252	3203
882.378	3268
882.505	3420
882.631	3306
882.757	3135
882.883	3199
883.01	3241
883.136	3176
883.262	3089
883.388	3100
883.514	3351
883.64	3359
883.766	3298
883.892	3199
884.018	3226
884.143	3466
884.269	3526
884.395	3192
884.52	3184
884.646	3211
884.772	3131
884.897	3089
885.023	3184
885.148	3344
885.274	3393
885.399	3370
885.524	3237
885.65	3256
885.775	3310
885.9	3283
886.025	3431
886.15	3367
886.275	3302
886.4	3233
886.525	3298
886.65	3272
886.775	3237
886.9	3526
887.025	3641
887.149	3454
887.274	3226
887.399	3203
887.523	3188
887.648	3169
887.773	3218
887.897	3393
888.021	3389
888.146	3279
888.27	3435
888.395	3530
888.519	3409
888.643	3431
888.767	3450
888.891	3340
889.015	3241
889.139	3329
889.263	3260
889.387	3447
889.511	3515
889.635	3454
889.759	3260
889.883	3272
890.006	3393
890.13	3458
890.254	3256
890.377	3348
890.501	3195
890.624	3142
890.748	3310
890.871	3161
890.995	3089
891.118	3058
891.241	3192
891.364	3233
891.488	3359
891.611	3169
891.734	3211
891.857	3310
891.98	3249
892.103	3336
892.226	3294
892.349	3211
892.471	3119
892.594	3256
892.717	3279
892.839	3306
892.962	3283
893.085	3336
893.207	3279
893.33	3165
893.452	3203
893.575	3363
893.697	3245
893.819	3481
893.941	3507
894.064	3435
894.186	3253
894.308	3272
894.43	3428
894.552	3530
894.674	3454
894.796	3241
894.918	3313
895.04	3268
895.161	3401
895.283	3386
895.405	3321
895.526	3393
895.648	3439
895.769	3409
895.891	3469
896.012	3466
896.134	3507
896.255	3378
896.376	3370
896.498	3401
896.619	3393
896.74	3397
896.861	3336
896.982	3660
897.103	3838
897.224	3603
897.345	3488
897.466	3393
897.587	3500
897.708	3610
897.828	3557
897.949	3454
898.07	3310
898.19	3409
898.311	3641
898.431	3447
898.552	3542
898.672	3580
898.792	3580
898.913	3553
899.033	3382
899.153	3298
899.273	3233
899.393	3249
899.513	3298
899.633	3336
899.753	3310
899.873	3298
899.993	3378
900.113	3359
900.232	3374
900.352	3317
900.472	3294
900.591	3214
900.711	3249
900.83	3233
900.95	3420
901.069	3458
901.189	3340
901.308	3188
901.427	3150
901.546	3176
901.665	3310
901.784	3351
901.904	3195
902.023	3138
902.141	3020
902.26	3024
902.379	3138
902.498	3070
902.617	3055
902.735	3173
902.854	3192
902.973	3169
903.091	3047
903.21	3074
903.328	3146
903.446	3104
903.565	3131
903.683	3192
903.801	3123
903.919	3241
904.038	3279
904.156	3169
904.274	3294
904.392	3302
904.51	3313
904.627	3359
904.745	3424
904.863	3496
904.981	3264
905.098	3161
905.216	3207
905.334	3298
905.451	3294
905.569	3275
905.686	3416
905.803	3397
905.921	3256
906.038	3374
906.155	3336
906.272	3275
906.389	3332
906.506	3245
906.623	3268
906.74	3264
906.857	3173
906.974	3260
907.091	3469
907.208	3549
907.324	3466
907.441	3389
907.557	3233
907.674	3256
907.79	3211
907.907	3279
908.023	3386
908.139	3317
908.256	3325
908.372	3355
908.488	3382
908.604	3283
908.72	3207
908.836	3268
908.952	3272
909.068	3306
909.184	3485
909.3	3420
909.415	3481
909.531	3462
909.647	3287
909.762	3317
909.878	3302
909.993	3336
910.108	3348
910.224	3332
910.339	3409
910.454	3351
910.57	3268
910.685	3253
910.8	3568
910.915	3545
911.03	3431
911.145	3214
911.259	3275
911.374	3302
911.489	3245
911.604	3245
911.718	3116
911.833	3173
911.947	3009
912.062	2971
912.176	3188
912.291	3199
912.405	3203
912.519	3393
912.633	3439
912.748	3310
912.862	3245
912.976	3184
913.09	3047
913.204	3131
913.318	3226
913.431	3329
913.545	3340
913.659	3382
913.772	3351
913.886	3199
914	3195
914.113	3359
914.226	3424
914.34	3401
914.453	3218
914.566	3454
914.68	3268
914.793	3348
914.906	3108
915.019	3093
915.132	3058
915.245	3218
915.358	3233
915.47	3211
915.583	3222
915.696	3294
915.809	3389
915.921	3420
916.034	3253
916.146	3283
916.259	3214
916.371	3370
916.483	3386
916.595	3283
916.708	3351
916.82	3294
916.932	3363
917.044	3355
917.156	3332
917.268	3237
917.38	3283
917.491	3283
917.603	3370
917.715	3447
917.826	3454
917.938	3405
918.049	3275
918.161	3393
918.272	3561
918.384	3576
918.495	3462
918.606	3321
918.717	3291
918.828	3367
918.939	3409
919.05	3310
919.161	3409
919.272	3199
919.383	3279
919.494	3458
919.604	3671
919.715	3454
919.826	3393
919.936	3435
920.047	3618
920.157	3580
920.267	3766
920.378	3618
920.488	3572
920.598	3724
920.708	3945
920.818	3804
920.928	3899
921.038	4048
921.148	3956
921.258	3705
921.368	3599
921.477	3625
921.587	3542
921.697	3458
921.806	3576
921.916	3538
922.025	3370
922.134	3344
922.244	3329
922.353	3450
922.462	3207
922.571	3253
922.68	3093
922.789	3043
922.898	3112
923.007	3100
923.116	3169
923.224	3138
923.333	3207
923.442	3100
923.55	3104
923.659	3180
923.767	3233
923.876	3112
923.984	3218
924.092	3112
924.201	3207
924.309	3256
924.417	3253
924.525	3157
924.633	3241
924.741	4227
924.849	3055
924.956	3253
925.064	3074
925.172	3039
925.279	3097
925.387	3184
925.494	3195
925.602	3378
925.709	3302
925.816	3180
925.924	3302
926.031	3370
926.138	3325
926.245	3325
926.352	3245
926.459	3435
926.566	3511
926.673	3287
926.779	3237
926.886	3237
926.993	3157
927.099	3104
927.206	3131
927.312	3097
927.419	3195
927.525	3188
927.631	3256
927.737	3150
927.843	3100
927.95	3020
928.056	3131
928.162	3188
928.267	3253
928.373	3869
928.479	3325
928.585	3055
928.69	3195
928.796	3245
928.901	3176
929.007	3070
929.112	3203
929.218	3142
929.323	3142
929.428	3146
929.533	3302
929.638	3097
929.743	3146
929.848	3279
929.953	3192
930.058	3169
930.163	2986
930.267	3005
930.372	3203
930.477	3039
930.581	3325
930.685	3142
930.79	3062
930.894	3100
930.998	3062
931.103	3272
931.207	2960
931.311	2910
931.415	2929
931.519	2762
931.623	2788
