Data from test_V78500241_1331.txt Node
Date: Fri Mar 25 16:24:25 CST 2022
User: usil
Spectrometer: V785-0024
Trigger mode: 0
Integration Time (sec): 4.000000E-1
Scans to average: 1
Nonlinearity correction enabled: false
Boxcar width: 0
Storing dark spectrum: false
XAxis mode: Wavelengths
Number of Pixels in Spectrum: 1024
>>>>>Begin Spectral Data<<<<<
801.071	2868
801.214	2941
801.356	2845
801.499	2891
801.641	2872
801.783	2895
801.926	3017
802.068	2967
802.211	2963
802.353	3017
802.496	2944
802.638	3009
802.78	3001
802.923	3081
803.065	2967
803.208	2891
803.35	2902
803.492	2941
803.635	2933
803.777	2731
803.919	2849
804.061	3173
804.204	2960
804.346	2872
804.488	2834
804.63	3013
804.773	2834
804.915	2895
805.057	3093
805.199	2929
805.341	2952
805.483	3024
805.626	2971
805.768	2948
805.91	3093
806.052	3070
806.194	3001
806.336	3241
806.478	3032
806.62	2952
806.762	2967
806.904	3070
807.046	3138
807.188	2956
807.33	2922
807.472	2971
807.614	2899
807.756	2963
807.898	2929
808.04	2883
808.182	2982
808.324	2944
808.465	2880
808.607	2864
808.749	2800
808.891	2853
809.033	2960
809.174	2967
809.316	2902
809.458	2876
809.6	2758
809.741	2754
809.883	2781
810.025	2880
810.166	2864
810.308	2864
810.45	2819
810.591	2743
810.733	2800
810.875	2823
811.016	2796
811.158	2735
811.299	2804
811.441	2937
811.582	2864
811.724	2823
811.865	2823
812.007	2906
812.148	2861
812.29	2796
812.431	2910
812.573	2979
812.714	2982
812.855	3013
812.997	3028
813.138	3135
813.279	3013
813.421	2998
813.562	2941
813.703	2830
813.845	2899
813.986	2785
814.127	2720
814.268	2815
814.41	2857
814.551	2792
814.692	2906
814.833	2838
814.974	2876
815.115	2944
815.256	2800
815.397	2815
815.539	2880
815.68	2769
815.821	2804
815.962	2937
816.103	2933
816.244	2880
816.385	2868
816.526	2967
816.666	2902
816.807	2754
816.948	2895
817.089	2883
817.23	2834
817.371	2773
817.512	2769
817.653	2819
817.793	2819
817.934	2895
818.075	2979
818.216	2933
818.356	3032
818.497	2857
818.638	2785
818.778	2838
818.919	2788
819.06	2743
819.2	2906
819.341	2834
819.481	2800
819.622	2929
819.762	3081
819.903	3020
820.043	2933
820.184	2902
820.324	2906
820.465	3028
820.605	3028
820.746	3001
820.886	2895
821.026	3093
821.167	3161
821.307	3218
821.447	3291
821.588	3226
821.728	3184
821.868	3214
822.008	3077
822.149	3173
822.289	3218
822.429	3074
822.569	3039
822.709	3157
822.849	3017
822.99	3062
823.13	3150
823.27	3199
823.41	3074
823.55	3146
823.69	3150
823.83	3176
823.97	3077
824.11	3017
824.25	2994
824.389	3047
824.529	3123
824.669	3089
824.809	3214
824.949	3218
825.089	3176
825.228	3138
825.368	3001
825.508	2967
825.648	2952
825.787	3055
825.927	3009
826.067	2933
826.206	2941
826.346	3009
826.485	3036
826.625	3058
826.765	3237
826.904	3203
827.044	2975
827.183	2910
827.323	2861
827.462	2979
827.601	2944
827.741	2895
827.88	2918
828.02	2887
828.159	2960
828.298	3039
828.437	3100
828.577	3058
828.716	3207
828.855	3051
828.994	2895
829.134	2910
829.273	2914
829.412	2838
829.551	2868
829.69	2918
829.829	2975
829.968	3108
830.107	3001
830.246	3020
830.385	2876
830.524	2876
830.663	2842
830.802	2750
830.941	2663
831.08	2632
831.219	2735
831.357	2731
831.496	2990
831.635	2716
831.774	2663
831.913	2670
832.051	2541
832.19	2579
832.329	2708
832.467	2503
832.606	2442
832.744	2568
832.883	2552
833.022	2583
833.16	2629
833.299	2674
833.437	2682
833.576	2697
833.714	2701
833.852	2720
833.991	2731
834.129	2823
834.267	2823
834.406	2785
834.544	2849
834.682	2868
834.821	2838
834.959	3062
835.097	2895
835.235	3017
835.373	2960
835.511	2994
835.65	2925
835.788	2952
835.926	2830
836.064	2807
836.202	2838
836.34	3066
836.478	3131
836.615	3047
836.753	3119
836.891	3230
837.029	3154
837.167	3093
837.305	3058
837.443	3017
837.58	2967
837.718	3142
837.856	3093
837.993	3009
838.131	3119
838.269	3077
838.406	3066
838.544	3070
838.681	2944
838.819	2933
838.956	2834
839.094	2796
839.231	2887
839.369	3039
839.506	3393
839.643	3192
839.781	2986
839.918	2929
840.055	3062
840.193	3017
840.33	3039
840.467	3097
840.604	3157
840.742	3409
840.879	3001
841.016	3039
841.153	3123
841.29	3355
841.427	3279
841.564	3256
841.701	3287
841.838	3218
841.975	3176
842.112	3214
842.249	3043
842.385	3009
842.522	3260
842.659	3097
842.796	3055
842.933	3077
843.069	3070
843.206	3047
843.343	3146
843.479	3077
843.616	3169
843.752	2872
843.889	2918
844.025	3081
844.162	2876
844.298	3077
844.435	2937
844.571	2872
844.708	3089
844.844	3180
844.98	3253
845.117	3161
845.253	3058
845.389	3032
845.525	3081
845.661	3081
845.798	3009
845.934	3119
846.07	3062
846.206	3180
846.342	3321
846.478	3268
846.614	3062
846.75	3070
846.886	3032
847.022	3214
847.158	3116
847.294	3211
847.429	3260
847.565	3173
847.701	3488
847.837	3043
847.972	2994
848.108	3142
848.244	3135
848.379	3028
848.515	2948
848.65	2918
848.786	2952
848.921	2998
849.057	3077
849.192	3100
849.328	3058
849.463	3127
849.598	3070
849.734	3051
849.869	2933
850.004	2933
850.14	2963
850.275	2910
850.41	2823
850.545	2864
850.68	2902
850.815	2937
850.95	2952
851.085	3192
851.22	3085
851.355	3013
851.49	2948
851.625	3047
851.76	2975
851.895	2899
852.03	2899
852.165	3013
852.299	3123
852.434	3188
852.569	3135
852.703	3180
852.838	3245
852.973	3332
853.107	3351
853.242	3150
853.376	3104
853.511	2979
853.645	3013
853.78	3226
853.914	3089
854.048	3100
854.183	3047
854.317	3108
854.451	3253
854.585	3093
854.72	3093
854.854	3195
854.988	3020
855.122	3112
855.256	3013
855.39	3123
855.524	3233
855.658	3199
855.792	3154
855.926	3203
856.06	3199
856.194	3264
856.327	3161
856.461	3062
856.595	3074
856.729	3089
856.862	3188
856.996	3176
857.13	3192
857.263	3233
857.397	3256
857.53	3108
857.664	3165
857.797	3245
857.931	3283
858.064	3150
858.197	3207
858.331	3146
858.464	3093
858.597	2971
858.731	3085
858.864	3131
858.997	3097
859.13	3157
859.263	3135
859.396	3176
859.529	3058
859.662	3100
859.795	3051
859.928	3123
860.061	3249
860.194	3249
860.327	3123
860.46	3066
860.592	3218
860.725	3207
860.858	3237
860.99	3108
861.123	3020
861.256	3051
861.388	3131
861.521	3698
861.653	3020
861.786	3009
861.918	2979
862.05	3028
862.183	3116
862.315	3119
862.447	3199
862.58	3097
862.712	2975
862.844	2883
862.976	3039
863.108	2998
863.24	3275
863.372	2891
863.504	2982
863.636	2948
863.768	3032
863.9	2975
864.032	2895
864.164	2979
864.296	2986
864.428	3074
864.559	3097
864.691	3009
864.823	3024
864.954	3047
865.086	3066
865.217	2979
865.349	2952
865.48	2967
865.612	3043
865.743	3154
865.875	2971
866.006	2937
866.137	2967
866.269	2937
866.4	2899
866.531	2918
866.662	2891
866.793	2910
866.924	2929
867.055	2948
867.186	2941
867.317	2891
867.448	2849
867.579	2788
867.71	2811
867.841	2819
867.972	2910
868.103	2895
868.233	2910
868.364	2880
868.495	2891
868.625	3077
868.756	3142
868.886	2979
869.017	2990
869.147	3154
869.278	3150
869.408	3043
869.539	3001
869.669	3081
869.799	3013
869.929	3150
870.06	3108
870.19	3302
870.32	3264
870.45	3253
870.58	3401
870.71	3393
870.84	3428
870.97	3275
871.1	3241
871.23	3473
871.36	3447
871.489	3317
871.619	3370
871.749	3401
871.879	3382
872.008	3485
872.138	3336
872.267	3245
872.397	3123
872.526	3043
872.656	2982
872.785	3066
872.915	3192
873.044	3268
873.173	3203
873.303	3241
873.432	3268
873.561	3230
873.69	3154
873.819	3157
873.948	3173
874.077	3142
874.206	3051
874.335	3055
874.464	3207
874.593	3310
874.722	3256
874.851	3397
874.979	3363
875.108	3302
875.237	3157
875.365	3161
875.494	3176
875.623	3207
875.751	3055
875.88	3116
876.008	3184
876.136	3207
876.265	3363
876.393	3488
876.521	3397
876.65	3359
876.778	3363
876.906	3203
877.034	3173
877.162	3237
877.29	3169
877.418	3268
877.546	3233
877.674	3226
877.802	3245
877.93	3249
878.058	3119
878.185	3066
878.313	3173
878.441	3180
878.568	3066
878.696	3142
878.824	3226
878.951	3256
879.079	3439
879.206	3633
879.333	3447
879.461	3298
879.588	3370
879.715	3477
879.842	3584
879.97	3359
880.097	3119
880.224	3146
880.351	3199
880.478	3184
880.605	3180
880.732	3199
880.859	3481
880.986	3279
881.112	3344
881.239	3218
881.366	3085
881.493	3024
881.619	2994
881.746	3062
881.872	3089
881.999	3112
882.125	3112
882.252	3260
882.378	3317
882.505	3409
882.631	3253
882.757	3192
882.883	3203
883.01	3188
883.136	3131
883.262	3116
883.388	3116
883.514	3348
883.64	3355
883.766	3291
883.892	3161
884.018	3218
884.143	3424
884.269	3504
884.395	3135
884.52	3169
884.646	3188
884.772	3119
884.897	3104
885.023	3169
885.148	3272
885.274	3374
885.399	3351
885.524	3294
885.65	3222
885.775	3283
885.9	3237
886.025	3458
886.15	3367
886.275	3298
886.4	3237
886.525	3310
886.65	3268
886.775	3264
886.9	3454
887.025	3599
887.149	3382
887.274	3249
887.399	3161
887.523	3176
887.648	3176
887.773	3169
887.897	3420
888.021	3397
888.146	3291
888.27	3412
888.395	3523
888.519	3412
888.643	3447
888.767	3428
888.891	3313
889.015	3218
889.139	3306
889.263	3222
889.387	3424
889.511	3538
889.635	3450
889.759	3287
889.883	3260
890.006	3370
890.13	3504
890.254	3241
890.377	3317
890.501	3214
890.624	3176
890.748	3268
890.871	3180
890.995	3108
891.118	3032
891.241	3176
891.364	3230
891.488	3340
891.611	3165
891.734	3214
891.857	3264
891.98	3260
892.103	3321
892.226	3245
892.349	3241
892.471	3112
892.594	3237
892.717	3283
892.839	3275
892.962	3241
893.085	3359
893.207	3272
893.33	3150
893.452	3211
893.575	3310
893.697	3264
893.819	3447
893.941	3530
894.064	3393
894.186	3268
894.308	3230
894.43	3458
894.552	3591
894.674	3435
894.796	3249
894.918	3302
895.04	3264
895.161	3439
895.283	3401
895.405	3283
895.526	3367
895.648	3397
895.769	3401
895.891	3435
896.012	3447
896.134	3447
896.255	3405
896.376	3386
896.498	3332
896.619	3409
896.74	3355
896.861	3405
896.982	3663
897.103	3846
897.224	3564
897.345	3526
897.466	3401
897.587	3485
897.708	3622
897.828	3515
897.949	3428
898.07	3359
898.19	3428
898.311	3591
898.431	3439
898.552	3488
898.672	3606
898.792	3549
898.913	3504
899.033	3401
899.153	3245
899.273	3226
899.393	3264
899.513	3310
899.633	3321
899.753	3298
899.873	3306
899.993	3405
900.113	3332
900.232	3363
900.352	3317
900.472	3264
900.591	3203
900.711	3275
900.83	3245
900.95	3397
901.069	3492
901.189	3351
901.308	3176
901.427	3089
901.546	3173
901.665	3306
901.784	3325
901.904	3207
902.023	3108
902.141	3017
902.26	2971
902.379	3146
902.498	3077
902.617	3036
902.735	3203
902.854	3218
902.973	3161
903.091	3036
903.21	3058
903.328	3157
903.446	3108
903.565	3116
903.683	3188
903.801	3142
903.919	3222
904.038	3256
904.156	3150
904.274	3264
904.392	3230
904.51	3283
904.627	3348
904.745	3420
904.863	3492
904.981	3268
905.098	3161
905.216	3245
905.334	3272
905.451	3329
905.569	3279
905.686	3382
905.803	3405
905.921	3302
906.038	3412
906.155	3370
906.272	3279
906.389	3374
906.506	3268
906.623	3222
906.74	3260
906.857	3188
906.974	3214
907.091	3462
907.208	3591
907.324	3481
907.441	3374
907.557	3226
907.674	3203
907.79	3203
907.907	3298
908.023	3363
908.139	3351
908.256	3298
908.372	3382
908.488	3378
908.604	3253
908.72	3188
908.836	3241
908.952	3279
909.068	3291
909.184	3431
909.3	3367
909.415	3466
909.531	3454
909.647	3275
909.762	3294
909.878	3245
909.993	3355
910.108	3329
910.224	3306
910.339	3424
910.454	3321
910.57	3291
910.685	3245
910.8	3610
910.915	3519
911.03	3393
911.145	3275
911.259	3268
911.374	3306
911.489	3264
911.604	3207
911.718	3146
911.833	3157
911.947	3013
912.062	2975
912.176	3161
912.291	3188
912.405	3230
912.519	3409
912.633	3469
912.748	3370
912.862	3306
912.976	3188
913.09	3085
913.204	3127
913.318	3237
913.431	3344
913.545	3317
913.659	3439
913.772	3332
913.886	3245
914	3230
914.113	3355
914.226	3454
914.34	3412
914.453	3218
914.566	3443
914.68	3294
914.793	3310
914.906	3188
915.019	3154
915.132	3070
915.245	3214
915.358	3272
915.47	3249
915.583	3313
915.696	3340
915.809	3435
915.921	3454
916.034	3313
916.146	3268
916.259	3275
916.371	3443
916.483	3420
916.595	3306
916.708	3435
916.82	3386
916.932	3378
917.044	3355
917.156	3348
917.268	3306
917.38	3306
917.491	3321
917.603	3424
917.715	3431
917.826	3492
917.938	3428
918.049	3340
918.161	3431
918.272	3652
918.384	3572
918.495	3488
918.606	3397
918.717	3321
918.828	3409
918.939	3454
919.05	3321
919.161	3409
919.272	3264
919.383	3321
919.494	3534
919.604	3766
919.715	3488
919.826	3439
919.936	3500
920.047	3591
920.157	3599
920.267	3800
920.378	3622
920.488	3644
920.598	3816
920.708	3991
920.818	3873
920.928	3876
921.038	4036
921.148	4021
921.258	3743
921.368	3671
921.477	3656
921.587	3557
921.697	3462
921.806	3644
921.916	3534
922.025	3367
922.134	3386
922.244	3386
922.353	3431
922.462	3313
922.571	3264
922.68	3123
922.789	3138
922.898	3192
923.007	3146
923.116	3226
923.224	3195
923.333	3226
923.442	3112
923.55	3116
923.659	3203
923.767	3275
923.876	3188
923.984	3283
924.092	3127
924.201	3233
924.309	3233
924.417	3302
924.525	3230
924.633	3294
924.741	4021
924.849	3085
924.956	3317
925.064	3135
925.172	3055
925.279	3131
925.387	3233
925.494	3218
925.602	3382
925.709	3363
925.816	3241
925.924	3344
926.031	3416
926.138	3348
926.245	3439
926.352	3294
926.459	3458
926.566	3500
926.673	3317
926.779	3302
926.886	3287
926.993	3142
927.099	3176
927.206	3161
927.312	3161
927.419	3233
927.525	3237
927.631	3272
927.737	3188
927.843	3169
927.95	3074
928.056	3157
928.162	3188
928.267	3272
928.373	3873
928.479	3313
928.585	3081
928.69	3188
928.796	3321
928.901	3199
929.007	3051
929.112	3245
929.218	3192
929.323	3165
929.428	3165
929.533	3367
929.638	3154
929.743	3157
929.848	3283
929.953	3203
930.058	3173
930.163	3013
930.267	3116
930.372	3195
930.477	3077
930.581	3355
930.685	3195
930.79	3100
930.894	3173
930.998	3142
931.103	3351
931.207	3001
931.311	2982
931.415	2937
931.519	2807
931.623	2861
