Data from test_V78500241_1855.txt Node
Date: Fri Mar 25 16:28:03 CST 2022
User: usil
Spectrometer: V785-0024
Trigger mode: 0
Integration Time (sec): 4.000000E-1
Scans to average: 1
Nonlinearity correction enabled: false
Boxcar width: 0
Storing dark spectrum: false
XAxis mode: Wavelengths
Number of Pixels in Spectrum: 1024
>>>>>Begin Spectral Data<<<<<
801.071	2963
801.214	2937
801.356	2899
801.499	2948
801.641	2899
801.783	2933
801.926	3077
802.068	3013
802.211	3066
802.353	3081
802.496	2975
802.638	2998
802.78	3112
802.923	3123
803.065	3039
803.208	2902
803.35	2929
803.492	2929
803.635	2944
803.777	2804
803.919	2872
804.061	3237
804.204	3005
804.346	2906
804.488	2876
804.63	3020
804.773	2895
804.915	2918
805.057	3097
805.199	2944
805.341	3005
805.483	3062
805.626	2986
805.768	2956
805.91	3100
806.052	3131
806.194	3032
806.336	3275
806.478	3036
806.62	2941
806.762	3024
806.904	3085
807.046	3218
807.188	2960
807.33	2910
807.472	2975
807.614	2899
807.756	2982
807.898	2925
808.04	2929
808.182	2967
808.324	2941
808.465	2872
808.607	2902
808.749	2819
808.891	2830
809.033	2975
809.174	3005
809.316	2887
809.458	2952
809.6	2773
809.741	2766
809.883	2735
810.025	2864
810.166	2887
810.308	2853
810.45	2868
810.591	2788
810.733	2788
810.875	2845
811.016	2800
811.158	2762
811.299	2781
811.441	2963
811.582	2891
811.724	2861
811.865	2849
812.007	2918
812.148	2864
812.29	2864
812.431	2902
812.573	2895
812.714	2971
812.855	3070
812.997	3062
813.138	3127
813.279	2979
813.421	3043
813.562	2925
813.703	2895
813.845	2902
813.986	2792
814.127	2720
814.268	2853
814.41	2857
814.551	2804
814.692	2910
814.833	2823
814.974	2918
815.115	2979
815.256	2811
815.397	2849
815.539	2883
815.68	2762
815.821	2823
815.962	2941
816.103	2960
816.244	2838
816.385	2891
816.526	2979
816.666	2868
816.807	2735
816.948	2887
817.089	2887
817.23	2849
817.371	2800
817.512	2823
817.653	2826
817.793	2857
817.934	2883
818.075	2952
818.216	2956
818.356	3005
818.497	2922
818.638	2792
818.778	2834
818.919	2773
819.06	2777
819.2	2895
819.341	2807
819.481	2815
819.622	2925
819.762	3119
819.903	3119
820.043	2922
820.184	2910
820.324	2914
820.465	3032
820.605	3055
820.746	3001
820.886	2937
821.026	3123
821.167	3165
821.307	3268
821.447	3291
821.588	3272
821.728	3184
821.868	3188
822.008	3085
822.149	3146
822.289	3260
822.429	3089
822.569	3119
822.709	3188
822.849	3066
822.99	3047
823.13	3154
823.27	3203
823.41	3119
823.55	3157
823.69	3119
823.83	3199
823.97	3104
824.11	2998
824.25	3009
824.389	3058
824.529	3104
824.669	3081
824.809	3207
824.949	3249
825.089	3218
825.228	3203
825.368	3020
825.508	2967
825.648	2982
825.787	3017
825.927	3032
826.067	2963
826.206	3005
826.346	3070
826.485	3081
826.625	3135
826.765	3317
826.904	3218
827.044	2990
827.183	2960
827.323	2857
827.462	2982
827.601	2918
827.741	2937
827.88	2933
828.02	2868
828.159	3024
828.298	3036
828.437	3104
828.577	3051
828.716	3268
828.855	3036
828.994	2925
829.134	2891
829.273	2918
829.412	2864
829.551	2872
829.69	2891
829.829	3009
829.968	3157
830.107	3013
830.246	3036
830.385	2941
830.524	2887
830.663	2830
830.802	2731
830.941	2659
831.08	2663
831.219	2758
831.357	2788
831.496	2929
831.635	2689
831.774	2625
831.913	2659
832.051	2568
832.19	2568
832.329	2678
832.467	2560
832.606	2454
832.744	2568
832.883	2579
833.022	2579
833.16	2659
833.299	2674
833.437	2716
833.576	2720
833.714	2720
833.852	2735
833.991	2746
834.129	2849
834.267	2826
834.406	2773
834.544	2872
834.682	2918
834.821	2895
834.959	3062
835.097	2910
835.235	3055
835.373	3032
835.511	3001
835.65	2956
835.788	2956
835.926	2864
836.064	2796
836.202	2830
836.34	3051
836.478	3142
836.615	3039
836.753	3123
836.891	3203
837.029	3176
837.167	3074
837.305	3024
837.443	3013
837.58	2971
837.718	3123
837.856	3047
837.993	3039
838.131	3097
838.269	3104
838.406	3116
838.544	3093
838.681	2937
838.819	2933
838.956	2800
839.094	2857
839.231	2956
839.369	3005
839.506	3355
839.643	3207
839.781	3020
839.918	2975
840.055	3074
840.193	3051
840.33	3039
840.467	3085
840.604	3150
840.742	3420
840.879	3036
841.016	3055
841.153	3097
841.29	3367
841.427	3294
841.564	3260
841.701	3317
841.838	3233
841.975	3161
842.112	3222
842.249	3089
842.385	3058
842.522	3283
842.659	3119
842.796	3066
842.933	3112
843.069	3051
843.206	3077
843.343	3188
843.479	3108
843.616	3161
843.752	2895
843.889	2887
844.025	3058
844.162	2925
844.298	3066
844.435	2956
844.571	2906
844.708	3062
844.844	3203
844.98	3268
845.117	3203
845.253	3036
845.389	3039
845.525	3112
845.661	3097
845.798	3043
845.934	3123
846.07	3074
846.206	3226
846.342	3291
846.478	3214
846.614	3077
846.75	3032
846.886	2986
847.022	3272
847.158	3173
847.294	3176
847.429	3230
847.565	3211
847.701	3473
847.837	3020
847.972	2979
848.108	3142
848.244	3154
848.379	2986
848.515	2933
848.65	2960
848.786	2971
848.921	3028
849.057	3119
849.192	3116
849.328	3062
849.463	3097
849.598	3089
849.734	3032
849.869	2986
850.004	2948
850.14	2956
850.275	2929
850.41	2845
850.545	2902
850.68	2937
850.815	2979
850.95	2971
851.085	3199
851.22	3127
851.355	3032
851.49	2952
851.625	3001
851.76	3009
851.895	2937
852.03	2952
852.165	3047
852.299	3135
852.434	3173
852.569	3157
852.703	3199
852.838	3241
852.973	3367
853.107	3336
853.242	3116
853.376	3093
853.511	2975
853.645	3039
853.78	3211
853.914	3093
854.048	3085
854.183	3097
854.317	3138
854.451	3340
854.585	3097
854.72	3077
854.854	3195
854.988	3051
855.122	3081
855.256	2998
855.39	3058
855.524	3249
855.658	3192
855.792	3180
855.926	3138
856.06	3233
856.194	3222
856.327	3127
856.461	3070
856.595	3028
856.729	3077
856.862	3226
856.996	3207
857.13	3214
857.263	3245
857.397	3283
857.53	3131
857.664	3165
857.797	3237
857.931	3283
858.064	3192
858.197	3176
858.331	3142
858.464	3100
858.597	3005
858.731	3074
858.864	3104
858.997	3066
859.13	3157
859.263	3161
859.396	3203
859.529	3081
859.662	3043
859.795	3017
859.928	3116
860.061	3310
860.194	3283
860.327	3112
860.46	3066
860.592	3241
860.725	3256
860.858	3253
860.99	3089
861.123	3043
861.256	3066
861.388	3093
861.521	3785
861.653	2994
861.786	2982
861.918	3013
862.05	3051
862.183	3116
862.315	3169
862.447	3203
862.58	3077
862.712	2948
862.844	2864
862.976	3028
863.108	3032
863.24	3412
863.372	2883
863.504	2967
863.636	2941
863.768	3024
863.9	3005
864.032	2906
864.164	2975
864.296	3017
864.428	3097
864.559	3093
864.691	3085
864.823	3058
864.954	3028
865.086	3058
865.217	2990
865.349	2941
865.48	2990
865.612	3001
865.743	3142
865.875	2986
866.006	2941
866.137	2982
866.269	2971
866.4	2948
866.531	2925
866.662	2922
866.793	2899
866.924	2895
867.055	2967
867.186	2925
867.317	2868
867.448	2849
867.579	2853
867.71	2838
867.841	2811
867.972	2887
868.103	2887
868.233	2914
868.364	2876
868.495	2910
868.625	3062
868.756	3157
868.886	2956
869.017	2967
869.147	3173
869.278	3173
869.408	3055
869.539	3001
869.669	3062
869.799	3043
869.929	3097
870.06	3085
870.19	3321
870.32	3272
870.45	3306
870.58	3374
870.71	3443
870.84	3462
870.97	3253
871.1	3237
871.23	3481
871.36	3454
871.489	3378
871.619	3363
871.749	3405
871.879	3431
872.008	3450
872.138	3344
872.267	3249
872.397	3127
872.526	3097
872.656	3005
872.785	3127
872.915	3226
873.044	3336
873.173	3245
873.303	3230
873.432	3218
873.561	3237
873.69	3184
873.819	3108
873.948	3165
874.077	3097
874.206	3062
874.335	3081
874.464	3195
874.593	3378
874.722	3256
874.851	3386
874.979	3397
875.108	3329
875.237	3169
875.365	3188
875.494	3199
875.623	3245
875.751	3074
875.88	3104
876.008	3203
876.136	3214
876.265	3382
876.393	3492
876.521	3420
876.65	3405
876.778	3313
876.906	3237
877.034	3211
877.162	3249
877.29	3203
877.418	3233
877.546	3176
877.674	3245
877.802	3245
877.93	3176
878.058	3154
878.185	3104
878.313	3180
878.441	3222
878.568	3074
878.696	3119
878.824	3256
878.951	3287
879.079	3435
879.206	3614
879.333	3454
879.461	3359
879.588	3355
879.715	3477
879.842	3603
879.97	3393
880.097	3165
880.224	3119
880.351	3150
880.478	3222
880.605	3192
880.732	3161
880.859	3481
880.986	3275
881.112	3325
881.239	3207
881.366	3043
881.493	3043
881.619	2990
881.746	3066
881.872	3074
881.999	3108
882.125	3154
882.252	3222
882.378	3310
882.505	3424
882.631	3249
882.757	3142
882.883	3203
883.01	3184
883.136	3135
883.262	3104
883.388	3138
883.514	3302
883.64	3363
883.766	3310
883.892	3211
884.018	3256
884.143	3405
884.269	3534
884.395	3176
884.52	3184
884.646	3176
884.772	3135
884.897	3058
885.023	3180
885.148	3336
885.274	3382
885.399	3363
885.524	3283
885.65	3256
885.775	3310
885.9	3294
886.025	3409
886.15	3397
886.275	3294
886.4	3199
886.525	3279
886.65	3264
886.775	3272
886.9	3488
887.025	3652
887.149	3386
887.274	3287
887.399	3199
887.523	3195
887.648	3188
887.773	3195
887.897	3401
888.021	3374
888.146	3302
888.27	3454
888.395	3511
888.519	3431
888.643	3416
888.767	3409
888.891	3291
889.015	3241
889.139	3283
889.263	3218
889.387	3424
889.511	3488
889.635	3439
889.759	3325
889.883	3325
890.006	3386
890.13	3511
890.254	3272
890.377	3336
890.501	3176
890.624	3161
890.748	3317
890.871	3192
890.995	3112
891.118	3062
891.241	3222
891.364	3203
891.488	3298
891.611	3154
891.734	3230
891.857	3291
891.98	3230
892.103	3302
892.226	3264
892.349	3222
892.471	3104
892.594	3226
892.717	3279
892.839	3222
892.962	3306
893.085	3351
893.207	3287
893.33	3127
893.452	3184
893.575	3329
893.697	3214
893.819	3473
893.941	3504
894.064	3469
894.186	3256
894.308	3249
894.43	3431
894.552	3568
894.674	3450
894.796	3268
894.918	3275
895.04	3287
895.161	3416
895.283	3389
895.405	3321
895.526	3397
895.648	3416
895.769	3439
895.891	3405
896.012	3424
896.134	3523
896.255	3439
896.376	3355
896.498	3355
896.619	3443
896.74	3325
896.861	3378
896.982	3675
897.103	3857
897.224	3584
897.345	3511
897.466	3454
897.587	3485
897.708	3652
897.828	3526
897.949	3435
898.07	3325
898.19	3412
898.311	3580
898.431	3450
898.552	3481
898.672	3576
898.792	3561
898.913	3526
899.033	3416
899.153	3283
899.273	3214
899.393	3272
899.513	3272
899.633	3325
899.753	3313
899.873	3279
899.993	3397
900.113	3317
900.232	3370
900.352	3321
900.472	3264
900.591	3214
900.711	3306
900.83	3237
900.95	3397
901.069	3454
901.189	3340
901.308	3184
901.427	3135
901.546	3188
901.665	3321
901.784	3340
901.904	3222
902.023	3116
902.141	3036
902.26	3009
902.379	3116
902.498	3070
902.617	3047
902.735	3165
902.854	3237
902.973	3161
903.091	3005
903.21	3077
903.328	3146
903.446	3089
903.565	3119
903.683	3188
903.801	3112
903.919	3268
904.038	3294
904.156	3154
904.274	3291
904.392	3260
904.51	3279
904.627	3340
904.745	3424
904.863	3496
904.981	3260
905.098	3176
905.216	3272
905.334	3272
905.451	3268
905.569	3256
905.686	3397
905.803	3450
905.921	3272
906.038	3447
906.155	3351
906.272	3241
906.389	3298
906.506	3233
906.623	3249
906.74	3260
906.857	3199
906.974	3245
907.091	3462
907.208	3538
907.324	3507
907.441	3393
907.557	3249
907.674	3222
907.79	3176
907.907	3264
908.023	3367
908.139	3367
908.256	3310
908.372	3386
908.488	3325
908.604	3264
908.72	3180
908.836	3272
908.952	3302
909.068	3336
909.184	3485
909.3	3409
909.415	3511
909.531	3454
909.647	3275
909.762	3264
909.878	3237
909.993	3344
910.108	3317
910.224	3306
910.339	3386
910.454	3313
910.57	3283
910.685	3222
910.8	3557
910.915	3530
911.03	3443
911.145	3226
911.259	3256
911.374	3325
911.489	3226
911.604	3146
911.718	3108
911.833	3154
911.947	3032
912.062	3013
912.176	3131
912.291	3173
912.405	3192
912.519	3393
912.633	3492
912.748	3332
912.862	3275
912.976	3199
913.09	3051
913.204	3123
913.318	3203
913.431	3344
913.545	3313
913.659	3389
913.772	3325
913.886	3222
914	3173
914.113	3363
914.226	3401
914.34	3367
914.453	3192
914.566	3355
914.68	3253
914.793	3294
914.906	3135
915.019	3104
915.132	3062
915.245	3173
915.358	3184
915.47	3226
915.583	3253
915.696	3302
915.809	3405
915.921	3420
916.034	3245
916.146	3253
916.259	3214
916.371	3382
916.483	3348
916.595	3298
916.708	3325
916.82	3332
916.932	3313
917.044	3317
917.156	3325
917.268	3230
917.38	3344
917.491	3321
917.603	3329
917.715	3435
917.826	3458
917.938	3336
918.049	3279
918.161	3469
918.272	3519
918.384	3587
918.495	3481
918.606	3325
918.717	3249
918.828	3397
918.939	3416
919.05	3306
919.161	3340
919.272	3192
919.383	3287
919.494	3523
919.604	3667
919.715	3481
919.826	3412
919.936	3511
920.047	3580
920.157	3576
920.267	3785
920.378	3641
920.488	3557
920.598	3789
920.708	3953
920.818	3797
920.928	3835
921.038	4013
921.148	4025
921.258	3694
921.368	3641
921.477	3584
921.587	3545
921.697	3462
921.806	3652
921.916	3469
922.025	3321
922.134	3367
922.244	3325
922.353	3416
922.462	3260
922.571	3214
922.68	3104
922.789	3047
922.898	3154
923.007	3085
923.116	3207
923.224	3135
923.333	3207
923.442	3085
923.55	3070
923.659	3142
923.767	3245
923.876	3142
923.984	3184
924.092	3089
924.201	3230
924.309	3253
924.417	3218
924.525	3180
924.633	3249
924.741	4013
924.849	3020
924.956	3268
925.064	3108
925.172	3047
925.279	3123
925.387	3127
925.494	3211
925.602	3370
925.709	3298
925.816	3176
925.924	3275
926.031	3378
926.138	3332
926.245	3336
926.352	3249
926.459	3393
926.566	3507
926.673	3317
926.779	3218
926.886	3192
926.993	3150
927.099	3142
927.206	3119
927.312	3104
927.419	3268
927.525	3203
927.631	3256
927.737	3138
927.843	3150
927.95	3020
928.056	3135
928.162	3161
928.267	3268
928.373	3747
928.479	3348
928.585	3051
928.69	3192
928.796	3268
928.901	3180
929.007	3017
929.112	3180
929.218	3154
929.323	3154
929.428	3165
929.533	3310
929.638	3135
929.743	3173
929.848	3260
929.953	3233
930.058	3150
930.163	2994
930.267	3039
930.372	3169
930.477	3024
930.581	3275
930.685	3154
930.79	3051
930.894	3142
930.998	3097
931.103	3256
931.207	2922
931.311	2990
931.415	2906
931.519	2754
931.623	2804
