Data from test_V78500241_900.txt Node
Date: Fri Mar 25 16:21:26 CST 2022
User: usil
Spectrometer: V785-0024
Trigger mode: 0
Integration Time (sec): 4.000000E-1
Scans to average: 1
Nonlinearity correction enabled: false
Boxcar width: 0
Storing dark spectrum: false
XAxis mode: Wavelengths
Number of Pixels in Spectrum: 1024
>>>>>Begin Spectral Data<<<<<
801.071	2967
801.214	2952
801.356	2868
801.499	2914
801.641	2861
801.783	2918
801.926	3028
802.068	2986
802.211	2986
802.353	3032
802.496	2960
802.638	2967
802.78	3024
802.923	3051
803.065	2975
803.208	2891
803.35	2906
803.492	2910
803.635	2895
803.777	2750
803.919	2845
804.061	3173
804.204	2956
804.346	2902
804.488	2781
804.63	2982
804.773	2834
804.915	2925
805.057	3077
805.199	2922
805.341	3013
805.483	3028
805.626	3009
805.768	2971
805.91	3074
806.052	3112
806.194	3036
806.336	3207
806.478	3020
806.62	2994
806.762	2990
806.904	3066
807.046	3176
807.188	2979
807.33	2941
807.472	3013
807.614	2906
807.756	3024
807.898	2963
808.04	2918
808.182	3020
808.324	2986
808.465	2872
808.607	2910
808.749	2826
808.891	2880
809.033	2998
809.174	3009
809.316	2925
809.458	2918
809.6	2796
809.741	2781
809.883	2785
810.025	2872
810.166	2899
810.308	2838
810.45	2914
810.591	2838
810.733	2861
810.875	2834
811.016	2788
811.158	2785
811.299	2864
811.441	2956
811.582	2925
811.724	2891
811.865	2857
812.007	2922
812.148	2914
812.29	2895
812.431	2944
812.573	2975
812.714	2990
812.855	3070
812.997	3093
813.138	3146
813.279	3066
813.421	2986
813.562	3009
813.703	2902
813.845	2918
813.986	2785
814.127	2750
814.268	2880
814.41	2853
814.551	2868
814.692	2906
814.833	2876
814.974	2922
815.115	2986
815.256	2902
815.397	2861
815.539	2902
815.68	2830
815.821	2834
815.962	2956
816.103	2975
816.244	2933
816.385	2891
816.526	2990
816.666	2971
816.807	2796
816.948	2929
817.089	2944
817.23	2887
817.371	2804
817.512	2849
817.653	2899
817.793	2864
817.934	2952
818.075	2937
818.216	3005
818.356	3055
818.497	2880
818.638	2834
818.778	2823
818.919	2842
819.06	2785
819.2	2910
819.341	2826
819.481	2826
819.622	2990
819.762	3112
819.903	3093
820.043	2963
820.184	2910
820.324	2925
820.465	3017
820.605	3066
820.746	3047
820.886	2960
821.026	3135
821.167	3192
821.307	3241
821.447	3279
821.588	3275
821.728	3275
821.868	3226
822.008	3138
822.149	3203
822.289	3241
822.429	3097
822.569	3119
822.709	3180
822.849	3077
822.99	3100
823.13	3165
823.27	3226
823.41	3116
823.55	3192
823.69	3180
823.83	3241
823.97	3138
824.11	3020
824.25	2990
824.389	3116
824.529	3146
824.669	3077
824.809	3230
824.949	3306
825.089	3264
825.228	3188
825.368	3020
825.508	2990
825.648	3001
825.787	3062
825.927	3043
826.067	3032
826.206	2994
826.346	3043
826.485	3100
826.625	3146
826.765	3313
826.904	3211
827.044	2994
827.183	2956
827.323	2902
827.462	2982
827.601	2941
827.741	2971
827.88	2998
828.02	2925
828.159	2948
828.298	3062
828.437	3112
828.577	3062
828.716	3237
828.855	3108
828.994	2941
829.134	2899
829.273	2910
829.412	2883
829.551	2902
829.69	2910
829.829	3028
829.968	3131
830.107	3043
830.246	3043
830.385	2960
830.524	2925
830.663	2838
830.802	2773
830.941	2697
831.08	2705
831.219	2804
831.357	2758
831.496	2963
831.635	2758
831.774	2693
831.913	2682
832.051	2560
832.19	2568
832.329	2712
832.467	2545
832.606	2526
832.744	2598
832.883	2613
833.022	2613
833.16	2667
833.299	2731
833.437	2670
833.576	2731
833.714	2746
833.852	2777
833.991	2777
834.129	2880
834.267	2861
834.406	2804
834.544	2914
834.682	2914
834.821	2872
834.959	3062
835.097	2899
835.235	3077
835.373	2979
835.511	3039
835.65	2979
835.788	2998
835.926	2857
836.064	2845
836.202	2876
836.34	3116
836.478	3180
836.615	3066
836.753	3161
836.891	3214
837.029	3188
837.167	3093
837.305	3093
837.443	3051
837.58	2941
837.718	3154
837.856	3119
837.993	3032
838.131	3142
838.269	3150
838.406	3116
838.544	3123
838.681	2998
838.819	2937
838.956	2830
839.094	2826
839.231	2899
839.369	3062
839.506	3428
839.643	3237
839.781	3028
839.918	2990
840.055	3066
840.193	3055
840.33	3097
840.467	3119
840.604	3199
840.742	3405
840.879	3077
841.016	3081
841.153	3138
841.29	3370
841.427	3291
841.564	3321
841.701	3317
841.838	3230
841.975	3207
842.112	3237
842.249	3104
842.385	3036
842.522	3253
842.659	3104
842.796	3058
842.933	3097
843.069	3058
843.206	3077
843.343	3226
843.479	3138
843.616	3188
843.752	2902
843.889	2899
844.025	3081
844.162	2876
844.298	3104
844.435	2960
844.571	2979
844.708	3116
844.844	3222
844.98	3298
845.117	3222
845.253	3055
845.389	3036
845.525	3104
845.661	3108
845.798	3013
845.934	3150
846.07	3077
846.206	3241
846.342	3340
846.478	3294
846.614	3123
846.75	3066
846.886	3058
847.022	3222
847.158	3180
847.294	3260
847.429	3233
847.565	3207
847.701	3469
847.837	3055
847.972	3013
848.108	3192
848.244	3146
848.379	2998
848.515	2979
848.65	2971
848.786	2925
848.921	3001
849.057	3093
849.192	3165
849.328	3093
849.463	3112
849.598	3062
849.734	3062
849.869	2998
850.004	2914
850.14	2994
850.275	2933
850.41	2861
850.545	2868
850.68	2925
850.815	2998
850.95	2982
851.085	3207
851.22	3093
851.355	3058
851.49	3013
851.625	3032
851.76	3020
851.895	2933
852.03	2899
852.165	3058
852.299	3150
852.434	3165
852.569	3154
852.703	3184
852.838	3287
852.973	3382
853.107	3340
853.242	3195
853.376	3097
853.511	2986
853.645	3020
853.78	3283
853.914	3116
854.048	3119
854.183	3085
854.317	3188
854.451	3313
854.585	3135
854.72	3081
854.854	3203
854.988	3104
855.122	3104
855.256	3013
855.39	3138
855.524	3203
855.658	3180
855.792	3192
855.926	3195
856.06	3218
856.194	3245
856.327	3154
856.461	3081
856.595	3093
856.729	3108
856.862	3222
856.996	3173
857.13	3207
857.263	3237
857.397	3279
857.53	3154
857.664	3203
857.797	3313
857.931	3218
858.064	3138
858.197	3237
858.331	3116
858.464	3085
858.597	3005
858.731	3157
858.864	3184
858.997	3074
859.13	3157
859.263	3180
859.396	3199
859.529	3085
859.662	3085
859.795	3039
859.928	3157
860.061	3256
860.194	3275
860.327	3123
860.46	3146
860.592	3237
860.725	3260
860.858	3253
860.99	3093
861.123	3055
861.256	3070
861.388	3161
861.521	3835
861.653	3028
861.786	2998
861.918	3017
862.05	3070
862.183	3116
862.315	3127
862.447	3230
862.58	3108
862.712	2994
862.844	2842
862.976	3055
863.108	3032
863.24	3363
863.372	2876
863.504	2998
863.636	2925
863.768	3043
863.9	2975
864.032	2929
864.164	2956
864.296	3043
864.428	3104
864.559	3104
864.691	3062
864.823	3062
864.954	3058
865.086	3051
865.217	3009
865.349	2960
865.48	2990
865.612	3039
865.743	3165
865.875	3013
866.006	2918
866.137	2941
866.269	2975
866.4	2933
866.531	2944
866.662	2902
866.793	2902
866.924	2910
867.055	2937
867.186	2933
867.317	2891
867.448	2861
867.579	2861
867.71	2857
867.841	2864
867.972	2876
868.103	2914
868.233	2857
868.364	2872
868.495	2910
868.625	3070
868.756	3199
868.886	2979
869.017	2994
869.147	3195
869.278	3176
869.408	3032
869.539	3020
869.669	3066
869.799	3032
869.929	3142
870.06	3112
870.19	3344
870.32	3287
870.45	3310
870.58	3351
870.71	3458
870.84	3462
870.97	3340
871.1	3256
871.23	3496
871.36	3488
871.489	3374
871.619	3401
871.749	3424
871.879	3454
872.008	3523
872.138	3367
872.267	3283
872.397	3195
872.526	3093
872.656	3020
872.785	3127
872.915	3253
873.044	3291
873.173	3203
873.303	3245
873.432	3241
873.561	3233
873.69	3150
873.819	3142
873.948	3192
874.077	3104
874.206	3066
874.335	3089
874.464	3230
874.593	3359
874.722	3245
874.851	3405
874.979	3386
875.108	3317
875.237	3180
875.365	3165
875.494	3184
875.623	3264
875.751	3112
875.88	3116
876.008	3184
876.136	3222
876.265	3428
876.393	3485
876.521	3409
876.65	3416
876.778	3325
876.906	3287
877.034	3214
877.162	3245
877.29	3146
877.418	3245
877.546	3245
877.674	3230
877.802	3237
877.93	3249
878.058	3161
878.185	3100
878.313	3230
878.441	3211
878.568	3104
878.696	3192
878.824	3268
878.951	3287
879.079	3416
879.206	3603
879.333	3443
879.461	3298
879.588	3344
879.715	3462
879.842	3580
879.97	3370
880.097	3199
880.224	3176
880.351	3195
880.478	3203
880.605	3211
880.732	3188
880.859	3466
880.986	3306
881.112	3321
881.239	3207
881.366	3097
881.493	3051
881.619	3032
881.746	3097
881.872	3104
881.999	3112
882.125	3169
882.252	3268
882.378	3279
882.505	3439
882.631	3310
882.757	3127
882.883	3207
883.01	3230
883.136	3176
883.262	3081
883.388	3104
883.514	3340
883.64	3393
883.766	3359
883.892	3226
884.018	3256
884.143	3401
884.269	3564
884.395	3211
884.52	3150
884.646	3195
884.772	3127
884.897	3097
885.023	3222
885.148	3367
885.274	3420
885.399	3370
885.524	3291
885.65	3298
885.775	3313
885.9	3317
886.025	3416
886.15	3374
886.275	3321
886.4	3241
886.525	3313
886.65	3302
886.775	3256
886.9	3481
887.025	3606
887.149	3409
887.274	3272
887.399	3180
887.523	3161
887.648	3165
887.773	3157
887.897	3367
888.021	3416
888.146	3302
888.27	3447
888.395	3549
888.519	3428
888.643	3450
888.767	3481
888.891	3329
889.015	3268
889.139	3332
889.263	3237
889.387	3409
889.511	3473
889.635	3439
889.759	3298
889.883	3306
890.006	3378
890.13	3515
890.254	3279
890.377	3363
890.501	3264
890.624	3199
890.748	3317
890.871	3203
890.995	3081
891.118	3081
891.241	3214
891.364	3184
891.488	3329
891.611	3173
891.734	3188
891.857	3264
891.98	3241
892.103	3355
892.226	3264
892.349	3192
892.471	3070
892.594	3241
892.717	3298
892.839	3268
892.962	3287
893.085	3351
893.207	3298
893.33	3165
893.452	3237
893.575	3313
893.697	3253
893.819	3447
893.941	3477
894.064	3439
894.186	3268
894.308	3260
894.43	3458
894.552	3538
894.674	3492
894.796	3321
894.918	3325
895.04	3256
895.161	3443
895.283	3382
895.405	3275
895.526	3370
895.648	3439
895.769	3431
895.891	3485
896.012	3469
896.134	3443
896.255	3401
896.376	3386
896.498	3363
896.619	3469
896.74	3378
896.861	3397
896.982	3679
897.103	3857
897.224	3614
897.345	3504
897.466	3389
897.587	3496
897.708	3641
897.828	3526
897.949	3424
898.07	3351
898.19	3378
898.311	3584
898.431	3431
898.552	3504
898.672	3625
898.792	3549
898.913	3492
899.033	3416
899.153	3249
899.273	3203
899.393	3268
899.513	3306
899.633	3332
899.753	3370
899.873	3302
899.993	3431
900.113	3332
900.232	3386
900.352	3344
900.472	3294
900.591	3241
900.711	3298
900.83	3283
900.95	3389
901.069	3523
901.189	3291
901.308	3184
901.427	3119
901.546	3180
901.665	3287
901.784	3370
901.904	3203
902.023	3142
902.141	2982
902.26	2994
902.379	3169
902.498	3081
902.617	3032
902.735	3192
902.854	3233
902.973	3203
903.091	3066
903.21	3047
903.328	3161
903.446	3104
903.565	3127
903.683	3199
903.801	3104
903.919	3279
904.038	3275
904.156	3161
904.274	3256
904.392	3233
904.51	3264
904.627	3340
904.745	3466
904.863	3450
904.981	3268
905.098	3169
905.216	3230
905.334	3310
905.451	3313
905.569	3329
905.686	3435
905.803	3435
905.921	3291
906.038	3439
906.155	3325
906.272	3218
906.389	3382
906.506	3249
906.623	3249
906.74	3287
906.857	3203
906.974	3260
907.091	3469
907.208	3561
907.324	3488
907.441	3389
907.557	3260
907.674	3272
907.79	3169
907.907	3325
908.023	3378
908.139	3363
908.256	3302
908.372	3336
908.488	3374
908.604	3283
908.72	3214
908.836	3302
908.952	3268
909.068	3359
909.184	3477
909.3	3393
909.415	3507
909.531	3462
909.647	3275
909.762	3291
909.878	3268
909.993	3325
910.108	3317
910.224	3363
910.339	3382
910.454	3382
910.57	3279
910.685	3253
910.8	3576
910.915	3553
911.03	3405
911.145	3260
911.259	3321
911.374	3306
911.489	3226
911.604	3222
911.718	3127
911.833	3131
911.947	3005
912.062	3020
912.176	3131
912.291	3214
912.405	3230
912.519	3412
912.633	3450
912.748	3313
912.862	3260
912.976	3173
913.09	3058
913.204	3157
913.318	3173
913.431	3313
913.545	3344
913.659	3428
913.772	3329
913.886	3237
914	3207
914.113	3374
914.226	3409
914.34	3378
914.453	3207
914.566	3439
914.68	3283
914.793	3321
914.906	3135
915.019	3097
915.132	3070
915.245	3157
915.358	3195
915.47	3211
915.583	3214
915.696	3275
915.809	3351
915.921	3401
916.034	3302
916.146	3260
916.259	3199
916.371	3363
916.483	3389
916.595	3249
916.708	3306
916.82	3355
916.932	3332
917.044	3359
917.156	3317
917.268	3253
917.38	3294
917.491	3279
917.603	3363
917.715	3450
917.826	3473
917.938	3397
918.049	3264
918.161	3443
918.272	3595
918.384	3557
918.495	3534
918.606	3340
918.717	3329
918.828	3351
918.939	3435
919.05	3291
919.161	3374
919.272	3161
919.383	3264
919.494	3477
919.604	3675
919.715	3488
919.826	3412
919.936	3454
920.047	3584
920.157	3561
920.267	3720
920.378	3595
920.488	3584
920.598	3785
920.708	3937
920.818	3827
920.928	3793
921.038	4021
921.148	4010
921.258	3686
921.368	3618
921.477	3587
921.587	3542
921.697	3454
921.806	3610
921.916	3530
922.025	3340
922.134	3351
922.244	3336
922.353	3454
922.462	3214
922.571	3253
922.68	3119
922.789	3074
922.898	3150
923.007	3123
923.116	3207
923.224	3195
923.333	3192
923.442	3131
923.55	3108
923.659	3123
923.767	3260
923.876	3100
923.984	3264
924.092	3093
924.201	3169
924.309	3237
924.417	3287
924.525	3184
924.633	3226
924.741	4192
924.849	3017
924.956	3272
925.064	3100
925.172	2998
925.279	3116
925.387	3207
925.494	3192
925.602	3374
925.709	3336
925.816	3184
925.924	3253
926.031	3389
926.138	3313
926.245	3363
926.352	3207
926.459	3416
926.566	3473
926.673	3321
926.779	3275
926.886	3230
926.993	3123
927.099	3104
927.206	3081
927.312	3127
927.419	3253
927.525	3169
927.631	3268
927.737	3142
927.843	3138
927.95	3028
928.056	3146
928.162	3138
928.267	3272
928.373	3842
928.479	3317
928.585	3058
928.69	3218
928.796	3264
928.901	3161
929.007	3036
929.112	3214
929.218	3169
929.323	3127
929.428	3161
929.533	3317
929.638	3112
929.743	3176
929.848	3272
929.953	3222
930.058	3135
930.163	2971
930.267	3062
930.372	3161
930.477	3020
930.581	3348
930.685	3203
930.79	3066
930.894	3161
930.998	3085
931.103	3283
931.207	2925
931.311	2910
931.415	2910
931.519	2781
931.623	2815
