Data from test_V78500241_1692.txt Node
Date: Fri Mar 25 16:26:55 CST 2022
User: usil
Spectrometer: V785-0024
Trigger mode: 0
Integration Time (sec): 4.000000E-1
Scans to average: 1
Nonlinearity correction enabled: false
Boxcar width: 0
Storing dark spectrum: false
XAxis mode: Wavelengths
Number of Pixels in Spectrum: 1024
>>>>>Begin Spectral Data<<<<<
801.071	2941
801.214	3001
801.356	2925
801.499	2967
801.641	2895
801.783	2963
801.926	3093
802.068	2994
802.211	3074
802.353	3066
802.496	2990
802.638	3047
802.78	3085
802.923	3116
803.065	3028
803.208	2902
803.35	2960
803.492	2952
803.635	2982
803.777	2769
803.919	2895
804.061	3207
804.204	2982
804.346	2933
804.488	2857
804.63	3047
804.773	2925
804.915	2929
805.057	3108
805.199	2925
805.341	3032
805.483	3100
805.626	3055
805.768	3009
805.91	3074
806.052	3119
806.194	3066
806.336	3253
806.478	3032
806.62	2986
806.762	3005
806.904	3100
807.046	3180
807.188	3039
807.33	2933
807.472	2998
807.614	2922
807.756	3017
807.898	2941
808.04	2914
808.182	2990
808.324	2994
808.465	2952
808.607	2914
808.749	2861
808.891	2899
809.033	3005
809.174	2948
809.316	2918
809.458	2933
809.6	2823
809.741	2796
809.883	2796
810.025	2876
810.166	2876
810.308	2906
810.45	2880
810.591	2834
810.733	2811
810.875	2853
811.016	2788
811.158	2785
811.299	2868
811.441	2963
811.582	2902
811.724	2868
811.865	2895
812.007	2918
812.148	2902
812.29	2853
812.431	2880
812.573	2956
812.714	2971
812.855	3097
812.997	3081
813.138	3161
813.279	3051
813.421	2982
813.562	2990
813.703	2914
813.845	2910
813.986	2819
814.127	2766
814.268	2861
814.41	2845
814.551	2853
814.692	2876
814.833	2857
814.974	2929
815.115	3036
815.256	2857
815.397	2845
815.539	2872
815.68	2781
815.821	2777
815.962	2967
816.103	2967
816.244	2910
816.385	2891
816.526	2986
816.666	2933
816.807	2792
816.948	2876
817.089	2933
817.23	2876
817.371	2811
817.512	2826
817.653	2849
817.793	2853
817.934	2906
818.075	2948
818.216	2990
818.356	3028
818.497	2864
818.638	2811
818.778	2849
818.919	2777
819.06	2777
819.2	2906
819.341	2838
819.481	2830
819.622	2925
819.762	3142
819.903	3081
820.043	2967
820.184	2918
820.324	2925
820.465	3020
820.605	3036
820.746	3062
820.886	2960
821.026	3077
821.167	3184
821.307	3249
821.447	3306
821.588	3256
821.728	3260
821.868	3226
822.008	3116
822.149	3199
822.289	3237
822.429	3055
822.569	3119
822.709	3207
822.849	3123
822.99	3051
823.13	3165
823.27	3230
823.41	3100
823.55	3161
823.69	3169
823.83	3230
823.97	3116
824.11	3013
824.25	3020
824.389	3077
824.529	3123
824.669	3070
824.809	3222
824.949	3275
825.089	3245
825.228	3192
825.368	3039
825.508	2952
825.648	2979
825.787	3047
825.927	3066
826.067	3013
826.206	2979
826.346	3104
826.485	3100
826.625	3127
826.765	3264
826.904	3264
827.044	3051
827.183	2952
827.323	2872
827.462	2998
827.601	2914
827.741	2944
827.88	2979
828.02	2861
828.159	2975
828.298	3039
828.437	3169
828.577	3062
828.716	3272
828.855	3100
828.994	2956
829.134	2883
829.273	2941
829.412	2872
829.551	2868
829.69	2906
829.829	3028
829.968	3157
830.107	3017
830.246	3036
830.385	2971
830.524	2944
830.663	2861
830.802	2773
830.941	2667
831.08	2636
831.219	2762
831.357	2804
831.496	2948
831.635	2773
831.774	2670
831.913	2659
832.051	2564
832.19	2587
832.329	2659
832.467	2541
832.606	2507
832.744	2651
832.883	2602
833.022	2621
833.16	2644
833.299	2693
833.437	2697
833.576	2731
833.714	2720
833.852	2773
833.991	2777
834.129	2838
834.267	2834
834.406	2819
834.544	2906
834.682	2868
834.821	2853
834.959	3100
835.097	2948
835.235	3108
835.373	3036
835.511	3051
835.65	2994
835.788	2956
835.926	2853
836.064	2834
836.202	2842
836.34	3108
836.478	3138
836.615	3066
836.753	3157
836.891	3180
837.029	3169
837.167	3112
837.305	3032
837.443	3036
837.58	2990
837.718	3142
837.856	3062
837.993	3039
838.131	3150
838.269	3108
838.406	3119
838.544	3108
838.681	2929
838.819	2941
838.956	2826
839.094	2857
839.231	2918
839.369	3039
839.506	3370
839.643	3249
839.781	3043
839.918	2971
840.055	3077
840.193	3112
840.33	3085
840.467	3119
840.604	3188
840.742	3450
840.879	3108
841.016	3081
841.153	3089
841.29	3359
841.427	3313
841.564	3287
841.701	3332
841.838	3214
841.975	3180
842.112	3260
842.249	3077
842.385	3013
842.522	3245
842.659	3070
842.796	3066
842.933	3089
843.069	3062
843.206	3047
843.343	3184
843.479	3108
843.616	3142
843.752	2910
843.889	2876
844.025	3104
844.162	2880
844.298	3089
844.435	2952
844.571	2914
844.708	3047
844.844	3184
844.98	3233
845.117	3226
845.253	3085
845.389	3024
845.525	3119
845.661	3135
845.798	3032
845.934	3116
846.07	3043
846.206	3222
846.342	3351
846.478	3272
846.614	3104
846.75	3058
846.886	3024
847.022	3245
847.158	3157
847.294	3157
847.429	3249
847.565	3188
847.701	3492
847.837	3013
847.972	2971
848.108	3192
848.244	3165
848.379	3005
848.515	2967
848.65	2960
848.786	2982
848.921	3043
849.057	3116
849.192	3180
849.328	3081
849.463	3123
849.598	3085
849.734	3085
849.869	3009
850.004	2937
850.14	2967
850.275	2937
850.41	2845
850.545	2876
850.68	2956
850.815	2971
850.95	2982
851.085	3165
851.22	3150
851.355	3066
851.49	3001
851.625	3036
851.76	3039
851.895	2876
852.03	2937
852.165	3047
852.299	3112
852.434	3169
852.569	3154
852.703	3203
852.838	3207
852.973	3321
853.107	3340
853.242	3142
853.376	3112
853.511	2998
853.645	3024
853.78	3230
853.914	3116
854.048	3093
854.183	3093
854.317	3157
854.451	3317
854.585	3135
854.72	3089
854.854	3249
854.988	3043
855.122	3142
855.256	2982
855.39	3100
855.524	3222
855.658	3203
855.792	3192
855.926	3180
856.06	3256
856.194	3260
856.327	3192
856.461	3116
856.595	3081
856.729	3081
856.862	3241
856.996	3150
857.13	3211
857.263	3272
857.397	3279
857.53	3123
857.664	3199
857.797	3249
857.931	3214
858.064	3192
858.197	3237
858.331	3119
858.464	3100
858.597	3017
858.731	3146
858.864	3138
858.997	3062
859.13	3161
859.263	3226
859.396	3226
859.529	3093
859.662	3085
859.795	3074
859.928	3138
860.061	3294
860.194	3321
860.327	3161
860.46	3055
860.592	3245
860.725	3249
860.858	3264
860.99	3116
861.123	3058
861.256	3036
861.388	3146
861.521	3869
861.653	2998
861.786	2963
861.918	3032
862.05	3085
862.183	3104
862.315	3157
862.447	3199
862.58	3074
862.712	2944
862.844	2899
862.976	2998
863.108	3013
863.24	3428
863.372	2872
863.504	2982
863.636	2979
863.768	3039
863.9	2975
864.032	2895
864.164	2956
864.296	2994
864.428	3089
864.559	3108
864.691	3085
864.823	3112
864.954	3036
865.086	3062
865.217	2994
865.349	2948
865.48	2963
865.612	2982
865.743	3173
865.875	2971
866.006	2975
866.137	2944
866.269	2937
866.4	2963
866.531	2933
866.662	2925
866.793	2918
866.924	2910
867.055	2960
867.186	2933
867.317	2914
867.448	2845
867.579	2845
867.71	2872
867.841	2853
867.972	2891
868.103	2880
868.233	2876
868.364	2891
868.495	2933
868.625	3062
868.756	3184
868.886	2990
869.017	3039
869.147	3131
869.278	3173
869.408	3055
869.539	3005
869.669	3081
869.799	3055
869.929	3135
870.06	3131
870.19	3279
870.32	3245
870.45	3332
870.58	3367
870.71	3420
870.84	3443
870.97	3291
871.1	3253
871.23	3504
871.36	3500
871.489	3351
871.619	3397
871.749	3401
871.879	3424
872.008	3500
872.138	3382
872.267	3287
872.397	3112
872.526	3077
872.656	3070
872.785	3066
872.915	3256
873.044	3294
873.173	3253
873.303	3199
873.432	3241
873.561	3211
873.69	3142
873.819	3131
873.948	3192
874.077	3127
874.206	3085
874.335	3081
874.464	3241
874.593	3329
874.722	3245
874.851	3378
874.979	3336
875.108	3325
875.237	3195
875.365	3176
875.494	3207
875.623	3226
875.751	3062
875.88	3146
876.008	3218
876.136	3230
876.265	3409
876.393	3488
876.521	3424
876.65	3374
876.778	3348
876.906	3226
877.034	3218
877.162	3249
877.29	3176
877.418	3268
877.546	3287
877.674	3249
877.802	3241
877.93	3226
878.058	3138
878.185	3085
878.313	3188
878.441	3199
878.568	3070
878.696	3116
878.824	3279
878.951	3317
879.079	3454
879.206	3603
879.333	3477
879.461	3340
879.588	3367
879.715	3469
879.842	3599
879.97	3382
880.097	3176
880.224	3154
880.351	3192
880.478	3199
880.605	3161
880.732	3188
880.859	3473
880.986	3340
881.112	3332
881.239	3207
881.366	3077
881.493	3032
881.619	3039
881.746	3074
881.872	3116
881.999	3108
882.125	3119
882.252	3275
882.378	3260
882.505	3458
882.631	3298
882.757	3169
882.883	3218
883.01	3241
883.136	3154
883.262	3123
883.388	3097
883.514	3325
883.64	3389
883.766	3321
883.892	3199
884.018	3226
884.143	3454
884.269	3545
884.395	3203
884.52	3157
884.646	3176
884.772	3154
884.897	3123
885.023	3203
885.148	3310
885.274	3431
885.399	3420
885.524	3287
885.65	3260
885.775	3329
885.9	3241
886.025	3409
886.15	3359
886.275	3268
886.4	3199
886.525	3332
886.65	3245
886.775	3275
886.9	3473
887.025	3622
887.149	3412
887.274	3233
887.399	3173
887.523	3180
887.648	3161
887.773	3195
887.897	3389
888.021	3389
888.146	3325
888.27	3447
888.395	3530
888.519	3473
888.643	3428
888.767	3454
888.891	3287
889.015	3237
889.139	3272
889.263	3233
889.387	3412
889.511	3561
889.635	3439
889.759	3275
889.883	3264
890.006	3386
890.13	3504
890.254	3253
890.377	3351
890.501	3184
890.624	3154
890.748	3306
890.871	3180
890.995	3085
891.118	3055
891.241	3184
891.364	3195
891.488	3325
891.611	3173
891.734	3195
891.857	3310
891.98	3245
892.103	3348
892.226	3264
892.349	3184
892.471	3146
892.594	3218
892.717	3302
892.839	3272
892.962	3291
893.085	3386
893.207	3283
893.33	3138
893.452	3214
893.575	3355
893.697	3237
893.819	3481
893.941	3485
894.064	3428
894.186	3279
894.308	3283
894.43	3420
894.552	3492
894.674	3496
894.796	3241
894.918	3325
895.04	3275
895.161	3405
895.283	3336
895.405	3310
895.526	3344
895.648	3409
895.769	3435
895.891	3397
896.012	3477
896.134	3466
896.255	3416
896.376	3355
896.498	3370
896.619	3409
896.74	3359
896.861	3386
896.982	3679
897.103	3880
897.224	3557
897.345	3526
897.466	3447
897.587	3496
897.708	3603
897.828	3564
897.949	3447
898.07	3355
898.19	3401
898.311	3606
898.431	3450
898.552	3511
898.672	3599
898.792	3595
898.913	3500
899.033	3431
899.153	3245
899.273	3218
899.393	3313
899.513	3340
899.633	3298
899.753	3351
899.873	3325
899.993	3344
900.113	3306
900.232	3370
900.352	3374
900.472	3321
900.591	3184
900.711	3306
900.83	3233
900.95	3405
901.069	3488
901.189	3336
901.308	3165
901.427	3138
901.546	3180
901.665	3268
901.784	3317
901.904	3203
902.023	3135
902.141	3062
902.26	2986
902.379	3135
902.498	3036
902.617	3077
902.735	3233
902.854	3256
902.973	3192
903.091	3062
903.21	3043
903.328	3146
903.446	3127
903.565	3074
903.683	3192
903.801	3108
903.919	3253
904.038	3291
904.156	3176
904.274	3272
904.392	3260
904.51	3291
904.627	3332
904.745	3412
904.863	3515
904.981	3241
905.098	3192
905.216	3256
905.334	3329
905.451	3313
905.569	3272
905.686	3397
905.803	3450
905.921	3279
906.038	3424
906.155	3355
906.272	3260
906.389	3317
906.506	3264
906.623	3264
906.74	3291
906.857	3199
906.974	3253
907.091	3420
907.208	3564
907.324	3477
907.441	3367
907.557	3245
907.674	3256
907.79	3188
907.907	3268
908.023	3389
908.139	3389
908.256	3321
908.372	3359
908.488	3340
908.604	3279
908.72	3214
908.836	3283
908.952	3283
909.068	3332
909.184	3462
909.3	3386
909.415	3519
909.531	3492
909.647	3268
909.762	3298
909.878	3249
909.993	3378
910.108	3344
910.224	3344
910.339	3382
910.454	3348
910.57	3317
910.685	3256
910.8	3580
910.915	3561
911.03	3439
911.145	3268
911.259	3230
911.374	3317
911.489	3245
911.604	3245
911.718	3100
911.833	3157
911.947	3017
912.062	3005
912.176	3135
912.291	3230
912.405	3199
912.519	3469
912.633	3447
912.748	3340
912.862	3245
912.976	3146
913.09	3077
913.204	3138
913.318	3241
913.431	3325
913.545	3340
913.659	3389
913.772	3374
913.886	3230
914	3188
914.113	3359
914.226	3412
914.34	3382
914.453	3207
914.566	3412
914.68	3268
914.793	3287
914.906	3150
915.019	3112
915.132	3055
915.245	3165
915.358	3173
915.47	3287
915.583	3253
915.696	3268
915.809	3397
915.921	3424
916.034	3268
916.146	3222
916.259	3233
916.371	3374
916.483	3344
916.595	3279
916.708	3329
916.82	3355
916.932	3325
917.044	3363
917.156	3348
917.268	3260
917.38	3272
917.491	3325
917.603	3363
917.715	3431
917.826	3454
917.938	3389
918.049	3275
918.161	3450
918.272	3599
918.384	3549
918.495	3511
918.606	3340
918.717	3275
918.828	3355
918.939	3389
919.05	3344
919.161	3405
919.272	3211
919.383	3310
919.494	3511
919.604	3705
919.715	3466
919.826	3374
919.936	3447
920.047	3568
920.157	3564
920.267	3759
920.378	3648
920.488	3580
920.598	3778
920.708	3953
920.818	3823
920.928	3854
921.038	3994
921.148	3983
921.258	3701
921.368	3641
921.477	3572
921.587	3542
921.697	3462
921.806	3625
921.916	3507
922.025	3325
922.134	3382
922.244	3302
922.353	3412
922.462	3275
922.571	3241
922.68	3127
922.789	3089
922.898	3108
923.007	3058
923.116	3203
923.224	3173
923.333	3169
923.442	3081
923.55	3097
923.659	3123
923.767	3188
923.876	3112
923.984	3241
924.092	3085
924.201	3184
924.309	3241
924.417	3249
924.525	3203
924.633	3233
924.741	3991
924.849	3081
924.956	3218
925.064	3123
925.172	3066
925.279	3089
925.387	3169
925.494	3207
925.602	3336
925.709	3321
925.816	3195
925.924	3283
926.031	3370
926.138	3317
926.245	3374
926.352	3245
926.459	3401
926.566	3466
926.673	3321
926.779	3222
926.886	3245
926.993	3131
927.099	3176
927.206	3131
927.312	3108
927.419	3241
927.525	3211
927.631	3291
927.737	3157
927.843	3119
927.95	3017
928.056	3176
928.162	3169
928.267	3218
928.373	3884
928.479	3321
928.585	3009
928.69	3211
928.796	3291
928.901	3165
929.007	3047
929.112	3184
929.218	3157
929.323	3100
929.428	3154
929.533	3332
929.638	3089
929.743	3127
929.848	3226
929.953	3222
930.058	3135
930.163	3013
930.267	3009
930.372	3150
930.477	2998
930.581	3264
930.685	3165
930.79	3055
930.894	3112
930.998	3070
931.103	3249
931.207	2952
931.311	2956
931.415	2891
931.519	2762
931.623	2788
