Data from test_V78500241_2032.txt Node
Date: Fri Mar 25 16:29:16 CST 2022
User: usil
Spectrometer: V785-0024
Trigger mode: 0
Integration Time (sec): 4.000000E-1
Scans to average: 1
Nonlinearity correction enabled: false
Boxcar width: 0
Storing dark spectrum: false
XAxis mode: Wavelengths
Number of Pixels in Spectrum: 1024
>>>>>Begin Spectral Data<<<<<
801.071	2925
801.214	2948
801.356	2872
801.499	2868
801.641	2887
801.783	2922
801.926	3032
802.068	2967
802.211	3005
802.353	3085
802.496	2982
802.638	3036
802.78	3039
802.923	3039
803.065	2982
803.208	2861
803.35	2925
803.492	2929
803.635	2933
803.777	2781
803.919	2849
804.061	3180
804.204	2941
804.346	2880
804.488	2868
804.63	2990
804.773	2872
804.915	2937
805.057	3066
805.199	2929
805.341	2979
805.483	3051
805.626	2986
805.768	2967
805.91	3104
806.052	3097
806.194	2986
806.336	3237
806.478	3028
806.62	2933
806.762	2952
806.904	3028
807.046	3138
807.188	3020
807.33	2872
807.472	3020
807.614	2910
807.756	2990
807.898	2891
808.04	2880
808.182	2975
808.324	2967
808.465	2902
808.607	2880
808.749	2800
808.891	2815
809.033	2990
809.174	2994
809.316	2922
809.458	2887
809.6	2769
809.741	2739
809.883	2807
810.025	2864
810.166	2876
810.308	2792
810.45	2849
810.591	2777
810.733	2766
810.875	2834
811.016	2819
811.158	2708
811.299	2788
811.441	2895
811.582	2902
811.724	2792
811.865	2819
812.007	2902
812.148	2902
812.29	2823
812.431	2887
812.573	2922
812.714	2941
812.855	3036
812.997	3066
813.138	3089
813.279	2982
813.421	2982
813.562	2925
813.703	2914
813.845	2834
813.986	2754
814.127	2727
814.268	2838
814.41	2811
814.551	2788
814.692	2880
814.833	2815
814.974	2883
815.115	2906
815.256	2830
815.397	2811
815.539	2872
815.68	2815
815.821	2807
815.962	2944
816.103	2910
816.244	2845
816.385	2864
816.526	2929
816.666	2895
816.807	2727
816.948	2872
817.089	2914
817.23	2864
817.371	2750
817.512	2800
817.653	2830
817.793	2811
817.934	2883
818.075	2963
818.216	2952
818.356	2994
818.497	2861
818.638	2773
818.778	2830
818.919	2777
819.06	2705
819.2	2857
819.341	2811
819.481	2785
819.622	2895
819.762	3150
819.903	3039
820.043	2891
820.184	2876
820.324	2887
820.465	3001
820.605	3020
820.746	3028
820.886	2944
821.026	3089
821.167	3176
821.307	3253
821.447	3329
821.588	3237
821.728	3214
821.868	3176
822.008	3112
822.149	3184
822.289	3245
822.429	3104
822.569	3119
822.709	3199
822.849	3074
822.99	3093
823.13	3218
823.27	3233
823.41	3169
823.55	3180
823.69	3199
823.83	3207
823.97	3169
824.11	3066
824.25	3024
824.389	3058
824.529	3123
824.669	3085
824.809	3199
824.949	3241
825.089	3218
825.228	3184
825.368	3058
825.508	3013
825.648	2998
825.787	3081
825.927	3036
826.067	3055
826.206	2967
826.346	3077
826.485	3108
826.625	3165
826.765	3313
826.904	3237
827.044	3005
827.183	2952
827.323	2902
827.462	3036
827.601	2941
827.741	2956
827.88	2979
828.02	2872
828.159	3028
828.298	3089
828.437	3104
828.577	3066
828.716	3279
828.855	3108
828.994	2960
829.134	2956
829.273	2998
829.412	2918
829.551	2849
829.69	2925
829.829	3028
829.968	3146
830.107	3051
830.246	3070
830.385	2963
830.524	2925
830.663	2830
830.802	2758
830.941	2682
831.08	2663
831.219	2796
831.357	2811
831.496	2960
831.635	2800
831.774	2720
831.913	2667
832.051	2583
832.19	2602
832.329	2716
832.467	2568
832.606	2499
832.744	2617
832.883	2610
833.022	2640
833.16	2720
833.299	2720
833.437	2720
833.576	2777
833.714	2754
833.852	2777
833.991	2823
834.129	2868
834.267	2876
834.406	2819
834.544	2880
834.682	2918
834.821	2910
834.959	3074
835.097	2918
835.235	3047
835.373	3020
835.511	3036
835.65	3009
835.788	2990
835.926	2845
836.064	2838
836.202	2883
836.34	3108
836.478	3165
836.615	3081
836.753	3150
836.891	3260
837.029	3211
837.167	3165
837.305	3097
837.443	3058
837.58	2967
837.718	3169
837.856	3093
837.993	3066
838.131	3146
838.269	3116
838.406	3157
838.544	3135
838.681	2948
838.819	2956
838.956	2838
839.094	2880
839.231	2922
839.369	3058
839.506	3431
839.643	3222
839.781	3024
839.918	3020
840.055	3089
840.193	3093
840.33	3070
840.467	3142
840.604	3173
840.742	3382
840.879	3051
841.016	3085
841.153	3154
841.29	3321
841.427	3313
841.564	3291
841.701	3329
841.838	3264
841.975	3199
842.112	3237
842.249	3085
842.385	3081
842.522	3294
842.659	3119
842.796	3100
842.933	3119
843.069	3077
843.206	3036
843.343	3203
843.479	3135
843.616	3203
843.752	2937
843.889	2891
844.025	3112
844.162	2918
844.298	3070
844.435	2933
844.571	2914
844.708	3070
844.844	3214
844.98	3272
845.117	3207
845.253	3089
845.389	3009
845.525	3123
845.661	3093
845.798	3062
845.934	3127
846.07	3066
846.206	3256
846.342	3332
846.478	3268
846.614	3093
846.75	3074
846.886	3043
847.022	3256
847.158	3165
847.294	3203
847.429	3256
847.565	3241
847.701	3485
847.837	3028
847.972	3058
848.108	3188
848.244	3176
848.379	3058
848.515	2963
848.65	2937
848.786	3032
848.921	3066
849.057	3135
849.192	3138
849.328	3070
849.463	3112
849.598	3066
849.734	3047
849.869	2998
850.004	2971
850.14	2994
850.275	2956
850.41	2826
850.545	2880
850.68	2960
850.815	3036
850.95	3028
851.085	3199
851.22	3138
851.355	3081
851.49	2994
851.625	3039
851.76	2998
851.895	2986
852.03	2979
852.165	3081
852.299	3154
852.434	3195
852.569	3169
852.703	3173
852.838	3298
852.973	3336
853.107	3329
853.242	3188
853.376	3119
853.511	2994
853.645	3036
853.78	3253
853.914	3127
854.048	3176
854.183	3085
854.317	3176
854.451	3317
854.585	3157
854.72	3119
854.854	3218
854.988	3093
855.122	3093
855.256	2971
855.39	3131
855.524	3245
855.658	3214
855.792	3211
855.926	3214
856.06	3226
856.194	3245
856.327	3184
856.461	3119
856.595	3093
856.729	3131
856.862	3233
856.996	3150
857.13	3211
857.263	3256
857.397	3287
857.53	3131
857.664	3214
857.797	3249
857.931	3268
858.064	3173
858.197	3230
858.331	3146
858.464	3097
858.597	3055
858.731	3119
858.864	3154
858.997	3119
859.13	3161
859.263	3176
859.396	3241
859.529	3100
859.662	3127
859.795	3062
859.928	3192
860.061	3279
860.194	3294
860.327	3142
860.46	3093
860.592	3287
860.725	3291
860.858	3310
860.99	3150
861.123	3062
861.256	3047
861.388	3150
861.521	3838
861.653	3055
861.786	2979
861.918	3051
862.05	3085
862.183	3119
862.315	3146
862.447	3241
862.58	3127
862.712	2998
862.844	2910
862.976	3062
863.108	3013
863.24	3332
863.372	2922
863.504	2960
863.636	2933
863.768	3066
863.9	2990
864.032	2895
864.164	2975
864.296	3028
864.428	3119
864.559	3104
864.691	3108
864.823	3066
864.954	3043
865.086	3093
865.217	3051
865.349	3005
865.48	3028
865.612	3028
865.743	3176
865.875	2986
866.006	2986
866.137	3028
866.269	2986
866.4	2929
866.531	2944
866.662	2902
866.793	2902
866.924	2868
867.055	2967
867.186	2963
867.317	2918
867.448	2872
867.579	2868
867.71	2872
867.841	2830
867.972	2922
868.103	2944
868.233	2914
868.364	2906
868.495	2944
868.625	3089
868.756	3207
868.886	2990
869.017	3051
869.147	3176
869.278	3169
869.408	3074
869.539	3001
869.669	3123
869.799	3055
869.929	3138
870.06	3138
870.19	3298
870.32	3302
870.45	3298
870.58	3374
870.71	3500
870.84	3431
870.97	3310
871.1	3268
871.23	3481
871.36	3443
871.489	3367
871.619	3367
871.749	3420
871.879	3469
872.008	3488
872.138	3359
872.267	3302
872.397	3138
872.526	3108
872.656	3047
872.785	3157
872.915	3268
873.044	3310
873.173	3211
873.303	3245
873.432	3256
873.561	3268
873.69	3173
873.819	3157
873.948	3188
874.077	3116
874.206	3089
874.335	3081
874.464	3195
874.593	3359
874.722	3260
874.851	3424
874.979	3355
875.108	3348
875.237	3199
875.365	3184
875.494	3157
875.623	3260
875.751	3070
875.88	3135
876.008	3203
876.136	3226
876.265	3378
876.393	3526
876.521	3447
876.65	3401
876.778	3325
876.906	3279
877.034	3233
877.162	3249
877.29	3233
877.418	3279
877.546	3275
877.674	3283
877.802	3241
877.93	3253
878.058	3157
878.185	3142
878.313	3207
878.441	3214
878.568	3085
878.696	3165
878.824	3241
878.951	3325
879.079	3458
879.206	3694
879.333	3450
879.461	3332
879.588	3397
879.715	3477
879.842	3625
879.97	3412
880.097	3192
880.224	3157
880.351	3188
880.478	3230
880.605	3214
880.732	3180
880.859	3466
880.986	3313
881.112	3348
881.239	3214
881.366	3058
881.493	3051
881.619	2998
881.746	3085
881.872	3097
881.999	3070
882.125	3142
882.252	3272
882.378	3302
882.505	3435
882.631	3256
882.757	3176
882.883	3237
883.01	3264
883.136	3142
883.262	3116
883.388	3108
883.514	3313
883.64	3355
883.766	3291
883.892	3226
884.018	3230
884.143	3370
884.269	3572
884.395	3207
884.52	3150
884.646	3169
884.772	3165
884.897	3085
885.023	3173
885.148	3336
885.274	3401
885.399	3389
885.524	3310
885.65	3260
885.775	3317
885.9	3287
886.025	3439
886.15	3374
886.275	3260
886.4	3211
886.525	3294
886.65	3283
886.775	3272
886.9	3523
887.025	3637
887.149	3424
887.274	3256
887.399	3199
887.523	3184
887.648	3207
887.773	3207
887.897	3405
888.021	3374
888.146	3294
888.27	3485
888.395	3523
888.519	3462
888.643	3412
888.767	3485
888.891	3298
889.015	3260
889.139	3310
889.263	3256
889.387	3401
889.511	3492
889.635	3420
889.759	3310
889.883	3310
890.006	3397
890.13	3515
890.254	3245
890.377	3302
890.501	3214
890.624	3195
890.748	3302
890.871	3188
890.995	3097
891.118	3077
891.241	3199
891.364	3268
891.488	3306
891.611	3199
891.734	3218
891.857	3264
891.98	3214
892.103	3363
892.226	3245
892.349	3226
892.471	3108
892.594	3245
892.717	3272
892.839	3256
892.962	3302
893.085	3378
893.207	3294
893.33	3157
893.452	3203
893.575	3348
893.697	3249
893.819	3458
893.941	3553
894.064	3507
894.186	3298
894.308	3260
894.43	3458
894.552	3523
894.674	3466
894.796	3272
894.918	3317
895.04	3287
895.161	3450
895.283	3374
895.405	3321
895.526	3386
895.648	3454
895.769	3393
895.891	3469
896.012	3450
896.134	3485
896.255	3428
896.376	3370
896.498	3355
896.619	3496
896.74	3351
896.861	3424
896.982	3694
897.103	3804
897.224	3591
897.345	3519
897.466	3401
897.587	3458
897.708	3614
897.828	3557
897.949	3447
898.07	3329
898.19	3397
898.311	3568
898.431	3443
898.552	3530
898.672	3591
898.792	3572
898.913	3545
899.033	3370
899.153	3310
899.273	3222
899.393	3264
899.513	3294
899.633	3302
899.753	3310
899.873	3306
899.993	3363
900.113	3325
900.232	3393
900.352	3317
900.472	3298
900.591	3203
900.711	3306
900.83	3241
900.95	3416
901.069	3481
901.189	3348
901.308	3233
901.427	3184
901.546	3195
901.665	3256
901.784	3298
901.904	3199
902.023	3142
902.141	3001
902.26	3032
902.379	3146
902.498	3093
902.617	3070
902.735	3226
902.854	3233
902.973	3184
903.091	3039
903.21	3097
903.328	3138
903.446	3097
903.565	3146
903.683	3214
903.801	3131
903.919	3233
904.038	3272
904.156	3203
904.274	3275
904.392	3245
904.51	3287
904.627	3336
904.745	3450
904.863	3485
904.981	3275
905.098	3180
905.216	3233
905.334	3283
905.451	3310
905.569	3279
905.686	3431
905.803	3458
905.921	3264
906.038	3428
906.155	3355
906.272	3272
906.389	3310
906.506	3241
906.623	3272
906.74	3268
906.857	3192
906.974	3253
907.091	3450
907.208	3564
907.324	3462
907.441	3412
907.557	3222
907.674	3256
907.79	3226
907.907	3291
908.023	3374
908.139	3348
908.256	3325
908.372	3370
908.488	3325
908.604	3241
908.72	3214
908.836	3260
908.952	3306
909.068	3348
909.184	3485
909.3	3367
909.415	3504
909.531	3500
909.647	3256
909.762	3325
909.878	3264
909.993	3359
910.108	3374
910.224	3344
910.339	3374
910.454	3348
910.57	3287
910.685	3272
910.8	3618
910.915	3557
911.03	3447
911.145	3294
911.259	3275
911.374	3317
911.489	3241
911.604	3233
911.718	3074
911.833	3157
911.947	3062
912.062	2948
912.176	3199
912.291	3180
912.405	3176
912.519	3424
912.633	3462
912.748	3355
912.862	3283
912.976	3173
913.09	3070
913.204	3142
913.318	3203
913.431	3310
913.545	3374
913.659	3401
913.772	3317
913.886	3241
914	3218
914.113	3348
914.226	3412
914.34	3405
914.453	3214
914.566	3374
914.68	3298
914.793	3287
914.906	3123
915.019	3116
915.132	3062
915.245	3176
915.358	3230
915.47	3226
915.583	3222
915.696	3325
915.809	3428
915.921	3405
916.034	3264
916.146	3249
916.259	3154
916.371	3401
916.483	3367
916.595	3233
916.708	3332
916.82	3378
916.932	3351
917.044	3336
917.156	3317
917.268	3233
917.38	3313
917.491	3294
917.603	3340
917.715	3481
917.826	3469
917.938	3382
918.049	3253
918.161	3397
918.272	3568
918.384	3572
918.495	3481
918.606	3340
918.717	3283
918.828	3397
918.939	3405
919.05	3279
919.161	3374
919.272	3218
919.383	3268
919.494	3481
919.604	3671
919.715	3428
919.826	3401
919.936	3454
920.047	3587
920.157	3557
920.267	3778
920.378	3572
920.488	3561
920.598	3755
920.708	3934
920.818	3804
920.928	3827
921.038	4040
921.148	3956
921.258	3682
921.368	3625
921.477	3584
921.587	3553
921.697	3458
921.806	3618
921.916	3519
922.025	3348
922.134	3363
922.244	3321
922.353	3378
922.462	3222
922.571	3211
922.68	3146
922.789	3051
922.898	3138
923.007	3077
923.116	3188
923.224	3142
923.333	3176
923.442	3150
923.55	3081
923.659	3150
923.767	3214
923.876	3116
923.984	3237
924.092	3093
924.201	3214
924.309	3237
924.417	3260
924.525	3154
924.633	3192
924.741	4166
924.849	3058
924.956	3279
925.064	3093
925.172	3036
925.279	3104
925.387	3203
925.494	3188
925.602	3351
925.709	3340
925.816	3188
925.924	3272
926.031	3351
926.138	3351
926.245	3386
926.352	3260
926.459	3435
926.566	3469
926.673	3344
926.779	3260
926.886	3264
926.993	3161
927.099	3104
927.206	3146
927.312	3089
927.419	3226
927.525	3230
927.631	3268
927.737	3127
927.843	3108
927.95	2994
928.056	3142
928.162	3180
928.267	3249
928.373	3861
928.479	3313
928.585	3081
928.69	3199
928.796	3260
928.901	3176
929.007	3066
929.112	3195
929.218	3199
929.323	3176
929.428	3131
929.533	3291
929.638	3112
929.743	3165
929.848	3253
929.953	3188
930.058	3119
930.163	2990
930.267	3036
930.372	3195
930.477	2986
930.581	3306
930.685	3165
930.79	3020
930.894	3135
930.998	3100
931.103	3268
931.207	2971
931.311	2933
931.415	2914
931.519	2788
931.623	2815
