Data from test_V78500241_831.txt Node
Date: Fri Mar 25 16:20:57 CST 2022
User: usil
Spectrometer: V785-0024
Trigger mode: 0
Integration Time (sec): 4.000000E-1
Scans to average: 1
Nonlinearity correction enabled: false
Boxcar width: 0
Storing dark spectrum: false
XAxis mode: Wavelengths
Number of Pixels in Spectrum: 1024
>>>>>Begin Spectral Data<<<<<
801.071	2933
801.214	2906
801.356	2857
801.499	2883
801.641	2861
801.783	2937
801.926	3062
802.068	2937
802.211	3005
802.353	3017
802.496	2960
802.638	3020
802.78	3028
802.923	3093
803.065	3028
803.208	2887
803.35	2986
803.492	2891
803.635	2933
803.777	2739
803.919	2864
804.061	3176
804.204	2963
804.346	2883
804.488	2826
804.63	2994
804.773	2914
804.915	2937
805.057	3074
805.199	2986
805.341	2963
805.483	3062
805.626	2994
805.768	2956
805.91	3077
806.052	3085
806.194	3047
806.336	3233
806.478	2967
806.62	2922
806.762	2963
806.904	3039
807.046	3176
807.188	2963
807.33	2906
807.472	2986
807.614	2918
807.756	2971
807.898	2895
808.04	2918
808.182	2967
808.324	2944
808.465	2902
808.607	2880
808.749	2807
808.891	2861
809.033	2986
809.174	2960
809.316	2891
809.458	2868
809.6	2792
809.741	2762
809.883	2781
810.025	2807
810.166	2830
810.308	2845
810.45	2883
810.591	2773
810.733	2777
810.875	2804
811.016	2815
811.158	2766
811.299	2792
811.441	2925
811.582	2887
811.724	2830
811.865	2811
812.007	2868
812.148	2895
812.29	2849
812.431	2880
812.573	2925
812.714	2975
812.855	3043
812.997	3032
813.138	3123
813.279	2986
813.421	2990
813.562	2967
813.703	2845
813.845	2929
813.986	2792
814.127	2746
814.268	2838
814.41	2842
814.551	2823
814.692	2834
814.833	2830
814.974	2880
815.115	2990
815.256	2785
815.397	2788
815.539	2861
815.68	2785
815.821	2819
815.962	2929
816.103	2948
816.244	2906
816.385	2872
816.526	2982
816.666	2891
816.807	2735
816.948	2868
817.089	2902
817.23	2910
817.371	2785
817.512	2792
817.653	2826
817.793	2796
817.934	2880
818.075	2975
818.216	2986
818.356	3043
818.497	2922
818.638	2807
818.778	2804
818.919	2758
819.06	2758
819.2	2876
819.341	2826
819.481	2773
819.622	2914
819.762	3070
819.903	3032
820.043	2922
820.184	2899
820.324	2899
820.465	3020
820.605	3017
820.746	3001
820.886	2925
821.026	3112
821.167	3180
821.307	3237
821.447	3272
821.588	3245
821.728	3222
821.868	3165
822.008	3074
822.149	3203
822.289	3222
822.429	3097
822.569	3089
822.709	3176
822.849	3009
822.99	3116
823.13	3184
823.27	3169
823.41	3058
823.55	3146
823.69	3165
823.83	3154
823.97	3077
824.11	2986
824.25	3017
824.389	3070
824.529	3112
824.669	3070
824.809	3192
824.949	3233
825.089	3226
825.228	3150
825.368	2990
825.508	2952
825.648	2975
825.787	2994
825.927	3020
826.067	2948
826.206	2925
826.346	3043
826.485	3085
826.625	3093
826.765	3230
826.904	3211
827.044	2994
827.183	2937
827.323	2872
827.462	2982
827.601	2918
827.741	2918
827.88	2948
828.02	2845
828.159	2948
828.298	3039
828.437	3081
828.577	3077
828.716	3218
828.855	3066
828.994	2902
829.134	2880
829.273	2910
829.412	2876
829.551	2845
829.69	2899
829.829	2971
829.968	3097
830.107	3039
830.246	2979
830.385	2883
830.524	2853
830.663	2811
830.802	2731
830.941	2659
831.08	2648
831.219	2746
831.357	2758
831.496	2986
831.635	2716
831.774	2655
831.913	2648
832.051	2541
832.19	2590
832.329	2682
832.467	2545
832.606	2465
832.744	2590
832.883	2590
833.022	2594
833.16	2644
833.299	2667
833.437	2659
833.576	2674
833.714	2743
833.852	2727
833.991	2819
834.129	2823
834.267	2804
834.406	2804
834.544	2819
834.682	2868
834.821	2876
834.959	3047
835.097	2906
835.235	3058
835.373	2998
835.511	2990
835.65	2986
835.788	2971
835.926	2826
836.064	2781
836.202	2857
836.34	3100
836.478	3157
836.615	3043
836.753	3150
836.891	3214
837.029	3161
837.167	3119
837.305	3108
837.443	3047
837.58	2998
837.718	3169
837.856	3043
837.993	3020
838.131	3165
838.269	3055
838.406	3074
838.544	3058
838.681	2918
838.819	2914
838.956	2777
839.094	2845
839.231	2899
839.369	3009
839.506	3363
839.643	3218
839.781	2990
839.918	2948
840.055	3043
840.193	3074
840.33	3051
840.467	3089
840.604	3146
840.742	3386
840.879	3070
841.016	3047
841.153	3138
841.29	3283
841.427	3256
841.564	3302
841.701	3310
841.838	3207
841.975	3165
842.112	3192
842.249	3081
842.385	3055
842.522	3253
842.659	3089
842.796	3017
842.933	3085
843.069	3077
843.206	3009
843.343	3154
843.479	3146
843.616	3097
843.752	2899
843.889	2868
844.025	3066
844.162	2853
844.298	3024
844.435	2922
844.571	2899
844.708	3089
844.844	3199
844.98	3249
845.117	3169
845.253	3047
845.389	2971
845.525	3119
845.661	3097
845.798	2979
845.934	3108
846.07	3043
846.206	3233
846.342	3313
846.478	3218
846.614	3081
846.75	3036
846.886	3051
847.022	3287
847.158	3100
847.294	3199
847.429	3214
847.565	3214
847.701	3473
847.837	2990
847.972	3032
848.108	3131
848.244	3142
848.379	2990
848.515	2929
848.65	2944
848.786	2982
848.921	3020
849.057	3119
849.192	3127
849.328	3074
849.463	3123
849.598	3085
849.734	3024
849.869	2937
850.004	2906
850.14	2963
850.275	2906
850.41	2883
850.545	2883
850.68	2925
850.815	2948
850.95	2963
851.085	3180
851.22	3104
851.355	3013
851.49	2956
851.625	2998
851.76	2998
851.895	2891
852.03	2895
852.165	3028
852.299	3100
852.434	3199
852.569	3131
852.703	3176
852.838	3256
852.973	3348
853.107	3287
853.242	3116
853.376	3077
853.511	2971
853.645	3020
853.78	3203
853.914	3089
854.048	3112
854.183	3089
854.317	3138
854.451	3298
854.585	3112
854.72	3062
854.854	3203
854.988	3039
855.122	3055
855.256	2990
855.39	3135
855.524	3264
855.658	3169
855.792	3150
855.926	3176
856.06	3195
856.194	3256
856.327	3138
856.461	3093
856.595	3081
856.729	3070
856.862	3233
856.996	3142
857.13	3195
857.263	3230
857.397	3260
857.53	3097
857.664	3192
857.797	3188
857.931	3199
858.064	3184
858.197	3195
858.331	3123
858.464	3108
858.597	3001
858.731	3127
858.864	3138
858.997	3116
859.13	3131
859.263	3184
859.396	3199
859.529	3112
859.662	3077
859.795	3039
859.928	3157
860.061	3279
860.194	3287
860.327	3089
860.46	3077
860.592	3233
860.725	3233
860.858	3279
860.99	3116
861.123	3028
861.256	3058
861.388	3123
861.521	3945
861.653	3028
861.786	2982
861.918	2986
862.05	3077
862.183	3062
862.315	3157
862.447	3203
862.58	3100
862.712	2925
862.844	2861
862.976	3017
863.108	2944
863.24	3272
863.372	2861
863.504	2941
863.636	2914
863.768	3032
863.9	2971
864.032	2899
864.164	2933
864.296	2979
864.428	3070
864.559	3085
864.691	3020
864.823	3032
864.954	3020
865.086	3062
865.217	2979
865.349	2952
865.48	2982
865.612	3017
865.743	3173
865.875	2967
866.006	2933
866.137	2998
866.269	2944
866.4	2929
866.531	2906
866.662	2895
866.793	2906
866.924	2887
867.055	2967
867.186	2910
867.317	2853
867.448	2849
867.579	2842
867.71	2876
867.841	2819
867.972	2906
868.103	2883
868.233	2899
868.364	2845
868.495	2922
868.625	3036
868.756	3169
868.886	2986
869.017	3017
869.147	3157
869.278	3165
869.408	3005
869.539	2998
869.669	3074
869.799	3024
869.929	3138
870.06	3108
870.19	3382
870.32	3310
870.45	3291
870.58	3317
870.71	3458
870.84	3431
870.97	3298
871.1	3218
871.23	3507
871.36	3466
871.489	3363
871.619	3363
871.749	3382
871.879	3370
872.008	3473
872.138	3321
872.267	3268
872.397	3150
872.526	3093
872.656	2963
872.785	3108
872.915	3214
873.044	3332
873.173	3195
873.303	3233
873.432	3226
873.561	3226
873.69	3184
873.819	3127
873.948	3195
874.077	3093
874.206	3047
874.335	3058
874.464	3192
874.593	3329
874.722	3203
874.851	3393
874.979	3355
875.108	3268
875.237	3165
875.365	3131
875.494	3188
875.623	3253
875.751	3070
875.88	3119
876.008	3188
876.136	3176
876.265	3382
876.393	3542
876.521	3431
876.65	3370
876.778	3302
876.906	3264
877.034	3207
877.162	3230
877.29	3169
877.418	3249
877.546	3207
877.674	3237
877.802	3253
877.93	3211
878.058	3180
878.185	3093
878.313	3214
878.441	3195
878.568	3085
878.696	3161
878.824	3253
878.951	3268
879.079	3401
879.206	3652
879.333	3428
879.461	3302
879.588	3306
879.715	3481
879.842	3603
879.97	3336
880.097	3135
880.224	3116
880.351	3169
880.478	3199
880.605	3211
880.732	3169
880.859	3477
880.986	3291
881.112	3340
881.239	3203
881.366	3074
881.493	3020
881.619	3032
881.746	3077
881.872	3085
881.999	3112
882.125	3135
882.252	3211
882.378	3298
882.505	3428
882.631	3253
882.757	3154
882.883	3207
883.01	3249
883.136	3150
883.262	3093
883.388	3138
883.514	3249
883.64	3378
883.766	3268
883.892	3195
884.018	3218
884.143	3424
884.269	3496
884.395	3180
884.52	3138
884.646	3176
884.772	3112
884.897	3074
885.023	3211
885.148	3336
885.274	3443
885.399	3332
885.524	3283
885.65	3256
885.775	3329
885.9	3275
886.025	3428
886.15	3344
886.275	3317
886.4	3253
886.525	3275
886.65	3256
886.775	3264
886.9	3488
887.025	3660
887.149	3420
887.274	3241
887.399	3165
887.523	3199
887.648	3188
887.773	3180
887.897	3374
888.021	3412
888.146	3302
888.27	3428
888.395	3545
888.519	3458
888.643	3409
888.767	3466
888.891	3329
889.015	3264
889.139	3287
889.263	3214
889.387	3409
889.511	3492
889.635	3477
889.759	3275
889.883	3306
890.006	3370
890.13	3507
890.254	3313
890.377	3340
890.501	3230
890.624	3176
890.748	3321
890.871	3195
890.995	3108
891.118	3043
891.241	3173
891.364	3211
891.488	3283
891.611	3154
891.734	3176
891.857	3306
891.98	3226
892.103	3359
892.226	3264
892.349	3230
892.471	3100
892.594	3237
892.717	3302
892.839	3275
892.962	3310
893.085	3359
893.207	3321
893.33	3138
893.452	3203
893.575	3336
893.697	3275
893.819	3466
893.941	3504
894.064	3447
894.186	3268
894.308	3249
894.43	3428
894.552	3515
894.674	3477
894.796	3260
894.918	3321
895.04	3283
895.161	3431
895.283	3389
895.405	3302
895.526	3363
895.648	3424
895.769	3439
895.891	3447
896.012	3409
896.134	3488
896.255	3424
896.376	3344
896.498	3374
896.619	3450
896.74	3367
896.861	3431
896.982	3660
897.103	3838
897.224	3584
897.345	3549
897.466	3462
897.587	3496
897.708	3629
897.828	3534
897.949	3462
898.07	3310
898.19	3397
898.311	3633
898.431	3473
898.552	3500
898.672	3561
898.792	3561
898.913	3507
899.033	3367
899.153	3279
899.273	3218
899.393	3302
899.513	3332
899.633	3317
899.753	3313
899.873	3336
899.993	3370
900.113	3348
900.232	3378
900.352	3329
900.472	3287
900.591	3214
900.711	3298
900.83	3230
900.95	3428
901.069	3469
901.189	3340
901.308	3173
901.427	3123
901.546	3131
901.665	3321
901.784	3355
901.904	3199
902.023	3135
902.141	3051
902.26	3036
902.379	3104
902.498	3085
902.617	3051
902.735	3226
902.854	3207
902.973	3157
903.091	3051
903.21	3039
903.328	3108
903.446	3097
903.565	3131
903.683	3218
903.801	3146
903.919	3245
904.038	3272
904.156	3207
904.274	3298
904.392	3264
904.51	3264
904.627	3351
904.745	3389
904.863	3496
904.981	3264
905.098	3184
905.216	3256
905.334	3294
905.451	3268
905.569	3310
905.686	3416
905.803	3485
905.921	3279
906.038	3439
906.155	3321
906.272	3294
906.389	3283
906.506	3226
906.623	3230
906.74	3253
906.857	3184
906.974	3226
907.091	3462
907.208	3576
907.324	3469
907.441	3386
907.557	3192
907.674	3233
907.79	3176
907.907	3325
908.023	3409
908.139	3389
908.256	3332
908.372	3393
908.488	3367
908.604	3264
908.72	3233
908.836	3272
908.952	3268
909.068	3310
909.184	3485
909.3	3370
909.415	3469
909.531	3481
909.647	3291
909.762	3279
909.878	3249
909.993	3363
910.108	3374
910.224	3351
910.339	3374
910.454	3302
910.57	3317
910.685	3264
910.8	3587
910.915	3530
911.03	3378
911.145	3272
911.259	3272
911.374	3355
911.489	3245
911.604	3245
911.718	3112
911.833	3142
911.947	3047
912.062	2986
912.176	3131
912.291	3184
912.405	3226
912.519	3450
912.633	3450
912.748	3317
912.862	3253
912.976	3165
913.09	3070
913.204	3154
913.318	3222
913.431	3329
913.545	3272
913.659	3439
913.772	3355
913.886	3222
914	3207
914.113	3340
914.226	3405
914.34	3378
914.453	3226
914.566	3405
914.68	3272
914.793	3332
914.906	3150
915.019	3119
915.132	3039
915.245	3199
915.358	3192
915.47	3222
915.583	3272
915.696	3298
915.809	3351
915.921	3416
916.034	3237
916.146	3245
916.259	3214
916.371	3355
916.483	3393
916.595	3260
916.708	3336
916.82	3306
916.932	3348
917.044	3329
917.156	3344
917.268	3241
917.38	3294
917.491	3313
917.603	3336
917.715	3473
917.826	3523
917.938	3393
918.049	3332
918.161	3412
918.272	3606
918.384	3614
918.495	3485
918.606	3313
918.717	3264
918.828	3389
918.939	3450
919.05	3298
919.161	3355
919.272	3176
919.383	3313
919.494	3485
919.604	3667
919.715	3450
919.826	3397
919.936	3485
920.047	3564
920.157	3542
920.267	3747
920.378	3599
920.488	3519
920.598	3747
920.708	3983
920.818	3812
920.928	3831
921.038	4029
921.148	3983
921.258	3728
921.368	3656
921.477	3595
921.587	3542
921.697	3458
921.806	3663
921.916	3534
922.025	3386
922.134	3374
922.244	3287
922.353	3435
922.462	3272
922.571	3241
922.68	3138
922.789	3051
922.898	3123
923.007	3077
923.116	3199
923.224	3184
923.333	3192
923.442	3070
923.55	3085
923.659	3138
923.767	3226
923.876	3142
923.984	3222
924.092	3104
924.201	3203
924.309	3222
924.417	3279
924.525	3211
924.633	3241
924.741	3983
924.849	3058
924.956	3279
925.064	3074
925.172	3039
925.279	3100
925.387	3135
925.494	3211
925.602	3332
925.709	3279
925.816	3192
925.924	3283
926.031	3386
926.138	3336
926.245	3363
926.352	3218
926.459	3405
926.566	3443
926.673	3291
926.779	3291
926.886	3245
926.993	3123
927.099	3154
927.206	3116
927.312	3104
927.419	3233
927.525	3195
927.631	3264
927.737	3146
927.843	3104
927.95	3017
928.056	3093
928.162	3135
928.267	3283
928.373	3766
928.479	3317
928.585	3070
928.69	3195
928.796	3264
928.901	3157
929.007	3036
929.112	3173
929.218	3173
929.323	3169
929.428	3169
929.533	3332
929.638	3123
929.743	3154
929.848	3222
929.953	3207
930.058	3131
930.163	3020
930.267	3093
930.372	3226
930.477	3013
930.581	3325
930.685	3173
930.79	3043
930.894	3116
930.998	3112
931.103	3260
931.207	2956
931.311	2929
931.415	2948
931.519	2807
931.623	2838
