Data from test_V78500241_517.txt Node
Date: Fri Mar 25 16:18:47 CST 2022
User: usil
Spectrometer: V785-0024
Trigger mode: 0
Integration Time (sec): 4.000000E-1
Scans to average: 1
Nonlinearity correction enabled: false
Boxcar width: 0
Storing dark spectrum: false
XAxis mode: Wavelengths
Number of Pixels in Spectrum: 1024
>>>>>Begin Spectral Data<<<<<
801.071	2906
801.214	2914
801.356	2861
801.499	2880
801.641	2883
801.783	2895
801.926	3047
802.068	2956
802.211	2998
802.353	3020
802.496	2963
802.638	2998
802.78	3039
802.923	3089
803.065	2994
803.208	2891
803.35	2895
803.492	2960
803.635	2937
803.777	2746
803.919	2876
804.061	3214
804.204	2933
804.346	2906
804.488	2826
804.63	3005
804.773	2872
804.915	2906
805.057	3089
805.199	2956
805.341	2963
805.483	3028
805.626	2994
805.768	2944
805.91	3074
806.052	3108
806.194	2998
806.336	3199
806.478	3036
806.62	2922
806.762	2948
806.904	3036
807.046	3123
807.188	2941
807.33	2910
807.472	2979
807.614	2902
807.756	2963
807.898	2922
808.04	2845
808.182	2979
808.324	2956
808.465	2887
808.607	2857
808.749	2807
808.891	2842
809.033	2971
809.174	2971
809.316	2891
809.458	2872
809.6	2773
809.741	2792
809.883	2750
810.025	2838
810.166	2868
810.308	2823
810.45	2823
810.591	2739
810.733	2769
810.875	2834
811.016	2796
811.158	2754
811.299	2811
811.441	2948
811.582	2902
811.724	2811
811.865	2845
812.007	2933
812.148	2883
812.29	2864
812.431	2883
812.573	2925
812.714	2937
812.855	3055
812.997	3058
813.138	3135
813.279	3009
813.421	2990
813.562	2933
813.703	2857
813.845	2895
813.986	2796
814.127	2758
814.268	2800
814.41	2823
814.551	2792
814.692	2849
814.833	2807
814.974	2872
815.115	2994
815.256	2807
815.397	2826
815.539	2861
815.68	2811
815.821	2792
815.962	2937
816.103	2899
816.244	2902
816.385	2868
816.526	2986
816.666	2910
816.807	2739
816.948	2872
817.089	2902
817.23	2861
817.371	2739
817.512	2769
817.653	2834
817.793	2800
817.934	2857
818.075	2948
818.216	2986
818.356	3028
818.497	2895
818.638	2743
818.778	2830
818.919	2792
819.06	2754
819.2	2868
819.341	2800
819.481	2826
819.622	2941
819.762	3074
819.903	3020
820.043	2922
820.184	2899
820.324	2887
820.465	2990
820.605	3009
820.746	3047
820.886	2944
821.026	3131
821.167	3169
821.307	3279
821.447	3287
821.588	3214
821.728	3218
821.868	3203
822.008	3074
822.149	3222
822.289	3253
822.429	3070
822.569	3070
822.709	3169
822.849	3077
822.99	3062
823.13	3169
823.27	3199
823.41	3058
823.55	3150
823.69	3108
823.83	3169
823.97	3032
824.11	3017
824.25	2986
824.389	3074
824.529	3097
824.669	3066
824.809	3199
824.949	3199
825.089	3226
825.228	3138
825.368	2994
825.508	2944
825.648	2956
825.787	3028
825.927	3005
826.067	2922
826.206	2963
826.346	3039
826.485	3047
826.625	3100
826.765	3264
826.904	3184
827.044	2956
827.183	2922
827.323	2834
827.462	2963
827.601	2876
827.741	2941
827.88	2971
828.02	2857
828.159	2963
828.298	3039
828.437	3097
828.577	3039
828.716	3222
828.855	3081
828.994	2918
829.134	2902
829.273	2918
829.412	2845
829.551	2823
829.69	2861
829.829	2990
829.968	3112
830.107	3009
830.246	3005
830.385	2895
830.524	2876
830.663	2769
830.802	2712
830.941	2651
831.08	2598
831.219	2746
831.357	2758
831.496	2925
831.635	2708
831.774	2659
831.913	2651
832.051	2514
832.19	2564
832.329	2667
832.467	2533
832.606	2476
832.744	2549
832.883	2545
833.022	2556
833.16	2663
833.299	2670
833.437	2678
833.576	2674
833.714	2712
833.852	2697
833.991	2739
834.129	2830
834.267	2815
834.406	2788
834.544	2883
834.682	2872
834.821	2830
834.959	3051
835.097	2864
835.235	3062
835.373	2990
835.511	3024
835.65	2960
835.788	2941
835.926	2845
836.064	2800
836.202	2823
836.34	3081
836.478	3142
836.615	3047
836.753	3157
836.891	3249
837.029	3169
837.167	3112
837.305	3032
837.443	3020
837.58	2960
837.718	3097
837.856	3032
837.993	3017
838.131	3135
838.269	3077
838.406	3108
838.544	3097
838.681	2902
838.819	2906
838.956	2777
839.094	2834
839.231	2883
839.369	2986
839.506	3351
839.643	3184
839.781	2990
839.918	2929
840.055	3013
840.193	3043
840.33	3043
840.467	3112
840.604	3123
840.742	3386
840.879	3013
841.016	3047
841.153	3116
841.29	3351
841.427	3275
841.564	3302
841.701	3279
841.838	3249
841.975	3154
842.112	3173
842.249	3104
842.385	3036
842.522	3222
842.659	3097
842.796	3058
842.933	3093
843.069	3043
843.206	3039
843.343	3176
843.479	3093
843.616	3135
843.752	2899
843.889	2838
844.025	3093
844.162	2906
844.298	3074
844.435	2956
844.571	2910
844.708	3081
844.844	3184
844.98	3207
845.117	3233
845.253	3066
845.389	2948
845.525	3089
845.661	3116
845.798	2982
845.934	3165
846.07	3066
846.206	3214
846.342	3279
846.478	3237
846.614	3055
846.75	3017
846.886	2990
847.022	3249
847.158	3154
847.294	3211
847.429	3253
847.565	3184
847.701	3469
847.837	3017
847.972	2975
848.108	3161
848.244	3135
848.379	2982
848.515	2956
848.65	2941
848.786	2952
848.921	2971
849.057	3112
849.192	3119
849.328	3055
849.463	3074
849.598	3093
849.734	3047
849.869	2994
850.004	2883
850.14	2956
850.275	2910
850.41	2811
850.545	2861
850.68	2880
850.815	2979
850.95	2967
851.085	3192
851.22	3108
851.355	3001
851.49	2998
851.625	3017
851.76	2971
851.895	2906
852.03	2933
852.165	2998
852.299	3100
852.434	3180
852.569	3112
852.703	3195
852.838	3245
852.973	3340
853.107	3329
853.242	3116
853.376	3062
853.511	2986
853.645	3005
853.78	3214
853.914	3119
854.048	3123
854.183	3070
854.317	3146
854.451	3272
854.585	3104
854.72	3070
854.854	3184
854.988	3036
855.122	3062
855.256	2975
855.39	3089
855.524	3207
855.658	3184
855.792	3150
855.926	3195
856.06	3180
856.194	3249
856.327	3104
856.461	3081
856.595	3100
856.729	3070
856.862	3184
856.996	3138
857.13	3203
857.263	3214
857.397	3268
857.53	3119
857.664	3214
857.797	3268
857.931	3226
858.064	3142
858.197	3226
858.331	3104
858.464	3085
858.597	2994
858.731	3131
858.864	3138
858.997	3112
859.13	3161
859.263	3165
859.396	3199
859.529	3100
859.662	3081
859.795	3062
859.928	3108
860.061	3272
860.194	3272
860.327	3104
860.46	3043
860.592	3249
860.725	3203
860.858	3233
860.99	3123
861.123	3020
861.256	3055
861.388	3123
861.521	3781
861.653	3043
861.786	3005
861.918	3013
862.05	3032
862.183	3074
862.315	3119
862.447	3218
862.58	3100
862.712	3017
862.844	2861
862.976	3036
863.108	2975
863.24	3389
863.372	2868
863.504	2941
863.636	2956
863.768	3020
863.9	2956
864.032	2933
864.164	2910
864.296	2990
864.428	3074
864.559	3089
864.691	3039
864.823	3100
864.954	3032
865.086	3020
865.217	3020
865.349	2963
865.48	2994
865.612	3024
865.743	3142
865.875	2960
866.006	2941
866.137	2979
866.269	2944
866.4	2929
866.531	2910
866.662	2891
866.793	2887
866.924	2872
867.055	2948
867.186	2902
867.317	2891
867.448	2845
867.579	2853
867.71	2853
867.841	2807
867.972	2906
868.103	2891
868.233	2876
868.364	2891
868.495	2883
868.625	3062
868.756	3146
868.886	2963
869.017	2986
869.147	3173
869.278	3142
869.408	3039
869.539	2998
869.669	3070
869.799	2990
869.929	3135
870.06	3085
870.19	3313
870.32	3260
870.45	3302
870.58	3386
870.71	3450
870.84	3409
870.97	3237
871.1	3203
871.23	3469
871.36	3431
871.489	3363
871.619	3344
871.749	3389
871.879	3435
872.008	3469
872.138	3340
872.267	3241
872.397	3157
872.526	3062
872.656	2990
872.785	3081
872.915	3222
873.044	3291
873.173	3222
873.303	3249
873.432	3211
873.561	3230
873.69	3161
873.819	3127
873.948	3116
874.077	3112
874.206	3020
874.335	3055
874.464	3218
874.593	3332
874.722	3214
874.851	3389
874.979	3348
875.108	3298
875.237	3180
875.365	3127
875.494	3173
875.623	3226
875.751	3066
875.88	3051
876.008	3165
876.136	3214
876.265	3340
876.393	3511
876.521	3412
876.65	3336
876.778	3317
876.906	3233
877.034	3180
877.162	3249
877.29	3184
877.418	3230
877.546	3184
877.674	3245
877.802	3237
877.93	3207
878.058	3157
878.185	3135
878.313	3173
878.441	3192
878.568	3066
878.696	3154
878.824	3253
878.951	3302
879.079	3405
879.206	3633
879.333	3412
879.461	3340
879.588	3367
879.715	3469
879.842	3587
879.97	3382
880.097	3157
880.224	3100
880.351	3169
880.478	3222
880.605	3188
880.732	3188
880.859	3507
880.986	3233
881.112	3336
881.239	3192
881.366	3089
881.493	3005
881.619	2994
881.746	3081
881.872	3062
881.999	3074
882.125	3100
882.252	3226
882.378	3325
882.505	3443
882.631	3260
882.757	3150
882.883	3222
883.01	3192
883.136	3165
883.262	3085
883.388	3085
883.514	3294
883.64	3336
883.766	3302
883.892	3169
884.018	3199
884.143	3397
884.269	3542
884.395	3188
884.52	3142
884.646	3173
884.772	3085
884.897	3074
885.023	3169
885.148	3313
885.274	3393
885.399	3336
885.524	3275
885.65	3245
885.775	3298
885.9	3245
886.025	3439
886.15	3367
886.275	3291
886.4	3218
886.525	3260
886.65	3272
886.775	3294
886.9	3466
887.025	3610
887.149	3382
887.274	3226
887.399	3135
887.523	3237
887.648	3154
887.773	3176
887.897	3348
888.021	3370
888.146	3268
888.27	3439
888.395	3511
888.519	3424
888.643	3443
888.767	3435
888.891	3268
889.015	3233
889.139	3268
889.263	3207
889.387	3393
889.511	3530
889.635	3428
889.759	3294
889.883	3279
890.006	3393
890.13	3485
890.254	3230
890.377	3321
890.501	3165
890.624	3214
890.748	3310
890.871	3169
890.995	3112
891.118	3070
891.241	3169
891.364	3203
891.488	3317
891.611	3184
891.734	3222
891.857	3256
891.98	3268
892.103	3367
892.226	3283
892.349	3233
892.471	3077
892.594	3279
892.717	3313
892.839	3302
892.962	3306
893.085	3363
893.207	3317
893.33	3173
893.452	3207
893.575	3321
893.697	3268
893.819	3454
893.941	3553
894.064	3500
894.186	3313
894.308	3325
894.43	3504
894.552	3580
894.674	3504
894.796	3302
894.918	3332
895.04	3332
895.161	3466
895.283	3431
895.405	3386
895.526	3412
895.648	3526
895.769	3450
895.891	3515
896.012	3519
896.134	3538
896.255	3428
896.376	3462
896.498	3405
896.619	3473
896.74	3416
896.861	3424
896.982	3720
897.103	3857
897.224	3641
897.345	3481
897.466	3466
897.587	3549
897.708	3637
897.828	3591
897.949	3481
898.07	3386
898.19	3439
898.311	3637
898.431	3458
898.552	3549
898.672	3580
898.792	3633
898.913	3538
899.033	3473
899.153	3310
899.273	3306
899.393	3275
899.513	3344
899.633	3374
899.753	3378
899.873	3370
899.993	3431
900.113	3348
900.232	3374
900.352	3393
900.472	3344
900.591	3264
900.711	3321
900.83	3272
900.95	3447
901.069	3488
901.189	3382
901.308	3260
901.427	3173
901.546	3230
901.665	3313
901.784	3401
901.904	3249
902.023	3188
902.141	3051
902.26	3024
902.379	3165
902.498	3127
902.617	3070
902.735	3264
902.854	3256
902.973	3173
903.091	3089
903.21	3119
903.328	3176
903.446	3154
903.565	3169
903.683	3199
903.801	3203
903.919	3214
904.038	3332
904.156	3203
904.274	3344
904.392	3302
904.51	3344
904.627	3359
904.745	3466
904.863	3534
904.981	3298
905.098	3207
905.216	3256
905.334	3256
905.451	3348
905.569	3359
905.686	3443
905.803	3485
905.921	3317
906.038	3485
906.155	3424
906.272	3332
906.389	3351
906.506	3245
906.623	3253
906.74	3351
906.857	3241
906.974	3291
907.091	3469
907.208	3576
907.324	3500
907.441	3378
907.557	3241
907.674	3230
907.79	3241
907.907	3279
908.023	3401
908.139	3409
908.256	3367
908.372	3382
908.488	3370
908.604	3287
908.72	3272
908.836	3321
908.952	3321
909.068	3378
909.184	3504
909.3	3409
909.415	3538
909.531	3534
909.647	3298
909.762	3298
909.878	3253
909.993	3374
910.108	3325
910.224	3344
910.339	3450
910.454	3351
910.57	3306
910.685	3264
910.8	3599
910.915	3561
911.03	3428
911.145	3291
911.259	3325
911.374	3317
911.489	3272
911.604	3264
911.718	3169
911.833	3180
911.947	3047
912.062	2990
912.176	3214
912.291	3249
912.405	3222
912.519	3511
912.633	3488
912.748	3351
912.862	3294
912.976	3233
913.09	3097
913.204	3161
913.318	3268
913.431	3336
913.545	3382
913.659	3386
913.772	3351
913.886	3279
914	3214
914.113	3382
914.226	3431
914.34	3386
914.453	3241
914.566	3466
914.68	3321
914.793	3340
914.906	3192
915.019	3169
915.132	3100
915.245	3211
915.358	3203
915.47	3260
915.583	3321
915.696	3348
915.809	3469
915.921	3469
916.034	3298
916.146	3291
916.259	3264
916.371	3420
916.483	3386
916.595	3310
916.708	3336
916.82	3367
916.932	3332
917.044	3382
917.156	3401
917.268	3291
917.38	3348
917.491	3329
917.603	3393
917.715	3477
917.826	3507
917.938	3393
918.049	3310
918.161	3450
918.272	3618
918.384	3618
918.495	3507
918.606	3329
918.717	3317
918.828	3405
918.939	3435
919.05	3306
919.161	3386
919.272	3222
919.383	3325
919.494	3500
919.604	3713
919.715	3545
919.826	3447
919.936	3485
920.047	3606
920.157	3549
920.267	3774
920.378	3595
920.488	3599
920.598	3770
920.708	3987
920.818	3869
920.928	3838
921.038	4017
921.148	4093
921.258	3770
921.368	3660
921.477	3603
921.587	3576
921.697	3450
921.806	3663
921.916	3549
922.025	3397
922.134	3382
922.244	3348
922.353	3450
922.462	3249
922.571	3275
922.68	3142
922.789	3058
922.898	3180
923.007	3123
923.116	3222
923.224	3176
923.333	3230
923.442	3112
923.55	3127
923.659	3203
923.767	3245
923.876	3100
923.984	3256
924.092	3150
924.201	3233
924.309	3230
924.417	3245
924.525	3214
924.633	3237
924.741	4204
924.849	3093
924.956	3268
925.064	3104
925.172	3066
925.279	3157
925.387	3195
925.494	3233
925.602	3382
925.709	3336
925.816	3222
925.924	3329
926.031	3405
926.138	3351
926.245	3393
926.352	3268
926.459	3458
926.566	3500
926.673	3359
926.779	3283
926.886	3218
926.993	3192
927.099	3154
927.206	3176
927.312	3116
927.419	3275
927.525	3241
927.631	3260
927.737	3176
927.843	3093
927.95	3036
928.056	3157
928.162	3226
928.267	3256
928.373	3854
928.479	3336
928.585	3062
928.69	3230
928.796	3260
928.901	3188
929.007	3043
929.112	3260
929.218	3199
929.323	3180
929.428	3150
929.533	3294
929.638	3161
929.743	3214
929.848	3291
929.953	3233
930.058	3157
930.163	3039
930.267	3104
930.372	3249
930.477	3070
930.581	3351
930.685	3230
930.79	3055
930.894	3108
930.998	3154
931.103	3287
931.207	2986
931.311	2986
931.415	2975
931.519	2800
931.623	2838
