Data from test_V78500241_1833.txt Node
Date: Fri Mar 25 16:27:54 CST 2022
User: usil
Spectrometer: V785-0024
Trigger mode: 0
Integration Time (sec): 4.000000E-1
Scans to average: 1
Nonlinearity correction enabled: false
Boxcar width: 0
Storing dark spectrum: false
XAxis mode: Wavelengths
Number of Pixels in Spectrum: 1024
>>>>>Begin Spectral Data<<<<<
801.071	2918
801.214	2960
801.356	2864
801.499	2906
801.641	2902
801.783	2971
801.926	3074
802.068	3005
802.211	2994
802.353	3074
802.496	2963
802.638	3020
802.78	3005
802.923	3077
803.065	3009
803.208	2899
803.35	2948
803.492	2944
803.635	2937
803.777	2785
803.919	2876
804.061	3211
804.204	2963
804.346	2948
804.488	2864
804.63	2998
804.773	2887
804.915	2887
805.057	3028
805.199	2937
805.341	2956
805.483	3017
805.626	3017
805.768	2967
805.91	3100
806.052	3089
806.194	3036
806.336	3214
806.478	3024
806.62	2963
806.762	2975
806.904	3032
807.046	3154
807.188	2998
807.33	2899
807.472	2979
807.614	2899
807.756	3020
807.898	2929
808.04	2880
808.182	2956
808.324	2937
808.465	2895
808.607	2918
808.749	2792
808.891	2838
809.033	2941
809.174	2967
809.316	2887
809.458	2880
809.6	2807
809.741	2758
809.883	2773
810.025	2864
810.166	2868
810.308	2849
810.45	2864
810.591	2796
810.733	2720
810.875	2853
811.016	2804
811.158	2762
811.299	2815
811.441	2948
811.582	2883
811.724	2830
811.865	2826
812.007	2914
812.148	2887
812.29	2819
812.431	2899
812.573	2910
812.714	2982
812.855	3058
812.997	3081
813.138	3146
813.279	3020
813.421	2979
813.562	2979
813.703	2876
813.845	2910
813.986	2735
814.127	2712
814.268	2819
814.41	2807
814.551	2815
814.692	2868
814.833	2781
814.974	2883
815.115	2925
815.256	2834
815.397	2811
815.539	2815
815.68	2777
815.821	2815
815.962	2948
816.103	2929
816.244	2849
816.385	2872
816.526	2941
816.666	2925
816.807	2735
816.948	2876
817.089	2902
817.23	2838
817.371	2781
817.512	2788
817.653	2853
817.793	2826
817.934	2880
818.075	2967
818.216	2998
818.356	3020
818.497	2857
818.638	2758
818.778	2823
818.919	2785
819.06	2769
819.2	2861
819.341	2819
819.481	2773
819.622	2925
819.762	3066
819.903	3032
820.043	2922
820.184	2902
820.324	2883
820.465	2990
820.605	3020
820.746	3036
820.886	2933
821.026	3081
821.167	3104
821.307	3218
821.447	3275
821.588	3264
821.728	3211
821.868	3188
822.008	3081
822.149	3211
822.289	3211
822.429	3039
822.569	3089
822.709	3169
822.849	3020
822.99	3085
823.13	3131
823.27	3237
823.41	3070
823.55	3119
823.69	3150
823.83	3169
823.97	3131
824.11	2982
824.25	2998
824.389	3043
824.529	3116
824.669	3089
824.809	3173
824.949	3245
825.089	3180
825.228	3157
825.368	3039
825.508	2925
825.648	3005
825.787	3024
825.927	3047
826.067	2967
826.206	2933
826.346	3036
826.485	3119
826.625	3138
826.765	3264
826.904	3260
827.044	3039
827.183	2960
827.323	2849
827.462	3017
827.601	2925
827.741	2956
827.88	2994
828.02	2880
828.159	3001
828.298	3066
828.437	3165
828.577	3077
828.716	3260
828.855	3108
828.994	2952
829.134	2899
829.273	2982
829.412	2906
829.551	2861
829.69	2918
829.829	3055
829.968	3176
830.107	3028
830.246	3077
830.385	2982
830.524	2902
830.663	2872
830.802	2773
830.941	2697
831.08	2678
831.219	2838
831.357	2811
831.496	2990
831.635	2777
831.774	2682
831.913	2712
832.051	2602
832.19	2610
832.329	2724
832.467	2568
832.606	2549
832.744	2625
832.883	2594
833.022	2648
833.16	2697
833.299	2716
833.437	2773
833.576	2727
833.714	2743
833.852	2758
833.991	2788
834.129	2880
834.267	2853
834.406	2853
834.544	2883
834.682	2880
834.821	2883
834.959	3097
835.097	2956
835.235	3081
835.373	3017
835.511	3089
835.65	2986
835.788	2998
835.926	2864
836.064	2914
836.202	2891
836.34	3138
836.478	3161
836.615	3108
836.753	3180
836.891	3214
837.029	3237
837.167	3154
837.305	3081
837.443	3085
837.58	3009
837.718	3165
837.856	3100
837.993	3074
838.131	3165
838.269	3161
838.406	3112
838.544	3104
838.681	2971
838.819	2963
838.956	2849
839.094	2876
839.231	2933
839.369	3066
839.506	3416
839.643	3260
839.781	3047
839.918	3001
840.055	3066
840.193	3062
840.33	3093
840.467	3131
840.604	3188
840.742	3458
840.879	3112
841.016	3093
841.153	3146
841.29	3367
841.427	3325
841.564	3287
841.701	3359
841.838	3241
841.975	3207
842.112	3245
842.249	3081
842.385	3093
842.522	3310
842.659	3161
842.796	3123
842.933	3146
843.069	3074
843.206	3070
843.343	3214
843.479	3150
843.616	3165
843.752	2941
843.889	2952
844.025	3097
844.162	2925
844.298	3127
844.435	2990
844.571	2941
844.708	3119
844.844	3195
844.98	3249
845.117	3218
845.253	3085
845.389	3039
845.525	3123
845.661	3108
845.798	3051
845.934	3150
846.07	3093
846.206	3218
846.342	3359
846.478	3230
846.614	3123
846.75	3093
846.886	3020
847.022	3302
847.158	3176
847.294	3207
847.429	3332
847.565	3222
847.701	3511
847.837	3043
847.972	3039
848.108	3146
848.244	3154
848.379	3013
848.515	2986
848.65	2960
848.786	3009
848.921	3055
849.057	3138
849.192	3199
849.328	3089
849.463	3154
849.598	3112
849.734	3070
849.869	2998
850.004	2963
850.14	2990
850.275	2960
850.41	2872
850.545	2937
850.68	2944
850.815	3005
850.95	2994
851.085	3245
851.22	3169
851.355	3036
851.49	3013
851.625	3013
851.76	3043
851.895	2971
852.03	2956
852.165	3070
852.299	3119
852.434	3207
852.569	3157
852.703	3237
852.838	3287
852.973	3348
853.107	3370
853.242	3180
853.376	3112
853.511	2971
853.645	3119
853.78	3279
853.914	3150
854.048	3131
854.183	3100
854.317	3173
854.451	3329
854.585	3154
854.72	3089
854.854	3260
854.988	3055
855.122	3097
855.256	3005
855.39	3127
855.524	3256
855.658	3207
855.792	3169
855.926	3214
856.06	3260
856.194	3298
856.327	3203
856.461	3070
856.595	3127
856.729	3146
856.862	3275
856.996	3180
857.13	3253
857.263	3253
857.397	3294
857.53	3173
857.664	3195
857.797	3260
857.931	3279
858.064	3203
858.197	3249
858.331	3157
858.464	3097
858.597	3036
858.731	3176
858.864	3146
858.997	3123
859.13	3192
859.263	3211
859.396	3203
859.529	3108
859.662	3074
859.795	3055
859.928	3180
860.061	3279
860.194	3283
860.327	3157
860.46	3169
860.592	3226
860.725	3294
860.858	3249
860.99	3131
861.123	3100
861.256	3100
861.388	3180
861.521	3907
861.653	3024
861.786	3009
861.918	3043
862.05	3043
862.183	3150
862.315	3161
862.447	3245
862.58	3119
862.712	3005
862.844	2895
862.976	3074
863.108	3051
863.24	3447
863.372	2880
863.504	3024
863.636	2990
863.768	3055
863.9	3013
864.032	2944
864.164	2986
864.296	3036
864.428	3104
864.559	3104
864.691	3108
864.823	3093
864.954	3017
865.086	3039
865.217	3043
865.349	2979
865.48	2986
865.612	3036
865.743	3184
865.875	3009
866.006	2948
866.137	2994
866.269	2956
866.4	2933
866.531	2918
866.662	2922
866.793	2960
866.924	2906
867.055	3024
867.186	2933
867.317	2918
867.448	2838
867.579	2872
867.71	2857
867.841	2834
867.972	2933
868.103	2880
868.233	2922
868.364	2914
868.495	2906
868.625	3089
868.756	3165
868.886	3017
869.017	3028
869.147	3173
869.278	3173
869.408	3070
869.539	3051
869.669	3112
869.799	3093
869.929	3146
870.06	3127
870.19	3332
870.32	3256
870.45	3287
870.58	3424
870.71	3454
870.84	3485
870.97	3283
871.1	3226
871.23	3488
871.36	3500
871.489	3382
871.619	3412
871.749	3424
871.879	3477
872.008	3481
872.138	3386
872.267	3283
872.397	3131
872.526	3127
872.656	3043
872.785	3123
872.915	3249
873.044	3306
873.173	3249
873.303	3222
873.432	3233
873.561	3268
873.69	3165
873.819	3173
873.948	3214
874.077	3135
874.206	3043
874.335	3100
874.464	3241
874.593	3340
874.722	3253
874.851	3450
874.979	3370
875.108	3367
875.237	3249
875.365	3203
875.494	3180
875.623	3272
875.751	3112
875.88	3157
876.008	3237
876.136	3260
876.265	3382
876.393	3530
876.521	3424
876.65	3386
876.778	3348
876.906	3260
877.034	3188
877.162	3245
877.29	3207
877.418	3272
877.546	3268
877.674	3268
877.802	3253
877.93	3260
878.058	3176
878.185	3146
878.313	3184
878.441	3188
878.568	3104
878.696	3138
878.824	3275
878.951	3340
879.079	3435
879.206	3610
879.333	3454
879.461	3363
879.588	3370
879.715	3504
879.842	3587
879.97	3389
880.097	3199
880.224	3100
880.351	3241
880.478	3226
880.605	3184
880.732	3218
880.859	3519
880.986	3313
881.112	3340
881.239	3222
881.366	3104
881.493	3058
881.619	3028
881.746	3100
881.872	3127
881.999	3104
882.125	3165
882.252	3241
882.378	3306
882.505	3507
882.631	3253
882.757	3188
882.883	3283
883.01	3222
883.136	3199
883.262	3138
883.388	3066
883.514	3317
883.64	3389
883.766	3359
883.892	3180
884.018	3230
884.143	3420
884.269	3545
884.395	3207
884.52	3157
884.646	3184
884.772	3093
884.897	3081
885.023	3214
885.148	3378
885.274	3409
885.399	3401
885.524	3310
885.65	3237
885.775	3359
885.9	3279
886.025	3420
886.15	3367
886.275	3329
886.4	3241
886.525	3310
886.65	3294
886.775	3325
886.9	3511
887.025	3641
887.149	3447
887.274	3279
887.399	3222
887.523	3199
887.648	3165
887.773	3192
887.897	3420
888.021	3420
888.146	3325
888.27	3443
888.395	3545
888.519	3431
888.643	3454
888.767	3492
888.891	3317
889.015	3275
889.139	3306
889.263	3249
889.387	3409
889.511	3496
889.635	3443
889.759	3302
889.883	3294
890.006	3401
890.13	3500
890.254	3287
890.377	3313
890.501	3249
890.624	3199
890.748	3306
890.871	3207
890.995	3112
891.118	3089
891.241	3199
891.364	3199
891.488	3317
891.611	3199
891.734	3226
891.857	3348
891.98	3230
892.103	3332
892.226	3313
892.349	3218
892.471	3135
892.594	3272
892.717	3253
892.839	3279
892.962	3321
893.085	3378
893.207	3283
893.33	3184
893.452	3173
893.575	3367
893.697	3264
893.819	3500
893.941	3523
894.064	3435
894.186	3272
894.308	3272
894.43	3454
894.552	3557
894.674	3454
894.796	3264
894.918	3336
895.04	3298
895.161	3447
895.283	3382
895.405	3306
895.526	3382
895.648	3420
895.769	3409
895.891	3447
896.012	3473
896.134	3500
896.255	3439
896.376	3382
896.498	3351
896.619	3424
896.74	3412
896.861	3389
896.982	3671
897.103	3827
897.224	3660
897.345	3534
897.466	3447
897.587	3507
897.708	3644
897.828	3542
897.949	3431
898.07	3340
898.19	3416
898.311	3618
898.431	3435
898.552	3507
898.672	3610
898.792	3568
898.913	3538
899.033	3401
899.153	3348
899.273	3211
899.393	3287
899.513	3313
899.633	3348
899.753	3367
899.873	3302
899.993	3389
900.113	3348
900.232	3401
900.352	3370
900.472	3302
900.591	3241
900.711	3329
900.83	3222
900.95	3416
901.069	3507
901.189	3382
901.308	3192
901.427	3135
901.546	3173
901.665	3298
901.784	3332
901.904	3230
902.023	3169
902.141	3024
902.26	2998
902.379	3119
902.498	3066
902.617	3055
902.735	3226
902.854	3306
902.973	3226
903.091	3039
903.21	3085
903.328	3135
903.446	3104
903.565	3100
903.683	3203
903.801	3108
903.919	3241
904.038	3344
904.156	3188
904.274	3313
904.392	3268
904.51	3306
904.627	3332
904.745	3469
904.863	3545
904.981	3260
905.098	3165
905.216	3237
905.334	3291
905.451	3332
905.569	3291
905.686	3393
905.803	3428
905.921	3283
906.038	3435
906.155	3374
906.272	3272
906.389	3336
906.506	3218
906.623	3272
906.74	3294
906.857	3165
906.974	3291
907.091	3447
907.208	3584
907.324	3477
907.441	3340
907.557	3211
907.674	3237
907.79	3249
907.907	3279
908.023	3370
908.139	3389
908.256	3310
908.372	3374
908.488	3370
908.604	3272
908.72	3230
908.836	3332
908.952	3298
909.068	3336
909.184	3481
909.3	3386
909.415	3496
909.531	3485
909.647	3279
909.762	3325
909.878	3275
909.993	3367
910.108	3351
910.224	3332
910.339	3450
910.454	3340
910.57	3291
910.685	3233
910.8	3572
910.915	3534
911.03	3382
911.145	3249
911.259	3306
911.374	3317
911.489	3279
911.604	3249
911.718	3123
911.833	3154
911.947	3032
912.062	2960
912.176	3173
912.291	3222
912.405	3226
912.519	3416
912.633	3500
912.748	3378
912.862	3272
912.976	3169
913.09	3036
913.204	3131
913.318	3241
913.431	3332
913.545	3367
913.659	3435
913.772	3313
913.886	3214
914	3199
914.113	3397
914.226	3454
914.34	3340
914.453	3237
914.566	3401
914.68	3287
914.793	3325
914.906	3142
915.019	3089
915.132	3081
915.245	3188
915.358	3195
915.47	3226
915.583	3245
915.696	3329
915.809	3405
915.921	3367
916.034	3226
916.146	3275
916.259	3260
916.371	3336
916.483	3393
916.595	3298
916.708	3317
916.82	3348
916.932	3310
917.044	3306
917.156	3359
917.268	3268
917.38	3302
917.491	3272
917.603	3336
917.715	3401
917.826	3454
917.938	3397
918.049	3294
918.161	3420
918.272	3584
918.384	3557
918.495	3485
918.606	3306
918.717	3260
918.828	3405
918.939	3412
919.05	3329
919.161	3397
919.272	3199
919.383	3298
919.494	3492
919.604	3675
919.715	3488
919.826	3370
919.936	3435
920.047	3622
920.157	3576
920.267	3755
920.378	3584
920.488	3557
920.598	3755
920.708	3922
920.818	3785
920.928	3838
921.038	3991
921.148	4002
921.258	3679
921.368	3591
921.477	3553
921.587	3557
921.697	3485
921.806	3625
921.916	3549
922.025	3344
922.134	3359
922.244	3302
922.353	3428
922.462	3256
922.571	3195
922.68	3089
922.789	3070
922.898	3138
923.007	3081
923.116	3211
923.224	3195
923.333	3165
923.442	3104
923.55	3100
923.659	3138
923.767	3226
923.876	3123
923.984	3268
924.092	3142
924.201	3214
924.309	3241
924.417	3256
924.525	3192
924.633	3222
924.741	4188
924.849	3005
924.956	3253
925.064	3066
925.172	2998
925.279	3119
925.387	3195
925.494	3184
925.602	3340
925.709	3363
925.816	3161
925.924	3275
926.031	3397
926.138	3298
926.245	3386
926.352	3230
926.459	3428
926.566	3458
926.673	3359
926.779	3233
926.886	3237
926.993	3131
927.099	3165
927.206	3100
927.312	3116
927.419	3245
927.525	3237
927.631	3245
927.737	3138
927.843	3119
927.95	3020
928.056	3154
928.162	3161
928.267	3245
928.373	3766
928.479	3329
928.585	3081
928.69	3222
928.796	3313
928.901	3192
929.007	3058
929.112	3192
929.218	3195
929.323	3203
929.428	3176
929.533	3317
929.638	3104
929.743	3161
929.848	3233
929.953	3218
930.058	3135
930.163	2979
930.267	3024
930.372	3203
930.477	3020
930.581	3325
930.685	3184
930.79	3081
930.894	3131
930.998	3104
931.103	3313
931.207	2979
931.311	2948
931.415	2937
931.519	2792
931.623	2785
