Data from test_V78500241_1673.txt Node
Date: Fri Mar 25 16:26:47 CST 2022
User: usil
Spectrometer: V785-0024
Trigger mode: 0
Integration Time (sec): 4.000000E-1
Scans to average: 1
Nonlinearity correction enabled: false
Boxcar width: 0
Storing dark spectrum: false
XAxis mode: Wavelengths
Number of Pixels in Spectrum: 1024
>>>>>Begin Spectral Data<<<<<
801.071	2929
801.214	2982
801.356	2872
801.499	2899
801.641	2922
801.783	2941
801.926	3058
802.068	2967
802.211	2960
802.353	3043
802.496	2979
802.638	3020
802.78	3077
802.923	3093
803.065	3028
803.208	2895
803.35	2925
803.492	2944
803.635	2941
803.777	2746
803.919	2849
804.061	3192
804.204	2986
804.346	2899
804.488	2853
804.63	2975
804.773	2834
804.915	2937
805.057	3058
805.199	2956
805.341	2979
805.483	3055
805.626	3009
805.768	2918
805.91	3116
806.052	3119
806.194	3062
806.336	3237
806.478	3062
806.62	2941
806.762	2982
806.904	3070
807.046	3146
807.188	2998
807.33	2929
807.472	2990
807.614	2868
807.756	3020
807.898	2948
808.04	2880
808.182	2967
808.324	2944
808.465	2842
808.607	2861
808.749	2800
808.891	2838
809.033	2967
809.174	2982
809.316	2918
809.458	2914
809.6	2769
809.741	2792
809.883	2762
810.025	2834
810.166	2906
810.308	2807
810.45	2842
810.591	2788
810.733	2769
810.875	2842
811.016	2796
811.158	2750
811.299	2826
811.441	2925
811.582	2880
811.724	2815
811.865	2830
812.007	2876
812.148	2895
812.29	2842
812.431	2872
812.573	2937
812.714	3009
812.855	3036
812.997	3039
813.138	3123
813.279	3028
813.421	2994
813.562	2929
813.703	2899
813.845	2880
813.986	2773
814.127	2693
814.268	2788
814.41	2834
814.551	2788
814.692	2872
814.833	2781
814.974	2887
815.115	2967
815.256	2815
815.397	2777
815.539	2864
815.68	2792
815.821	2815
815.962	2971
816.103	2944
816.244	2853
816.385	2868
816.526	2941
816.666	2922
816.807	2746
816.948	2868
817.089	2929
817.23	2811
817.371	2781
817.512	2750
817.653	2826
817.793	2788
817.934	2876
818.075	2975
818.216	2994
818.356	3017
818.497	2883
818.638	2777
818.778	2807
818.919	2788
819.06	2720
819.2	2868
819.341	2788
819.481	2815
819.622	2922
819.762	3085
819.903	3062
820.043	2887
820.184	2929
820.324	2880
820.465	3036
820.605	3013
820.746	2990
820.886	2918
821.026	3089
821.167	3173
821.307	3268
821.447	3325
821.588	3222
821.728	3222
821.868	3207
822.008	3070
822.149	3218
822.289	3260
822.429	3108
822.569	3074
822.709	3188
822.849	3020
822.99	3070
823.13	3218
823.27	3268
823.41	3176
823.55	3127
823.69	3173
823.83	3218
823.97	3108
824.11	3036
824.25	3047
824.389	3112
824.529	3146
824.669	3142
824.809	3241
824.949	3302
825.089	3279
825.228	3146
825.368	3036
825.508	2982
825.648	3001
825.787	3051
825.927	3039
826.067	3017
826.206	3005
826.346	3074
826.485	3100
826.625	3119
826.765	3310
826.904	3226
827.044	2994
827.183	2963
827.323	2914
827.462	3028
827.601	2933
827.741	3001
827.88	2998
828.02	2922
828.159	3013
828.298	3039
828.437	3165
828.577	3066
828.716	3275
828.855	3100
828.994	2948
829.134	2941
829.273	2971
829.412	2918
829.551	2887
829.69	2929
829.829	2990
829.968	3173
830.107	3085
830.246	3036
830.385	2937
830.524	2891
830.663	2834
830.802	2773
830.941	2693
831.08	2689
831.219	2807
831.357	2804
831.496	2990
831.635	2773
831.774	2667
831.913	2701
832.051	2575
832.19	2590
832.329	2739
832.467	2568
832.606	2541
832.744	2629
832.883	2613
833.022	2655
833.16	2655
833.299	2731
833.437	2716
833.576	2750
833.714	2750
833.852	2758
833.991	2804
834.129	2883
834.267	2868
834.406	2796
834.544	2906
834.682	2902
834.821	2883
834.959	3097
835.097	2902
835.235	3100
835.373	3013
835.511	3032
835.65	3013
835.788	2998
835.926	2845
836.064	2830
836.202	2883
836.34	3135
836.478	3176
836.615	3081
836.753	3161
836.891	3249
837.029	3173
837.167	3138
837.305	3081
837.443	3077
837.58	3009
837.718	3157
837.856	3100
837.993	3047
838.131	3138
838.269	3074
838.406	3142
838.544	3097
838.681	2994
838.819	2952
838.956	2883
839.094	2868
839.231	2960
839.369	3081
839.506	3374
839.643	3275
839.781	3077
839.918	2956
840.055	3074
840.193	3081
840.33	3100
840.467	3146
840.604	3207
840.742	3424
840.879	3104
841.016	3070
841.153	3135
841.29	3359
841.427	3332
841.564	3298
841.701	3306
841.838	3256
841.975	3184
842.112	3207
842.249	3116
842.385	3066
842.522	3272
842.659	3127
842.796	3074
842.933	3184
843.069	3066
843.206	3070
843.343	3214
843.479	3108
843.616	3192
843.752	2952
843.889	2902
844.025	3161
844.162	2918
844.298	3074
844.435	2975
844.571	2944
844.708	3077
844.844	3226
844.98	3275
845.117	3230
845.253	3066
845.389	3039
845.525	3138
845.661	3142
845.798	3055
845.934	3142
846.07	3077
846.206	3245
846.342	3382
846.478	3249
846.614	3108
846.75	3089
846.886	3077
847.022	3260
847.158	3184
847.294	3237
847.429	3264
847.565	3260
847.701	3530
847.837	3097
847.972	3005
848.108	3222
848.244	3169
848.379	3024
848.515	2910
848.65	2937
848.786	2963
848.921	3055
849.057	3131
849.192	3199
849.328	3085
849.463	3150
849.598	3085
849.734	3074
849.869	2986
850.004	2929
850.14	2986
850.275	2906
850.41	2849
850.545	2914
850.68	2960
850.815	2967
850.95	2979
851.085	3226
851.22	3100
851.355	3051
851.49	2998
851.625	3036
851.76	3036
851.895	2960
852.03	2941
852.165	3028
852.299	3157
852.434	3199
852.569	3173
852.703	3169
852.838	3283
852.973	3370
853.107	3351
853.242	3142
853.376	3116
853.511	2994
853.645	3013
853.78	3245
853.914	3146
854.048	3108
854.183	3112
854.317	3138
854.451	3317
854.585	3131
854.72	3085
854.854	3218
854.988	3062
855.122	3081
855.256	3036
855.39	3154
855.524	3260
855.658	3199
855.792	3142
855.926	3222
856.06	3214
856.194	3302
856.327	3169
856.461	3108
856.595	3104
856.729	3100
856.862	3279
856.996	3169
857.13	3230
857.263	3253
857.397	3306
857.53	3119
857.664	3226
857.797	3237
857.931	3275
858.064	3150
858.197	3249
858.331	3161
858.464	3116
858.597	3001
858.731	3123
858.864	3173
858.997	3089
859.13	3169
859.263	3173
859.396	3249
859.529	3108
859.662	3070
859.795	3055
859.928	3165
860.061	3272
860.194	3306
860.327	3146
860.46	3100
860.592	3268
860.725	3294
860.858	3291
860.99	3093
861.123	3077
861.256	3070
861.388	3180
861.521	3865
861.653	3051
861.786	3047
861.918	2986
862.05	3093
862.183	3104
862.315	3108
862.447	3207
862.58	3112
862.712	2971
862.844	2876
862.976	3009
863.108	2994
863.24	3450
863.372	2899
863.504	2994
863.636	2971
863.768	3032
863.9	2986
864.032	2975
864.164	2952
864.296	3009
864.428	3074
864.559	3097
864.691	3085
864.823	3135
864.954	3047
865.086	3043
865.217	3024
865.349	2960
865.48	2982
865.612	3017
865.743	3176
865.875	3009
866.006	2948
866.137	2975
866.269	2952
866.4	2933
866.531	2956
866.662	2906
866.793	2880
866.924	2922
867.055	2994
867.186	2986
867.317	2902
867.448	2861
867.579	2868
867.71	2842
867.841	2849
867.972	2922
868.103	2933
868.233	2922
868.364	2922
868.495	2925
868.625	3074
868.756	3195
868.886	3005
869.017	3036
869.147	3192
869.278	3150
869.408	3051
869.539	2998
869.669	3146
869.799	3047
869.929	3142
870.06	3161
870.19	3325
870.32	3329
870.45	3298
870.58	3397
870.71	3439
870.84	3454
870.97	3313
871.1	3275
871.23	3523
871.36	3443
871.489	3351
871.619	3412
871.749	3401
871.879	3431
872.008	3454
872.138	3332
872.267	3275
872.397	3146
872.526	3104
872.656	3017
872.785	3119
872.915	3253
873.044	3294
873.173	3214
873.303	3260
873.432	3306
873.561	3230
873.69	3135
873.819	3192
873.948	3237
874.077	3100
874.206	3058
874.335	3097
874.464	3241
874.593	3336
874.722	3294
874.851	3386
874.979	3348
875.108	3348
875.237	3241
875.365	3222
875.494	3169
875.623	3245
875.751	3085
875.88	3131
876.008	3203
876.136	3222
876.265	3370
876.393	3488
876.521	3439
876.65	3428
876.778	3393
876.906	3298
877.034	3188
877.162	3237
877.29	3176
877.418	3283
877.546	3245
877.674	3287
877.802	3245
877.93	3241
878.058	3214
878.185	3108
878.313	3192
878.441	3207
878.568	3058
878.696	3161
878.824	3241
878.951	3348
879.079	3462
879.206	3618
879.333	3439
879.461	3348
879.588	3336
879.715	3492
879.842	3622
879.97	3416
880.097	3184
880.224	3097
880.351	3165
880.478	3233
880.605	3165
880.732	3211
880.859	3481
880.986	3294
881.112	3370
881.239	3272
881.366	3116
881.493	3036
881.619	3028
881.746	3089
881.872	3081
881.999	3123
882.125	3176
882.252	3294
882.378	3306
882.505	3435
882.631	3287
882.757	3138
882.883	3218
883.01	3211
883.136	3218
883.262	3142
883.388	3100
883.514	3348
883.64	3416
883.766	3310
883.892	3222
884.018	3249
884.143	3435
884.269	3485
884.395	3173
884.52	3203
884.646	3131
884.772	3154
884.897	3085
885.023	3230
885.148	3329
885.274	3431
885.399	3386
885.524	3298
885.65	3294
885.775	3332
885.9	3332
886.025	3431
886.15	3363
886.275	3283
886.4	3218
886.525	3310
886.65	3294
886.775	3275
886.9	3572
887.025	3622
887.149	3409
887.274	3294
887.399	3184
887.523	3195
887.648	3218
887.773	3199
887.897	3386
888.021	3435
888.146	3306
888.27	3454
888.395	3549
888.519	3435
888.643	3477
888.767	3462
888.891	3313
889.015	3279
889.139	3291
889.263	3260
889.387	3462
889.511	3530
889.635	3447
889.759	3298
889.883	3291
890.006	3393
890.13	3500
890.254	3275
890.377	3351
890.501	3241
890.624	3180
890.748	3272
890.871	3176
890.995	3116
891.118	3074
891.241	3214
891.364	3279
891.488	3336
891.611	3195
891.734	3237
891.857	3298
891.98	3260
892.103	3359
892.226	3264
892.349	3214
892.471	3131
892.594	3283
892.717	3302
892.839	3275
892.962	3272
893.085	3401
893.207	3325
893.33	3184
893.452	3241
893.575	3355
893.697	3233
893.819	3473
893.941	3507
894.064	3462
894.186	3249
894.308	3253
894.43	3412
894.552	3504
894.674	3462
894.796	3253
894.918	3287
895.04	3279
895.161	3420
895.283	3370
895.405	3283
895.526	3348
895.648	3447
895.769	3458
895.891	3435
896.012	3412
896.134	3485
896.255	3409
896.376	3389
896.498	3367
896.619	3374
896.74	3359
896.861	3439
896.982	3637
897.103	3861
897.224	3599
897.345	3523
897.466	3469
897.587	3530
897.708	3637
897.828	3591
897.949	3450
898.07	3351
898.19	3412
898.311	3603
898.431	3469
898.552	3526
898.672	3606
898.792	3591
898.913	3542
899.033	3428
899.153	3279
899.273	3241
899.393	3321
899.513	3321
899.633	3332
899.753	3325
899.873	3313
899.993	3382
900.113	3344
900.232	3386
900.352	3336
900.472	3321
900.591	3249
900.711	3268
900.83	3249
900.95	3389
901.069	3428
901.189	3389
901.308	3184
901.427	3119
901.546	3211
901.665	3272
901.784	3340
901.904	3214
902.023	3146
902.141	3043
902.26	2979
902.379	3123
902.498	3085
902.617	3066
902.735	3237
902.854	3260
902.973	3207
903.091	3001
903.21	3070
903.328	3203
903.446	3127
903.565	3112
903.683	3203
903.801	3119
903.919	3226
904.038	3291
904.156	3138
904.274	3283
904.392	3272
904.51	3336
904.627	3367
904.745	3431
904.863	3549
904.981	3241
905.098	3165
905.216	3233
905.334	3287
905.451	3264
905.569	3294
905.686	3443
905.803	3420
905.921	3329
906.038	3435
906.155	3344
906.272	3268
906.389	3336
906.506	3211
906.623	3279
906.74	3283
906.857	3184
906.974	3245
907.091	3450
907.208	3584
907.324	3492
907.441	3389
907.557	3249
907.674	3218
907.79	3199
907.907	3283
908.023	3382
908.139	3386
908.256	3344
908.372	3382
908.488	3351
908.604	3294
908.72	3222
908.836	3294
908.952	3306
909.068	3329
909.184	3473
909.3	3401
909.415	3515
909.531	3515
909.647	3336
909.762	3291
909.878	3241
909.993	3405
910.108	3336
910.224	3325
910.339	3389
910.454	3374
910.57	3332
910.685	3233
910.8	3564
910.915	3504
911.03	3428
911.145	3283
911.259	3275
911.374	3329
911.489	3256
911.604	3199
911.718	3146
911.833	3180
911.947	3028
912.062	3009
912.176	3188
912.291	3169
912.405	3192
912.519	3462
912.633	3462
912.748	3367
912.862	3325
912.976	3154
913.09	3051
913.204	3135
913.318	3207
913.431	3310
913.545	3348
913.659	3393
913.772	3325
913.886	3218
914	3218
914.113	3351
914.226	3401
914.34	3374
914.453	3214
914.566	3435
914.68	3313
914.793	3291
914.906	3184
915.019	3119
915.132	3081
915.245	3218
915.358	3180
915.47	3237
915.583	3302
915.696	3272
915.809	3389
915.921	3412
916.034	3253
916.146	3253
916.259	3226
916.371	3389
916.483	3336
916.595	3291
916.708	3321
916.82	3351
916.932	3340
917.044	3325
917.156	3321
917.268	3291
917.38	3310
917.491	3268
917.603	3351
917.715	3450
917.826	3481
917.938	3401
918.049	3256
918.161	3420
918.272	3599
918.384	3545
918.495	3469
918.606	3359
918.717	3279
918.828	3367
918.939	3443
919.05	3294
919.161	3355
919.272	3173
919.383	3253
919.494	3507
919.604	3671
919.715	3507
919.826	3420
919.936	3443
920.047	3618
920.157	3580
920.267	3728
920.378	3622
920.488	3564
920.598	3736
920.708	3945
920.818	3819
920.928	3831
921.038	4002
921.148	3934
921.258	3728
921.368	3622
921.477	3568
921.587	3523
921.697	3507
921.806	3633
921.916	3557
922.025	3374
922.134	3340
922.244	3260
922.353	3428
922.462	3272
922.571	3241
922.68	3104
922.789	3074
922.898	3173
923.007	3112
923.116	3207
923.224	3176
923.333	3195
923.442	3085
923.55	3093
923.659	3116
923.767	3211
923.876	3116
923.984	3264
924.092	3097
924.201	3169
924.309	3226
924.417	3218
924.525	3214
924.633	3241
924.741	4181
924.849	3058
924.956	3306
925.064	3089
925.172	3051
925.279	3097
925.387	3203
925.494	3176
925.602	3355
925.709	3332
925.816	3188
925.924	3310
926.031	3367
926.138	3340
926.245	3367
926.352	3264
926.459	3447
926.566	3454
926.673	3325
926.779	3253
926.886	3233
926.993	3138
927.099	3104
927.206	3081
927.312	3127
927.419	3188
927.525	3230
927.631	3268
927.737	3131
927.843	3157
927.95	3009
928.056	3142
928.162	3135
928.267	3249
928.373	3865
928.479	3272
928.585	3047
928.69	3192
928.796	3237
928.901	3165
929.007	3081
929.112	3207
929.218	3146
929.323	3176
929.428	3157
929.533	3310
929.638	3070
929.743	3188
929.848	3279
929.953	3176
930.058	3116
930.163	2990
930.267	3077
930.372	3195
930.477	3036
930.581	3340
930.685	3169
930.79	3093
930.894	3112
930.998	3100
931.103	3283
931.207	2963
931.311	2979
931.415	2960
931.519	2773
931.623	2785
