Data from test_V78500241_983.txt Node
Date: Fri Mar 25 16:22:00 CST 2022
User: usil
Spectrometer: V785-0024
Trigger mode: 0
Integration Time (sec): 4.000000E-1
Scans to average: 1
Nonlinearity correction enabled: false
Boxcar width: 0
Storing dark spectrum: false
XAxis mode: Wavelengths
Number of Pixels in Spectrum: 1024
>>>>>Begin Spectral Data<<<<<
801.071	2922
801.214	2941
801.356	2891
801.499	2929
801.641	2902
801.783	2956
801.926	3077
802.068	2975
802.211	2979
802.353	3005
802.496	2975
802.638	3005
802.78	3028
802.923	3100
803.065	3001
803.208	2918
803.35	2944
803.492	2948
803.635	2937
803.777	2777
803.919	2880
804.061	3214
804.204	2929
804.346	2906
804.488	2857
804.63	3005
804.773	2849
804.915	2887
805.057	3062
805.199	2937
805.341	2967
805.483	3039
805.626	2979
805.768	2982
805.91	3112
806.052	3081
806.194	3024
806.336	3253
806.478	3089
806.62	2967
806.762	2986
806.904	3036
807.046	3142
807.188	2998
807.33	2918
807.472	3017
807.614	2902
807.756	2994
807.898	2918
808.04	2925
808.182	3020
808.324	2979
808.465	2876
808.607	2880
808.749	2804
808.891	2853
809.033	2952
809.174	2967
809.316	2899
809.458	2918
809.6	2792
809.741	2762
809.883	2746
810.025	2880
810.166	2887
810.308	2830
810.45	2883
810.591	2769
810.733	2766
810.875	2815
811.016	2815
811.158	2766
811.299	2872
811.441	2929
811.582	2902
811.724	2815
811.865	2872
812.007	2902
812.148	2910
812.29	2910
812.431	2948
812.573	2937
812.714	2952
812.855	3055
812.997	3085
813.138	3112
813.279	3009
813.421	2975
813.562	2971
813.703	2849
813.845	2880
813.986	2762
814.127	2754
814.268	2834
814.41	2853
814.551	2800
814.692	2891
814.833	2842
814.974	2891
815.115	2960
815.256	2807
815.397	2823
815.539	2849
815.68	2807
815.821	2792
815.962	2979
816.103	2933
816.244	2853
816.385	2876
816.526	2960
816.666	2918
816.807	2731
816.948	2922
817.089	2933
817.23	2834
817.371	2773
817.512	2830
817.653	2811
817.793	2845
817.934	2906
818.075	2971
818.216	2998
818.356	2994
818.497	2887
818.638	2792
818.778	2811
818.919	2762
819.06	2788
819.2	2902
819.341	2853
819.481	2777
819.622	2929
819.762	3116
819.903	3032
820.043	2933
820.184	2906
820.324	2868
820.465	3017
820.605	2994
820.746	3024
820.886	2914
821.026	3108
821.167	3142
821.307	3283
821.447	3264
821.588	3173
821.728	3218
821.868	3192
822.008	3108
822.149	3214
822.289	3226
822.429	3085
822.569	3081
822.709	3195
822.849	3009
822.99	3062
823.13	3146
823.27	3135
823.41	3097
823.55	3131
823.69	3154
823.83	3207
823.97	3097
824.11	3005
824.25	2990
824.389	3097
824.529	3081
824.669	3028
824.809	3237
824.949	3211
825.089	3218
825.228	3165
825.368	2998
825.508	2937
825.648	2929
825.787	2998
825.927	3013
826.067	2963
826.206	2944
826.346	3017
826.485	3081
826.625	3119
826.765	3237
826.904	3195
827.044	3009
827.183	2914
827.323	2838
827.462	2956
827.601	2922
827.741	2902
827.88	2990
828.02	2845
828.159	2994
828.298	3043
828.437	3085
828.577	3051
828.716	3264
828.855	3055
828.994	2933
829.134	2845
829.273	2918
829.412	2887
829.551	2838
829.69	2899
829.829	2986
829.968	3112
830.107	2986
830.246	3036
830.385	2887
830.524	2868
830.663	2811
830.802	2724
830.941	2644
831.08	2629
831.219	2735
831.357	2750
831.496	2990
831.635	2727
831.774	2625
831.913	2663
832.051	2549
832.19	2549
832.329	2667
832.467	2541
832.606	2473
832.744	2571
832.883	2568
833.022	2598
833.16	2674
833.299	2678
833.437	2716
833.576	2712
833.714	2697
833.852	2727
833.991	2746
834.129	2815
834.267	2838
834.406	2781
834.544	2887
834.682	2883
834.821	2868
834.959	3089
835.097	2883
835.235	3055
835.373	2986
835.511	3009
835.65	2956
835.788	2979
835.926	2811
836.064	2804
836.202	2823
836.34	3104
836.478	3108
836.615	3070
836.753	3138
836.891	3176
837.029	3161
837.167	3077
837.305	3051
837.443	3028
837.58	2952
837.718	3097
837.856	3062
837.993	3028
838.131	3127
838.269	3100
838.406	3081
838.544	3077
838.681	2918
838.819	2952
838.956	2785
839.094	2830
839.231	2910
839.369	3009
839.506	3378
839.643	3230
839.781	3005
839.918	2956
840.055	3028
840.193	3039
840.33	3070
840.467	3089
840.604	3161
840.742	3389
840.879	3028
841.016	3028
841.153	3135
841.29	3370
841.427	3249
841.564	3272
841.701	3329
841.838	3207
841.975	3192
842.112	3207
842.249	3089
842.385	3028
842.522	3230
842.659	3100
842.796	3058
842.933	3081
843.069	3070
843.206	3020
843.343	3211
843.479	3119
843.616	3100
843.752	2906
843.889	2861
844.025	3108
844.162	2883
844.298	3055
844.435	2948
844.571	2891
844.708	3070
844.844	3173
844.98	3195
845.117	3169
845.253	3024
845.389	2948
845.525	3089
845.661	3081
845.798	2994
845.934	3100
846.07	3051
846.206	3230
846.342	3291
846.478	3211
846.614	3093
846.75	2994
846.886	3017
847.022	3264
847.158	3112
847.294	3203
847.429	3195
847.565	3173
847.701	3435
847.837	3005
847.972	2941
848.108	3135
848.244	3112
848.379	2967
848.515	2899
848.65	2899
848.786	2979
848.921	2998
849.057	3108
849.192	3142
849.328	3055
849.463	3119
849.598	3062
849.734	3039
849.869	3028
850.004	2941
850.14	3001
850.275	2895
850.41	2819
850.545	2880
850.68	2902
850.815	2937
850.95	2982
851.085	3192
851.22	3112
851.355	3039
851.49	2956
851.625	2982
851.76	2979
851.895	2929
852.03	2925
852.165	3020
852.299	3100
852.434	3165
852.569	3169
852.703	3146
852.838	3253
852.973	3348
853.107	3344
853.242	3131
853.376	3070
853.511	2937
853.645	3028
853.78	3180
853.914	3089
854.048	3119
854.183	3077
854.317	3116
854.451	3283
854.585	3100
854.72	3097
854.854	3180
854.988	3028
855.122	3066
855.256	2967
855.39	3077
855.524	3245
855.658	3184
855.792	3157
855.926	3180
856.06	3211
856.194	3260
856.327	3180
856.461	3055
856.595	3070
856.729	3085
856.862	3192
856.996	3142
857.13	3169
857.263	3230
857.397	3272
857.53	3116
857.664	3169
857.797	3207
857.931	3260
858.064	3154
858.197	3157
858.331	3146
858.464	3119
858.597	3005
858.731	3093
858.864	3123
858.997	3089
859.13	3108
859.263	3180
859.396	3207
859.529	3070
859.662	3066
859.795	3058
859.928	3123
860.061	3275
860.194	3298
860.327	3135
860.46	3112
860.592	3237
860.725	3264
860.858	3283
860.99	3077
861.123	3055
861.256	3074
861.388	3150
861.521	3785
861.653	2990
861.786	2994
861.918	3024
862.05	3047
862.183	3100
862.315	3161
862.447	3180
862.58	3085
862.712	2944
862.844	2880
862.976	2986
863.108	2979
863.24	3416
863.372	2887
863.504	2971
863.636	2960
863.768	3005
863.9	2963
864.032	2914
864.164	2941
864.296	2986
864.428	3062
864.559	3097
864.691	3062
864.823	3047
864.954	3036
865.086	3036
865.217	2986
865.349	2971
865.48	2990
865.612	3005
865.743	3135
865.875	3001
866.006	2925
866.137	2952
866.269	2948
866.4	2922
866.531	2899
866.662	2918
866.793	2902
866.924	2876
867.055	3001
867.186	2918
867.317	2868
867.448	2857
867.579	2807
867.71	2826
867.841	2838
867.972	2914
868.103	2868
868.233	2861
868.364	2880
868.495	2899
868.625	3047
868.756	3154
868.886	2994
869.017	3001
869.147	3176
869.278	3165
869.408	3032
869.539	3032
869.669	3104
869.799	3039
869.929	3104
870.06	3085
870.19	3325
870.32	3310
870.45	3291
870.58	3378
870.71	3458
870.84	3435
870.97	3264
871.1	3279
871.23	3488
871.36	3458
871.489	3382
871.619	3393
871.749	3389
871.879	3416
872.008	3458
872.138	3351
872.267	3253
872.397	3161
872.526	3074
872.656	3024
872.785	3108
872.915	3203
873.044	3310
873.173	3226
873.303	3256
873.432	3241
873.561	3245
873.69	3154
873.819	3127
873.948	3184
874.077	3131
874.206	3032
874.335	3085
874.464	3199
874.593	3332
874.722	3268
874.851	3382
874.979	3332
875.108	3313
875.237	3188
875.365	3188
875.494	3142
875.623	3195
875.751	3058
875.88	3154
876.008	3180
876.136	3222
876.265	3367
876.393	3530
876.521	3412
876.65	3428
876.778	3317
876.906	3211
877.034	3184
877.162	3207
877.29	3192
877.418	3275
877.546	3222
877.674	3226
877.802	3199
877.93	3214
878.058	3100
878.185	3112
878.313	3222
878.441	3203
878.568	3070
878.696	3176
878.824	3237
878.951	3325
879.079	3412
879.206	3599
879.333	3416
879.461	3359
879.588	3363
879.715	3515
879.842	3561
879.97	3378
880.097	3157
880.224	3131
880.351	3173
880.478	3233
880.605	3192
880.732	3169
880.859	3477
880.986	3298
881.112	3321
881.239	3237
881.366	3070
881.493	3005
881.619	3028
881.746	3066
881.872	3085
881.999	3039
882.125	3161
882.252	3249
882.378	3275
882.505	3454
882.631	3294
882.757	3131
882.883	3195
883.01	3222
883.136	3135
883.262	3070
883.388	3112
883.514	3310
883.64	3367
883.766	3329
883.892	3192
884.018	3253
884.143	3401
884.269	3542
884.395	3176
884.52	3176
884.646	3169
884.772	3127
884.897	3135
885.023	3195
885.148	3313
885.274	3397
885.399	3325
885.524	3245
885.65	3256
885.775	3272
885.9	3272
886.025	3386
886.15	3348
886.275	3332
886.4	3268
886.525	3313
886.65	3233
886.775	3268
886.9	3504
887.025	3622
887.149	3409
887.274	3226
887.399	3157
887.523	3184
887.648	3180
887.773	3214
887.897	3389
888.021	3393
888.146	3279
888.27	3424
888.395	3526
888.519	3431
888.643	3458
888.767	3481
888.891	3367
889.015	3256
889.139	3283
889.263	3222
889.387	3378
889.511	3507
889.635	3473
889.759	3275
889.883	3298
890.006	3351
890.13	3496
890.254	3264
890.377	3329
890.501	3211
890.624	3150
890.748	3325
890.871	3165
890.995	3089
891.118	3089
891.241	3192
891.364	3253
891.488	3302
891.611	3142
891.734	3222
891.857	3272
891.98	3218
892.103	3355
892.226	3294
892.349	3203
892.471	3085
892.594	3211
892.717	3275
892.839	3272
892.962	3287
893.085	3336
893.207	3272
893.33	3116
893.452	3214
893.575	3344
893.697	3233
893.819	3454
893.941	3496
894.064	3443
894.186	3264
894.308	3256
894.43	3435
894.552	3564
894.674	3450
894.796	3298
894.918	3294
895.04	3294
895.161	3435
895.283	3382
895.405	3332
895.526	3325
895.648	3428
895.769	3420
895.891	3450
896.012	3462
896.134	3466
896.255	3431
896.376	3397
896.498	3374
896.619	3378
896.74	3359
896.861	3393
896.982	3629
897.103	3812
897.224	3599
897.345	3492
897.466	3416
897.587	3500
897.708	3618
897.828	3485
897.949	3424
898.07	3370
898.19	3389
898.311	3584
898.431	3469
898.552	3519
898.672	3618
898.792	3576
898.913	3523
899.033	3412
899.153	3302
899.273	3245
899.393	3313
899.513	3291
899.633	3310
899.753	3313
899.873	3306
899.993	3382
900.113	3336
900.232	3382
900.352	3344
900.472	3241
900.591	3157
900.711	3275
900.83	3264
900.95	3428
901.069	3534
901.189	3302
901.308	3173
901.427	3146
901.546	3199
901.665	3294
901.784	3317
901.904	3222
902.023	3112
902.141	2990
902.26	3024
902.379	3154
902.498	3062
902.617	3036
902.735	3222
902.854	3188
902.973	3180
903.091	3009
903.21	3093
903.328	3127
903.446	3104
903.565	3097
903.683	3233
903.801	3131
903.919	3253
904.038	3294
904.156	3157
904.274	3298
904.392	3253
904.51	3310
904.627	3351
904.745	3439
904.863	3473
904.981	3249
905.098	3142
905.216	3237
905.334	3275
905.451	3287
905.569	3279
905.686	3401
905.803	3443
905.921	3275
906.038	3428
906.155	3393
906.272	3245
906.389	3359
906.506	3226
906.623	3260
906.74	3253
906.857	3173
906.974	3249
907.091	3435
907.208	3580
907.324	3458
907.441	3378
907.557	3176
907.674	3268
907.79	3188
907.907	3283
908.023	3397
908.139	3367
908.256	3302
908.372	3367
908.488	3359
908.604	3233
908.72	3180
908.836	3256
908.952	3272
909.068	3310
909.184	3466
909.3	3401
909.415	3488
909.531	3473
909.647	3279
909.762	3260
909.878	3287
909.993	3348
910.108	3340
910.224	3363
910.339	3374
910.454	3310
910.57	3268
910.685	3241
910.8	3587
910.915	3496
911.03	3393
911.145	3272
911.259	3264
911.374	3310
911.489	3222
911.604	3245
911.718	3135
911.833	3127
911.947	3074
912.062	2982
912.176	3154
912.291	3165
912.405	3218
912.519	3469
912.633	3466
912.748	3359
912.862	3291
912.976	3138
913.09	3047
913.204	3127
913.318	3226
913.431	3351
913.545	3359
913.659	3447
913.772	3344
913.886	3211
914	3211
914.113	3340
914.226	3454
914.34	3367
914.453	3207
914.566	3416
914.68	3256
914.793	3298
914.906	3100
915.019	3108
915.132	3051
915.245	3173
915.358	3218
915.47	3165
915.583	3237
915.696	3306
915.809	3416
915.921	3412
916.034	3291
916.146	3272
916.259	3283
916.371	3351
916.483	3355
916.595	3268
916.708	3294
916.82	3332
916.932	3298
917.044	3332
917.156	3344
917.268	3249
917.38	3310
917.491	3275
917.603	3401
917.715	3485
917.826	3439
917.938	3382
918.049	3279
918.161	3412
918.272	3572
918.384	3530
918.495	3477
918.606	3313
918.717	3287
918.828	3389
918.939	3401
919.05	3272
919.161	3355
919.272	3173
919.383	3306
919.494	3485
919.604	3720
919.715	3469
919.826	3386
919.936	3420
920.047	3584
920.157	3542
920.267	3751
920.378	3618
920.488	3595
920.598	3778
920.708	3956
920.818	3816
920.928	3869
921.038	4032
921.148	4002
921.258	3667
921.368	3625
921.477	3591
921.587	3511
921.697	3450
921.806	3656
921.916	3542
922.025	3359
922.134	3355
922.244	3340
922.353	3450
922.462	3302
922.571	3245
922.68	3074
922.789	3070
922.898	3123
923.007	3112
923.116	3199
923.224	3184
923.333	3157
923.442	3097
923.55	3112
923.659	3119
923.767	3203
923.876	3093
923.984	3214
924.092	3081
924.201	3173
924.309	3199
924.417	3245
924.525	3195
924.633	3199
924.741	4105
924.849	3043
924.956	3306
925.064	3070
925.172	3024
925.279	3119
925.387	3230
925.494	3150
925.602	3367
925.709	3336
925.816	3192
925.924	3260
926.031	3367
926.138	3344
926.245	3389
926.352	3275
926.459	3401
926.566	3500
926.673	3306
926.779	3241
926.886	3264
926.993	3150
927.099	3135
927.206	3108
927.312	3112
927.419	3249
927.525	3226
927.631	3283
927.737	3146
927.843	3119
927.95	3039
928.056	3138
928.162	3138
928.267	3264
928.373	3842
928.479	3302
928.585	3058
928.69	3207
928.796	3253
928.901	3165
929.007	3028
929.112	3218
929.218	3176
929.323	3169
929.428	3146
929.533	3332
929.638	3116
929.743	3192
929.848	3230
929.953	3199
930.058	3135
930.163	2994
930.267	3070
930.372	3173
930.477	3047
930.581	3283
930.685	3176
930.79	3051
930.894	3165
930.998	3100
931.103	3256
931.207	2948
931.311	2963
931.415	2887
931.519	2766
931.623	2807
