Data from test_V78500241_489.txt Node
Date: Fri Mar 25 16:18:35 CST 2022
User: usil
Spectrometer: V785-0024
Trigger mode: 0
Integration Time (sec): 4.000000E-1
Scans to average: 1
Nonlinearity correction enabled: false
Boxcar width: 0
Storing dark spectrum: false
XAxis mode: Wavelengths
Number of Pixels in Spectrum: 1024
>>>>>Begin Spectral Data<<<<<
801.071	2876
801.214	2899
801.356	2853
801.499	2895
801.641	2849
801.783	2922
801.926	3039
802.068	2979
802.211	2986
802.353	3020
802.496	2944
802.638	3020
802.78	3020
802.923	3104
803.065	2975
803.208	2891
803.35	2895
803.492	2948
803.635	2922
803.777	2727
803.919	2864
804.061	3188
804.204	2929
804.346	2895
804.488	2857
804.63	3017
804.773	2853
804.915	2895
805.057	3081
805.199	2944
805.341	2948
805.483	3028
805.626	2986
805.768	2929
805.91	3051
806.052	3089
806.194	3009
806.336	3253
806.478	3058
806.62	2956
806.762	2941
806.904	3085
807.046	3135
807.188	3001
807.33	2872
807.472	2952
807.614	2891
807.756	2952
807.898	2929
808.04	2941
808.182	2975
808.324	2937
808.465	2872
808.607	2849
808.749	2773
808.891	2815
809.033	2979
809.174	2967
809.316	2914
809.458	2872
809.6	2792
809.741	2758
809.883	2758
810.025	2853
810.166	2845
810.308	2845
810.45	2853
810.591	2769
810.733	2777
810.875	2834
811.016	2766
811.158	2731
811.299	2800
811.441	2952
811.582	2902
811.724	2834
811.865	2838
812.007	2918
812.148	2868
812.29	2838
812.431	2914
812.573	2952
812.714	2937
812.855	3047
812.997	3024
813.138	3119
813.279	2956
813.421	2952
813.562	2971
813.703	2887
813.845	2899
813.986	2750
814.127	2731
814.268	2800
814.41	2872
814.551	2815
814.692	2880
814.833	2769
814.974	2891
815.115	2956
815.256	2826
815.397	2819
815.539	2872
815.68	2781
815.821	2777
815.962	2937
816.103	2925
816.244	2880
816.385	2857
816.526	2956
816.666	2899
816.807	2739
816.948	2906
817.089	2918
817.23	2891
817.371	2785
817.512	2788
817.653	2811
817.793	2842
817.934	2842
818.075	2956
818.216	2967
818.356	3024
818.497	2868
818.638	2800
818.778	2800
818.919	2788
819.06	2727
819.2	2872
819.341	2781
819.481	2788
819.622	2937
819.762	3070
819.903	3020
820.043	2910
820.184	2891
820.324	2891
820.465	3036
820.605	2994
820.746	3036
820.886	2914
821.026	3089
821.167	3157
821.307	3294
821.447	3256
821.588	3249
821.728	3184
821.868	3226
822.008	3055
822.149	3199
822.289	3184
822.429	3100
822.569	3131
822.709	3169
822.849	3013
822.99	3070
823.13	3161
823.27	3199
823.41	3093
823.55	3138
823.69	3135
823.83	3195
823.97	3112
824.11	3024
824.25	2975
824.389	3043
824.529	3112
824.669	3055
824.809	3199
824.949	3268
825.089	3218
825.228	3150
825.368	2971
825.508	2971
825.648	2986
825.787	3024
825.927	3017
826.067	2960
826.206	2937
826.346	3032
826.485	3036
826.625	3123
826.765	3233
826.904	3226
827.044	2982
827.183	2895
827.323	2876
827.462	2990
827.601	2902
827.741	2906
827.88	2952
828.02	2807
828.159	2975
828.298	3017
828.437	3097
828.577	3062
828.716	3188
828.855	3093
828.994	2918
829.134	2902
829.273	2899
829.412	2834
829.551	2880
829.69	2876
829.829	3024
829.968	3108
830.107	3024
830.246	3032
830.385	2937
830.524	2838
830.663	2804
830.802	2712
830.941	2659
831.08	2598
831.219	2781
831.357	2750
831.496	2937
831.635	2689
831.774	2670
831.913	2602
832.051	2518
832.19	2590
832.329	2686
832.467	2518
832.606	2499
832.744	2571
832.883	2583
833.022	2590
833.16	2655
833.299	2640
833.437	2708
833.576	2678
833.714	2720
833.852	2731
833.991	2716
834.129	2807
834.267	2826
834.406	2785
834.544	2868
834.682	2853
834.821	2864
834.959	3043
835.097	2902
835.235	3043
835.373	3009
835.511	3009
835.65	2937
835.788	2929
835.926	2830
836.064	2792
836.202	2830
836.34	3085
836.478	3119
836.615	3062
836.753	3195
836.891	3214
837.029	3131
837.167	3085
837.305	3058
837.443	3032
837.58	2956
837.718	3119
837.856	3055
837.993	3017
838.131	3116
838.269	3127
838.406	3081
838.544	3058
838.681	2948
838.819	2902
838.956	2796
839.094	2834
839.231	2922
839.369	2998
839.506	3386
839.643	3218
839.781	3032
839.918	2952
840.055	3001
840.193	3017
840.33	3070
840.467	3093
840.604	3135
840.742	3416
840.879	3043
841.016	3013
841.153	3108
841.29	3317
841.427	3287
841.564	3245
841.701	3310
841.838	3203
841.975	3146
842.112	3188
842.249	3062
842.385	3005
842.522	3275
842.659	3100
842.796	3074
842.933	3116
843.069	3043
843.206	3036
843.343	3165
843.479	3104
843.616	3135
843.752	2864
843.889	2849
844.025	3051
844.162	2876
844.298	3066
844.435	2952
844.571	2891
844.708	3047
844.844	3146
844.98	3237
845.117	3199
845.253	3028
845.389	3005
845.525	3097
845.661	3104
845.798	3032
845.934	3112
846.07	3062
846.206	3226
846.342	3310
846.478	3195
846.614	3108
846.75	3024
846.886	2994
847.022	3237
847.158	3093
847.294	3211
847.429	3283
847.565	3203
847.701	3454
847.837	2986
847.972	3047
848.108	3146
848.244	3138
848.379	2986
848.515	2948
848.65	2914
848.786	2929
848.921	3009
849.057	3077
849.192	3135
849.328	3074
849.463	3112
849.598	3058
849.734	3020
849.869	2975
850.004	2925
850.14	2933
850.275	2937
850.41	2834
850.545	2883
850.68	2948
850.815	2929
850.95	2975
851.085	3142
851.22	3100
851.355	3055
851.49	2967
851.625	3001
851.76	3005
851.895	2956
852.03	2868
852.165	2967
852.299	3077
852.434	3142
852.569	3119
852.703	3165
852.838	3211
852.973	3351
853.107	3325
853.242	3135
853.376	3066
853.511	2994
853.645	3020
853.78	3226
853.914	3119
854.048	3089
854.183	3081
854.317	3180
854.451	3260
854.585	3150
854.72	3070
854.854	3218
854.988	3039
855.122	3077
855.256	2963
855.39	3108
855.524	3233
855.658	3138
855.792	3157
855.926	3150
856.06	3195
856.194	3249
856.327	3150
856.461	3081
856.595	3074
856.729	3077
856.862	3199
856.996	3169
857.13	3180
857.263	3192
857.397	3275
857.53	3154
857.664	3184
857.797	3241
857.931	3230
858.064	3146
858.197	3233
858.331	3112
858.464	3024
858.597	2994
858.731	3112
858.864	3112
858.997	3077
859.13	3131
859.263	3150
859.396	3199
859.529	3077
859.662	3051
859.795	3043
859.928	3119
860.061	3249
860.194	3298
860.327	3142
860.46	3119
860.592	3268
860.725	3245
860.858	3260
860.99	3097
861.123	2990
861.256	3081
861.388	3154
861.521	3835
861.653	3036
861.786	3020
861.918	2979
862.05	3077
862.183	3108
862.315	3104
862.447	3192
862.58	3085
862.712	2963
862.844	2864
862.976	2990
863.108	2952
863.24	3298
863.372	2899
863.504	2941
863.636	2937
863.768	3005
863.9	3009
864.032	2880
864.164	2956
864.296	2986
864.428	3104
864.559	3127
864.691	3074
864.823	3062
864.954	3077
865.086	3009
865.217	2975
865.349	2925
865.48	2994
865.612	2998
865.743	3142
865.875	2979
866.006	2933
866.137	2982
866.269	2906
866.4	2929
866.531	2952
866.662	2956
866.793	2868
866.924	2914
867.055	2975
867.186	2922
867.317	2842
867.448	2883
867.579	2853
867.71	2807
867.841	2792
867.972	2876
868.103	2906
868.233	2891
868.364	2864
868.495	2887
868.625	3058
868.756	3135
868.886	2967
869.017	2998
869.147	3150
869.278	3116
869.408	3043
869.539	3017
869.669	3108
869.799	3062
869.929	3100
870.06	3051
870.19	3348
870.32	3294
870.45	3332
870.58	3370
870.71	3420
870.84	3466
870.97	3272
871.1	3230
871.23	3443
871.36	3477
871.489	3310
871.619	3412
871.749	3351
871.879	3393
872.008	3481
872.138	3351
872.267	3230
872.397	3157
872.526	3116
872.656	3009
872.785	3104
872.915	3233
873.044	3302
873.173	3218
873.303	3226
873.432	3260
873.561	3272
873.69	3176
873.819	3123
873.948	3222
874.077	3112
874.206	3066
874.335	3058
874.464	3222
874.593	3359
874.722	3222
874.851	3344
874.979	3344
875.108	3275
875.237	3161
875.365	3142
875.494	3154
875.623	3237
875.751	3055
875.88	3154
876.008	3203
876.136	3218
876.265	3355
876.393	3534
876.521	3382
876.65	3378
876.778	3321
876.906	3268
877.034	3184
877.162	3260
877.29	3173
877.418	3226
877.546	3249
877.674	3180
877.802	3180
877.93	3211
878.058	3119
878.185	3085
878.313	3230
878.441	3180
878.568	3070
878.696	3142
878.824	3233
878.951	3233
879.079	3397
879.206	3603
879.333	3397
879.461	3363
879.588	3351
879.715	3473
879.842	3587
879.97	3386
880.097	3184
880.224	3123
880.351	3211
880.478	3184
880.605	3180
880.732	3154
880.859	3496
880.986	3306
881.112	3317
881.239	3211
881.366	3119
881.493	3024
881.619	3020
881.746	3043
881.872	3066
881.999	3135
882.125	3180
882.252	3214
882.378	3264
882.505	3382
882.631	3237
882.757	3142
882.883	3211
883.01	3211
883.136	3138
883.262	3097
883.388	3127
883.514	3264
883.64	3359
883.766	3294
883.892	3161
884.018	3264
884.143	3405
884.269	3496
884.395	3188
884.52	3173
884.646	3203
884.772	3154
884.897	3127
885.023	3135
885.148	3348
885.274	3393
885.399	3374
885.524	3275
885.65	3306
885.775	3344
885.9	3260
886.025	3431
886.15	3382
886.275	3302
886.4	3188
886.525	3291
886.65	3302
886.775	3272
886.9	3481
887.025	3633
887.149	3370
887.274	3195
887.399	3169
887.523	3207
887.648	3188
887.773	3165
887.897	3416
888.021	3386
888.146	3325
888.27	3450
888.395	3553
888.519	3401
888.643	3420
888.767	3458
888.891	3351
889.015	3260
889.139	3291
889.263	3275
889.387	3416
889.511	3481
889.635	3462
889.759	3264
889.883	3294
890.006	3382
890.13	3454
890.254	3256
890.377	3329
890.501	3222
890.624	3188
890.748	3272
890.871	3180
890.995	3089
891.118	3039
891.241	3157
891.364	3222
891.488	3298
891.611	3195
891.734	3176
891.857	3283
891.98	3237
892.103	3306
892.226	3275
892.349	3203
892.471	3089
892.594	3233
892.717	3302
892.839	3245
892.962	3264
893.085	3355
893.207	3287
893.33	3169
893.452	3211
893.575	3340
893.697	3218
893.819	3443
893.941	3507
894.064	3439
894.186	3279
894.308	3256
894.43	3420
894.552	3507
894.674	3473
894.796	3275
894.918	3287
895.04	3253
895.161	3439
895.283	3359
895.405	3336
895.526	3374
895.648	3420
895.769	3386
895.891	3454
896.012	3447
896.134	3496
896.255	3401
896.376	3386
896.498	3348
896.619	3428
896.74	3340
896.861	3359
896.982	3656
897.103	3846
897.224	3568
897.345	3511
897.466	3428
897.587	3496
897.708	3618
897.828	3549
897.949	3435
898.07	3313
898.19	3401
898.311	3610
898.431	3412
898.552	3568
898.672	3587
898.792	3538
898.913	3519
899.033	3397
899.153	3298
899.273	3233
899.393	3291
899.513	3275
899.633	3298
899.753	3359
899.873	3294
899.993	3386
900.113	3340
900.232	3367
900.352	3329
900.472	3275
900.591	3222
900.711	3298
900.83	3226
900.95	3416
901.069	3504
901.189	3340
901.308	3188
901.427	3112
901.546	3203
901.665	3283
901.784	3279
901.904	3180
902.023	3157
902.141	2990
902.26	3013
902.379	3131
902.498	3081
902.617	3047
902.735	3230
902.854	3214
902.973	3184
903.091	3058
903.21	3070
903.328	3150
903.446	3108
903.565	3112
903.683	3218
903.801	3150
903.919	3230
904.038	3245
904.156	3142
904.274	3291
904.392	3237
904.51	3302
904.627	3275
904.745	3420
904.863	3481
904.981	3211
905.098	3184
905.216	3226
905.334	3294
905.451	3321
905.569	3313
905.686	3458
905.803	3443
905.921	3306
906.038	3473
906.155	3321
906.272	3264
906.389	3325
906.506	3203
906.623	3230
906.74	3241
906.857	3161
906.974	3272
907.091	3450
907.208	3530
907.324	3454
907.441	3416
907.557	3226
907.674	3241
907.79	3184
907.907	3275
908.023	3363
908.139	3321
908.256	3344
908.372	3382
908.488	3340
908.604	3245
908.72	3218
908.836	3279
908.952	3264
909.068	3348
909.184	3469
909.3	3405
909.415	3477
909.531	3504
909.647	3287
909.762	3294
909.878	3268
909.993	3367
910.108	3336
910.224	3329
910.339	3348
910.454	3351
910.57	3287
910.685	3218
910.8	3545
910.915	3523
911.03	3462
911.145	3233
911.259	3249
911.374	3317
911.489	3260
911.604	3184
911.718	3081
911.833	3123
911.947	3020
912.062	2952
912.176	3184
912.291	3192
912.405	3199
912.519	3458
912.633	3443
912.748	3310
912.862	3256
912.976	3154
913.09	3074
913.204	3138
913.318	3222
913.431	3329
913.545	3310
913.659	3401
913.772	3344
913.886	3180
914	3199
914.113	3340
914.226	3378
914.34	3378
914.453	3203
914.566	3359
914.68	3283
914.793	3325
914.906	3119
915.019	3081
915.132	3104
915.245	3135
915.358	3184
915.47	3207
915.583	3222
915.696	3245
915.809	3431
915.921	3431
916.034	3207
916.146	3237
916.259	3245
916.371	3370
916.483	3378
916.595	3275
916.708	3321
916.82	3355
916.932	3302
917.044	3317
917.156	3313
917.268	3249
917.38	3291
917.491	3313
917.603	3363
917.715	3431
917.826	3454
917.938	3374
918.049	3237
918.161	3450
918.272	3576
918.384	3542
918.495	3481
918.606	3317
918.717	3310
918.828	3370
918.939	3386
919.05	3325
919.161	3351
919.272	3176
919.383	3230
919.494	3469
919.604	3671
919.715	3488
919.826	3412
919.936	3450
920.047	3595
920.157	3511
920.267	3781
920.378	3622
920.488	3580
920.598	3732
920.708	3911
920.818	3827
920.928	3842
921.038	3983
921.148	4021
921.258	3705
921.368	3614
921.477	3561
921.587	3515
921.697	3481
921.806	3644
921.916	3507
922.025	3367
922.134	3344
922.244	3306
922.353	3428
922.462	3256
922.571	3207
922.68	3138
922.789	3081
922.898	3127
923.007	3093
923.116	3211
923.224	3176
923.333	3138
923.442	3104
923.55	3077
923.659	3131
923.767	3207
923.876	3100
923.984	3214
924.092	3127
924.201	3180
924.309	3233
924.417	3264
924.525	3165
924.633	3256
924.741	3991
924.849	3062
924.956	3222
925.064	3074
925.172	3043
925.279	3154
925.387	3184
925.494	3184
925.602	3378
925.709	3325
925.816	3176
925.924	3268
926.031	3412
926.138	3321
926.245	3386
926.352	3241
926.459	3370
926.566	3477
926.673	3317
926.779	3226
926.886	3245
926.993	3154
927.099	3165
927.206	3104
927.312	3138
927.419	3241
927.525	3192
927.631	3268
927.737	3150
927.843	3112
927.95	3005
928.056	3169
928.162	3165
928.267	3249
928.373	3762
928.479	3306
928.585	3089
928.69	3188
928.796	3249
928.901	3154
929.007	3032
929.112	3165
929.218	3169
929.323	3127
929.428	3146
929.533	3317
929.638	3085
929.743	3173
929.848	3264
929.953	3188
930.058	3123
930.163	3024
930.267	3058
930.372	3230
930.477	3062
930.581	3340
930.685	3165
930.79	3036
930.894	3116
930.998	3100
931.103	3279
931.207	2944
931.311	2914
931.415	2891
931.519	2769
931.623	2830
