Data from test_V78500241_1417.txt Node
Date: Fri Mar 25 16:25:01 CST 2022
User: usil
Spectrometer: V785-0024
Trigger mode: 0
Integration Time (sec): 4.000000E-1
Scans to average: 1
Nonlinearity correction enabled: false
Boxcar width: 0
Storing dark spectrum: false
XAxis mode: Wavelengths
Number of Pixels in Spectrum: 1024
>>>>>Begin Spectral Data<<<<<
801.071	2952
801.214	2952
801.356	2857
801.499	2918
801.641	2853
801.783	2929
801.926	3077
802.068	2975
802.211	3039
802.353	3047
802.496	3017
802.638	3047
802.78	3047
802.923	3108
803.065	2998
803.208	2937
803.35	2967
803.492	2960
803.635	2960
803.777	2830
803.919	2872
804.061	3222
804.204	2944
804.346	2914
804.488	2887
804.63	2990
804.773	2880
804.915	2952
805.057	3104
805.199	2929
805.341	2986
805.483	3028
805.626	3032
805.768	2952
805.91	3062
806.052	3077
806.194	2990
806.336	3233
806.478	3024
806.62	2948
806.762	2990
806.904	3085
807.046	3169
807.188	2975
807.33	2914
807.472	2998
807.614	2925
807.756	2990
807.898	2960
808.04	2929
808.182	2979
808.324	2971
808.465	2887
808.607	2880
808.749	2788
808.891	2845
809.033	2941
809.174	2979
809.316	2895
809.458	2906
809.6	2777
809.741	2758
809.883	2785
810.025	2826
810.166	2899
810.308	2861
810.45	2823
810.591	2766
810.733	2796
810.875	2823
811.016	2811
811.158	2781
811.299	2807
811.441	2948
811.582	2929
811.724	2819
811.865	2849
812.007	2922
812.148	2906
812.29	2868
812.431	2910
812.573	2941
812.714	2963
812.855	3028
812.997	3047
813.138	3070
813.279	3013
813.421	2979
813.562	2963
813.703	2899
813.845	2883
813.986	2792
814.127	2743
814.268	2792
814.41	2853
814.551	2823
814.692	2876
814.833	2815
814.974	2876
815.115	3005
815.256	2826
815.397	2804
815.539	2853
815.68	2792
815.821	2758
815.962	2952
816.103	2963
816.244	2887
816.385	2845
816.526	2952
816.666	2899
816.807	2758
816.948	2895
817.089	2910
817.23	2838
817.371	2807
817.512	2796
817.653	2849
817.793	2815
817.934	2849
818.075	2960
818.216	3005
818.356	3051
818.497	2857
818.638	2777
818.778	2807
818.919	2815
819.06	2781
819.2	2880
819.341	2792
819.481	2830
819.622	2910
819.762	3146
819.903	3017
820.043	2922
820.184	2910
820.324	2872
820.465	3009
820.605	3017
820.746	3032
820.886	2929
821.026	3089
821.167	3142
821.307	3237
821.447	3272
821.588	3218
821.728	3173
821.868	3203
822.008	3074
822.149	3169
822.289	3241
822.429	3112
822.569	3036
822.709	3188
822.849	3028
822.99	3051
823.13	3157
823.27	3169
823.41	3119
823.55	3169
823.69	3150
823.83	3169
823.97	3100
824.11	2990
824.25	2971
824.389	3058
824.529	3100
824.669	3081
824.809	3222
824.949	3214
825.089	3188
825.228	3169
825.368	3043
825.508	2918
825.648	2971
825.787	2994
825.927	3036
826.067	2952
826.206	2979
826.346	3070
826.485	3100
826.625	3093
826.765	3260
826.904	3222
827.044	2998
827.183	2979
827.323	2845
827.462	2998
827.601	2899
827.741	2941
827.88	2929
828.02	2849
828.159	2944
828.298	3074
828.437	3108
828.577	3017
828.716	3222
828.855	3108
828.994	2906
829.134	2883
829.273	2906
829.412	2876
829.551	2845
829.69	2914
829.829	2975
829.968	3131
830.107	3036
830.246	3028
830.385	2925
830.524	2842
830.663	2807
830.802	2720
830.941	2651
831.08	2651
831.219	2758
831.357	2762
831.496	2979
831.635	2670
831.774	2678
831.913	2659
832.051	2537
832.19	2568
832.329	2663
832.467	2530
832.606	2473
832.744	2613
832.883	2602
833.022	2579
833.16	2648
833.299	2689
833.437	2674
833.576	2667
833.714	2708
833.852	2727
833.991	2773
834.129	2857
834.267	2811
834.406	2781
834.544	2834
834.682	2887
834.821	2849
834.959	3028
835.097	2918
835.235	3028
835.373	2979
835.511	3005
835.65	2944
835.788	2971
835.926	2857
836.064	2804
836.202	2838
836.34	3097
836.478	3142
836.615	3028
836.753	3104
836.891	3207
837.029	3150
837.167	3123
837.305	3077
837.443	3020
837.58	2952
837.718	3146
837.856	3058
837.993	2982
838.131	3081
838.269	3089
838.406	3074
838.544	3051
838.681	2963
838.819	2918
838.956	2800
839.094	2830
839.231	2948
839.369	3039
839.506	3363
839.643	3218
839.781	2994
839.918	2979
840.055	3055
840.193	3028
840.33	3036
840.467	3039
840.604	3119
840.742	3374
840.879	3017
841.016	3051
841.153	3089
841.29	3355
841.427	3294
841.564	3249
841.701	3268
841.838	3214
841.975	3173
842.112	3214
842.249	3051
842.385	3020
842.522	3268
842.659	3070
842.796	3036
842.933	3085
843.069	3017
843.206	3070
843.343	3161
843.479	3112
843.616	3146
843.752	2899
843.889	2845
844.025	3077
844.162	2883
844.298	3077
844.435	2948
844.571	2868
844.708	3062
844.844	3253
844.98	3241
845.117	3176
845.253	3055
845.389	3013
845.525	3112
845.661	3074
845.798	2979
845.934	3108
846.07	3055
846.206	3230
846.342	3298
846.478	3188
846.614	3116
846.75	3047
846.886	3009
847.022	3222
847.158	3146
847.294	3165
847.429	3291
847.565	3173
847.701	3485
847.837	3028
847.972	2994
848.108	3195
848.244	3123
848.379	2952
848.515	2956
848.65	2933
848.786	2956
848.921	2990
849.057	3142
849.192	3142
849.328	3051
849.463	3085
849.598	3058
849.734	3032
849.869	2918
850.004	2918
850.14	2998
850.275	2933
850.41	2845
850.545	2918
850.68	2956
850.815	2971
850.95	2956
851.085	3188
851.22	3127
851.355	3028
851.49	2929
851.625	2994
851.76	2986
851.895	2941
852.03	2891
852.165	3036
852.299	3104
852.434	3165
852.569	3154
852.703	3199
852.838	3245
852.973	3332
853.107	3294
853.242	3176
853.376	3135
853.511	2960
853.645	3058
853.78	3233
853.914	3116
854.048	3104
854.183	3066
854.317	3157
854.451	3310
854.585	3131
854.72	3089
854.854	3214
854.988	3081
855.122	3058
855.256	2967
855.39	3112
855.524	3184
855.658	3146
855.792	3146
855.926	3211
856.06	3203
856.194	3203
856.327	3146
856.461	3077
856.595	3093
856.729	3108
856.862	3180
856.996	3127
857.13	3169
857.263	3253
857.397	3272
857.53	3093
857.664	3203
857.797	3253
857.931	3218
858.064	3138
858.197	3203
858.331	3127
858.464	3066
858.597	3009
858.731	3104
858.864	3077
858.997	3093
859.13	3161
859.263	3150
859.396	3165
859.529	3070
859.662	3047
859.795	3047
859.928	3119
860.061	3283
860.194	3260
860.327	3108
860.46	3104
860.592	3249
860.725	3237
860.858	3264
860.99	3112
861.123	3043
861.256	3055
861.388	3173
861.521	3690
861.653	3013
861.786	2998
861.918	3005
862.05	3066
862.183	3085
862.315	3173
862.447	3207
862.58	3089
862.712	2941
862.844	2838
862.976	3020
863.108	2994
863.24	3298
863.372	2864
863.504	2944
863.636	2937
863.768	3039
863.9	2994
864.032	2914
864.164	2941
864.296	2967
864.428	3100
864.559	3058
864.691	3074
864.823	3043
864.954	3013
865.086	3020
865.217	2979
865.349	2979
865.48	2986
865.612	3036
865.743	3150
865.875	2963
866.006	2960
866.137	2963
866.269	2914
866.4	2933
866.531	2944
866.662	2861
866.793	2895
866.924	2895
867.055	2925
867.186	2906
867.317	2880
867.448	2842
867.579	2830
867.71	2876
867.841	2830
867.972	2941
868.103	2857
868.233	2887
868.364	2868
868.495	2895
868.625	3066
868.756	3176
868.886	2982
869.017	2994
869.147	3119
869.278	3150
869.408	3043
869.539	3001
869.669	3119
869.799	3028
869.929	3119
870.06	3081
870.19	3283
870.32	3302
870.45	3302
870.58	3393
870.71	3458
870.84	3462
870.97	3279
871.1	3233
871.23	3485
871.36	3481
871.489	3325
871.619	3370
871.749	3409
871.879	3447
872.008	3477
872.138	3355
872.267	3245
872.397	3169
872.526	3112
872.656	3020
872.785	3127
872.915	3249
873.044	3283
873.173	3222
873.303	3291
873.432	3256
873.561	3214
873.69	3127
873.819	3089
873.948	3207
874.077	3085
874.206	3036
874.335	3085
874.464	3188
874.593	3321
874.722	3249
874.851	3401
874.979	3340
875.108	3306
875.237	3180
875.365	3146
875.494	3146
875.623	3260
875.751	3097
875.88	3077
876.008	3188
876.136	3207
876.265	3393
876.393	3534
876.521	3416
876.65	3374
876.778	3332
876.906	3253
877.034	3173
877.162	3218
877.29	3165
877.418	3287
877.546	3237
877.674	3253
877.802	3230
877.93	3241
878.058	3146
878.185	3055
878.313	3211
878.441	3218
878.568	3058
878.696	3119
878.824	3237
878.951	3287
879.079	3473
879.206	3629
879.333	3439
879.461	3340
879.588	3370
879.715	3477
879.842	3610
879.97	3367
880.097	3154
880.224	3135
880.351	3180
880.478	3211
880.605	3188
880.732	3188
880.859	3458
880.986	3302
881.112	3321
881.239	3211
881.366	3112
881.493	3009
881.619	2994
881.746	3089
881.872	3119
881.999	3123
882.125	3138
882.252	3233
882.378	3310
882.505	3420
882.631	3279
882.757	3161
882.883	3218
883.01	3192
883.136	3169
883.262	3055
883.388	3127
883.514	3298
883.64	3355
883.766	3325
883.892	3165
884.018	3203
884.143	3386
884.269	3534
884.395	3165
884.52	3165
884.646	3192
884.772	3135
884.897	3131
885.023	3207
885.148	3363
885.274	3393
885.399	3351
885.524	3264
885.65	3279
885.775	3291
885.9	3249
886.025	3435
886.15	3355
886.275	3313
886.4	3249
886.525	3283
886.65	3260
886.775	3256
886.9	3485
887.025	3599
887.149	3374
887.274	3241
887.399	3161
887.523	3192
887.648	3218
887.773	3176
887.897	3355
888.021	3359
888.146	3294
888.27	3409
888.395	3488
888.519	3424
888.643	3416
888.767	3466
888.891	3268
889.015	3233
889.139	3256
889.263	3192
889.387	3382
889.511	3545
889.635	3458
889.759	3291
889.883	3283
890.006	3374
890.13	3477
890.254	3233
890.377	3313
890.501	3207
890.624	3188
890.748	3298
890.871	3195
890.995	3108
891.118	3062
891.241	3173
891.364	3226
891.488	3287
891.611	3184
891.734	3169
891.857	3260
891.98	3245
892.103	3317
892.226	3237
892.349	3188
892.471	3093
892.594	3249
892.717	3325
892.839	3275
892.962	3264
893.085	3370
893.207	3287
893.33	3157
893.452	3203
893.575	3329
893.697	3203
893.819	3439
893.941	3485
894.064	3443
894.186	3272
894.308	3245
894.43	3435
894.552	3507
894.674	3431
894.796	3264
894.918	3317
895.04	3268
895.161	3424
895.283	3348
895.405	3306
895.526	3382
895.648	3409
895.769	3416
895.891	3485
896.012	3473
896.134	3466
896.255	3386
896.376	3370
896.498	3332
896.619	3409
896.74	3370
896.861	3412
896.982	3675
897.103	3823
897.224	3595
897.345	3473
897.466	3409
897.587	3492
897.708	3580
897.828	3542
897.949	3466
898.07	3332
898.19	3393
898.311	3641
898.431	3454
898.552	3496
898.672	3568
898.792	3572
898.913	3572
899.033	3389
899.153	3268
899.273	3230
899.393	3302
899.513	3291
899.633	3310
899.753	3317
899.873	3313
899.993	3397
900.113	3306
900.232	3370
900.352	3359
900.472	3253
900.591	3203
900.711	3283
900.83	3260
900.95	3420
901.069	3462
901.189	3313
901.308	3192
901.427	3108
901.546	3184
901.665	3272
901.784	3332
901.904	3222
902.023	3150
902.141	2990
902.26	2986
902.379	3131
902.498	3024
902.617	3047
902.735	3207
902.854	3249
902.973	3154
903.091	3024
903.21	3039
903.328	3093
903.446	3089
903.565	3135
903.683	3199
903.801	3135
903.919	3203
904.038	3279
904.156	3157
904.274	3294
904.392	3192
904.51	3260
904.627	3298
904.745	3428
904.863	3462
904.981	3256
905.098	3161
905.216	3207
905.334	3302
905.451	3260
905.569	3294
905.686	3409
905.803	3397
905.921	3256
906.038	3424
906.155	3355
906.272	3294
906.389	3325
906.506	3214
906.623	3245
906.74	3294
906.857	3195
906.974	3298
907.091	3450
907.208	3553
907.324	3447
907.441	3344
907.557	3253
907.674	3230
907.79	3199
907.907	3268
908.023	3412
908.139	3363
908.256	3310
908.372	3367
908.488	3378
908.604	3245
908.72	3192
908.836	3241
908.952	3218
909.068	3302
909.184	3473
909.3	3355
909.415	3504
909.531	3485
909.647	3306
909.762	3283
909.878	3237
909.993	3351
910.108	3291
910.224	3344
910.339	3378
910.454	3291
910.57	3264
910.685	3226
910.8	3564
910.915	3549
911.03	3443
911.145	3275
911.259	3268
911.374	3283
911.489	3230
911.604	3207
911.718	3116
911.833	3135
911.947	3032
912.062	2956
912.176	3146
912.291	3154
912.405	3237
912.519	3428
912.633	3450
912.748	3348
912.862	3287
912.976	3150
913.09	3051
913.204	3138
913.318	3169
913.431	3317
913.545	3279
913.659	3409
913.772	3302
913.886	3195
914	3173
914.113	3348
914.226	3409
914.34	3344
914.453	3192
914.566	3424
914.68	3260
914.793	3260
914.906	3135
915.019	3089
915.132	3051
915.245	3165
915.358	3211
915.47	3233
915.583	3264
915.696	3294
915.809	3382
915.921	3431
916.034	3268
916.146	3245
916.259	3237
916.371	3340
916.483	3344
916.595	3233
916.708	3340
916.82	3306
916.932	3310
917.044	3348
917.156	3313
917.268	3222
917.38	3317
917.491	3272
917.603	3344
917.715	3431
917.826	3473
917.938	3416
918.049	3241
918.161	3386
918.272	3568
918.384	3580
918.495	3534
918.606	3321
918.717	3275
918.828	3397
918.939	3435
919.05	3291
919.161	3405
919.272	3146
919.383	3279
919.494	3481
919.604	3709
919.715	3469
919.826	3420
919.936	3469
920.047	3629
920.157	3637
920.267	3766
920.378	3648
920.488	3580
920.598	3789
920.708	4002
920.818	3823
920.928	3865
921.038	4044
921.148	4013
921.258	3778
921.368	3679
921.477	3629
921.587	3587
921.697	3511
921.806	3679
921.916	3603
922.025	3443
922.134	3401
922.244	3386
922.353	3462
922.462	3291
922.571	3260
922.68	3135
922.789	3127
922.898	3173
923.007	3146
923.116	3241
923.224	3207
923.333	3249
923.442	3165
923.55	3138
923.659	3184
923.767	3260
923.876	3161
923.984	3279
924.092	3138
924.201	3214
924.309	3241
924.417	3313
924.525	3230
924.633	3302
924.741	4215
924.849	3081
924.956	3313
925.064	3142
925.172	3085
925.279	3131
925.387	3218
925.494	3241
925.602	3405
925.709	3378
925.816	3218
925.924	3302
926.031	3435
926.138	3370
926.245	3424
926.352	3230
926.459	3439
926.566	3523
926.673	3344
926.779	3279
926.886	3294
926.993	3192
927.099	3131
927.206	3169
927.312	3176
927.419	3275
927.525	3249
927.631	3321
927.737	3207
927.843	3138
927.95	3066
928.056	3142
928.162	3245
928.267	3306
928.373	3907
928.479	3332
928.585	3089
928.69	3226
928.796	3313
928.901	3176
929.007	3070
929.112	3214
929.218	3165
929.323	3207
929.428	3188
929.533	3344
929.638	3180
929.743	3195
929.848	3268
929.953	3321
930.058	3199
930.163	3028
930.267	3055
930.372	3268
930.477	3062
930.581	3294
930.685	3211
930.79	3062
930.894	3180
930.998	3108
931.103	3298
931.207	2990
931.311	2982
931.415	2982
931.519	2842
931.623	2815
