Data from test_V78500241_1648.txt Node
Date: Fri Mar 25 16:26:37 CST 2022
User: usil
Spectrometer: V785-0024
Trigger mode: 0
Integration Time (sec): 4.000000E-1
Scans to average: 1
Nonlinearity correction enabled: false
Boxcar width: 0
Storing dark spectrum: false
XAxis mode: Wavelengths
Number of Pixels in Spectrum: 1024
>>>>>Begin Spectral Data<<<<<
801.071	2986
801.214	2986
801.356	2906
801.499	2952
801.641	2918
801.783	2956
801.926	3077
802.068	3009
802.211	3043
802.353	3055
802.496	3013
802.638	3066
802.78	3047
802.923	3077
803.065	2982
803.208	2941
803.35	2956
803.492	2979
803.635	2922
803.777	2785
803.919	2883
804.061	3207
804.204	2979
804.346	2956
804.488	2857
804.63	3039
804.773	2902
804.915	2948
805.057	3135
805.199	2967
805.341	3001
805.483	3085
805.626	3017
805.768	2982
805.91	3131
806.052	3146
806.194	3058
806.336	3249
806.478	3062
806.62	2990
806.762	2998
806.904	3070
807.046	3211
807.188	2986
807.33	2933
807.472	3024
807.614	2891
807.756	3005
807.898	2918
808.04	2944
808.182	3009
808.324	2990
808.465	2906
808.607	2872
808.749	2845
808.891	2887
809.033	3032
809.174	2994
809.316	2933
809.458	2922
809.6	2781
809.741	2830
809.883	2826
810.025	2895
810.166	2876
810.308	2872
810.45	2826
810.591	2826
810.733	2800
810.875	2876
811.016	2807
811.158	2815
811.299	2819
811.441	2967
811.582	2887
811.724	2849
811.865	2861
812.007	2960
812.148	2880
812.29	2910
812.431	2933
812.573	2960
812.714	2990
812.855	3074
812.997	3070
813.138	3135
813.279	3062
813.421	3039
813.562	3013
813.703	2929
813.845	2944
813.986	2800
814.127	2731
814.268	2826
814.41	2872
814.551	2845
814.692	2922
814.833	2830
814.974	2922
815.115	2960
815.256	2845
815.397	2804
815.539	2868
815.68	2804
815.821	2800
815.962	2971
816.103	2933
816.244	2902
816.385	2918
816.526	2994
816.666	2918
816.807	2815
816.948	2925
817.089	2963
817.23	2880
817.371	2811
817.512	2800
817.653	2872
817.793	2826
817.934	2922
818.075	3005
818.216	2990
818.356	3066
818.497	2910
818.638	2788
818.778	2815
818.919	2807
819.06	2807
819.2	2929
819.341	2853
819.481	2826
819.622	2941
819.762	3058
819.903	3085
820.043	2975
820.184	2910
820.324	2937
820.465	3013
820.605	3062
820.746	3017
820.886	2910
821.026	3104
821.167	3180
821.307	3249
821.447	3325
821.588	3283
821.728	3203
821.868	3203
822.008	3123
822.149	3211
822.289	3272
822.429	3108
822.569	3100
822.709	3169
822.849	3074
822.99	3077
823.13	3169
823.27	3222
823.41	3112
823.55	3157
823.69	3192
823.83	3176
823.97	3138
824.11	3032
824.25	3036
824.389	3085
824.529	3146
824.669	3089
824.809	3192
824.949	3287
825.089	3226
825.228	3161
825.368	3039
825.508	2967
825.648	3020
825.787	3036
825.927	3043
826.067	2960
826.206	2967
826.346	3051
826.485	3093
826.625	3150
826.765	3302
826.904	3264
827.044	2975
827.183	2944
827.323	2899
827.462	3005
827.601	2914
827.741	2937
827.88	2975
828.02	2883
828.159	3005
828.298	3100
828.437	3123
828.577	3043
828.716	3237
828.855	3112
828.994	2922
829.134	2891
829.273	2914
829.412	2891
829.551	2899
829.69	2902
829.829	3020
829.968	3173
830.107	3070
830.246	3062
830.385	2952
830.524	2864
830.663	2834
830.802	2773
830.941	2674
831.08	2678
831.219	2785
831.357	2773
831.496	2975
831.635	2754
831.774	2670
831.913	2674
832.051	2564
832.19	2613
832.329	2712
832.467	2571
832.606	2507
832.744	2579
832.883	2590
833.022	2621
833.16	2697
833.299	2705
833.437	2739
833.576	2701
833.714	2739
833.852	2773
833.991	2773
834.129	2864
834.267	2845
834.406	2826
834.544	2868
834.682	2876
834.821	2899
834.959	3104
835.097	2910
835.235	3085
835.373	3020
835.511	3020
835.65	2990
835.788	2933
835.926	2857
836.064	2819
836.202	2834
836.34	3085
836.478	3184
836.615	3062
836.753	3161
836.891	3207
837.029	3180
837.167	3123
837.305	3116
837.443	3039
837.58	2967
837.718	3131
837.856	3077
837.993	3051
838.131	3142
838.269	3161
838.406	3100
838.544	3097
838.681	2967
838.819	2910
838.956	2826
839.094	2864
839.231	2872
839.369	3055
839.506	3412
839.643	3283
839.781	3028
839.918	2998
840.055	3051
840.193	3066
840.33	3093
840.467	3085
840.604	3127
840.742	3359
840.879	3058
841.016	3066
841.153	3146
841.29	3332
841.427	3279
841.564	3317
841.701	3306
841.838	3268
841.975	3173
842.112	3233
842.249	3066
842.385	3043
842.522	3264
842.659	3108
842.796	3100
842.933	3146
843.069	3032
843.206	3047
843.343	3203
843.479	3119
843.616	3089
843.752	2910
843.889	2937
844.025	3089
844.162	2876
844.298	3077
844.435	2952
844.571	2929
844.708	3104
844.844	3176
844.98	3230
845.117	3207
845.253	3077
845.389	3039
845.525	3085
845.661	3077
845.798	3005
845.934	3138
846.07	3055
846.206	3256
846.342	3317
846.478	3241
846.614	3108
846.75	3070
846.886	3024
847.022	3283
847.158	3123
847.294	3218
847.429	3245
847.565	3211
847.701	3424
847.837	3051
847.972	3013
848.108	3203
848.244	3154
848.379	3001
848.515	2910
848.65	2937
848.786	3001
848.921	3001
849.057	3116
849.192	3142
849.328	3081
849.463	3116
849.598	3070
849.734	3039
849.869	2963
850.004	2929
850.14	2963
850.275	2925
850.41	2853
850.545	2899
850.68	2967
850.815	2982
850.95	2979
851.085	3211
851.22	3112
851.355	3074
851.49	2986
851.625	3017
851.76	2998
851.895	2922
852.03	2922
852.165	3028
852.299	3123
852.434	3192
852.569	3131
852.703	3180
852.838	3275
852.973	3329
853.107	3344
853.242	3146
853.376	3085
853.511	2990
853.645	3081
853.78	3249
853.914	3127
854.048	3108
854.183	3077
854.317	3142
854.451	3287
854.585	3112
854.72	3100
854.854	3256
854.988	3097
855.122	3108
855.256	2998
855.39	3108
855.524	3222
855.658	3203
855.792	3131
855.926	3207
856.06	3253
856.194	3268
856.327	3161
856.461	3081
856.595	3093
856.729	3074
856.862	3192
856.996	3165
857.13	3188
857.263	3230
857.397	3310
857.53	3157
857.664	3188
857.797	3249
857.931	3256
858.064	3142
858.197	3203
858.331	3154
858.464	3131
858.597	3017
858.731	3112
858.864	3112
858.997	3123
859.13	3142
859.263	3165
859.396	3249
859.529	3066
859.662	3077
859.795	3047
859.928	3123
860.061	3294
860.194	3313
860.327	3116
860.46	3074
860.592	3275
860.725	3260
860.858	3264
860.99	3112
861.123	3055
861.256	3066
861.388	3180
861.521	3880
861.653	3047
861.786	2956
861.918	3005
862.05	3051
862.183	3097
862.315	3169
862.447	3195
862.58	3070
862.712	2956
862.844	2895
862.976	3009
863.108	3013
863.24	3416
863.372	2868
863.504	2998
863.636	2994
863.768	3020
863.9	2925
864.032	2895
864.164	2967
864.296	3039
864.428	3074
864.559	3089
864.691	3062
864.823	3062
864.954	3047
865.086	3043
865.217	2971
865.349	2948
865.48	2971
865.612	3032
865.743	3154
865.875	3005
866.006	2937
866.137	2971
866.269	2941
866.4	2910
866.531	2960
866.662	2876
866.793	2902
866.924	2906
867.055	2979
867.186	2937
867.317	2914
867.448	2842
867.579	2842
867.71	2853
867.841	2830
867.972	2899
868.103	2910
868.233	2864
868.364	2899
868.495	2895
868.625	3058
868.756	3176
868.886	2971
869.017	3043
869.147	3169
869.278	3146
869.408	3051
869.539	3032
869.669	3100
869.799	3039
869.929	3146
870.06	3108
870.19	3329
870.32	3283
870.45	3317
870.58	3374
870.71	3428
870.84	3431
870.97	3298
871.1	3260
871.23	3447
871.36	3492
871.489	3351
871.619	3443
871.749	3420
871.879	3431
872.008	3500
872.138	3348
872.267	3260
872.397	3146
872.526	3097
872.656	3005
872.785	3066
872.915	3241
873.044	3291
873.173	3211
873.303	3222
873.432	3256
873.561	3230
873.69	3169
873.819	3131
873.948	3184
874.077	3116
874.206	3051
874.335	3104
874.464	3188
874.593	3359
874.722	3268
874.851	3378
874.979	3367
875.108	3310
875.237	3184
875.365	3176
875.494	3135
875.623	3260
875.751	3085
875.88	3104
876.008	3184
876.136	3211
876.265	3329
876.393	3511
876.521	3397
876.65	3405
876.778	3344
876.906	3287
877.034	3188
877.162	3237
877.29	3203
877.418	3260
877.546	3245
877.674	3245
877.802	3256
877.93	3233
878.058	3154
878.185	3093
878.313	3199
878.441	3180
878.568	3055
878.696	3150
878.824	3260
878.951	3302
879.079	3420
879.206	3637
879.333	3462
879.461	3310
879.588	3393
879.715	3488
879.842	3591
879.97	3386
880.097	3188
880.224	3085
880.351	3203
880.478	3199
880.605	3180
880.732	3176
880.859	3473
880.986	3291
881.112	3348
881.239	3180
881.366	3085
881.493	3036
881.619	3013
881.746	3077
881.872	3127
881.999	3077
882.125	3157
882.252	3222
882.378	3253
882.505	3386
882.631	3298
882.757	3173
882.883	3214
883.01	3214
883.136	3161
883.262	3066
883.388	3119
883.514	3310
883.64	3370
883.766	3283
883.892	3195
884.018	3256
884.143	3382
884.269	3519
884.395	3207
884.52	3142
884.646	3165
884.772	3138
884.897	3093
885.023	3203
885.148	3329
885.274	3389
885.399	3340
885.524	3294
885.65	3283
885.775	3329
885.9	3260
886.025	3443
886.15	3351
886.275	3302
886.4	3233
886.525	3294
886.65	3283
886.775	3294
886.9	3523
887.025	3675
887.149	3393
887.274	3283
887.399	3188
887.523	3245
887.648	3173
887.773	3199
887.897	3405
888.021	3378
888.146	3298
888.27	3420
888.395	3519
888.519	3477
888.643	3412
888.767	3492
888.891	3302
889.015	3233
889.139	3294
889.263	3218
889.387	3409
889.511	3492
889.635	3458
889.759	3287
889.883	3291
890.006	3374
890.13	3534
890.254	3287
890.377	3355
890.501	3230
890.624	3169
890.748	3264
890.871	3188
890.995	3097
891.118	3062
891.241	3192
891.364	3226
891.488	3325
891.611	3188
891.734	3222
891.857	3245
891.98	3245
892.103	3332
892.226	3302
892.349	3218
892.471	3108
892.594	3207
892.717	3291
892.839	3241
892.962	3302
893.085	3374
893.207	3264
893.33	3123
893.452	3222
893.575	3351
893.697	3207
893.819	3469
893.941	3523
894.064	3428
894.186	3249
894.308	3272
894.43	3435
894.552	3530
894.674	3420
894.796	3310
894.918	3313
895.04	3256
895.161	3439
895.283	3386
895.405	3306
895.526	3359
895.648	3401
895.769	3401
895.891	3424
896.012	3519
896.134	3469
896.255	3409
896.376	3412
896.498	3382
896.619	3401
896.74	3397
896.861	3367
896.982	3663
897.103	3842
897.224	3599
897.345	3511
897.466	3443
897.587	3485
897.708	3663
897.828	3492
897.949	3401
898.07	3355
898.19	3393
898.311	3564
898.431	3424
898.552	3523
898.672	3564
898.792	3561
898.913	3496
899.033	3424
899.153	3279
899.273	3230
899.393	3283
899.513	3348
899.633	3294
899.753	3355
899.873	3291
899.993	3386
900.113	3359
900.232	3382
900.352	3329
900.472	3268
900.591	3222
900.711	3291
900.83	3245
900.95	3374
901.069	3485
901.189	3317
901.308	3161
901.427	3119
901.546	3180
901.665	3283
901.784	3279
901.904	3150
902.023	3142
902.141	2998
902.26	3047
902.379	3135
902.498	3070
902.617	3043
902.735	3184
902.854	3245
902.973	3180
903.091	3039
903.21	3032
903.328	3131
903.446	3116
903.565	3119
903.683	3237
903.801	3100
903.919	3207
904.038	3260
904.156	3150
904.274	3306
904.392	3275
904.51	3272
904.627	3317
904.745	3428
904.863	3485
904.981	3268
905.098	3173
905.216	3218
905.334	3275
905.451	3287
905.569	3287
905.686	3424
905.803	3428
905.921	3310
906.038	3420
906.155	3370
906.272	3306
906.389	3321
906.506	3260
906.623	3256
906.74	3260
906.857	3188
906.974	3275
907.091	3447
907.208	3606
907.324	3485
907.441	3416
907.557	3253
907.674	3195
907.79	3161
907.907	3264
908.023	3351
908.139	3382
908.256	3363
908.372	3378
908.488	3340
908.604	3237
908.72	3241
908.836	3264
908.952	3279
909.068	3329
909.184	3458
909.3	3401
909.415	3473
909.531	3477
909.647	3298
909.762	3291
909.878	3260
909.993	3351
910.108	3374
910.224	3355
910.339	3389
910.454	3313
910.57	3317
910.685	3249
910.8	3568
910.915	3485
911.03	3420
911.145	3268
911.259	3287
911.374	3329
911.489	3222
911.604	3230
911.718	3081
911.833	3180
911.947	3024
912.062	2994
912.176	3176
912.291	3211
912.405	3184
912.519	3435
912.633	3488
912.748	3336
912.862	3245
912.976	3157
913.09	3074
913.204	3154
913.318	3176
913.431	3325
913.545	3348
913.659	3431
913.772	3332
913.886	3226
914	3211
914.113	3351
914.226	3386
914.34	3355
914.453	3199
914.566	3386
914.68	3272
914.793	3294
914.906	3116
915.019	3081
915.132	3058
915.245	3154
915.358	3211
915.47	3199
915.583	3245
915.696	3332
915.809	3359
915.921	3443
916.034	3272
916.146	3222
916.259	3218
916.371	3393
916.483	3355
916.595	3283
916.708	3344
916.82	3329
916.932	3348
917.044	3329
917.156	3332
917.268	3256
917.38	3325
917.491	3283
917.603	3351
917.715	3439
917.826	3443
917.938	3370
918.049	3291
918.161	3428
918.272	3568
918.384	3568
918.495	3485
918.606	3351
918.717	3298
918.828	3367
918.939	3428
919.05	3313
919.161	3393
919.272	3199
919.383	3291
919.494	3481
919.604	3701
919.715	3458
919.826	3431
919.936	3420
920.047	3614
920.157	3492
920.267	3743
920.378	3618
920.488	3553
920.598	3762
920.708	3918
920.818	3835
920.928	3854
921.038	4036
921.148	3964
921.258	3717
921.368	3656
921.477	3580
921.587	3557
921.697	3466
921.806	3667
921.916	3507
922.025	3367
922.134	3401
922.244	3306
922.353	3420
922.462	3310
922.571	3253
922.68	3112
922.789	3043
922.898	3131
923.007	3058
923.116	3192
923.224	3180
923.333	3203
923.442	3100
923.55	3066
923.659	3131
923.767	3222
923.876	3116
923.984	3253
924.092	3070
924.201	3157
924.309	3241
924.417	3253
924.525	3211
924.633	3256
924.741	4166
924.849	3058
924.956	3264
925.064	3093
925.172	3013
925.279	3066
925.387	3214
925.494	3218
925.602	3351
925.709	3363
925.816	3176
925.924	3272
926.031	3409
926.138	3317
926.245	3367
926.352	3264
926.459	3401
926.566	3466
926.673	3302
926.779	3222
926.886	3211
926.993	3131
927.099	3123
927.206	3093
927.312	3127
927.419	3222
927.525	3203
927.631	3275
927.737	3108
927.843	3119
927.95	3013
928.056	3100
928.162	3154
928.267	3256
928.373	3789
928.479	3272
928.585	3032
928.69	3199
928.796	3268
928.901	3173
929.007	3085
929.112	3203
929.218	3154
929.323	3146
929.428	3154
929.533	3294
929.638	3081
929.743	3188
929.848	3230
929.953	3188
930.058	3119
930.163	2967
930.267	3074
930.372	3199
930.477	3017
930.581	3298
930.685	3142
930.79	3039
930.894	3089
930.998	3123
931.103	3264
931.207	2922
931.311	2952
931.415	2929
931.519	2807
931.623	2807
