Data from test_V78500241_1177.txt Node
Date: Fri Mar 25 16:23:21 CST 2022
User: usil
Spectrometer: V785-0024
Trigger mode: 0
Integration Time (sec): 4.000000E-1
Scans to average: 1
Nonlinearity correction enabled: false
Boxcar width: 0
Storing dark spectrum: false
XAxis mode: Wavelengths
Number of Pixels in Spectrum: 1024
>>>>>Begin Spectral Data<<<<<
801.071	2899
801.214	2933
801.356	2864
801.499	2899
801.641	2891
801.783	2918
801.926	3066
802.068	2998
802.211	2998
802.353	3051
802.496	2941
802.638	3055
802.78	3070
802.923	3066
803.065	3001
803.208	2910
803.35	2963
803.492	2982
803.635	2914
803.777	2746
803.919	2845
804.061	3161
804.204	2944
804.346	2899
804.488	2864
804.63	2998
804.773	2906
804.915	2895
805.057	3062
805.199	2891
805.341	2956
805.483	3020
805.626	3013
805.768	2937
805.91	3070
806.052	3081
806.194	3024
806.336	3230
806.478	2979
806.62	2967
806.762	2971
806.904	3093
807.046	3157
807.188	2971
807.33	2899
807.472	3005
807.614	2872
807.756	2990
807.898	2902
808.04	2918
808.182	2994
808.324	2944
808.465	2910
808.607	2887
808.749	2781
808.891	2880
809.033	2975
809.174	2986
809.316	2876
809.458	2891
809.6	2762
809.741	2762
809.883	2754
810.025	2838
810.166	2845
810.308	2834
810.45	2864
810.591	2796
810.733	2758
810.875	2842
811.016	2769
811.158	2754
811.299	2849
811.441	2902
811.582	2925
811.724	2807
811.865	2819
812.007	2941
812.148	2861
812.29	2849
812.431	2880
812.573	2914
812.714	2929
812.855	3001
812.997	3032
813.138	3119
813.279	2990
813.421	2963
813.562	2944
813.703	2864
813.845	2868
813.986	2769
814.127	2727
814.268	2823
814.41	2868
814.551	2819
814.692	2872
814.833	2807
814.974	2918
815.115	2933
815.256	2838
815.397	2800
815.539	2838
815.68	2788
815.821	2788
815.962	2963
816.103	2929
816.244	2899
816.385	2838
816.526	2971
816.666	2929
816.807	2762
816.948	2914
817.089	2925
817.23	2838
817.371	2777
817.512	2792
817.653	2823
817.793	2845
817.934	2834
818.075	2960
818.216	2948
818.356	3013
818.497	2883
818.638	2781
818.778	2861
818.919	2800
819.06	2754
819.2	2849
819.341	2800
819.481	2769
819.622	2895
819.762	3127
819.903	3032
820.043	2914
820.184	2883
820.324	2880
820.465	3009
820.605	3005
820.746	3017
820.886	2887
821.026	3070
821.167	3089
821.307	3249
821.447	3294
821.588	3260
821.728	3199
821.868	3211
822.008	3085
822.149	3195
822.289	3222
822.429	3066
822.569	3093
822.709	3176
822.849	3036
822.99	3074
823.13	3138
823.27	3207
823.41	3077
823.55	3142
823.69	3119
823.83	3184
823.97	3055
824.11	3013
824.25	2982
824.389	3051
824.529	3127
824.669	3043
824.809	3150
824.949	3264
825.089	3241
825.228	3146
825.368	2963
825.508	2929
825.648	2960
825.787	3036
825.927	3005
826.067	2975
826.206	2967
826.346	3020
826.485	3070
826.625	3104
826.765	3211
826.904	3211
827.044	2975
827.183	2933
827.323	2849
827.462	3005
827.601	2922
827.741	2914
827.88	2918
828.02	2830
828.159	2963
828.298	3047
828.437	3077
828.577	3036
828.716	3226
828.855	3081
828.994	2914
829.134	2883
829.273	2891
829.412	2876
829.551	2838
829.69	2883
829.829	2956
829.968	3108
830.107	2990
830.246	3020
830.385	2883
830.524	2899
830.663	2785
830.802	2724
830.941	2636
831.08	2640
831.219	2754
831.357	2743
831.496	2944
831.635	2697
831.774	2617
831.913	2640
832.051	2560
832.19	2571
832.329	2651
832.467	2537
832.606	2476
832.744	2530
832.883	2579
833.022	2583
833.16	2655
833.299	2689
833.437	2693
833.576	2655
833.714	2743
833.852	2746
833.991	2754
834.129	2815
834.267	2830
834.406	2785
834.544	2902
834.682	2887
834.821	2853
834.959	3093
835.097	2880
835.235	3070
835.373	3005
835.511	3043
835.65	2963
835.788	2948
835.926	2838
836.064	2823
836.202	2830
836.34	3074
836.478	3146
836.615	3051
836.753	3104
836.891	3203
837.029	3154
837.167	3089
837.305	3062
837.443	3028
837.58	2944
837.718	3138
837.856	3062
837.993	3047
838.131	3165
838.269	3097
838.406	3089
838.544	3089
838.681	2906
838.819	2876
838.956	2826
839.094	2823
839.231	2929
839.369	3051
839.506	3348
839.643	3199
839.781	2998
839.918	2963
840.055	3039
840.193	3062
840.33	3062
840.467	3100
840.604	3131
840.742	3424
840.879	3070
841.016	3062
841.153	3093
841.29	3313
841.427	3283
841.564	3249
841.701	3291
841.838	3203
841.975	3184
842.112	3184
842.249	3058
842.385	3005
842.522	3245
842.659	3116
842.796	3043
842.933	3085
843.069	3055
843.206	3028
843.343	3161
843.479	3085
843.616	3135
843.752	2910
843.889	2872
844.025	3089
844.162	2849
844.298	3097
844.435	2933
844.571	2925
844.708	3093
844.844	3180
844.98	3241
845.117	3138
845.253	3036
845.389	3017
845.525	3077
845.661	3089
845.798	3001
845.934	3123
846.07	3058
846.206	3207
846.342	3294
846.478	3203
846.614	3081
846.75	3058
846.886	3028
847.022	3218
847.158	3135
847.294	3184
847.429	3249
847.565	3165
847.701	3473
847.837	3020
847.972	2994
848.108	3150
848.244	3112
848.379	3013
848.515	2906
848.65	2914
848.786	2967
848.921	2990
849.057	3085
849.192	3135
849.328	3055
849.463	3119
849.598	3036
849.734	3001
849.869	2971
850.004	2925
850.14	2941
850.275	2910
850.41	2842
850.545	2876
850.68	2948
850.815	2960
850.95	2979
851.085	3180
851.22	3055
851.355	3017
851.49	2986
851.625	3005
851.76	3017
851.895	2914
852.03	2948
852.165	3028
852.299	3100
852.434	3199
852.569	3108
852.703	3142
852.838	3253
852.973	3336
853.107	3313
853.242	3161
853.376	3066
853.511	2982
853.645	3043
853.78	3214
853.914	3116
854.048	3112
854.183	3108
854.317	3157
854.451	3268
854.585	3131
854.72	3074
854.854	3211
854.988	3032
855.122	3097
855.256	2971
855.39	3100
855.524	3283
855.658	3184
855.792	3169
855.926	3176
856.06	3165
856.194	3230
856.327	3138
856.461	3074
856.595	3070
856.729	3085
856.862	3233
856.996	3161
857.13	3180
857.263	3222
857.397	3203
857.53	3119
857.664	3188
857.797	3230
857.931	3260
858.064	3142
858.197	3203
858.331	3146
858.464	3093
858.597	2994
858.731	3119
858.864	3138
858.997	3074
859.13	3150
859.263	3135
859.396	3188
859.529	3085
859.662	3051
859.795	3047
859.928	3089
860.061	3245
860.194	3245
860.327	3085
860.46	3077
860.592	3226
860.725	3253
860.858	3249
860.99	3085
861.123	3077
861.256	3070
861.388	3112
861.521	3724
861.653	3028
861.786	2971
861.918	2994
862.05	3024
862.183	3077
862.315	3176
862.447	3199
862.58	3100
862.712	2918
862.844	2876
862.976	3017
863.108	2971
863.24	3283
863.372	2891
863.504	2929
863.636	2933
863.768	2979
863.9	2982
864.032	2925
864.164	2941
864.296	3020
864.428	3070
864.559	3093
864.691	3081
864.823	3066
864.954	3020
865.086	3032
865.217	3013
865.349	2929
865.48	2986
865.612	3058
865.743	3192
865.875	2963
866.006	2971
866.137	2967
866.269	2937
866.4	2918
866.531	2948
866.662	2883
866.793	2906
866.924	2910
867.055	2933
867.186	2918
867.317	2910
867.448	2857
867.579	2830
867.71	2872
867.841	2807
867.972	2883
868.103	2902
868.233	2868
868.364	2880
868.495	2883
868.625	3089
868.756	3161
868.886	2998
869.017	3017
869.147	3142
869.278	3157
869.408	3043
869.539	3020
869.669	3116
869.799	3039
869.929	3157
870.06	3093
870.19	3291
870.32	3268
870.45	3291
870.58	3382
870.71	3450
870.84	3409
870.97	3310
871.1	3230
871.23	3481
871.36	3473
871.489	3336
871.619	3401
871.749	3389
871.879	3386
872.008	3450
872.138	3332
872.267	3264
872.397	3157
872.526	3108
872.656	2990
872.785	3142
872.915	3222
873.044	3340
873.173	3203
873.303	3253
873.432	3226
873.561	3245
873.69	3123
873.819	3127
873.948	3184
874.077	3074
874.206	3032
874.335	3070
874.464	3222
874.593	3351
874.722	3260
874.851	3367
874.979	3332
875.108	3313
875.237	3188
875.365	3184
875.494	3146
875.623	3260
875.751	3085
875.88	3093
876.008	3154
876.136	3176
876.265	3332
876.393	3500
876.521	3397
876.65	3378
876.778	3298
876.906	3275
877.034	3195
877.162	3214
877.29	3169
877.418	3241
877.546	3230
877.674	3237
877.802	3226
877.93	3226
878.058	3161
878.185	3100
878.313	3157
878.441	3199
878.568	3093
878.696	3180
878.824	3222
878.951	3317
879.079	3454
879.206	3591
879.333	3405
879.461	3313
879.588	3348
879.715	3424
879.842	3557
879.97	3367
880.097	3188
880.224	3142
880.351	3157
880.478	3218
880.605	3207
880.732	3184
880.859	3500
880.986	3283
881.112	3325
881.239	3203
881.366	3089
881.493	3055
881.619	3005
881.746	3047
881.872	3074
881.999	3074
882.125	3104
882.252	3253
882.378	3313
882.505	3412
882.631	3310
882.757	3131
882.883	3195
883.01	3260
883.136	3154
883.262	3085
883.388	3127
883.514	3317
883.64	3344
883.766	3283
883.892	3211
884.018	3211
884.143	3401
884.269	3515
884.395	3214
884.52	3142
884.646	3203
884.772	3112
884.897	3070
885.023	3184
885.148	3306
885.274	3393
885.399	3370
885.524	3256
885.65	3272
885.775	3249
885.9	3256
886.025	3439
886.15	3359
886.275	3279
886.4	3230
886.525	3321
886.65	3275
886.775	3211
886.9	3519
887.025	3625
887.149	3393
887.274	3253
887.399	3192
887.523	3214
887.648	3176
887.773	3184
887.897	3374
888.021	3401
888.146	3298
888.27	3397
888.395	3519
888.519	3405
888.643	3469
888.767	3416
888.891	3306
889.015	3230
889.139	3306
889.263	3226
889.387	3401
889.511	3488
889.635	3466
889.759	3291
889.883	3325
890.006	3370
890.13	3496
890.254	3287
890.377	3332
890.501	3214
890.624	3180
890.748	3298
890.871	3146
890.995	3119
891.118	3028
891.241	3192
891.364	3222
891.488	3287
891.611	3146
891.734	3230
891.857	3268
891.98	3241
892.103	3340
892.226	3237
892.349	3173
892.471	3089
892.594	3241
892.717	3268
892.839	3260
892.962	3291
893.085	3367
893.207	3325
893.33	3119
893.452	3203
893.575	3340
893.697	3245
893.819	3466
893.941	3485
894.064	3462
894.186	3298
894.308	3253
894.43	3420
894.552	3530
894.674	3450
894.796	3275
894.918	3306
895.04	3272
895.161	3428
895.283	3340
895.405	3325
895.526	3313
895.648	3420
895.769	3386
895.891	3458
896.012	3477
896.134	3466
896.255	3378
896.376	3389
896.498	3355
896.619	3439
896.74	3389
896.861	3412
896.982	3690
897.103	3823
897.224	3580
897.345	3523
897.466	3405
897.587	3492
897.708	3603
897.828	3530
897.949	3439
898.07	3329
898.19	3424
898.311	3637
898.431	3462
898.552	3526
898.672	3530
898.792	3580
898.913	3500
899.033	3431
899.153	3287
899.273	3226
899.393	3256
899.513	3268
899.633	3306
899.753	3306
899.873	3291
899.993	3367
900.113	3340
900.232	3378
900.352	3348
900.472	3245
900.591	3188
900.711	3272
900.83	3230
900.95	3397
901.069	3454
901.189	3344
901.308	3176
901.427	3146
901.546	3192
901.665	3298
901.784	3340
901.904	3199
902.023	3157
902.141	2979
902.26	2982
902.379	3142
902.498	3047
902.617	3036
902.735	3218
902.854	3279
902.973	3188
903.091	3070
903.21	3032
903.328	3154
903.446	3138
903.565	3081
903.683	3184
903.801	3138
903.919	3275
904.038	3264
904.156	3180
904.274	3294
904.392	3268
904.51	3294
904.627	3340
904.745	3401
904.863	3458
904.981	3264
905.098	3146
905.216	3222
905.334	3245
905.451	3291
905.569	3298
905.686	3416
905.803	3458
905.921	3275
906.038	3428
906.155	3393
906.272	3230
906.389	3283
906.506	3211
906.623	3245
906.74	3272
906.857	3169
906.974	3264
907.091	3466
907.208	3561
907.324	3469
907.441	3409
907.557	3245
907.674	3218
907.79	3180
907.907	3264
908.023	3386
908.139	3374
908.256	3344
908.372	3325
908.488	3310
908.604	3237
908.72	3260
908.836	3272
908.952	3268
909.068	3325
909.184	3462
909.3	3378
909.415	3496
909.531	3469
909.647	3279
909.762	3287
909.878	3264
909.993	3332
910.108	3348
910.224	3321
910.339	3386
910.454	3336
910.57	3264
910.685	3256
910.8	3587
910.915	3542
911.03	3420
911.145	3268
911.259	3245
911.374	3291
911.489	3218
911.604	3241
911.718	3127
911.833	3154
911.947	3032
912.062	2986
912.176	3123
912.291	3192
912.405	3230
912.519	3435
912.633	3473
912.748	3340
912.862	3256
912.976	3169
913.09	3032
913.204	3123
913.318	3199
913.431	3359
913.545	3344
913.659	3443
913.772	3340
913.886	3230
914	3207
914.113	3370
914.226	3412
914.34	3378
914.453	3218
914.566	3416
914.68	3283
914.793	3317
914.906	3127
915.019	3119
915.132	3085
915.245	3169
915.358	3218
915.47	3192
915.583	3249
915.696	3321
915.809	3420
915.921	3405
916.034	3237
916.146	3241
916.259	3226
916.371	3389
916.483	3367
916.595	3260
916.708	3370
916.82	3321
916.932	3340
917.044	3355
917.156	3351
917.268	3233
917.38	3249
917.491	3294
917.603	3351
917.715	3409
917.826	3473
917.938	3355
918.049	3268
918.161	3420
918.272	3564
918.384	3564
918.495	3519
918.606	3294
918.717	3264
918.828	3329
918.939	3450
919.05	3306
919.161	3348
919.272	3195
919.383	3241
919.494	3496
919.604	3675
919.715	3462
919.826	3424
919.936	3428
920.047	3576
920.157	3534
920.267	3747
920.378	3599
920.488	3553
920.598	3759
920.708	3975
920.818	3778
920.928	3846
921.038	4017
921.148	3975
921.258	3732
921.368	3614
921.477	3629
921.587	3477
921.697	3492
921.806	3584
921.916	3504
922.025	3412
922.134	3355
922.244	3336
922.353	3428
922.462	3253
922.571	3249
922.68	3074
922.789	3077
922.898	3119
923.007	3066
923.116	3218
923.224	3207
923.333	3203
923.442	3100
923.55	3112
923.659	3116
923.767	3176
923.876	3112
923.984	3253
924.092	3070
924.201	3157
924.309	3222
924.417	3283
924.525	3180
924.633	3218
924.741	3987
924.849	3005
924.956	3291
925.064	3104
925.172	3036
925.279	3100
925.387	3176
925.494	3150
925.602	3374
925.709	3321
925.816	3203
925.924	3272
926.031	3386
926.138	3310
926.245	3386
926.352	3253
926.459	3370
926.566	3492
926.673	3306
926.779	3256
926.886	3249
926.993	3138
927.099	3123
927.206	3112
927.312	3116
927.419	3237
927.525	3237
927.631	3253
927.737	3127
927.843	3150
927.95	3032
928.056	3154
928.162	3184
928.267	3222
928.373	3903
928.479	3291
928.585	3047
928.69	3199
928.796	3298
928.901	3214
929.007	3028
929.112	3241
929.218	3184
929.323	3112
929.428	3119
929.533	3268
929.638	3070
929.743	3165
929.848	3268
929.953	3195
930.058	3135
930.163	2952
930.267	3058
930.372	3214
930.477	3051
930.581	3313
930.685	3184
930.79	3024
930.894	3138
930.998	3100
931.103	3241
931.207	2986
931.311	2933
931.415	2937
931.519	2785
931.623	2834
