Data from test_V78500241_648.txt Node
Date: Fri Mar 25 16:19:41 CST 2022
User: usil
Spectrometer: V785-0024
Trigger mode: 0
Integration Time (sec): 4.000000E-1
Scans to average: 1
Nonlinearity correction enabled: false
Boxcar width: 0
Storing dark spectrum: false
XAxis mode: Wavelengths
Number of Pixels in Spectrum: 1024
>>>>>Begin Spectral Data<<<<<
801.071	2929
801.214	2952
801.356	2857
801.499	2922
801.641	2861
801.783	2922
801.926	3028
802.068	2960
802.211	3001
802.353	3028
802.496	2944
802.638	2967
802.78	2979
802.923	3062
803.065	2998
803.208	2880
803.35	2914
803.492	2952
803.635	2937
803.777	2746
803.919	2910
804.061	3203
804.204	2956
804.346	2880
804.488	2872
804.63	3005
804.773	2868
804.915	2857
805.057	3066
805.199	2922
805.341	2956
805.483	3032
805.626	3009
805.768	2956
805.91	3104
806.052	3089
806.194	2998
806.336	3195
806.478	3024
806.62	2956
806.762	2971
806.904	3043
807.046	3184
807.188	2986
807.33	2883
807.472	2971
807.614	2910
807.756	2971
807.898	2933
808.04	2902
808.182	2971
808.324	2933
808.465	2849
808.607	2864
808.749	2845
808.891	2849
809.033	2925
809.174	2952
809.316	2868
809.458	2868
809.6	2750
809.741	2746
809.883	2788
810.025	2834
810.166	2857
810.308	2845
810.45	2845
810.591	2769
810.733	2750
810.875	2807
811.016	2750
811.158	2773
811.299	2815
811.441	2902
811.582	2891
811.724	2823
811.865	2807
812.007	2861
812.148	2864
812.29	2826
812.431	2906
812.573	2933
812.714	2937
812.855	3047
812.997	3036
813.138	3127
813.279	2994
813.421	2986
813.562	2948
813.703	2853
813.845	2864
813.986	2800
814.127	2739
814.268	2800
814.41	2811
814.551	2788
814.692	2845
814.833	2807
814.974	2864
815.115	2952
815.256	2800
815.397	2788
815.539	2853
815.68	2743
815.821	2819
815.962	2941
816.103	2891
816.244	2838
816.385	2868
816.526	2929
816.666	2906
816.807	2766
816.948	2883
817.089	2941
817.23	2857
817.371	2781
817.512	2762
817.653	2804
817.793	2804
817.934	2857
818.075	2956
818.216	2998
818.356	3028
818.497	2876
818.638	2845
818.778	2804
818.919	2785
819.06	2762
819.2	2883
819.341	2811
819.481	2804
819.622	2967
819.762	3112
819.903	2998
820.043	2906
820.184	2910
820.324	2910
820.465	2994
820.605	2971
820.746	2994
820.886	2944
821.026	3043
821.167	3165
821.307	3268
821.447	3272
821.588	3241
821.728	3222
821.868	3173
822.008	3058
822.149	3207
822.289	3230
822.429	3077
822.569	3089
822.709	3154
822.849	3024
822.99	3051
823.13	3146
823.27	3218
823.41	3104
823.55	3138
823.69	3135
823.83	3195
823.97	3043
824.11	3001
824.25	3024
824.389	3097
824.529	3077
824.669	3055
824.809	3214
824.949	3275
825.089	3192
825.228	3157
825.368	2986
825.508	2952
825.648	2975
825.787	3036
825.927	3024
826.067	2933
826.206	2967
826.346	3051
826.485	3051
826.625	3074
826.765	3214
826.904	3195
827.044	2967
827.183	2899
827.323	2834
827.462	2967
827.601	2906
827.741	2918
827.88	2944
828.02	2830
828.159	2941
828.298	3066
828.437	3097
828.577	3028
828.716	3230
828.855	3028
828.994	2918
829.134	2872
829.273	2922
829.412	2902
829.551	2857
829.69	2861
829.829	2986
829.968	3154
830.107	2944
830.246	3066
830.385	2902
830.524	2868
830.663	2811
830.802	2731
830.941	2663
831.08	2644
831.219	2754
831.357	2746
831.496	2906
831.635	2678
831.774	2636
831.913	2655
832.051	2537
832.19	2564
832.329	2674
832.467	2545
832.606	2473
832.744	2583
832.883	2590
833.022	2564
833.16	2598
833.299	2697
833.437	2667
833.576	2663
833.714	2697
833.852	2716
833.991	2758
834.129	2853
834.267	2830
834.406	2777
834.544	2868
834.682	2853
834.821	2887
834.959	3043
835.097	2861
835.235	3047
835.373	2975
835.511	2975
835.65	2922
835.788	2990
835.926	2838
836.064	2800
836.202	2826
836.34	3089
836.478	3135
836.615	3043
836.753	3097
836.891	3207
837.029	3154
837.167	3081
837.305	3074
837.443	2986
837.58	2952
837.718	3119
837.856	3119
837.993	3051
838.131	3116
838.269	3043
838.406	3077
838.544	3085
838.681	2948
838.819	2937
838.956	2792
839.094	2834
839.231	2914
839.369	3020
839.506	3382
839.643	3192
839.781	3009
839.918	2967
840.055	3024
840.193	3058
840.33	3074
840.467	3104
840.604	3154
840.742	3416
840.879	3020
841.016	3017
841.153	3097
841.29	3325
841.427	3287
841.564	3230
841.701	3325
841.838	3211
841.975	3188
842.112	3214
842.249	3070
842.385	3058
842.522	3237
842.659	3070
842.796	3051
842.933	3070
843.069	3017
843.206	3020
843.343	3192
843.479	3070
843.616	3085
843.752	2887
843.889	2845
844.025	3043
844.162	2864
844.298	3047
844.435	2956
844.571	2899
844.708	3081
844.844	3211
844.98	3207
845.117	3180
845.253	3047
845.389	3032
845.525	3116
845.661	3081
845.798	2998
845.934	3119
846.07	3032
846.206	3218
846.342	3294
846.478	3218
846.614	3104
846.75	3051
846.886	3043
847.022	3253
847.158	3112
847.294	3169
847.429	3214
847.565	3199
847.701	3488
847.837	3051
847.972	3009
848.108	3108
848.244	3138
848.379	2963
848.515	2937
848.65	2937
848.786	2948
848.921	2975
849.057	3077
849.192	3135
849.328	3062
849.463	3093
849.598	3039
849.734	2994
849.869	2914
850.004	2899
850.14	2944
850.275	2899
850.41	2823
850.545	2857
850.68	2910
850.815	2933
850.95	2952
851.085	3176
851.22	3097
851.355	3032
851.49	2979
851.625	2975
851.76	3009
851.895	2899
852.03	2906
852.165	3032
852.299	3081
852.434	3142
852.569	3108
852.703	3161
852.838	3283
852.973	3302
853.107	3283
853.242	3127
853.376	3036
853.511	2933
853.645	3055
853.78	3192
853.914	3123
854.048	3089
854.183	3070
854.317	3100
854.451	3310
854.585	3104
854.72	3112
854.854	3176
854.988	3062
855.122	3032
855.256	3009
855.39	3089
855.524	3222
855.658	3184
855.792	3154
855.926	3169
856.06	3207
856.194	3253
856.327	3123
856.461	3039
856.595	3013
856.729	3036
856.862	3237
856.996	3142
857.13	3184
857.263	3245
857.397	3237
857.53	3112
857.664	3161
857.797	3230
857.931	3241
858.064	3176
858.197	3180
858.331	3112
858.464	3127
858.597	2982
858.731	3123
858.864	3100
858.997	3074
859.13	3173
859.263	3195
859.396	3195
859.529	3077
859.662	3081
859.795	3116
859.928	3150
860.061	3294
860.194	3298
860.327	3150
860.46	3085
860.592	3237
860.725	3222
860.858	3260
860.99	3100
861.123	3036
861.256	3104
861.388	3157
861.521	3941
861.653	3017
861.786	2994
861.918	3013
862.05	3066
862.183	3116
862.315	3180
862.447	3233
862.58	3116
862.712	2998
862.844	2895
862.976	3062
863.108	3047
863.24	3447
863.372	2914
863.504	2975
863.636	2979
863.768	3062
863.9	3001
864.032	2922
864.164	2952
864.296	3032
864.428	3142
864.559	3146
864.691	3093
864.823	3093
864.954	3055
865.086	3089
865.217	3032
865.349	2990
865.48	3013
865.612	3032
865.743	3176
865.875	3051
866.006	2986
866.137	3005
866.269	3009
866.4	2967
866.531	2941
866.662	2922
866.793	2948
866.924	2933
867.055	3020
867.186	2979
867.317	2918
867.448	2872
867.579	2902
867.71	2872
867.841	2868
867.972	2937
868.103	2971
868.233	2883
868.364	2891
868.495	2960
868.625	3108
868.756	3241
868.886	2975
869.017	3051
869.147	3249
869.278	3199
869.408	3093
869.539	3058
869.669	3112
869.799	3047
869.929	3135
870.06	3127
870.19	3367
870.32	3310
870.45	3336
870.58	3386
870.71	3458
870.84	3462
870.97	3313
871.1	3302
871.23	3587
871.36	3485
871.489	3397
871.619	3458
871.749	3443
871.879	3466
872.008	3492
872.138	3363
872.267	3317
872.397	3241
872.526	3169
872.656	3066
872.785	3112
872.915	3233
873.044	3329
873.173	3264
873.303	3233
873.432	3287
873.561	3279
873.69	3199
873.819	3176
873.948	3272
874.077	3116
874.206	3055
874.335	3135
874.464	3214
874.593	3378
874.722	3222
874.851	3359
874.979	3409
875.108	3310
875.237	3203
875.365	3161
875.494	3176
875.623	3275
875.751	3100
875.88	3154
876.008	3233
876.136	3260
876.265	3374
876.393	3549
876.521	3435
876.65	3428
876.778	3374
876.906	3256
877.034	3253
877.162	3245
877.29	3218
877.418	3245
877.546	3241
877.674	3268
877.802	3245
877.93	3230
878.058	3154
878.185	3138
878.313	3249
878.441	3222
878.568	3097
878.696	3192
878.824	3260
878.951	3325
879.079	3469
879.206	3625
879.333	3458
879.461	3348
879.588	3370
879.715	3523
879.842	3629
879.97	3412
880.097	3199
880.224	3165
880.351	3233
880.478	3253
880.605	3230
880.732	3222
880.859	3530
880.986	3298
881.112	3329
881.239	3233
881.366	3116
881.493	3077
881.619	3043
881.746	3074
881.872	3116
881.999	3138
882.125	3195
882.252	3249
882.378	3294
882.505	3485
882.631	3310
882.757	3192
882.883	3245
883.01	3264
883.136	3161
883.262	3112
883.388	3173
883.514	3329
883.64	3412
883.766	3302
883.892	3218
884.018	3283
884.143	3431
884.269	3557
884.395	3264
884.52	3154
884.646	3218
884.772	3180
884.897	3119
885.023	3264
885.148	3359
885.274	3450
885.399	3416
885.524	3313
885.65	3287
885.775	3370
885.9	3313
886.025	3450
886.15	3409
886.275	3340
886.4	3272
886.525	3329
886.65	3317
886.775	3291
886.9	3530
887.025	3690
887.149	3409
887.274	3302
887.399	3176
887.523	3230
887.648	3211
887.773	3233
887.897	3412
888.021	3458
888.146	3306
888.27	3431
888.395	3564
888.519	3447
888.643	3458
888.767	3462
888.891	3332
889.015	3241
889.139	3340
889.263	3222
889.387	3412
889.511	3557
889.635	3458
889.759	3306
889.883	3310
890.006	3420
890.13	3500
890.254	3272
890.377	3344
890.501	3226
890.624	3199
890.748	3310
890.871	3226
890.995	3131
891.118	3123
891.241	3245
891.364	3249
891.488	3332
891.611	3211
891.734	3268
891.857	3291
891.98	3249
892.103	3351
892.226	3302
892.349	3245
892.471	3154
892.594	3283
892.717	3332
892.839	3268
892.962	3344
893.085	3382
893.207	3310
893.33	3199
893.452	3260
893.575	3363
893.697	3249
893.819	3477
893.941	3515
894.064	3473
894.186	3291
894.308	3302
894.43	3458
894.552	3568
894.674	3488
894.796	3260
894.918	3363
895.04	3298
895.161	3466
895.283	3420
895.405	3332
895.526	3393
895.648	3412
895.769	3420
895.891	3496
896.012	3496
896.134	3523
896.255	3424
896.376	3435
896.498	3359
896.619	3424
896.74	3386
896.861	3428
896.982	3713
897.103	3869
897.224	3637
897.345	3534
897.466	3473
897.587	3534
897.708	3637
897.828	3576
897.949	3458
898.07	3344
898.19	3416
898.311	3622
898.431	3477
898.552	3534
898.672	3603
898.792	3625
898.913	3553
899.033	3439
899.153	3359
899.273	3264
899.393	3302
899.513	3313
899.633	3386
899.753	3348
899.873	3351
899.993	3397
900.113	3397
900.232	3401
900.352	3336
900.472	3298
900.591	3218
900.711	3344
900.83	3268
900.95	3443
901.069	3477
901.189	3389
901.308	3184
901.427	3180
901.546	3245
901.665	3332
901.784	3344
901.904	3237
902.023	3165
902.141	3020
902.26	3013
902.379	3146
902.498	3150
902.617	3074
902.735	3233
902.854	3237
902.973	3199
903.091	3020
903.21	3074
903.328	3138
903.446	3146
903.565	3135
903.683	3195
903.801	3150
903.919	3256
904.038	3329
904.156	3180
904.274	3291
904.392	3279
904.51	3332
904.627	3367
904.745	3488
904.863	3534
904.981	3275
905.098	3173
905.216	3226
905.334	3310
905.451	3340
905.569	3321
905.686	3435
905.803	3454
905.921	3317
906.038	3428
906.155	3359
906.272	3264
906.389	3340
906.506	3264
906.623	3310
906.74	3283
906.857	3203
906.974	3283
907.091	3450
907.208	3625
907.324	3469
907.441	3416
907.557	3233
907.674	3233
907.79	3226
907.907	3294
908.023	3397
908.139	3454
908.256	3329
908.372	3367
908.488	3348
908.604	3268
908.72	3260
908.836	3294
908.952	3272
909.068	3344
909.184	3534
909.3	3431
909.415	3545
909.531	3469
909.647	3275
909.762	3279
909.878	3283
909.993	3374
910.108	3370
910.224	3325
910.339	3469
910.454	3359
910.57	3279
910.685	3268
910.8	3599
910.915	3572
911.03	3469
911.145	3272
911.259	3260
911.374	3325
911.489	3264
911.604	3207
911.718	3161
911.833	3161
911.947	3032
912.062	3009
912.176	3195
912.291	3207
912.405	3253
912.519	3420
912.633	3488
912.748	3359
912.862	3310
912.976	3184
913.09	3043
913.204	3161
913.318	3237
913.431	3374
913.545	3405
913.659	3420
913.772	3313
913.886	3230
914	3207
914.113	3382
914.226	3386
914.34	3382
914.453	3218
914.566	3420
914.68	3332
914.793	3310
914.906	3142
915.019	3154
915.132	3081
915.245	3195
915.358	3222
915.47	3226
915.583	3306
915.696	3348
915.809	3416
915.921	3435
916.034	3245
916.146	3241
916.259	3226
916.371	3439
916.483	3363
916.595	3306
916.708	3344
916.82	3348
916.932	3317
917.044	3355
917.156	3344
917.268	3253
917.38	3310
917.491	3302
917.603	3363
917.715	3488
917.826	3481
917.938	3420
918.049	3294
918.161	3439
918.272	3603
918.384	3584
918.495	3458
918.606	3321
918.717	3294
918.828	3397
918.939	3428
919.05	3317
919.161	3367
919.272	3195
919.383	3310
919.494	3500
919.604	3713
919.715	3477
919.826	3428
919.936	3473
920.047	3648
920.157	3549
920.267	3804
920.378	3629
920.488	3553
920.598	3770
920.708	3941
920.818	3804
920.928	3831
921.038	4017
921.148	3991
921.258	3717
921.368	3648
921.477	3591
921.587	3542
921.697	3435
921.806	3622
921.916	3553
922.025	3382
922.134	3393
922.244	3348
922.353	3466
922.462	3294
922.571	3233
922.68	3119
922.789	3097
922.898	3135
923.007	3081
923.116	3218
923.224	3192
923.333	3176
923.442	3112
923.55	3093
923.659	3157
923.767	3184
923.876	3062
923.984	3237
924.092	3108
924.201	3169
924.309	3226
924.417	3241
924.525	3165
924.633	3245
924.741	4071
924.849	3043
924.956	3275
925.064	3081
925.172	3058
925.279	3097
925.387	3203
925.494	3199
925.602	3348
925.709	3348
925.816	3195
925.924	3283
926.031	3378
926.138	3340
926.245	3367
926.352	3287
926.459	3420
926.566	3473
926.673	3344
926.779	3291
926.886	3253
926.993	3192
927.099	3150
927.206	3138
927.312	3192
927.419	3294
927.525	3253
927.631	3336
927.737	3173
927.843	3131
927.95	3017
928.056	3180
928.162	3218
928.267	3233
928.373	3781
928.479	3344
928.585	3097
928.69	3287
928.796	3302
928.901	3214
929.007	3055
929.112	3245
929.218	3233
929.323	3199
929.428	3173
929.533	3389
929.638	3173
929.743	3180
929.848	3291
929.953	3245
930.058	3180
930.163	3028
930.267	3066
930.372	3233
930.477	3085
930.581	3389
930.685	3195
930.79	3112
930.894	3184
930.998	3161
931.103	3329
931.207	3047
931.311	2986
931.415	3005
931.519	2834
931.623	2845
