Data from test_V78500241_882.txt Node
Date: Fri Mar 25 16:21:18 CST 2022
User: usil
Spectrometer: V785-0024
Trigger mode: 0
Integration Time (sec): 4.000000E-1
Scans to average: 1
Nonlinearity correction enabled: false
Boxcar width: 0
Storing dark spectrum: false
XAxis mode: Wavelengths
Number of Pixels in Spectrum: 1024
>>>>>Begin Spectral Data<<<<<
801.071	2906
801.214	2925
801.356	2868
801.499	2906
801.641	2891
801.783	2914
801.926	3062
802.068	2986
802.211	2975
802.353	3005
802.496	2948
802.638	2990
802.78	3001
802.923	3074
803.065	2979
803.208	2918
803.35	2887
803.492	2922
803.635	2941
803.777	2746
803.919	2826
804.061	3222
804.204	2937
804.346	2914
804.488	2800
804.63	2967
804.773	2849
804.915	2918
805.057	3062
805.199	2937
805.341	2952
805.483	2990
805.626	3005
805.768	2948
805.91	3058
806.052	3127
806.194	3039
806.336	3249
806.478	2990
806.62	2956
806.762	2933
806.904	3013
807.046	3176
807.188	2986
807.33	2922
807.472	2952
807.614	2868
807.756	2990
807.898	2918
808.04	2899
808.182	2963
808.324	2986
808.465	2883
808.607	2883
808.749	2807
808.891	2887
809.033	2986
809.174	2952
809.316	2933
809.458	2887
809.6	2800
809.741	2769
809.883	2769
810.025	2842
810.166	2861
810.308	2830
810.45	2876
810.591	2777
810.733	2727
810.875	2815
811.016	2781
811.158	2785
811.299	2819
811.441	2891
811.582	2895
811.724	2807
811.865	2842
812.007	2899
812.148	2883
812.29	2872
812.431	2891
812.573	2971
812.714	2967
812.855	3036
812.997	3039
813.138	3085
813.279	2971
813.421	3009
813.562	2937
813.703	2826
813.845	2887
813.986	2773
814.127	2697
814.268	2807
814.41	2823
814.551	2815
814.692	2876
814.833	2804
814.974	2929
815.115	2979
815.256	2807
815.397	2807
815.539	2872
815.68	2758
815.821	2739
815.962	2941
816.103	2895
816.244	2857
816.385	2872
816.526	2941
816.666	2952
816.807	2788
816.948	2922
817.089	2925
817.23	2845
817.371	2754
817.512	2804
817.653	2811
817.793	2842
817.934	2883
818.075	2956
818.216	2979
818.356	3013
818.497	2891
818.638	2739
818.778	2811
818.919	2750
819.06	2754
819.2	2880
819.341	2762
819.481	2807
819.622	2914
819.762	3112
819.903	3066
820.043	2937
820.184	2906
820.324	2880
820.465	3043
820.605	3024
820.746	3024
820.886	2937
821.026	3119
821.167	3188
821.307	3222
821.447	3306
821.588	3230
821.728	3211
821.868	3157
822.008	3051
822.149	3188
822.289	3192
822.429	3108
822.569	3085
822.709	3161
822.849	3009
822.99	3100
823.13	3157
823.27	3207
823.41	3093
823.55	3154
823.69	3157
823.83	3207
823.97	3100
824.11	3005
824.25	2979
824.389	3055
824.529	3081
824.669	3043
824.809	3214
824.949	3237
825.089	3222
825.228	3157
825.368	2979
825.508	2937
825.648	2982
825.787	3017
825.927	3024
826.067	2967
826.206	2963
826.346	3047
826.485	3047
826.625	3108
826.765	3226
826.904	3214
827.044	3001
827.183	2952
827.323	2845
827.462	2990
827.601	2933
827.741	2910
827.88	2948
828.02	2838
828.159	2986
828.298	3039
828.437	3085
828.577	3039
828.716	3222
828.855	3051
828.994	2883
829.134	2891
829.273	2906
829.412	2864
829.551	2872
829.69	2876
829.829	2956
829.968	3138
830.107	3013
830.246	3001
830.385	2929
830.524	2895
830.663	2811
830.802	2716
830.941	2644
831.08	2629
831.219	2754
831.357	2750
831.496	2937
831.635	2731
831.774	2625
831.913	2651
832.051	2571
832.19	2579
832.329	2720
832.467	2541
832.606	2469
832.744	2575
832.883	2564
833.022	2579
833.16	2621
833.299	2693
833.437	2724
833.576	2701
833.714	2727
833.852	2750
833.991	2758
834.129	2861
834.267	2872
834.406	2746
834.544	2861
834.682	2868
834.821	2834
834.959	3066
835.097	2891
835.235	3074
835.373	3043
835.511	3005
835.65	2948
835.788	2956
835.926	2804
836.064	2807
836.202	2826
836.34	3100
836.478	3138
836.615	3020
836.753	3138
836.891	3161
837.029	3157
837.167	3089
837.305	3097
837.443	3043
837.58	3001
837.718	3116
837.856	3066
837.993	3013
838.131	3081
838.269	3093
838.406	3108
838.544	3074
838.681	2933
838.819	2899
838.956	2811
839.094	2815
839.231	2891
839.369	3001
839.506	3351
839.643	3203
839.781	3013
839.918	2922
840.055	3085
840.193	3028
840.33	3058
840.467	3066
840.604	3123
840.742	3397
840.879	3058
841.016	3077
841.153	3077
841.29	3332
841.427	3245
841.564	3287
841.701	3279
841.838	3188
841.975	3154
842.112	3245
842.249	3077
842.385	3085
842.522	3237
842.659	3077
842.796	3066
842.933	3093
843.069	3051
843.206	3032
843.343	3180
843.479	3116
843.616	3146
843.752	2891
843.889	2872
844.025	3055
844.162	2883
844.298	3081
844.435	2960
844.571	2925
844.708	3089
844.844	3169
844.98	3192
845.117	3192
845.253	3058
845.389	2990
845.525	3108
845.661	3108
845.798	3024
845.934	3100
846.07	3036
846.206	3233
846.342	3291
846.478	3230
846.614	3066
846.75	3028
846.886	3039
847.022	3207
847.158	3123
847.294	3184
847.429	3241
847.565	3184
847.701	3466
847.837	3032
847.972	3005
848.108	3161
848.244	3135
848.379	2975
848.515	2933
848.65	2925
848.786	2937
848.921	2979
849.057	3055
849.192	3169
849.328	3009
849.463	3070
849.598	3032
849.734	3013
849.869	2994
850.004	2902
850.14	2910
850.275	2933
850.41	2845
850.545	2891
850.68	2941
850.815	2967
850.95	2990
851.085	3214
851.22	3104
851.355	3070
851.49	2956
851.625	3017
851.76	2994
851.895	2933
852.03	2933
852.165	3039
852.299	3043
852.434	3176
852.569	3157
852.703	3184
852.838	3241
852.973	3294
853.107	3317
853.242	3161
853.376	3062
853.511	2933
853.645	3074
853.78	3241
853.914	3131
854.048	3093
854.183	3100
854.317	3100
854.451	3336
854.585	3108
854.72	3093
854.854	3222
854.988	3043
855.122	3047
855.256	2975
855.39	3081
855.524	3253
855.658	3165
855.792	3161
855.926	3211
856.06	3253
856.194	3233
856.327	3123
856.461	3024
856.595	3055
856.729	3100
856.862	3184
856.996	3135
857.13	3188
857.263	3211
857.397	3264
857.53	3116
857.664	3203
857.797	3245
857.931	3275
858.064	3142
858.197	3241
858.331	3108
858.464	3104
858.597	3020
858.731	3142
858.864	3135
858.997	3100
859.13	3142
859.263	3173
859.396	3176
859.529	3108
859.662	3077
859.795	3032
859.928	3112
860.061	3291
860.194	3275
860.327	3074
860.46	3062
860.592	3253
860.725	3237
860.858	3287
860.99	3108
861.123	3070
861.256	3039
861.388	3104
861.521	3778
861.653	3032
861.786	2948
861.918	2963
862.05	3032
862.183	3077
862.315	3131
862.447	3226
862.58	3081
862.712	2948
862.844	2849
862.976	3009
863.108	2994
863.24	3302
863.372	2880
863.504	2960
863.636	2902
863.768	3024
863.9	2960
864.032	2895
864.164	2960
864.296	3020
864.428	3051
864.559	3077
864.691	3070
864.823	3024
864.954	3032
865.086	3062
865.217	2982
865.349	2941
865.48	2998
865.612	3043
865.743	3135
865.875	2986
866.006	2967
866.137	2994
866.269	2944
866.4	2925
866.531	2922
866.662	2880
866.793	2857
866.924	2925
867.055	2948
867.186	2918
867.317	2887
867.448	2819
867.579	2826
867.71	2842
867.841	2826
867.972	2876
868.103	2922
868.233	2910
868.364	2880
868.495	2872
868.625	3055
868.756	3135
868.886	2990
869.017	3009
869.147	3173
869.278	3157
869.408	3058
869.539	3005
869.669	3081
869.799	3032
869.929	3127
870.06	3116
870.19	3325
870.32	3283
870.45	3317
870.58	3359
870.71	3416
870.84	3393
870.97	3298
871.1	3211
871.23	3507
871.36	3477
871.489	3313
871.619	3386
871.749	3405
871.879	3412
872.008	3481
872.138	3367
872.267	3302
872.397	3089
872.526	3077
872.656	3005
872.785	3123
872.915	3245
873.044	3332
873.173	3211
873.303	3294
873.432	3245
873.561	3214
873.69	3176
873.819	3112
873.948	3214
874.077	3085
874.206	3017
874.335	3070
874.464	3184
874.593	3340
874.722	3249
874.851	3374
874.979	3370
875.108	3332
875.237	3207
875.365	3188
875.494	3165
875.623	3260
875.751	3062
875.88	3112
876.008	3176
876.136	3237
876.265	3351
876.393	3530
876.521	3454
876.65	3424
876.778	3298
876.906	3249
877.034	3199
877.162	3241
877.29	3157
877.418	3230
877.546	3249
877.674	3253
877.802	3214
877.93	3222
878.058	3116
878.185	3097
878.313	3176
878.441	3199
878.568	3058
878.696	3108
878.824	3272
878.951	3302
879.079	3447
879.206	3587
879.333	3450
879.461	3310
879.588	3332
879.715	3469
879.842	3622
879.97	3332
880.097	3154
880.224	3097
880.351	3230
880.478	3222
880.605	3188
880.732	3188
880.859	3515
880.986	3302
881.112	3272
881.239	3218
881.366	3085
881.493	3028
881.619	3001
881.746	3036
881.872	3104
881.999	3097
882.125	3104
882.252	3241
882.378	3268
882.505	3454
882.631	3291
882.757	3135
882.883	3195
883.01	3218
883.136	3150
883.262	3081
883.388	3104
883.514	3325
883.64	3397
883.766	3279
883.892	3199
884.018	3245
884.143	3405
884.269	3549
884.395	3214
884.52	3161
884.646	3192
884.772	3089
884.897	3108
885.023	3165
885.148	3325
885.274	3389
885.399	3397
885.524	3260
885.65	3306
885.775	3283
885.9	3279
886.025	3378
886.15	3336
886.275	3317
886.4	3260
886.525	3279
886.65	3275
886.775	3298
886.9	3454
887.025	3633
887.149	3424
887.274	3249
887.399	3192
887.523	3211
887.648	3150
887.773	3203
887.897	3359
888.021	3374
888.146	3306
888.27	3443
888.395	3507
888.519	3401
888.643	3431
888.767	3496
888.891	3313
889.015	3241
889.139	3325
889.263	3207
889.387	3439
889.511	3492
889.635	3462
889.759	3298
889.883	3283
890.006	3378
890.13	3485
890.254	3283
890.377	3344
890.501	3184
890.624	3173
890.748	3283
890.871	3192
890.995	3104
891.118	3062
891.241	3176
891.364	3226
891.488	3321
891.611	3119
891.734	3241
891.857	3291
891.98	3203
892.103	3317
892.226	3253
892.349	3207
892.471	3093
892.594	3188
892.717	3264
892.839	3310
892.962	3256
893.085	3409
893.207	3321
893.33	3180
893.452	3180
893.575	3317
893.697	3226
893.819	3450
893.941	3481
894.064	3450
894.186	3268
894.308	3279
894.43	3374
894.552	3530
894.674	3507
894.796	3226
894.918	3291
895.04	3275
895.161	3428
895.283	3370
895.405	3283
895.526	3340
895.648	3416
895.769	3367
895.891	3447
896.012	3481
896.134	3439
896.255	3370
896.376	3367
896.498	3378
896.619	3424
896.74	3389
896.861	3386
896.982	3656
897.103	3835
897.224	3610
897.345	3504
897.466	3401
897.587	3466
897.708	3660
897.828	3545
897.949	3466
898.07	3325
898.19	3412
898.311	3591
898.431	3428
898.552	3507
898.672	3576
898.792	3625
898.913	3534
899.033	3370
899.153	3279
899.273	3207
899.393	3310
899.513	3329
899.633	3317
899.753	3313
899.873	3332
899.993	3348
900.113	3317
900.232	3397
900.352	3355
900.472	3253
900.591	3203
900.711	3268
900.83	3264
900.95	3382
901.069	3473
901.189	3355
901.308	3169
901.427	3131
901.546	3184
901.665	3256
901.784	3340
901.904	3214
902.023	3138
902.141	3005
902.26	3009
902.379	3150
902.498	3074
902.617	3070
902.735	3192
902.854	3233
902.973	3169
903.091	3062
903.21	3032
903.328	3135
903.446	3116
903.565	3077
903.683	3188
903.801	3127
903.919	3241
904.038	3291
904.156	3161
904.274	3260
904.392	3298
904.51	3268
904.627	3336
904.745	3439
904.863	3450
904.981	3245
905.098	3142
905.216	3218
905.334	3245
905.451	3283
905.569	3302
905.686	3431
905.803	3401
905.921	3283
906.038	3431
906.155	3351
906.272	3253
906.389	3344
906.506	3218
906.623	3241
906.74	3283
906.857	3154
906.974	3260
907.091	3439
907.208	3549
907.324	3488
907.441	3389
907.557	3199
907.674	3260
907.79	3203
907.907	3260
908.023	3367
908.139	3348
908.256	3310
908.372	3363
908.488	3348
908.604	3226
908.72	3207
908.836	3283
908.952	3233
909.068	3317
909.184	3466
909.3	3397
909.415	3477
909.531	3458
909.647	3214
909.762	3199
909.878	3226
909.993	3351
910.108	3355
910.224	3306
910.339	3386
910.454	3313
910.57	3275
910.685	3237
910.8	3572
910.915	3511
911.03	3428
911.145	3260
911.259	3249
911.374	3313
911.489	3249
911.604	3211
911.718	3150
911.833	3157
911.947	3036
912.062	2971
912.176	3165
912.291	3169
912.405	3233
912.519	3450
912.633	3458
912.748	3336
912.862	3245
912.976	3146
913.09	3097
913.204	3157
913.318	3260
913.431	3332
913.545	3325
913.659	3435
913.772	3336
913.886	3275
914	3214
914.113	3370
914.226	3428
914.34	3370
914.453	3253
914.566	3382
914.68	3325
914.793	3317
914.906	3146
915.019	3150
915.132	3089
915.245	3188
915.358	3222
915.47	3287
915.583	3260
915.696	3283
915.809	3458
915.921	3439
916.034	3348
916.146	3283
916.259	3283
916.371	3420
916.483	3431
916.595	3336
916.708	3405
916.82	3363
916.932	3378
917.044	3370
917.156	3428
917.268	3291
917.38	3370
917.491	3317
917.603	3367
917.715	3511
917.826	3534
917.938	3416
918.049	3302
918.161	3458
918.272	3614
918.384	3629
918.495	3545
918.606	3389
918.717	3325
918.828	3389
918.939	3481
919.05	3367
919.161	3374
919.272	3211
919.383	3313
919.494	3530
919.604	3743
919.715	3519
919.826	3443
919.936	3504
920.047	3614
920.157	3614
920.267	3770
920.378	3637
920.488	3568
920.598	3823
920.708	4017
920.818	3869
920.928	3869
921.038	4086
921.148	4036
921.258	3732
921.368	3686
921.477	3618
921.587	3584
921.697	3488
921.806	3679
921.916	3599
922.025	3367
922.134	3378
922.244	3378
922.353	3458
922.462	3351
922.571	3283
922.68	3165
922.789	3085
922.898	3218
923.007	3131
923.116	3241
923.224	3218
923.333	3237
923.442	3100
923.55	3135
923.659	3195
923.767	3260
923.876	3157
923.984	3310
924.092	3146
924.201	3283
924.309	3268
924.417	3260
924.525	3237
924.633	3230
924.741	4185
924.849	3070
924.956	3294
925.064	3112
925.172	3074
925.279	3138
925.387	3203
925.494	3256
925.602	3355
925.709	3393
925.816	3233
925.924	3313
926.031	3405
926.138	3363
926.245	3397
926.352	3294
926.459	3481
926.566	3462
926.673	3348
926.779	3313
926.886	3268
926.993	3169
927.099	3150
927.206	3108
927.312	3154
927.419	3226
927.525	3245
927.631	3321
927.737	3142
927.843	3108
927.95	3066
928.056	3180
928.162	3226
928.267	3306
928.373	3876
928.479	3340
928.585	3066
928.69	3222
928.796	3287
928.901	3203
929.007	3066
929.112	3233
929.218	3199
929.323	3188
929.428	3188
929.533	3355
929.638	3154
929.743	3188
929.848	3310
929.953	3233
930.058	3138
930.163	3009
930.267	3093
930.372	3214
930.477	3005
930.581	3332
930.685	3199
930.79	3066
930.894	3142
930.998	3154
931.103	3306
931.207	2979
931.311	2998
931.415	2975
931.519	2853
931.623	2830
