Data from test_V78500241_1802.txt Node
Date: Fri Mar 25 16:27:41 CST 2022
User: usil
Spectrometer: V785-0024
Trigger mode: 0
Integration Time (sec): 4.000000E-1
Scans to average: 1
Nonlinearity correction enabled: false
Boxcar width: 0
Storing dark spectrum: false
XAxis mode: Wavelengths
Number of Pixels in Spectrum: 1024
>>>>>Begin Spectral Data<<<<<
801.071	2929
801.214	2982
801.356	2891
801.499	2906
801.641	2895
801.783	2956
801.926	3081
802.068	2982
802.211	3051
802.353	3032
802.496	3017
802.638	3036
802.78	3047
802.923	3097
803.065	3005
803.208	2883
803.35	2906
803.492	2948
803.635	2948
803.777	2807
803.919	2895
804.061	3214
804.204	2986
804.346	2929
804.488	2895
804.63	2998
804.773	2910
804.915	2956
805.057	3097
805.199	2944
805.341	2986
805.483	3089
805.626	3001
805.768	3001
805.91	3074
806.052	3119
806.194	3051
806.336	3237
806.478	3032
806.62	2971
806.762	2967
806.904	3100
807.046	3195
807.188	2998
807.33	2902
807.472	3005
807.614	2922
807.756	3028
807.898	2937
808.04	2880
808.182	3032
808.324	2979
808.465	2902
808.607	2914
808.749	2807
808.891	2883
809.033	2994
809.174	2971
809.316	2918
809.458	2944
809.6	2823
809.741	2754
809.883	2781
810.025	2845
810.166	2864
810.308	2849
810.45	2880
810.591	2781
810.733	2781
810.875	2853
811.016	2792
811.158	2758
811.299	2800
811.441	2922
811.582	2883
811.724	2857
811.865	2864
812.007	2910
812.148	2906
812.29	2857
812.431	2910
812.573	2948
812.714	3001
812.855	3062
812.997	3036
813.138	3138
813.279	3020
813.421	3028
813.562	2994
813.703	2910
813.845	2933
813.986	2815
814.127	2735
814.268	2826
814.41	2845
814.551	2842
814.692	2891
814.833	2861
814.974	2895
815.115	2967
815.256	2826
815.397	2788
815.539	2899
815.68	2819
815.821	2811
815.962	2975
816.103	2941
816.244	2906
816.385	2887
816.526	2975
816.666	2941
816.807	2788
816.948	2891
817.089	2918
817.23	2891
817.371	2804
817.512	2830
817.653	2876
817.793	2819
817.934	2895
818.075	3001
818.216	3013
818.356	3051
818.497	2906
818.638	2811
818.778	2804
818.919	2804
819.06	2773
819.2	2929
819.341	2830
819.481	2804
819.622	2960
819.762	3081
819.903	3051
820.043	2933
820.184	2925
820.324	2922
820.465	3070
820.605	3017
820.746	3043
820.886	2944
821.026	3104
821.167	3169
821.307	3272
821.447	3275
821.588	3233
821.728	3218
821.868	3207
822.008	3085
822.149	3226
822.289	3230
822.429	3123
822.569	3112
822.709	3184
822.849	3089
822.99	3123
823.13	3176
823.27	3207
823.41	3119
823.55	3131
823.69	3138
823.83	3211
823.97	3108
824.11	3036
824.25	2990
824.389	3077
824.529	3104
824.669	3104
824.809	3161
824.949	3253
825.089	3245
825.228	3173
825.368	2998
825.508	2952
825.648	2982
825.787	2998
825.927	3020
826.067	2998
826.206	2967
826.346	3089
826.485	3070
826.625	3131
826.765	3287
826.904	3260
827.044	3005
827.183	2929
827.323	2876
827.462	2998
827.601	2902
827.741	2937
827.88	2971
828.02	2899
828.159	2971
828.298	3062
828.437	3150
828.577	3047
828.716	3222
828.855	3070
828.994	2941
829.134	2933
829.273	2967
829.412	2868
829.551	2876
829.69	2902
829.829	2979
829.968	3138
830.107	3043
830.246	3036
830.385	2944
830.524	2883
830.663	2823
830.802	2735
830.941	2686
831.08	2663
831.219	2773
831.357	2785
831.496	2990
831.635	2735
831.774	2682
831.913	2644
832.051	2564
832.19	2571
832.329	2682
832.467	2530
832.606	2514
832.744	2594
832.883	2602
833.022	2598
833.16	2682
833.299	2697
833.437	2693
833.576	2689
833.714	2746
833.852	2731
833.991	2811
834.129	2834
834.267	2849
834.406	2857
834.544	2887
834.682	2880
834.821	2861
834.959	3097
835.097	2910
835.235	3089
835.373	3005
835.511	3020
835.65	2971
835.788	2956
835.926	2849
836.064	2788
836.202	2842
836.34	3104
836.478	3161
836.615	3077
836.753	3180
836.891	3199
837.029	3138
837.167	3127
837.305	3062
837.443	3051
837.58	2990
837.718	3161
837.856	3066
837.993	3001
838.131	3131
838.269	3077
838.406	3089
838.544	3119
838.681	2948
838.819	2914
838.956	2811
839.094	2819
839.231	2925
839.369	3043
839.506	3363
839.643	3222
839.781	3028
839.918	2952
840.055	2994
840.193	3081
840.33	3062
840.467	3142
840.604	3176
840.742	3382
840.879	3039
841.016	3062
841.153	3104
841.29	3359
841.427	3329
841.564	3279
841.701	3279
841.838	3241
841.975	3176
842.112	3195
842.249	3104
842.385	3036
842.522	3268
842.659	3085
842.796	3051
842.933	3100
843.069	3055
843.206	3058
843.343	3180
843.479	3085
843.616	3157
843.752	2895
843.889	2876
844.025	3077
844.162	2876
844.298	3127
844.435	2971
844.571	2956
844.708	3093
844.844	3184
844.98	3275
845.117	3214
845.253	3055
845.389	3017
845.525	3119
845.661	3123
845.798	2990
845.934	3146
846.07	3047
846.206	3218
846.342	3294
846.478	3237
846.614	3074
846.75	3051
846.886	3028
847.022	3256
847.158	3108
847.294	3218
847.429	3214
847.565	3173
847.701	3454
847.837	3047
847.972	2967
848.108	3161
848.244	3157
848.379	3017
848.515	2956
848.65	2941
848.786	2944
848.921	3039
849.057	3116
849.192	3142
849.328	3089
849.463	3127
849.598	3066
849.734	3058
849.869	2994
850.004	2944
850.14	2952
850.275	2937
850.41	2857
850.545	2914
850.68	2960
850.815	2982
850.95	3001
851.085	3188
851.22	3150
851.355	3032
851.49	3005
851.625	3005
851.76	2994
851.895	2948
852.03	2918
852.165	3066
852.299	3089
852.434	3192
852.569	3146
852.703	3199
852.838	3195
852.973	3332
853.107	3348
853.242	3138
853.376	3108
853.511	2994
853.645	3032
853.78	3230
853.914	3116
854.048	3119
854.183	3093
854.317	3135
854.451	3272
854.585	3131
854.72	3085
854.854	3184
854.988	3051
855.122	3093
855.256	2994
855.39	3104
855.524	3237
855.658	3211
855.792	3180
855.926	3203
856.06	3241
856.194	3272
856.327	3161
856.461	3085
856.595	3047
856.729	3108
856.862	3226
856.996	3138
857.13	3184
857.263	3241
857.397	3294
857.53	3104
857.664	3165
857.797	3249
857.931	3268
858.064	3154
858.197	3233
858.331	3142
858.464	3119
858.597	3001
858.731	3112
858.864	3135
858.997	3085
859.13	3146
859.263	3173
859.396	3188
859.529	3108
859.662	3123
859.795	3036
859.928	3119
860.061	3317
860.194	3256
860.327	3100
860.46	3142
860.592	3275
860.725	3230
860.858	3256
860.99	3116
861.123	3085
861.256	3066
861.388	3100
861.521	3854
861.653	3020
861.786	2994
861.918	2979
862.05	3058
862.183	3119
862.315	3127
862.447	3195
862.58	3085
862.712	2906
862.844	2845
862.976	3032
863.108	3020
863.24	3306
863.372	2891
863.504	2963
863.636	2929
863.768	3051
863.9	2971
864.032	2902
864.164	2971
864.296	2967
864.428	3077
864.559	3119
864.691	3081
864.823	3074
864.954	3043
865.086	3043
865.217	3017
865.349	2948
865.48	2975
865.612	3005
865.743	3138
865.875	3020
866.006	2944
866.137	2982
866.269	2956
866.4	2922
866.531	2918
866.662	2902
866.793	2899
866.924	2899
867.055	2952
867.186	2944
867.317	2922
867.448	2834
867.579	2861
867.71	2861
867.841	2830
867.972	2922
868.103	2910
868.233	2933
868.364	2842
868.495	2906
868.625	3070
868.756	3142
868.886	2971
869.017	3020
869.147	3123
869.278	3142
869.408	3047
869.539	3013
869.669	3093
869.799	3100
869.929	3108
870.06	3131
870.19	3291
870.32	3279
870.45	3253
870.58	3424
870.71	3439
870.84	3458
870.97	3310
871.1	3256
871.23	3496
871.36	3466
871.489	3363
871.619	3378
871.749	3439
871.879	3431
872.008	3473
872.138	3348
872.267	3313
872.397	3161
872.526	3058
872.656	3009
872.785	3077
872.915	3256
873.044	3317
873.173	3226
873.303	3291
873.432	3268
873.561	3211
873.69	3188
873.819	3165
873.948	3203
874.077	3100
874.206	3020
874.335	3066
874.464	3184
874.593	3370
874.722	3226
874.851	3397
874.979	3340
875.108	3298
875.237	3203
875.365	3184
875.494	3207
875.623	3249
875.751	3077
875.88	3127
876.008	3199
876.136	3207
876.265	3329
876.393	3500
876.521	3416
876.65	3378
876.778	3348
876.906	3268
877.034	3184
877.162	3218
877.29	3188
877.418	3245
877.546	3260
877.674	3253
877.802	3233
877.93	3211
878.058	3165
878.185	3089
878.313	3214
878.441	3211
878.568	3085
878.696	3119
878.824	3203
878.951	3291
879.079	3458
879.206	3595
879.333	3405
879.461	3332
879.588	3355
879.715	3454
879.842	3549
879.97	3325
880.097	3214
880.224	3131
880.351	3192
880.478	3192
880.605	3184
880.732	3169
880.859	3504
880.986	3298
881.112	3310
881.239	3176
881.366	3081
881.493	3032
881.619	3005
881.746	3093
881.872	3154
881.999	3112
882.125	3123
882.252	3218
882.378	3279
882.505	3447
882.631	3279
882.757	3127
882.883	3253
883.01	3218
883.136	3131
883.262	3085
883.388	3131
883.514	3321
883.64	3351
883.766	3294
883.892	3180
884.018	3188
884.143	3336
884.269	3549
884.395	3203
884.52	3157
884.646	3165
884.772	3077
884.897	3100
885.023	3233
885.148	3336
885.274	3393
885.399	3336
885.524	3264
885.65	3233
885.775	3291
885.9	3283
886.025	3386
886.15	3370
886.275	3279
886.4	3241
886.525	3302
886.65	3253
886.775	3306
886.9	3469
887.025	3625
887.149	3409
887.274	3260
887.399	3203
887.523	3199
887.648	3176
887.773	3184
887.897	3355
888.021	3378
888.146	3287
888.27	3397
888.395	3534
888.519	3401
888.643	3424
888.767	3477
888.891	3302
889.015	3233
889.139	3268
889.263	3199
889.387	3367
889.511	3515
889.635	3462
889.759	3272
889.883	3294
890.006	3382
890.13	3481
890.254	3253
890.377	3355
890.501	3230
890.624	3176
890.748	3275
890.871	3154
890.995	3116
891.118	3036
891.241	3161
891.364	3211
891.488	3336
891.611	3184
891.734	3195
891.857	3298
891.98	3222
892.103	3313
892.226	3279
892.349	3184
892.471	3081
892.594	3207
892.717	3275
892.839	3264
892.962	3298
893.085	3374
893.207	3306
893.33	3127
893.452	3199
893.575	3344
893.697	3249
893.819	3416
893.941	3507
894.064	3431
894.186	3245
894.308	3241
894.43	3435
894.552	3492
894.674	3469
894.796	3256
894.918	3306
895.04	3253
895.161	3435
895.283	3393
895.405	3298
895.526	3310
895.648	3428
895.769	3443
895.891	3462
896.012	3473
896.134	3435
896.255	3409
896.376	3393
896.498	3374
896.619	3420
896.74	3313
896.861	3389
896.982	3701
897.103	3808
897.224	3629
897.345	3496
897.466	3416
897.587	3466
897.708	3644
897.828	3587
897.949	3477
898.07	3340
898.19	3420
898.311	3564
898.431	3447
898.552	3511
898.672	3618
898.792	3599
898.913	3519
899.033	3428
899.153	3306
899.273	3188
899.393	3310
899.513	3306
899.633	3298
899.753	3332
899.873	3302
899.993	3386
900.113	3306
900.232	3363
900.352	3325
900.472	3310
900.591	3199
900.711	3283
900.83	3268
900.95	3386
901.069	3500
901.189	3409
901.308	3157
901.427	3104
901.546	3218
901.665	3287
901.784	3310
901.904	3188
902.023	3150
902.141	2990
902.26	3001
902.379	3150
902.498	3074
902.617	3047
902.735	3192
902.854	3260
902.973	3180
903.091	3005
903.21	3066
903.328	3161
903.446	3112
903.565	3093
903.683	3176
903.801	3108
903.919	3268
904.038	3249
904.156	3173
904.274	3302
904.392	3260
904.51	3256
904.627	3306
904.745	3435
904.863	3507
904.981	3245
905.098	3173
905.216	3214
905.334	3321
905.451	3302
905.569	3298
905.686	3450
905.803	3428
905.921	3272
906.038	3428
906.155	3325
906.272	3237
906.389	3329
906.506	3226
906.623	3241
906.74	3241
906.857	3195
906.974	3260
907.091	3466
907.208	3553
907.324	3469
907.441	3370
907.557	3188
907.674	3245
907.79	3237
907.907	3275
908.023	3382
908.139	3359
908.256	3382
908.372	3367
908.488	3351
908.604	3256
908.72	3199
908.836	3302
908.952	3294
909.068	3367
909.184	3485
909.3	3424
909.415	3477
909.531	3504
909.647	3291
909.762	3321
909.878	3283
909.993	3348
910.108	3336
910.224	3302
910.339	3386
910.454	3386
910.57	3283
910.685	3268
910.8	3606
910.915	3523
911.03	3435
911.145	3245
911.259	3272
911.374	3313
911.489	3256
911.604	3249
911.718	3135
911.833	3169
911.947	3032
912.062	2990
912.176	3176
912.291	3203
912.405	3214
912.519	3435
912.633	3454
912.748	3348
912.862	3260
912.976	3169
913.09	3032
913.204	3108
913.318	3211
913.431	3325
913.545	3302
913.659	3393
913.772	3348
913.886	3226
914	3203
914.113	3363
914.226	3416
914.34	3359
914.453	3245
914.566	3389
914.68	3291
914.793	3321
914.906	3154
915.019	3085
915.132	3047
915.245	3138
915.358	3226
915.47	3226
915.583	3226
915.696	3275
915.809	3416
915.921	3420
916.034	3275
916.146	3249
916.259	3222
916.371	3378
916.483	3363
916.595	3313
916.708	3344
916.82	3298
916.932	3332
917.044	3306
917.156	3348
917.268	3275
917.38	3268
917.491	3302
917.603	3386
917.715	3477
917.826	3469
917.938	3397
918.049	3211
918.161	3428
918.272	3580
918.384	3568
918.495	3473
918.606	3340
918.717	3268
918.828	3409
918.939	3393
919.05	3298
919.161	3401
919.272	3157
919.383	3264
919.494	3485
919.604	3656
919.715	3492
919.826	3378
919.936	3450
920.047	3603
920.157	3561
920.267	3728
920.378	3599
920.488	3545
920.598	3724
920.708	3975
920.818	3842
920.928	3861
921.038	4048
921.148	3987
921.258	3728
921.368	3610
921.477	3580
921.587	3526
921.697	3488
921.806	3610
921.916	3511
922.025	3370
922.134	3340
922.244	3317
922.353	3393
922.462	3233
922.571	3218
922.68	3097
922.789	3066
922.898	3131
923.007	3131
923.116	3230
923.224	3165
923.333	3180
923.442	3047
923.55	3085
923.659	3150
923.767	3184
923.876	3089
923.984	3310
924.092	3089
924.201	3230
924.309	3207
924.417	3230
924.525	3176
924.633	3180
924.741	4040
924.849	3017
924.956	3264
925.064	3085
925.172	3013
925.279	3104
925.387	3188
925.494	3203
925.602	3340
925.709	3344
925.816	3180
925.924	3253
926.031	3355
926.138	3317
926.245	3344
926.352	3241
926.459	3412
926.566	3473
926.673	3325
926.779	3279
926.886	3230
926.993	3108
927.099	3123
927.206	3123
927.312	3131
927.419	3195
927.525	3199
927.631	3268
927.737	3165
927.843	3127
927.95	2960
928.056	3093
928.162	3199
928.267	3260
928.373	3743
928.479	3302
928.585	3051
928.69	3192
928.796	3298
928.901	3176
929.007	3028
929.112	3218
929.218	3199
929.323	3176
929.428	3135
929.533	3283
929.638	3135
929.743	3150
929.848	3222
929.953	3214
930.058	3100
930.163	3024
930.267	3047
930.372	3203
930.477	3020
930.581	3294
930.685	3169
930.79	3005
930.894	3135
930.998	3085
931.103	3306
931.207	2975
931.311	2948
931.415	2922
931.519	2785
931.623	2796
