Data from test_V78500241_623.txt Node
Date: Fri Mar 25 16:19:31 CST 2022
User: usil
Spectrometer: V785-0024
Trigger mode: 0
Integration Time (sec): 4.000000E-1
Scans to average: 1
Nonlinearity correction enabled: false
Boxcar width: 0
Storing dark spectrum: false
XAxis mode: Wavelengths
Number of Pixels in Spectrum: 1024
>>>>>Begin Spectral Data<<<<<
801.071	2922
801.214	2967
801.356	2857
801.499	2956
801.641	2918
801.783	2895
801.926	3032
802.068	2979
802.211	3036
802.353	3024
802.496	2956
802.638	3005
802.78	3051
802.923	3119
803.065	3039
803.208	2902
803.35	2948
803.492	2944
803.635	2967
803.777	2800
803.919	2853
804.061	3195
804.204	2979
804.346	2914
804.488	2849
804.63	3013
804.773	2899
804.915	2902
805.057	3085
805.199	2925
805.341	2979
805.483	3066
805.626	3032
805.768	2948
805.91	3081
806.052	3127
806.194	3058
806.336	3226
806.478	3047
806.62	2975
806.762	2929
806.904	3100
807.046	3165
807.188	2975
807.33	2906
807.472	2979
807.614	2941
807.756	2990
807.898	2925
808.04	2918
808.182	2963
808.324	2952
808.465	2910
808.607	2883
808.749	2788
808.891	2864
809.033	2982
809.174	2952
809.316	2891
809.458	2880
809.6	2800
809.741	2739
809.883	2766
810.025	2853
810.166	2861
810.308	2830
810.45	2830
810.591	2811
810.733	2754
810.875	2864
811.016	2754
811.158	2766
811.299	2842
811.441	2925
811.582	2910
811.724	2834
811.865	2826
812.007	2929
812.148	2899
812.29	2842
812.431	2880
812.573	2933
812.714	2971
812.855	3070
812.997	3017
813.138	3146
813.279	3001
813.421	3001
813.562	2979
813.703	2876
813.845	2868
813.986	2785
814.127	2739
814.268	2830
814.41	2826
814.551	2815
814.692	2861
814.833	2815
814.974	2872
815.115	2982
815.256	2834
815.397	2834
815.539	2872
815.68	2796
815.821	2777
815.962	2925
816.103	2918
816.244	2880
816.385	2864
816.526	2963
816.666	2952
816.807	2739
816.948	2891
817.089	2895
817.23	2838
817.371	2792
817.512	2769
817.653	2815
817.793	2807
817.934	2883
818.075	2960
818.216	2971
818.356	2986
818.497	2876
818.638	2777
818.778	2842
818.919	2792
819.06	2758
819.2	2887
819.341	2769
819.481	2815
819.622	2914
819.762	3070
819.903	3028
820.043	2918
820.184	2925
820.324	2872
820.465	2979
820.605	2971
820.746	2998
820.886	2933
821.026	3062
821.167	3154
821.307	3253
821.447	3272
821.588	3233
821.728	3157
821.868	3188
822.008	3058
822.149	3203
822.289	3241
822.429	3058
822.569	3104
822.709	3184
822.849	3028
822.99	3066
823.13	3146
823.27	3218
823.41	3104
823.55	3146
823.69	3154
823.83	3233
823.97	3119
824.11	3028
824.25	2979
824.389	3062
824.529	3104
824.669	3070
824.809	3192
824.949	3272
825.089	3260
825.228	3165
825.368	2979
825.508	3028
825.648	2982
825.787	3085
825.927	3062
826.067	2994
826.206	2998
826.346	3047
826.485	3089
826.625	3142
826.765	3256
826.904	3218
827.044	3047
827.183	2956
827.323	2918
827.462	3039
827.601	2952
827.741	2944
827.88	2960
828.02	2887
828.159	3017
828.298	3077
828.437	3176
828.577	3077
828.716	3306
828.855	3116
828.994	2941
829.134	2929
829.273	2944
829.412	2925
829.551	2895
829.69	2944
829.829	3017
829.968	3199
830.107	3062
830.246	3070
830.385	2963
830.524	2937
830.663	2849
830.802	2758
830.941	2720
831.08	2686
831.219	2785
831.357	2815
831.496	2979
831.635	2762
831.774	2693
831.913	2727
832.051	2606
832.19	2590
832.329	2735
832.467	2579
832.606	2511
832.744	2617
832.883	2640
833.022	2636
833.16	2689
833.299	2712
833.437	2743
833.576	2708
833.714	2743
833.852	2773
833.991	2788
834.129	2849
834.267	2864
834.406	2834
834.544	2937
834.682	2929
834.821	2937
834.959	3112
835.097	2925
835.235	3066
835.373	3070
835.511	3093
835.65	2994
835.788	3017
835.926	2876
836.064	2845
836.202	2880
836.34	3127
836.478	3214
836.615	3097
836.753	3154
836.891	3249
837.029	3199
837.167	3119
837.305	3085
837.443	3081
837.58	3020
837.718	3203
837.856	3131
837.993	3100
838.131	3135
838.269	3112
838.406	3112
838.544	3100
838.681	2963
838.819	2906
838.956	2842
839.094	2876
839.231	2956
839.369	3043
839.506	3416
839.643	3260
839.781	3070
839.918	3009
840.055	3093
840.193	3062
840.33	3097
840.467	3131
840.604	3218
840.742	3424
840.879	3058
841.016	3039
841.153	3150
841.29	3370
841.427	3344
841.564	3321
841.701	3351
841.838	3268
841.975	3230
842.112	3249
842.249	3104
842.385	3100
842.522	3275
842.659	3108
842.796	3108
842.933	3116
843.069	3081
843.206	3062
843.343	3176
843.479	3165
843.616	3135
843.752	2933
843.889	2887
844.025	3116
844.162	2922
844.298	3135
844.435	3017
844.571	2986
844.708	3104
844.844	3199
844.98	3245
845.117	3226
845.253	3047
845.389	3051
845.525	3131
845.661	3131
845.798	2994
845.934	3154
846.07	3077
846.206	3249
846.342	3321
846.478	3241
846.614	3097
846.75	3093
846.886	3081
847.022	3218
847.158	3165
847.294	3207
847.429	3241
847.565	3226
847.701	3454
847.837	3062
847.972	3017
848.108	3203
848.244	3214
848.379	3039
848.515	2948
848.65	2971
848.786	2998
848.921	3036
849.057	3161
849.192	3157
849.328	3093
849.463	3123
849.598	3097
849.734	3089
849.869	3020
850.004	2960
850.14	2990
850.275	2929
850.41	2861
850.545	2914
850.68	2937
850.815	2986
850.95	3005
851.085	3249
851.22	3131
851.355	3051
851.49	3020
851.625	3032
851.76	3039
851.895	2941
852.03	2937
852.165	3062
852.299	3119
852.434	3161
852.569	3192
852.703	3169
852.838	3268
852.973	3344
853.107	3344
853.242	3173
853.376	3104
853.511	3017
853.645	3074
853.78	3237
853.914	3161
854.048	3169
854.183	3112
854.317	3199
854.451	3310
854.585	3131
854.72	3127
854.854	3195
854.988	3070
855.122	3108
855.256	3001
855.39	3127
855.524	3275
855.658	3180
855.792	3173
855.926	3203
856.06	3253
856.194	3245
856.327	3199
856.461	3116
856.595	3116
856.729	3138
856.862	3317
856.996	3135
857.13	3233
857.263	3294
857.397	3340
857.53	3146
857.664	3233
857.797	3260
857.931	3298
858.064	3203
858.197	3260
858.331	3157
858.464	3104
858.597	3043
858.731	3146
858.864	3165
858.997	3112
859.13	3188
859.263	3188
859.396	3249
859.529	3066
859.662	3100
859.795	3081
859.928	3146
860.061	3291
860.194	3287
860.327	3161
860.46	3142
860.592	3287
860.725	3241
860.858	3253
860.99	3135
861.123	3058
861.256	3066
861.388	3165
861.521	3747
861.653	3020
861.786	3009
861.918	3009
862.05	3108
862.183	3100
862.315	3165
862.447	3218
862.58	3138
862.712	2998
862.844	2887
862.976	3028
863.108	3005
863.24	3409
863.372	2891
863.504	2975
863.636	3001
863.768	3066
863.9	2998
864.032	2922
864.164	2986
864.296	3020
864.428	3112
864.559	3131
864.691	3112
864.823	3093
864.954	3047
865.086	3047
865.217	3036
865.349	2994
865.48	2975
865.612	3032
865.743	3142
865.875	3005
866.006	2967
866.137	2963
866.269	2982
866.4	2922
866.531	2967
866.662	2864
866.793	2918
866.924	2910
867.055	3024
867.186	2982
867.317	2887
867.448	2883
867.579	2857
867.71	2861
867.841	2872
867.972	2899
868.103	2918
868.233	2910
868.364	2845
868.495	2922
868.625	3100
868.756	3184
868.886	3005
869.017	3051
869.147	3195
869.278	3165
869.408	3062
869.539	3032
869.669	3093
869.799	3043
869.929	3142
870.06	3123
870.19	3355
870.32	3260
870.45	3321
870.58	3386
870.71	3462
870.84	3462
870.97	3279
871.1	3313
871.23	3462
871.36	3428
871.489	3351
871.619	3420
871.749	3424
871.879	3443
872.008	3485
872.138	3412
872.267	3321
872.397	3142
872.526	3112
872.656	3013
872.785	3100
872.915	3279
873.044	3329
873.173	3237
873.303	3241
873.432	3260
873.561	3275
873.69	3150
873.819	3173
873.948	3226
874.077	3108
874.206	3058
874.335	3108
874.464	3199
874.593	3386
874.722	3241
874.851	3393
874.979	3363
875.108	3325
875.237	3214
875.365	3173
875.494	3192
875.623	3256
875.751	3100
875.88	3135
876.008	3154
876.136	3230
876.265	3443
876.393	3519
876.521	3443
876.65	3397
876.778	3348
876.906	3226
877.034	3245
877.162	3253
877.29	3226
877.418	3264
877.546	3245
877.674	3222
877.802	3226
877.93	3249
878.058	3188
878.185	3146
878.313	3226
878.441	3226
878.568	3081
878.696	3192
878.824	3291
878.951	3340
879.079	3496
879.206	3656
879.333	3473
879.461	3363
879.588	3378
879.715	3526
879.842	3595
879.97	3386
880.097	3173
880.224	3142
880.351	3207
880.478	3233
880.605	3237
880.732	3203
880.859	3507
880.986	3344
881.112	3336
881.239	3253
881.366	3135
881.493	3036
881.619	3032
881.746	3112
881.872	3093
881.999	3119
882.125	3207
882.252	3279
882.378	3294
882.505	3454
882.631	3275
882.757	3192
882.883	3207
883.01	3237
883.136	3176
883.262	3089
883.388	3127
883.514	3325
883.64	3351
883.766	3359
883.892	3241
884.018	3256
884.143	3462
884.269	3534
884.395	3249
884.52	3165
884.646	3211
884.772	3131
884.897	3093
885.023	3218
885.148	3321
885.274	3405
885.399	3405
885.524	3325
885.65	3298
885.775	3329
885.9	3306
886.025	3416
886.15	3348
886.275	3344
886.4	3241
886.525	3302
886.65	3291
886.775	3325
886.9	3500
887.025	3667
887.149	3412
887.274	3264
887.399	3214
887.523	3230
887.648	3180
887.773	3226
887.897	3416
888.021	3435
888.146	3279
888.27	3466
888.395	3568
888.519	3462
888.643	3443
888.767	3477
888.891	3325
889.015	3268
889.139	3272
889.263	3237
889.387	3389
889.511	3534
889.635	3435
889.759	3325
889.883	3329
890.006	3367
890.13	3515
890.254	3268
890.377	3359
890.501	3233
890.624	3199
890.748	3348
890.871	3199
890.995	3146
891.118	3074
891.241	3218
891.364	3233
891.488	3370
891.611	3199
891.734	3256
891.857	3275
891.98	3268
892.103	3355
892.226	3272
892.349	3218
892.471	3104
892.594	3230
892.717	3275
892.839	3332
892.962	3306
893.085	3363
893.207	3291
893.33	3169
893.452	3207
893.575	3359
893.697	3230
893.819	3443
893.941	3534
894.064	3435
894.186	3294
894.308	3291
894.43	3424
894.552	3500
894.674	3492
894.796	3256
894.918	3302
895.04	3302
895.161	3416
895.283	3424
895.405	3340
895.526	3370
895.648	3409
895.769	3401
895.891	3496
896.012	3447
896.134	3462
896.255	3428
896.376	3378
896.498	3374
896.619	3428
896.74	3367
896.861	3389
896.982	3686
897.103	3907
897.224	3625
897.345	3485
897.466	3447
897.587	3500
897.708	3637
897.828	3568
897.949	3447
898.07	3310
898.19	3393
898.311	3591
898.431	3454
898.552	3538
898.672	3614
898.792	3618
898.913	3511
899.033	3428
899.153	3321
899.273	3226
899.393	3302
899.513	3340
899.633	3321
899.753	3321
899.873	3302
899.993	3363
900.113	3310
900.232	3412
900.352	3355
900.472	3279
900.591	3211
900.711	3310
900.83	3272
900.95	3401
901.069	3507
901.189	3355
901.308	3169
901.427	3165
901.546	3195
901.665	3348
901.784	3313
901.904	3195
902.023	3169
902.141	2982
902.26	2971
902.379	3165
902.498	3093
902.617	3066
902.735	3237
902.854	3241
902.973	3241
903.091	3058
903.21	3135
903.328	3119
903.446	3116
903.565	3135
903.683	3222
903.801	3150
903.919	3237
904.038	3325
904.156	3192
904.274	3306
904.392	3264
904.51	3317
904.627	3348
904.745	3447
904.863	3538
904.981	3260
905.098	3195
905.216	3233
905.334	3313
905.451	3272
905.569	3348
905.686	3435
905.803	3447
905.921	3317
906.038	3443
906.155	3370
906.272	3283
906.389	3340
906.506	3245
906.623	3264
906.74	3256
906.857	3226
906.974	3260
907.091	3409
907.208	3580
907.324	3431
907.441	3424
907.557	3287
907.674	3317
907.79	3233
907.907	3275
908.023	3393
908.139	3409
908.256	3363
908.372	3332
908.488	3389
908.604	3298
908.72	3253
908.836	3268
908.952	3298
909.068	3378
909.184	3477
909.3	3401
909.415	3488
909.531	3477
909.647	3272
909.762	3317
909.878	3230
909.993	3389
910.108	3321
910.224	3332
910.339	3431
910.454	3306
910.57	3279
910.685	3264
910.8	3599
910.915	3545
911.03	3454
911.145	3310
911.259	3233
911.374	3336
911.489	3268
911.604	3226
911.718	3135
911.833	3131
911.947	3009
912.062	2994
912.176	3157
912.291	3173
912.405	3214
912.519	3405
912.633	3454
912.748	3325
912.862	3298
912.976	3195
913.09	3066
913.204	3135
913.318	3214
913.431	3321
913.545	3302
913.659	3389
913.772	3332
913.886	3245
914	3207
914.113	3374
914.226	3424
914.34	3378
914.453	3199
914.566	3397
914.68	3233
914.793	3332
914.906	3222
915.019	3165
915.132	3077
915.245	3199
915.358	3241
915.47	3226
915.583	3253
915.696	3332
915.809	3447
915.921	3439
916.034	3294
916.146	3306
916.259	3264
916.371	3409
916.483	3348
916.595	3287
916.708	3355
916.82	3378
916.932	3367
917.044	3344
917.156	3367
917.268	3222
917.38	3283
917.491	3287
917.603	3348
917.715	3477
917.826	3462
917.938	3370
918.049	3256
918.161	3447
918.272	3576
918.384	3595
918.495	3466
918.606	3340
918.717	3279
918.828	3412
918.939	3439
919.05	3283
919.161	3405
919.272	3165
919.383	3283
919.494	3542
919.604	3663
919.715	3485
919.826	3450
919.936	3443
920.047	3553
920.157	3557
920.267	3747
920.378	3595
920.488	3587
920.598	3774
920.708	3899
920.818	3819
920.928	3835
921.038	4021
921.148	3994
921.258	3713
921.368	3610
921.477	3595
921.587	3545
921.697	3477
921.806	3625
921.916	3507
922.025	3389
922.134	3370
922.244	3321
922.353	3450
922.462	3230
922.571	3218
922.68	3131
922.789	3085
922.898	3123
923.007	3058
923.116	3180
923.224	3176
923.333	3188
923.442	3112
923.55	3089
923.659	3077
923.767	3214
923.876	3104
923.984	3249
924.092	3089
924.201	3207
924.309	3207
924.417	3237
924.525	3142
924.633	3237
924.741	4013
924.849	3058
924.956	3256
925.064	3085
925.172	3081
925.279	3070
925.387	3176
925.494	3218
925.602	3389
925.709	3329
925.816	3184
925.924	3272
926.031	3409
926.138	3287
926.245	3393
926.352	3260
926.459	3397
926.566	3496
926.673	3279
926.779	3233
926.886	3249
926.993	3169
927.099	3119
927.206	3108
927.312	3127
927.419	3218
927.525	3226
927.631	3302
927.737	3157
927.843	3081
927.95	3036
928.056	3089
928.162	3157
928.267	3253
928.373	3800
928.479	3321
928.585	3081
928.69	3207
928.796	3298
928.901	3150
929.007	3062
929.112	3184
929.218	3214
929.323	3150
929.428	3138
929.533	3279
929.638	3077
929.743	3214
929.848	3291
929.953	3249
930.058	3173
930.163	3020
930.267	3032
930.372	3214
930.477	2998
930.581	3348
930.685	3184
930.79	3070
930.894	3131
930.998	3100
931.103	3283
931.207	2971
931.311	2960
931.415	2933
931.519	2792
931.623	2807
