Data from test_V78500241_977.txt Node
Date: Fri Mar 25 16:21:58 CST 2022
User: usil
Spectrometer: V785-0024
Trigger mode: 0
Integration Time (sec): 4.000000E-1
Scans to average: 1
Nonlinearity correction enabled: false
Boxcar width: 0
Storing dark spectrum: false
XAxis mode: Wavelengths
Number of Pixels in Spectrum: 1024
>>>>>Begin Spectral Data<<<<<
801.071	2941
801.214	2910
801.356	2868
801.499	2902
801.641	2876
801.783	2914
801.926	3039
802.068	2941
802.211	3024
802.353	3013
802.496	2948
802.638	3005
802.78	3005
802.923	3055
803.065	3024
803.208	2914
803.35	2899
803.492	2952
803.635	2944
803.777	2758
803.919	2849
804.061	3199
804.204	2948
804.346	2902
804.488	2857
804.63	2960
804.773	2868
804.915	2902
805.057	3070
805.199	2925
805.341	3001
805.483	3047
805.626	2998
805.768	2971
805.91	3074
806.052	3093
806.194	3055
806.336	3249
806.478	2998
806.62	2956
806.762	3009
806.904	3043
807.046	3184
807.188	2982
807.33	2902
807.472	2971
807.614	2914
807.756	2986
807.898	2880
808.04	2883
808.182	2975
808.324	2933
808.465	2887
808.607	2842
808.749	2796
808.891	2815
809.033	2994
809.174	2963
809.316	2883
809.458	2876
809.6	2769
809.741	2743
809.883	2773
810.025	2861
810.166	2864
810.308	2823
810.45	2838
810.591	2769
810.733	2792
810.875	2807
811.016	2800
811.158	2705
811.299	2807
811.441	2925
811.582	2902
811.724	2834
811.865	2811
812.007	2925
812.148	2876
812.29	2887
812.431	2853
812.573	2963
812.714	2990
812.855	3017
812.997	3047
813.138	3112
813.279	3032
813.421	2979
813.562	2952
813.703	2857
813.845	2864
813.986	2788
814.127	2743
814.268	2788
814.41	2826
814.551	2788
814.692	2902
814.833	2796
814.974	2883
815.115	2948
815.256	2819
815.397	2823
815.539	2876
815.68	2785
815.821	2735
815.962	2933
816.103	2952
816.244	2861
816.385	2819
816.526	2941
816.666	2937
816.807	2735
816.948	2914
817.089	2872
817.23	2800
817.371	2781
817.512	2769
817.653	2845
817.793	2815
817.934	2864
818.075	2925
818.216	3005
818.356	3020
818.497	2872
818.638	2773
818.778	2792
818.919	2785
819.06	2762
819.2	2868
819.341	2754
819.481	2819
819.622	2902
819.762	3116
819.903	3024
820.043	2975
820.184	2933
820.324	2899
820.465	3028
820.605	2990
820.746	3005
820.886	2910
821.026	3062
821.167	3176
821.307	3264
821.447	3268
821.588	3260
821.728	3192
821.868	3184
822.008	3039
822.149	3188
822.289	3249
822.429	3062
822.569	3058
822.709	3165
822.849	2975
822.99	3093
823.13	3169
823.27	3176
823.41	3131
823.55	3146
823.69	3127
823.83	3192
823.97	3097
824.11	2979
824.25	3005
824.389	3066
824.529	3150
824.669	3009
824.809	3199
824.949	3214
825.089	3188
825.228	3180
825.368	3001
825.508	2979
825.648	2952
825.787	3028
825.927	3009
826.067	2952
826.206	2918
826.346	3036
826.485	3089
826.625	3104
826.765	3226
826.904	3165
827.044	2998
827.183	2952
827.323	2842
827.462	2941
827.601	2887
827.741	2944
827.88	2986
828.02	2842
828.159	2952
828.298	3028
828.437	3093
828.577	3024
828.716	3214
828.855	3093
828.994	2891
829.134	2887
829.273	2902
829.412	2887
829.551	2830
829.69	2857
829.829	2975
829.968	3127
830.107	2994
830.246	3017
830.385	2944
830.524	2891
830.663	2788
830.802	2746
830.941	2682
831.08	2651
831.219	2762
831.357	2769
831.496	2952
831.635	2716
831.774	2644
831.913	2655
832.051	2526
832.19	2560
832.329	2644
832.467	2488
832.606	2476
832.744	2602
832.883	2568
833.022	2568
833.16	2651
833.299	2667
833.437	2693
833.576	2697
833.714	2708
833.852	2705
833.991	2750
834.129	2800
834.267	2834
834.406	2785
834.544	2857
834.682	2864
834.821	2842
834.959	3062
835.097	2880
835.235	3047
835.373	3005
835.511	2994
835.65	2960
835.788	2944
835.926	2811
836.064	2766
836.202	2826
836.34	3017
836.478	3154
836.615	3013
836.753	3123
836.891	3222
837.029	3157
837.167	3097
837.305	3066
837.443	3039
837.58	2960
837.718	3127
837.856	3093
837.993	3051
838.131	3127
838.269	3100
838.406	3051
838.544	3097
838.681	2918
838.819	2910
838.956	2811
839.094	2845
839.231	2910
839.369	2994
839.506	3389
839.643	3195
839.781	3013
839.918	2971
840.055	3020
840.193	3074
840.33	3062
840.467	3112
840.604	3112
840.742	3359
840.879	3058
841.016	3024
841.153	3093
841.29	3283
841.427	3283
841.564	3268
841.701	3329
841.838	3222
841.975	3176
842.112	3218
842.249	3043
842.385	3024
842.522	3233
842.659	3085
842.796	3051
842.933	3123
843.069	3032
843.206	3062
843.343	3142
843.479	3085
843.616	3127
843.752	2910
843.889	2857
844.025	3077
844.162	2857
844.298	3058
844.435	2956
844.571	2868
844.708	3089
844.844	3176
844.98	3233
845.117	3207
845.253	3020
845.389	3001
845.525	3123
845.661	3142
845.798	2994
845.934	3100
846.07	3055
846.206	3169
846.342	3321
846.478	3226
846.614	3051
846.75	3085
846.886	2994
847.022	3218
847.158	3135
847.294	3146
847.429	3253
847.565	3211
847.701	3466
847.837	3013
847.972	2971
848.108	3192
848.244	3135
848.379	2967
848.515	2941
848.65	2876
848.786	2944
848.921	3005
849.057	3146
849.192	3131
849.328	3062
849.463	3081
849.598	3062
849.734	3020
849.869	2952
850.004	2922
850.14	2971
850.275	2895
850.41	2830
850.545	2902
850.68	2899
850.815	2986
850.95	2975
851.085	3211
851.22	3058
851.355	2994
851.49	2967
851.625	2956
851.76	3020
851.895	2952
852.03	2941
852.165	3020
852.299	3104
852.434	3165
852.569	3119
852.703	3211
852.838	3275
852.973	3370
853.107	3294
853.242	3123
853.376	3070
853.511	2944
853.645	3032
853.78	3195
853.914	3123
854.048	3116
854.183	3093
854.317	3157
854.451	3241
854.585	3157
854.72	3066
854.854	3195
854.988	3036
855.122	3108
855.256	2975
855.39	3131
855.524	3207
855.658	3188
855.792	3146
855.926	3203
856.06	3230
856.194	3264
856.327	3150
856.461	3070
856.595	3062
856.729	3100
856.862	3214
856.996	3154
857.13	3207
857.263	3222
857.397	3329
857.53	3100
857.664	3184
857.797	3214
857.931	3241
858.064	3142
858.197	3180
858.331	3116
858.464	3089
858.597	3005
858.731	3116
858.864	3108
858.997	3116
859.13	3157
859.263	3150
859.396	3214
859.529	3089
859.662	3070
859.795	3051
859.928	3116
860.061	3317
860.194	3264
860.327	3142
860.46	3100
860.592	3218
860.725	3218
860.858	3245
860.99	3116
861.123	3020
861.256	3036
861.388	3100
861.521	3804
861.653	3005
861.786	2990
861.918	2998
862.05	3062
862.183	3116
862.315	3180
862.447	3184
862.58	3112
862.712	2960
862.844	2872
862.976	2986
863.108	2960
863.24	3431
863.372	2887
863.504	2960
863.636	2910
863.768	3017
863.9	2963
864.032	2895
864.164	2982
864.296	2956
864.428	3100
864.559	3077
864.691	3081
864.823	3062
864.954	3024
865.086	3020
865.217	2975
865.349	2963
865.48	2960
865.612	3001
865.743	3116
865.875	2971
866.006	2941
866.137	2952
866.269	2944
866.4	2933
866.531	2887
866.662	2899
866.793	2887
866.924	2887
867.055	2929
867.186	2891
867.317	2861
867.448	2845
867.579	2826
867.71	2842
867.841	2830
867.972	2895
868.103	2883
868.233	2880
868.364	2891
868.495	2861
868.625	3074
868.756	3154
868.886	2967
869.017	3024
869.147	3142
869.278	3161
869.408	3043
869.539	2982
869.669	3093
869.799	3043
869.929	3104
870.06	3089
870.19	3321
870.32	3294
870.45	3310
870.58	3363
870.71	3466
870.84	3435
870.97	3283
871.1	3230
871.23	3485
871.36	3435
871.489	3340
871.619	3378
871.749	3428
871.879	3424
872.008	3469
872.138	3351
872.267	3291
872.397	3116
872.526	3127
872.656	2990
872.785	3055
872.915	3226
873.044	3283
873.173	3211
873.303	3275
873.432	3203
873.561	3214
873.69	3131
873.819	3135
873.948	3199
874.077	3093
874.206	3062
874.335	3066
874.464	3188
874.593	3317
874.722	3253
874.851	3370
874.979	3355
875.108	3344
875.237	3214
875.365	3150
875.494	3161
875.623	3264
875.751	3097
875.88	3097
876.008	3176
876.136	3207
876.265	3386
876.393	3477
876.521	3355
876.65	3325
876.778	3325
876.906	3237
877.034	3203
877.162	3226
877.29	3169
877.418	3230
877.546	3264
877.674	3253
877.802	3233
877.93	3195
878.058	3131
878.185	3100
878.313	3173
878.441	3226
878.568	3039
878.696	3138
878.824	3207
878.951	3287
879.079	3454
879.206	3625
879.333	3462
879.461	3332
879.588	3321
879.715	3515
879.842	3595
879.97	3401
880.097	3146
880.224	3135
880.351	3207
880.478	3245
880.605	3154
880.732	3192
880.859	3496
880.986	3283
881.112	3310
881.239	3192
881.366	3123
881.493	3017
881.619	3024
881.746	3036
881.872	3039
881.999	3119
882.125	3142
882.252	3226
882.378	3291
882.505	3428
882.631	3237
882.757	3142
882.883	3230
883.01	3226
883.136	3127
883.262	3074
883.388	3119
883.514	3336
883.64	3363
883.766	3275
883.892	3195
884.018	3222
884.143	3382
884.269	3534
884.395	3214
884.52	3154
884.646	3154
884.772	3173
884.897	3108
885.023	3188
885.148	3344
885.274	3401
885.399	3374
885.524	3245
885.65	3237
885.775	3298
885.9	3291
886.025	3443
886.15	3325
886.275	3332
886.4	3195
886.525	3298
886.65	3233
886.775	3253
886.9	3507
887.025	3682
887.149	3348
887.274	3222
887.399	3180
887.523	3184
887.648	3161
887.773	3195
887.897	3363
888.021	3405
888.146	3291
888.27	3447
888.395	3530
888.519	3439
888.643	3412
888.767	3439
888.891	3275
889.015	3233
889.139	3283
889.263	3211
889.387	3393
889.511	3500
889.635	3447
889.759	3291
889.883	3264
890.006	3382
890.13	3496
890.254	3241
890.377	3313
890.501	3169
890.624	3188
890.748	3287
890.871	3154
890.995	3093
891.118	3055
891.241	3214
891.364	3214
891.488	3306
891.611	3188
891.734	3222
891.857	3329
891.98	3233
892.103	3321
892.226	3294
892.349	3222
892.471	3097
892.594	3245
892.717	3260
892.839	3260
892.962	3294
893.085	3344
893.207	3310
893.33	3119
893.452	3222
893.575	3298
893.697	3230
893.819	3443
893.941	3492
894.064	3481
894.186	3279
894.308	3287
894.43	3401
894.552	3504
894.674	3473
894.796	3264
894.918	3329
895.04	3253
895.161	3412
895.283	3424
895.405	3302
895.526	3378
895.648	3443
895.769	3428
895.891	3466
896.012	3462
896.134	3477
896.255	3370
896.376	3359
896.498	3374
896.619	3401
896.74	3321
896.861	3389
896.982	3694
897.103	3823
897.224	3603
897.345	3504
897.466	3386
897.587	3511
897.708	3629
897.828	3553
897.949	3473
898.07	3332
898.19	3412
898.311	3599
898.431	3447
898.552	3545
898.672	3576
898.792	3564
898.913	3523
899.033	3405
899.153	3302
899.273	3233
899.393	3268
899.513	3302
899.633	3325
899.753	3351
899.873	3321
899.993	3336
900.113	3348
900.232	3340
900.352	3348
900.472	3264
900.591	3176
900.711	3279
900.83	3222
900.95	3397
901.069	3473
901.189	3401
901.308	3161
901.427	3173
901.546	3176
901.665	3272
901.784	3302
901.904	3253
902.023	3154
902.141	3005
902.26	2979
902.379	3131
902.498	3062
902.617	3001
902.735	3222
902.854	3218
902.973	3188
903.091	3024
903.21	3058
903.328	3112
903.446	3135
903.565	3100
903.683	3188
903.801	3150
903.919	3226
904.038	3283
904.156	3138
904.274	3291
904.392	3230
904.51	3306
904.627	3317
904.745	3454
904.863	3504
904.981	3230
905.098	3161
905.216	3230
905.334	3287
905.451	3306
905.569	3317
905.686	3401
905.803	3431
905.921	3306
906.038	3405
906.155	3348
906.272	3260
906.389	3332
906.506	3249
906.623	3241
906.74	3249
906.857	3203
906.974	3218
907.091	3439
907.208	3576
907.324	3469
907.441	3393
907.557	3211
907.674	3237
907.79	3203
907.907	3272
908.023	3389
908.139	3405
908.256	3359
908.372	3344
908.488	3363
908.604	3264
908.72	3207
908.836	3279
908.952	3287
909.068	3302
909.184	3496
909.3	3370
909.415	3534
909.531	3466
909.647	3256
909.762	3268
909.878	3245
909.993	3378
910.108	3329
910.224	3302
910.339	3374
910.454	3302
910.57	3317
910.685	3256
910.8	3584
910.915	3557
911.03	3420
911.145	3283
911.259	3298
911.374	3321
911.489	3260
911.604	3241
911.718	3116
911.833	3100
911.947	3024
912.062	3013
912.176	3165
912.291	3214
912.405	3176
912.519	3401
912.633	3424
912.748	3321
912.862	3287
912.976	3165
913.09	3051
913.204	3119
913.318	3203
913.431	3321
913.545	3325
913.659	3393
913.772	3275
913.886	3176
914	3207
914.113	3325
914.226	3401
914.34	3374
914.453	3184
914.566	3409
914.68	3253
914.793	3329
914.906	3161
915.019	3074
915.132	3043
915.245	3173
915.358	3165
915.47	3203
915.583	3249
915.696	3272
915.809	3397
915.921	3409
916.034	3226
916.146	3230
916.259	3211
916.371	3370
916.483	3351
916.595	3264
916.708	3355
916.82	3329
916.932	3317
917.044	3344
917.156	3363
917.268	3241
917.38	3241
917.491	3291
917.603	3374
917.715	3435
917.826	3477
917.938	3370
918.049	3264
918.161	3435
918.272	3576
918.384	3572
918.495	3450
918.606	3313
918.717	3275
918.828	3393
918.939	3412
919.05	3302
919.161	3325
919.272	3157
919.383	3268
919.494	3485
919.604	3679
919.715	3485
919.826	3405
919.936	3477
920.047	3610
920.157	3526
920.267	3732
920.378	3587
920.488	3557
920.598	3789
920.708	3987
920.818	3873
920.928	3823
921.038	4048
921.148	4025
921.258	3679
921.368	3637
921.477	3580
921.587	3534
921.697	3473
921.806	3606
921.916	3515
922.025	3306
922.134	3393
922.244	3329
922.353	3393
922.462	3253
922.571	3233
922.68	3093
922.789	3077
922.898	3161
923.007	3104
923.116	3222
923.224	3150
923.333	3165
923.442	3077
923.55	3077
923.659	3146
923.767	3173
923.876	3142
923.984	3218
924.092	3116
924.201	3199
924.309	3207
924.417	3253
924.525	3214
924.633	3230
924.741	4196
924.849	3074
924.956	3245
925.064	3097
925.172	3047
925.279	3112
925.387	3214
925.494	3203
925.602	3344
925.709	3302
925.816	3184
925.924	3279
926.031	3435
926.138	3302
926.245	3386
926.352	3233
926.459	3374
926.566	3466
926.673	3302
926.779	3272
926.886	3272
926.993	3180
927.099	3119
927.206	3077
927.312	3093
927.419	3226
927.525	3195
927.631	3283
927.737	3154
927.843	3146
927.95	3001
928.056	3112
928.162	3154
928.267	3256
928.373	3880
928.479	3264
928.585	3100
928.69	3233
928.796	3283
928.901	3176
929.007	3047
929.112	3226
929.218	3173
929.323	3180
929.428	3119
929.533	3306
929.638	3142
929.743	3230
929.848	3272
929.953	3226
930.058	3154
930.163	3013
930.267	3036
930.372	3176
930.477	3055
930.581	3313
930.685	3173
930.79	3055
930.894	3116
930.998	3085
931.103	3275
931.207	2941
931.311	2933
931.415	2933
931.519	2769
931.623	2834
