Data from test_V78500241_30.txt Node
Date: Fri Mar 25 16:15:24 CST 2022
User: usil
Spectrometer: V785-0024
Trigger mode: 0
Integration Time (sec): 4.000000E-1
Scans to average: 1
Nonlinearity correction enabled: false
Boxcar width: 0
Storing dark spectrum: false
XAxis mode: Wavelengths
Number of Pixels in Spectrum: 1024
>>>>>Begin Spectral Data<<<<<
801.071	2933
801.214	2975
801.356	2925
801.499	2929
801.641	2891
801.783	2960
801.926	3123
802.068	3013
802.211	3009
802.353	3089
802.496	2986
802.638	3028
802.78	3108
802.923	3150
803.065	3020
803.208	2937
803.35	2933
803.492	2971
803.635	2952
803.777	2750
803.919	2872
804.061	3249
804.204	2971
804.346	2925
804.488	2861
804.63	3028
804.773	2872
804.915	2929
805.057	3089
805.199	2960
805.341	3001
805.483	3097
805.626	3001
805.768	2956
805.91	3116
806.052	3157
806.194	3055
806.336	3249
806.478	3066
806.62	2963
806.762	3009
806.904	3097
807.046	3173
807.188	3017
807.33	2960
807.472	3028
807.614	2967
807.756	3028
807.898	2910
808.04	2899
808.182	3005
808.324	2971
808.465	2952
808.607	2918
808.749	2838
808.891	2941
809.033	3017
809.174	3009
809.316	2899
809.458	2948
809.6	2804
809.741	2800
809.883	2792
810.025	2887
810.166	2872
810.308	2861
810.45	2876
810.591	2830
810.733	2815
810.875	2876
811.016	2826
811.158	2762
811.299	2849
811.441	2918
811.582	2941
811.724	2887
811.865	2853
812.007	2956
812.148	2899
812.29	2864
812.431	2922
812.573	2967
812.714	3024
812.855	3081
812.997	3051
813.138	3188
813.279	3047
813.421	3032
813.562	2979
813.703	2902
813.845	2887
813.986	2800
814.127	2758
814.268	2918
814.41	2853
814.551	2819
814.692	2918
814.833	2845
814.974	2910
815.115	2967
815.256	2838
815.397	2800
815.539	2922
815.68	2804
815.821	2845
815.962	2960
816.103	2963
816.244	2895
816.385	2880
816.526	2982
816.666	2971
816.807	2785
816.948	2914
817.089	2952
817.23	2906
817.371	2807
817.512	2830
817.653	2830
817.793	2842
817.934	2883
818.075	3017
818.216	3024
818.356	3028
818.497	2929
818.638	2830
818.778	2823
818.919	2849
819.06	2796
819.2	2933
819.341	2830
819.481	2788
819.622	2937
819.762	3112
819.903	3089
820.043	2933
820.184	2887
820.324	2918
820.465	3047
820.605	3055
820.746	3043
820.886	2967
821.026	3097
821.167	3192
821.307	3283
821.447	3272
821.588	3268
821.728	3241
821.868	3222
822.008	3119
822.149	3222
822.289	3253
822.429	3135
822.569	3127
822.709	3241
822.849	3055
822.99	3116
823.13	3176
823.27	3237
823.41	3154
823.55	3173
823.69	3233
823.83	3226
823.97	3188
824.11	3005
824.25	3036
824.389	3104
824.529	3138
824.669	3108
824.809	3203
824.949	3298
825.089	3321
825.228	3241
825.368	3062
825.508	3001
825.648	3077
825.787	3017
825.927	3104
826.067	3028
826.206	3032
826.346	3123
826.485	3135
826.625	3207
826.765	3306
826.904	3329
827.044	3062
827.183	2990
827.323	2933
827.462	3074
827.601	2982
827.741	2998
827.88	3047
828.02	2902
828.159	3074
828.298	3123
828.437	3176
828.577	3142
828.716	3310
828.855	3161
828.994	3009
829.134	2937
829.273	3005
829.412	2941
829.551	2937
829.69	2952
829.829	3051
829.968	3184
830.107	3085
830.246	3146
830.385	2986
830.524	2990
830.663	2872
830.802	2762
830.941	2705
831.08	2743
831.219	2811
831.357	2815
831.496	3043
831.635	2819
831.774	2735
831.913	2762
832.051	2632
832.19	2667
832.329	2739
832.467	2602
832.606	2583
832.744	2659
832.883	2636
833.022	2640
833.16	2705
833.299	2762
833.437	2788
833.576	2792
833.714	2823
833.852	2804
833.991	2826
834.129	2906
834.267	2918
834.406	2872
834.544	2975
834.682	2952
834.821	2941
834.959	3135
835.097	2986
835.235	3150
835.373	3070
835.511	3093
835.65	3032
835.788	3028
835.926	2906
836.064	2887
836.202	2944
836.34	3154
836.478	3214
836.615	3142
836.753	3199
836.891	3287
837.029	3226
837.167	3173
837.305	3176
837.443	3138
837.58	3032
837.718	3195
837.856	3131
837.993	3108
838.131	3157
838.269	3188
838.406	3180
838.544	3165
838.681	3020
838.819	2990
838.956	2918
839.094	2906
839.231	3001
839.369	3150
839.506	3466
839.643	3298
839.781	3070
839.918	3001
840.055	3104
840.193	3119
840.33	3135
840.467	3180
840.604	3207
840.742	3462
840.879	3119
841.016	3150
841.153	3180
841.29	3428
841.427	3382
841.564	3291
841.701	3363
841.838	3294
841.975	3279
842.112	3264
842.249	3203
842.385	3112
842.522	3355
842.659	3142
842.796	3108
842.933	3157
843.069	3089
843.206	3074
843.343	3249
843.479	3184
843.616	3199
843.752	2937
843.889	2933
844.025	3176
844.162	2925
844.298	3146
844.435	3028
844.571	3013
844.708	3108
844.844	3241
844.98	3336
845.117	3283
845.253	3150
845.389	3108
845.525	3150
845.661	3150
845.798	3081
845.934	3192
846.07	3119
846.206	3313
846.342	3386
846.478	3268
846.614	3169
846.75	3119
846.886	3085
847.022	3351
847.158	3199
847.294	3291
847.429	3351
847.565	3291
847.701	3576
847.837	3127
847.972	3047
848.108	3214
848.244	3203
848.379	3100
848.515	3036
848.65	3051
848.786	3043
848.921	3074
849.057	3211
849.192	3192
849.328	3142
849.463	3150
849.598	3142
849.734	3123
849.869	3055
850.004	3036
850.14	3024
850.275	2963
850.41	2918
850.545	2960
850.68	2998
850.815	3028
850.95	3039
851.085	3264
851.22	3146
851.355	3093
851.49	3066
851.625	3093
851.76	3104
851.895	3036
852.03	2963
852.165	3127
852.299	3169
852.434	3298
852.569	3203
852.703	3214
852.838	3359
852.973	3431
853.107	3405
853.242	3188
853.376	3188
853.511	3043
853.645	3104
853.78	3340
853.914	3180
854.048	3203
854.183	3146
854.317	3207
854.451	3340
854.585	3222
854.72	3169
854.854	3291
854.988	3085
855.122	3150
855.256	3047
855.39	3176
855.524	3302
855.658	3230
855.792	3230
855.926	3287
856.06	3268
856.194	3363
856.327	3237
856.461	3173
856.595	3157
856.729	3173
856.862	3321
856.996	3253
857.13	3264
857.263	3298
857.397	3370
857.53	3173
857.664	3260
857.797	3287
857.931	3294
858.064	3249
858.197	3253
858.331	3169
858.464	3146
858.597	3074
858.731	3211
858.864	3180
858.997	3169
859.13	3253
859.263	3233
859.396	3268
859.529	3180
859.662	3119
859.795	3119
859.928	3184
860.061	3340
860.194	3374
860.327	3260
860.46	3165
860.592	3310
860.725	3306
860.858	3348
860.99	3138
861.123	3123
861.256	3112
861.388	3222
861.521	3934
861.653	3077
861.786	3036
861.918	3074
862.05	3127
862.183	3203
862.315	3214
862.447	3260
862.58	3169
862.712	3001
862.844	2933
862.976	3055
863.108	3070
863.24	3462
863.372	2952
863.504	3047
863.636	3013
863.768	3127
863.9	3070
864.032	2998
864.164	3005
864.296	3039
864.428	3131
864.559	3138
864.691	3169
864.823	3135
864.954	3062
865.086	3112
865.217	3074
865.349	2994
865.48	3039
865.612	3112
865.743	3214
865.875	3062
866.006	3081
866.137	3074
866.269	3062
866.4	2986
866.531	2963
866.662	2979
866.793	2944
866.924	2952
867.055	3036
867.186	3009
867.317	2963
867.448	2906
867.579	2937
867.71	2887
867.841	2891
867.972	3001
868.103	2975
868.233	2963
868.364	2963
868.495	2937
868.625	3116
868.756	3279
868.886	3081
869.017	3104
869.147	3245
869.278	3222
869.408	3089
869.539	3058
869.669	3173
869.799	3131
869.929	3195
870.06	3119
870.19	3393
870.32	3351
870.45	3351
870.58	3458
870.71	3515
870.84	3538
870.97	3351
871.1	3272
871.23	3580
871.36	3587
871.489	3420
871.619	3454
871.749	3473
871.879	3511
872.008	3553
872.138	3439
872.267	3340
872.397	3230
872.526	3180
872.656	3074
872.785	3150
872.915	3287
873.044	3439
873.173	3294
873.303	3329
873.432	3310
873.561	3272
873.69	3237
873.819	3211
873.948	3237
874.077	3169
874.206	3116
874.335	3180
874.464	3294
874.593	3439
874.722	3340
874.851	3420
874.979	3435
875.108	3420
875.237	3268
875.365	3207
875.494	3256
875.623	3348
875.751	3165
875.88	3192
876.008	3226
876.136	3313
876.265	3447
876.393	3568
876.521	3473
876.65	3485
876.778	3405
876.906	3359
877.034	3264
877.162	3294
877.29	3264
877.418	3344
877.546	3355
877.674	3287
877.802	3283
877.93	3321
878.058	3230
878.185	3184
878.313	3287
878.441	3279
878.568	3157
878.696	3230
878.824	3313
878.951	3386
879.079	3526
879.206	3690
879.333	3530
879.461	3420
879.588	3435
879.715	3557
879.842	3690
879.97	3450
880.097	3233
880.224	3176
880.351	3272
880.478	3245
880.605	3256
880.732	3226
880.859	3545
880.986	3370
881.112	3393
881.239	3302
881.366	3226
881.493	3093
881.619	3074
881.746	3135
881.872	3161
881.999	3169
882.125	3211
882.252	3302
882.378	3351
882.505	3481
882.631	3325
882.757	3214
882.883	3287
883.01	3264
883.136	3188
883.262	3142
883.388	3192
883.514	3389
883.64	3409
883.766	3378
883.892	3230
884.018	3317
884.143	3504
884.269	3576
884.395	3321
884.52	3275
884.646	3245
884.772	3188
884.897	3161
885.023	3275
885.148	3397
885.274	3469
885.399	3454
885.524	3321
885.65	3321
885.775	3382
885.9	3348
886.025	3473
886.15	3469
886.275	3351
886.4	3306
886.525	3382
886.65	3348
886.775	3329
886.9	3549
887.025	3701
887.149	3447
887.274	3310
887.399	3268
887.523	3245
887.648	3241
887.773	3256
887.897	3466
888.021	3469
888.146	3344
888.27	3504
888.395	3580
888.519	3469
888.643	3492
888.767	3545
888.891	3386
889.015	3302
889.139	3359
889.263	3302
889.387	3458
889.511	3584
889.635	3492
889.759	3355
889.883	3351
890.006	3412
890.13	3561
890.254	3344
890.377	3401
890.501	3226
890.624	3272
890.748	3382
890.871	3253
890.995	3176
891.118	3150
891.241	3249
891.364	3249
891.488	3401
891.611	3260
891.734	3302
891.857	3386
891.98	3298
892.103	3370
892.226	3336
892.349	3291
892.471	3203
892.594	3310
892.717	3325
892.839	3298
892.962	3405
893.085	3458
893.207	3340
893.33	3237
893.452	3275
893.575	3435
893.697	3325
893.819	3519
893.941	3572
894.064	3504
894.186	3370
894.308	3378
894.43	3534
894.552	3625
894.674	3485
894.796	3367
894.918	3367
895.04	3294
895.161	3500
895.283	3462
895.405	3370
895.526	3397
895.648	3507
895.769	3488
895.891	3515
896.012	3523
896.134	3515
896.255	3469
896.376	3450
896.498	3389
896.619	3488
896.74	3431
896.861	3462
896.982	3751
897.103	3956
897.224	3656
897.345	3538
897.466	3496
897.587	3515
897.708	3667
897.828	3591
897.949	3485
898.07	3355
898.19	3492
898.311	3671
898.431	3488
898.552	3618
898.672	3717
898.792	3629
898.913	3603
899.033	3473
899.153	3325
899.273	3279
899.393	3363
899.513	3370
899.633	3374
899.753	3428
899.873	3363
899.993	3450
900.113	3378
900.232	3473
900.352	3374
900.472	3321
900.591	3279
900.711	3359
900.83	3310
900.95	3477
901.069	3580
901.189	3428
901.308	3222
901.427	3222
901.546	3233
901.665	3374
901.784	3416
901.904	3272
902.023	3226
902.141	3097
902.26	3070
902.379	3211
902.498	3150
902.617	3085
902.735	3310
902.854	3294
902.973	3256
903.091	3131
903.21	3165
903.328	3222
903.446	3214
903.565	3169
903.683	3283
903.801	3203
903.919	3317
904.038	3359
904.156	3275
904.274	3359
904.392	3332
904.51	3348
904.627	3428
904.745	3584
904.863	3572
904.981	3359
905.098	3226
905.216	3321
905.334	3374
905.451	3412
905.569	3416
905.686	3519
905.803	3542
905.921	3405
906.038	3526
906.155	3447
906.272	3363
906.389	3473
906.506	3344
906.623	3355
906.74	3370
906.857	3283
906.974	3340
907.091	3530
907.208	3675
907.324	3595
907.441	3469
907.557	3321
907.674	3329
907.79	3287
907.907	3401
908.023	3485
908.139	3507
908.256	3363
908.372	3496
908.488	3469
908.604	3386
908.72	3310
908.836	3359
908.952	3359
909.068	3389
909.184	3576
909.3	3492
909.415	3610
909.531	3591
909.647	3344
909.762	3386
909.878	3386
909.993	3458
910.108	3424
910.224	3458
910.339	3515
910.454	3462
910.57	3374
910.685	3340
910.8	3694
910.915	3606
911.03	3500
911.145	3359
911.259	3386
911.374	3389
911.489	3313
911.604	3321
911.718	3203
911.833	3230
911.947	3123
912.062	3131
912.176	3226
912.291	3302
912.405	3310
912.519	3568
912.633	3545
912.748	3370
912.862	3351
912.976	3272
913.09	3131
913.204	3218
913.318	3329
913.431	3416
913.545	3450
913.659	3485
913.772	3428
913.886	3291
914	3298
914.113	3401
914.226	3526
914.34	3485
914.453	3317
914.566	3485
914.68	3397
914.793	3443
914.906	3230
915.019	3226
915.132	3135
915.245	3264
915.358	3302
915.47	3302
915.583	3336
915.696	3378
915.809	3488
915.921	3549
916.034	3363
916.146	3325
916.259	3332
916.371	3492
916.483	3420
916.595	3355
916.708	3458
916.82	3450
916.932	3447
917.044	3466
917.156	3462
917.268	3329
917.38	3420
917.491	3374
917.603	3473
917.715	3515
917.826	3553
917.938	3469
918.049	3374
918.161	3534
918.272	3652
918.384	3686
918.495	3553
918.606	3431
918.717	3332
918.828	3473
918.939	3500
919.05	3393
919.161	3393
919.272	3268
919.383	3359
919.494	3599
919.604	3751
919.715	3568
919.826	3496
919.936	3515
920.047	3686
920.157	3622
920.267	3888
920.378	3690
920.488	3656
920.598	3861
920.708	4044
920.818	3960
920.928	3903
921.038	4120
921.148	4071
921.258	3797
921.368	3701
921.477	3663
921.587	3629
921.697	3564
921.806	3709
921.916	3629
922.025	3488
922.134	3416
922.244	3409
922.353	3466
922.462	3370
922.571	3340
922.68	3154
922.789	3176
922.898	3214
923.007	3188
923.116	3253
923.224	3253
923.333	3226
923.442	3211
923.55	3192
923.659	3245
923.767	3287
923.876	3226
923.984	3310
924.092	3165
924.201	3302
924.309	3264
924.417	3363
924.525	3275
924.633	3344
924.741	4268
924.849	3116
924.956	3382
925.064	3173
925.172	3135
925.279	3180
925.387	3298
925.494	3287
925.602	3424
925.709	3386
925.816	3294
925.924	3340
926.031	3519
926.138	3420
926.245	3428
926.352	3355
926.459	3568
926.566	3603
926.673	3409
926.779	3313
926.886	3317
926.993	3241
927.099	3253
927.206	3249
927.312	3203
927.419	3287
927.525	3283
927.631	3351
927.737	3180
927.843	3195
927.95	3104
928.056	3214
928.162	3226
928.267	3336
928.373	3899
928.479	3389
928.585	3135
928.69	3287
928.796	3336
928.901	3253
929.007	3108
929.112	3325
929.218	3245
929.323	3226
929.428	3253
929.533	3416
929.638	3195
929.743	3253
929.848	3310
929.953	3332
930.058	3161
930.163	3085
930.267	3123
930.372	3272
930.477	3157
930.581	3409
930.685	3268
930.79	3112
930.894	3161
930.998	3161
931.103	3386
931.207	3020
931.311	3001
931.415	3039
931.519	2826
931.623	2853
