Data from test_V78500241_1017.txt Node
Date: Fri Mar 25 16:22:14 CST 2022
User: usil
Spectrometer: V785-0024
Trigger mode: 0
Integration Time (sec): 4.000000E-1
Scans to average: 1
Nonlinearity correction enabled: false
Boxcar width: 0
Storing dark spectrum: false
XAxis mode: Wavelengths
Number of Pixels in Spectrum: 1024
>>>>>Begin Spectral Data<<<<<
801.071	2918
801.214	2944
801.356	2861
801.499	2902
801.641	2857
801.783	2902
801.926	3055
802.068	2937
802.211	2952
802.353	3028
802.496	2990
802.638	3051
802.78	2990
802.923	3070
803.065	2975
803.208	2887
803.35	2937
803.492	2960
803.635	2914
803.777	2769
803.919	2857
804.061	3154
804.204	2929
804.346	2929
804.488	2883
804.63	2967
804.773	2853
804.915	2929
805.057	3100
805.199	2918
805.341	2986
805.483	3020
805.626	2994
805.768	2948
805.91	3077
806.052	3097
806.194	3047
806.336	3264
806.478	3058
806.62	2899
806.762	2979
806.904	3036
807.046	3199
807.188	2979
807.33	2887
807.472	2998
807.614	2895
807.756	2956
807.898	2922
808.04	2880
808.182	2990
808.324	2933
808.465	2872
808.607	2845
808.749	2800
808.891	2861
809.033	2952
809.174	2960
809.316	2864
809.458	2883
809.6	2796
809.741	2773
809.883	2785
810.025	2861
810.166	2834
810.308	2804
810.45	2834
810.591	2792
810.733	2773
810.875	2811
811.016	2796
811.158	2735
811.299	2796
811.441	2918
811.582	2929
811.724	2800
811.865	2849
812.007	2918
812.148	2887
812.29	2857
812.431	2880
812.573	2944
812.714	2925
812.855	3024
812.997	3047
813.138	3097
813.279	3017
813.421	2975
813.562	2960
813.703	2853
813.845	2868
813.986	2769
814.127	2701
814.268	2800
814.41	2834
814.551	2804
814.692	2891
814.833	2838
814.974	2902
815.115	2960
815.256	2842
815.397	2826
815.539	2849
815.68	2766
815.821	2792
815.962	2933
816.103	2952
816.244	2864
816.385	2861
816.526	2971
816.666	2933
816.807	2762
816.948	2872
817.089	2937
817.23	2830
817.371	2750
817.512	2815
817.653	2872
817.793	2864
817.934	2891
818.075	2952
818.216	2990
818.356	3058
818.497	2872
818.638	2785
818.778	2788
818.919	2792
819.06	2762
819.2	2864
819.341	2830
819.481	2781
819.622	2895
819.762	3089
819.903	3058
820.043	2925
820.184	2914
820.324	2922
820.465	3001
820.605	2998
820.746	3032
820.886	2918
821.026	3085
821.167	3161
821.307	3260
821.447	3283
821.588	3199
821.728	3165
821.868	3165
822.008	3039
822.149	3195
822.289	3207
822.429	3093
822.569	3077
822.709	3176
822.849	3020
822.99	3024
823.13	3150
823.27	3199
823.41	3085
823.55	3154
823.69	3146
823.83	3207
823.97	3093
824.11	2979
824.25	3017
824.389	3051
824.529	3108
824.669	3097
824.809	3161
824.949	3279
825.089	3222
825.228	3150
825.368	3013
825.508	2952
825.648	2956
825.787	2998
825.927	2994
826.067	2956
826.206	2925
826.346	2998
826.485	3085
826.625	3112
826.765	3249
826.904	3222
827.044	3017
827.183	2941
827.323	2872
827.462	2952
827.601	2891
827.741	2918
827.88	2960
828.02	2838
828.159	2979
828.298	3039
828.437	3108
828.577	3005
828.716	3241
828.855	3089
828.994	2902
829.134	2830
829.273	2910
829.412	2842
829.551	2872
829.69	2910
829.829	3001
829.968	3146
830.107	2952
830.246	3017
830.385	2925
830.524	2861
830.663	2823
830.802	2712
830.941	2629
831.08	2670
831.219	2716
831.357	2750
831.496	2914
831.635	2735
831.774	2651
831.913	2644
832.051	2541
832.19	2533
832.329	2678
832.467	2552
832.606	2492
832.744	2552
832.883	2564
833.022	2594
833.16	2625
833.299	2640
833.437	2705
833.576	2667
833.714	2708
833.852	2720
833.991	2762
834.129	2834
834.267	2804
834.406	2766
834.544	2849
834.682	2861
834.821	2845
834.959	3089
835.097	2880
835.235	3081
835.373	2975
835.511	3001
835.65	2979
835.788	2944
835.926	2792
836.064	2785
836.202	2842
836.34	3032
836.478	3131
836.615	3043
836.753	3116
836.891	3180
837.029	3161
837.167	3119
837.305	3077
837.443	3047
837.58	2933
837.718	3146
837.856	3032
837.993	3051
838.131	3097
838.269	3070
838.406	3070
838.544	3081
838.681	2941
838.819	2899
838.956	2823
839.094	2842
839.231	2925
839.369	2975
839.506	3325
839.643	3222
839.781	2994
839.918	2952
840.055	3020
840.193	3036
840.33	3039
840.467	3070
840.604	3123
840.742	3439
840.879	3036
841.016	3043
841.153	3093
841.29	3325
841.427	3275
841.564	3264
841.701	3291
841.838	3218
841.975	3173
842.112	3195
842.249	3077
842.385	3074
842.522	3211
842.659	3089
842.796	3062
842.933	3089
843.069	3043
843.206	2990
843.343	3154
843.479	3089
843.616	3116
843.752	2906
843.889	2857
844.025	3047
844.162	2853
844.298	3097
844.435	2944
844.571	2887
844.708	3028
844.844	3138
844.98	3241
845.117	3214
845.253	3043
845.389	3001
845.525	3081
845.661	3119
845.798	3001
845.934	3131
846.07	3043
846.206	3218
846.342	3313
846.478	3237
846.614	3089
846.75	3066
846.886	3017
847.022	3214
847.158	3116
847.294	3176
847.429	3214
847.565	3173
847.701	3496
847.837	3028
847.972	3005
848.108	3180
848.244	3119
848.379	2963
848.515	2948
848.65	2918
848.786	2975
848.921	3024
849.057	3108
849.192	3119
849.328	3070
849.463	3108
849.598	3081
849.734	3020
849.869	2967
850.004	2941
850.14	2994
850.275	2906
850.41	2838
850.545	2872
850.68	2914
850.815	2952
850.95	2982
851.085	3188
851.22	3070
851.355	3039
851.49	3005
851.625	3001
851.76	3051
851.895	2906
852.03	2872
852.165	3009
852.299	3081
852.434	3195
852.569	3142
852.703	3165
852.838	3226
852.973	3332
853.107	3313
853.242	3146
853.376	3055
853.511	2960
853.645	3051
853.78	3233
853.914	3154
854.048	3135
854.183	3066
854.317	3161
854.451	3310
854.585	3112
854.72	3074
854.854	3184
854.988	3051
855.122	3081
855.256	2982
855.39	3108
855.524	3230
855.658	3146
855.792	3150
855.926	3203
856.06	3237
856.194	3283
856.327	3154
856.461	3062
856.595	3058
856.729	3047
856.862	3226
856.996	3176
857.13	3154
857.263	3218
857.397	3264
857.53	3116
857.664	3180
857.797	3226
857.931	3237
858.064	3138
858.197	3214
858.331	3127
858.464	3089
858.597	3017
858.731	3112
858.864	3112
858.997	3085
859.13	3173
859.263	3138
859.396	3180
859.529	3089
859.662	3036
859.795	3024
859.928	3146
860.061	3275
860.194	3310
860.327	3146
860.46	3108
860.592	3226
860.725	3233
860.858	3192
860.99	3104
861.123	3058
861.256	3070
861.388	3108
861.521	3793
861.653	3017
861.786	2986
861.918	2971
862.05	3036
862.183	3077
862.315	3089
862.447	3161
862.58	3100
862.712	2906
862.844	2849
862.976	2998
863.108	2986
863.24	3412
863.372	2861
863.504	2941
863.636	2975
863.768	3024
863.9	2971
864.032	2956
864.164	2914
864.296	2986
864.428	3070
864.559	3119
864.691	3051
864.823	3062
864.954	3005
865.086	2979
865.217	3001
865.349	2929
865.48	2990
865.612	3001
865.743	3123
865.875	2990
866.006	2941
866.137	2948
866.269	2895
866.4	2914
866.531	2883
866.662	2868
866.793	2910
866.924	2899
867.055	2960
867.186	2883
867.317	2834
867.448	2845
867.579	2845
867.71	2838
867.841	2777
867.972	2933
868.103	2876
868.233	2845
868.364	2883
868.495	2933
868.625	3077
868.756	3150
868.886	2971
869.017	3017
869.147	3150
869.278	3112
869.408	3051
869.539	3020
869.669	3138
869.799	3013
869.929	3119
870.06	3100
870.19	3310
870.32	3287
870.45	3310
870.58	3363
870.71	3439
870.84	3431
870.97	3264
871.1	3237
871.23	3477
871.36	3435
871.489	3351
871.619	3393
871.749	3416
871.879	3386
872.008	3450
872.138	3359
872.267	3275
872.397	3123
872.526	3039
872.656	2971
872.785	3047
872.915	3230
873.044	3325
873.173	3222
873.303	3256
873.432	3230
873.561	3230
873.69	3161
873.819	3127
873.948	3203
874.077	3097
874.206	3013
874.335	3089
874.464	3218
874.593	3336
874.722	3241
874.851	3382
874.979	3317
875.108	3287
875.237	3176
875.365	3154
875.494	3138
875.623	3222
875.751	3051
875.88	3077
876.008	3180
876.136	3199
876.265	3355
876.393	3534
876.521	3447
876.65	3401
876.778	3329
876.906	3256
877.034	3230
877.162	3230
877.29	3169
877.418	3241
877.546	3241
877.674	3222
877.802	3233
877.93	3237
878.058	3131
878.185	3070
878.313	3199
878.441	3218
878.568	3032
878.696	3135
878.824	3218
878.951	3291
879.079	3439
879.206	3603
879.333	3420
879.461	3363
879.588	3363
879.715	3488
879.842	3576
879.97	3393
880.097	3176
880.224	3131
880.351	3195
880.478	3214
880.605	3211
880.732	3146
880.859	3492
880.986	3306
881.112	3310
881.239	3199
881.366	3104
881.493	3009
881.619	3024
881.746	3077
881.872	3097
881.999	3081
882.125	3142
882.252	3237
882.378	3279
882.505	3401
882.631	3260
882.757	3138
882.883	3199
883.01	3207
883.136	3142
883.262	3058
883.388	3093
883.514	3310
883.64	3370
883.766	3294
883.892	3192
884.018	3230
884.143	3416
884.269	3515
884.395	3176
884.52	3180
884.646	3188
884.772	3127
884.897	3135
885.023	3192
885.148	3321
885.274	3363
885.399	3370
885.524	3291
885.65	3279
885.775	3272
885.9	3275
886.025	3428
886.15	3351
886.275	3287
886.4	3233
886.525	3268
886.65	3256
886.775	3260
886.9	3496
887.025	3603
887.149	3393
887.274	3294
887.399	3161
887.523	3176
887.648	3180
887.773	3176
887.897	3336
888.021	3389
888.146	3272
888.27	3443
888.395	3534
888.519	3412
888.643	3424
888.767	3481
888.891	3294
889.015	3268
889.139	3294
889.263	3226
889.387	3389
889.511	3507
889.635	3450
889.759	3291
889.883	3287
890.006	3389
890.13	3473
890.254	3268
890.377	3329
890.501	3230
890.624	3188
890.748	3294
890.871	3154
890.995	3074
891.118	3032
891.241	3211
891.364	3256
891.488	3275
891.611	3184
891.734	3226
891.857	3268
891.98	3237
892.103	3302
892.226	3241
892.349	3211
892.471	3112
892.594	3222
892.717	3279
892.839	3218
892.962	3291
893.085	3332
893.207	3268
893.33	3138
893.452	3207
893.575	3336
893.697	3245
893.819	3469
893.941	3473
894.064	3393
894.186	3313
894.308	3222
894.43	3416
894.552	3534
894.674	3458
894.796	3264
894.918	3283
895.04	3294
895.161	3393
895.283	3367
895.405	3283
895.526	3344
895.648	3420
895.769	3431
895.891	3454
896.012	3439
896.134	3443
896.255	3397
896.376	3344
896.498	3325
896.619	3393
896.74	3351
896.861	3370
896.982	3724
897.103	3816
897.224	3587
897.345	3492
897.466	3424
897.587	3443
897.708	3629
897.828	3534
897.949	3428
898.07	3310
898.19	3420
898.311	3568
898.431	3458
898.552	3466
898.672	3545
898.792	3580
898.913	3496
899.033	3393
899.153	3321
899.273	3199
899.393	3283
899.513	3294
899.633	3298
899.753	3336
899.873	3306
899.993	3374
900.113	3321
900.232	3393
900.352	3348
900.472	3294
900.591	3237
900.711	3306
900.83	3253
900.95	3378
901.069	3523
901.189	3348
901.308	3176
901.427	3138
901.546	3207
901.665	3306
901.784	3317
901.904	3173
902.023	3142
902.141	2986
902.26	2956
902.379	3154
902.498	3085
902.617	3017
902.735	3192
902.854	3218
902.973	3184
903.091	3020
903.21	3077
903.328	3154
903.446	3089
903.565	3077
903.683	3214
903.801	3127
903.919	3230
904.038	3313
904.156	3127
904.274	3249
904.392	3211
904.51	3325
904.627	3355
904.745	3447
904.863	3485
904.981	3249
905.098	3146
905.216	3199
905.334	3294
905.451	3310
905.569	3291
905.686	3420
905.803	3435
905.921	3279
906.038	3409
906.155	3374
906.272	3253
906.389	3329
906.506	3218
906.623	3253
906.74	3264
906.857	3176
906.974	3237
907.091	3450
907.208	3580
907.324	3443
907.441	3386
907.557	3173
907.674	3264
907.79	3195
907.907	3298
908.023	3386
908.139	3393
908.256	3325
908.372	3355
908.488	3363
908.604	3245
908.72	3230
908.836	3294
908.952	3268
909.068	3325
909.184	3469
909.3	3355
909.415	3454
909.531	3435
909.647	3230
909.762	3214
909.878	3237
909.993	3344
910.108	3310
910.224	3329
910.339	3412
910.454	3317
910.57	3260
910.685	3245
910.8	3606
910.915	3526
911.03	3416
911.145	3279
911.259	3245
911.374	3291
911.489	3253
911.604	3214
911.718	3112
911.833	3146
911.947	2990
912.062	2998
912.176	3138
912.291	3188
912.405	3184
912.519	3393
912.633	3439
912.748	3321
912.862	3253
912.976	3176
913.09	3085
913.204	3123
913.318	3222
913.431	3321
913.545	3329
913.659	3382
913.772	3313
913.886	3199
914	3176
914.113	3344
914.226	3397
914.34	3378
914.453	3207
914.566	3405
914.68	3268
914.793	3317
914.906	3142
915.019	3138
915.132	3058
915.245	3173
915.358	3211
915.47	3214
915.583	3249
915.696	3287
915.809	3409
915.921	3431
916.034	3260
916.146	3260
916.259	3249
916.371	3397
916.483	3389
916.595	3291
916.708	3332
916.82	3367
916.932	3363
917.044	3348
917.156	3359
917.268	3264
917.38	3317
917.491	3355
917.603	3367
917.715	3458
917.826	3504
917.938	3428
918.049	3302
918.161	3443
918.272	3603
918.384	3610
918.495	3515
918.606	3382
918.717	3336
918.828	3412
918.939	3466
919.05	3344
919.161	3416
919.272	3211
919.383	3310
919.494	3549
919.604	3709
919.715	3553
919.826	3412
919.936	3481
920.047	3625
920.157	3564
920.267	3778
920.378	3644
920.488	3629
920.598	3823
920.708	3991
920.818	3865
920.928	3880
921.038	4093
921.148	4021
921.258	3720
921.368	3698
921.477	3644
921.587	3542
921.697	3450
921.806	3656
921.916	3584
922.025	3416
922.134	3409
922.244	3325
922.353	3435
922.462	3348
922.571	3253
922.68	3161
922.789	3127
922.898	3154
923.007	3123
923.116	3245
923.224	3195
923.333	3226
923.442	3146
923.55	3146
923.659	3184
923.767	3279
923.876	3112
923.984	3306
924.092	3157
924.201	3226
924.309	3268
924.417	3256
924.525	3176
924.633	3291
924.741	4223
924.849	3093
924.956	3325
925.064	3119
925.172	3089
925.279	3176
925.387	3211
925.494	3226
925.602	3393
925.709	3355
925.816	3207
925.924	3336
926.031	3397
926.138	3306
926.245	3393
926.352	3260
926.459	3409
926.566	3515
926.673	3351
926.779	3310
926.886	3291
926.993	3184
927.099	3127
927.206	3157
927.312	3176
927.419	3249
927.525	3222
927.631	3291
927.737	3157
927.843	3161
927.95	3100
928.056	3150
928.162	3192
928.267	3294
928.373	3892
928.479	3351
928.585	3077
928.69	3230
928.796	3294
928.901	3157
929.007	3108
929.112	3226
929.218	3222
929.323	3165
929.428	3211
929.533	3348
929.638	3131
929.743	3203
929.848	3321
929.953	3253
930.058	3192
930.163	3055
930.267	3070
930.372	3253
930.477	3058
930.581	3336
930.685	3195
930.79	3097
930.894	3138
930.998	3135
931.103	3310
931.207	2979
931.311	2971
931.415	2960
931.519	2800
931.623	2838
