Data from test_V78500241_909.txt Node
Date: Fri Mar 25 16:21:30 CST 2022
User: usil
Spectrometer: V785-0024
Trigger mode: 0
Integration Time (sec): 4.000000E-1
Scans to average: 1
Nonlinearity correction enabled: false
Boxcar width: 0
Storing dark spectrum: false
XAxis mode: Wavelengths
Number of Pixels in Spectrum: 1024
>>>>>Begin Spectral Data<<<<<
801.071	2925
801.214	2960
801.356	2838
801.499	2876
801.641	2849
801.783	2906
801.926	3043
802.068	2956
802.211	2994
802.353	3017
802.496	2925
802.638	3009
802.78	3028
802.923	3093
803.065	3013
803.208	2872
803.35	2902
803.492	2948
803.635	2937
803.777	2727
803.919	2830
804.061	3230
804.204	2933
804.346	2922
804.488	2834
804.63	2990
804.773	2857
804.915	2910
805.057	3055
805.199	2910
805.341	2967
805.483	3005
805.626	2990
805.768	2952
805.91	3085
806.052	3138
806.194	3013
806.336	3237
806.478	3032
806.62	2933
806.762	2941
806.904	3055
807.046	3188
807.188	2944
807.33	2891
807.472	2967
807.614	2914
807.756	2994
807.898	2929
808.04	2902
808.182	2956
808.324	2914
808.465	2895
808.607	2864
808.749	2792
808.891	2819
809.033	2960
809.174	2986
809.316	2880
809.458	2899
809.6	2777
809.741	2754
809.883	2754
810.025	2842
810.166	2834
810.308	2819
810.45	2826
810.591	2769
810.733	2788
810.875	2773
811.016	2807
811.158	2754
811.299	2792
811.441	2914
811.582	2887
811.724	2788
811.865	2842
812.007	2937
812.148	2883
812.29	2861
812.431	2880
812.573	2948
812.714	2944
812.855	3036
812.997	3024
813.138	3119
813.279	2994
813.421	2990
813.562	2979
813.703	2845
813.845	2918
813.986	2758
814.127	2712
814.268	2830
814.41	2842
814.551	2826
814.692	2842
814.833	2811
814.974	2910
815.115	2948
815.256	2845
815.397	2842
815.539	2861
815.68	2750
815.821	2792
815.962	2963
816.103	2902
816.244	2861
816.385	2864
816.526	2948
816.666	2922
816.807	2735
816.948	2857
817.089	2925
817.23	2849
817.371	2758
817.512	2796
817.653	2834
817.793	2853
817.934	2857
818.075	2986
818.216	2979
818.356	2994
818.497	2899
818.638	2754
818.778	2857
818.919	2785
819.06	2788
819.2	2902
819.341	2804
819.481	2834
819.622	2914
819.762	3085
819.903	3032
820.043	2914
820.184	2906
820.324	2891
820.465	2979
820.605	3020
820.746	3020
820.886	2922
821.026	3058
821.167	3119
821.307	3233
821.447	3294
821.588	3222
821.728	3226
821.868	3180
822.008	3089
822.149	3173
822.289	3207
822.429	3077
822.569	3085
822.709	3142
822.849	2979
822.99	3077
823.13	3135
823.27	3195
823.41	3142
823.55	3173
823.69	3169
823.83	3195
823.97	3097
824.11	3009
824.25	2982
824.389	3093
824.529	3119
824.669	3074
824.809	3199
824.949	3245
825.089	3214
825.228	3138
825.368	3032
825.508	2929
825.648	2986
825.787	3028
825.927	3005
826.067	2971
826.206	2979
826.346	3028
826.485	3047
826.625	3104
826.765	3226
826.904	3192
827.044	2963
827.183	2922
827.323	2838
827.462	3005
827.601	2864
827.741	2948
827.88	2944
828.02	2811
828.159	2975
828.298	3020
828.437	3097
828.577	3066
828.716	3264
828.855	3043
828.994	2906
829.134	2887
829.273	2880
829.412	2868
829.551	2861
829.69	2906
829.829	2994
829.968	3131
830.107	2990
830.246	3047
830.385	2929
830.524	2910
830.663	2777
830.802	2739
830.941	2678
831.08	2629
831.219	2735
831.357	2731
831.496	2948
831.635	2697
831.774	2636
831.913	2682
832.051	2507
832.19	2560
832.329	2659
832.467	2549
832.606	2465
832.744	2533
832.883	2549
833.022	2537
833.16	2629
833.299	2667
833.437	2686
833.576	2648
833.714	2697
833.852	2762
833.991	2735
834.129	2815
834.267	2815
834.406	2777
834.544	2864
834.682	2891
834.821	2861
834.959	3062
835.097	2868
835.235	3017
835.373	2960
835.511	3009
835.65	2933
835.788	2902
835.926	2834
836.064	2796
836.202	2811
836.34	3081
836.478	3146
836.615	3066
836.753	3146
836.891	3184
837.029	3184
837.167	3116
837.305	3047
837.443	3039
837.58	2956
837.718	3123
837.856	3043
837.993	3051
838.131	3123
838.269	3081
838.406	3131
838.544	3116
838.681	2918
838.819	2899
838.956	2815
839.094	2857
839.231	2906
839.369	3005
839.506	3332
839.643	3203
839.781	3039
839.918	2937
840.055	3043
840.193	3051
840.33	3066
840.467	3070
840.604	3157
840.742	3340
840.879	3039
841.016	3047
841.153	3116
841.29	3321
841.427	3268
841.564	3214
841.701	3302
841.838	3203
841.975	3142
842.112	3199
842.249	3043
842.385	3001
842.522	3253
842.659	3097
842.796	3051
842.933	3077
843.069	3028
843.206	3013
843.343	3165
843.479	3077
843.616	3127
843.752	2880
843.889	2891
844.025	3070
844.162	2868
844.298	3077
844.435	2902
844.571	2902
844.708	3058
844.844	3214
844.98	3199
845.117	3184
845.253	3036
845.389	2990
845.525	3104
845.661	3112
845.798	2998
845.934	3108
846.07	3024
846.206	3214
846.342	3283
846.478	3260
846.614	3070
846.75	3017
846.886	3024
847.022	3272
847.158	3138
847.294	3173
847.429	3237
847.565	3253
847.701	3504
847.837	3028
847.972	2963
848.108	3142
848.244	3157
848.379	2990
848.515	2941
848.65	2906
848.786	2979
848.921	3013
849.057	3058
849.192	3100
849.328	3074
849.463	3135
849.598	3020
849.734	3066
849.869	2952
850.004	2891
850.14	2967
850.275	2925
850.41	2800
850.545	2906
850.68	2929
850.815	2941
850.95	2941
851.085	3207
851.22	3104
851.355	3024
851.49	2986
851.625	2990
851.76	2971
851.895	2922
852.03	2914
852.165	3020
852.299	3108
852.434	3150
852.569	3142
852.703	3169
852.838	3291
852.973	3291
853.107	3317
853.242	3161
853.376	3081
853.511	2952
853.645	3032
853.78	3218
853.914	3104
854.048	3081
854.183	3127
854.317	3180
854.451	3306
854.585	3154
854.72	3062
854.854	3176
854.988	3020
855.122	3108
855.256	2979
855.39	3104
855.524	3230
855.658	3138
855.792	3097
855.926	3195
856.06	3218
856.194	3230
856.327	3127
856.461	3001
856.595	3051
856.729	3074
856.862	3211
856.996	3176
857.13	3184
857.263	3264
857.397	3291
857.53	3116
857.664	3150
857.797	3199
857.931	3272
858.064	3173
858.197	3173
858.331	3123
858.464	3055
858.597	3005
858.731	3108
858.864	3104
858.997	3089
859.13	3188
859.263	3154
859.396	3173
859.529	3077
859.662	3070
859.795	3058
859.928	3131
860.061	3279
860.194	3287
860.327	3097
860.46	3119
860.592	3241
860.725	3253
860.858	3245
860.99	3074
861.123	3032
861.256	3066
861.388	3089
861.521	3819
861.653	3005
861.786	2986
861.918	2967
862.05	3039
862.183	3131
862.315	3119
862.447	3214
862.58	3097
862.712	2922
862.844	2849
862.976	3013
863.108	3013
863.24	3294
863.372	2902
863.504	2944
863.636	2914
863.768	3013
863.9	2967
864.032	2895
864.164	2933
864.296	3013
864.428	3100
864.559	3104
864.691	3089
864.823	3058
864.954	3028
865.086	3032
865.217	2967
865.349	2941
865.48	2975
865.612	3013
865.743	3165
865.875	2941
866.006	2918
866.137	2956
866.269	2948
866.4	2963
866.531	2899
866.662	2899
866.793	2861
866.924	2883
867.055	2982
867.186	2922
867.317	2883
867.448	2819
867.579	2838
867.71	2864
867.841	2777
867.972	2914
868.103	2899
868.233	2876
868.364	2883
868.495	2891
868.625	3070
868.756	3165
868.886	2952
869.017	2998
869.147	3138
869.278	3165
869.408	3047
869.539	3013
869.669	3081
869.799	3009
869.929	3100
870.06	3055
870.19	3310
870.32	3253
870.45	3310
870.58	3351
870.71	3466
870.84	3420
870.97	3264
871.1	3226
871.23	3477
871.36	3424
871.489	3340
871.619	3386
871.749	3401
871.879	3405
872.008	3481
872.138	3351
872.267	3245
872.397	3176
872.526	3077
872.656	3039
872.785	3119
872.915	3237
873.044	3332
873.173	3233
873.303	3226
873.432	3226
873.561	3233
873.69	3142
873.819	3123
873.948	3165
874.077	3055
874.206	3043
874.335	3051
874.464	3173
874.593	3306
874.722	3230
874.851	3370
874.979	3348
875.108	3317
875.237	3195
875.365	3188
875.494	3165
875.623	3245
875.751	3089
875.88	3097
876.008	3256
876.136	3176
876.265	3355
876.393	3515
876.521	3386
876.65	3351
876.778	3313
876.906	3264
877.034	3211
877.162	3203
877.29	3169
877.418	3237
877.546	3226
877.674	3218
877.802	3214
877.93	3245
878.058	3161
878.185	3051
878.313	3180
878.441	3218
878.568	3070
878.696	3146
878.824	3249
878.951	3317
879.079	3431
879.206	3595
879.333	3424
879.461	3317
879.588	3344
879.715	3469
879.842	3584
879.97	3393
880.097	3184
880.224	3112
880.351	3184
880.478	3211
880.605	3218
880.732	3199
880.859	3488
880.986	3256
881.112	3279
881.239	3241
881.366	3093
881.493	3055
881.619	3013
881.746	3077
881.872	3077
881.999	3058
882.125	3157
882.252	3211
882.378	3313
882.505	3428
882.631	3256
882.757	3161
882.883	3211
883.01	3237
883.136	3173
883.262	3070
883.388	3116
883.514	3329
883.64	3397
883.766	3317
883.892	3150
884.018	3207
884.143	3420
884.269	3534
884.395	3169
884.52	3131
884.646	3184
884.772	3146
884.897	3108
885.023	3195
885.148	3313
885.274	3435
885.399	3382
885.524	3287
885.65	3211
885.775	3294
885.9	3222
886.025	3428
886.15	3325
886.275	3302
886.4	3241
886.525	3313
886.65	3279
886.775	3260
886.9	3515
887.025	3591
887.149	3389
887.274	3222
887.399	3150
887.523	3188
887.648	3176
887.773	3192
887.897	3374
888.021	3405
888.146	3272
888.27	3386
888.395	3504
888.519	3389
888.643	3405
888.767	3469
888.891	3359
889.015	3161
889.139	3230
889.263	3291
889.387	3424
889.511	3545
889.635	3435
889.759	3306
889.883	3283
890.006	3325
890.13	3469
890.254	3268
890.377	3329
890.501	3176
890.624	3169
890.748	3268
890.871	3192
890.995	3108
891.118	3036
891.241	3203
891.364	3237
891.488	3279
891.611	3184
891.734	3203
891.857	3279
891.98	3233
892.103	3306
892.226	3283
892.349	3226
892.471	3116
892.594	3203
892.717	3325
892.839	3233
892.962	3291
893.085	3355
893.207	3275
893.33	3135
893.452	3195
893.575	3332
893.697	3203
893.819	3439
893.941	3450
894.064	3424
894.186	3226
894.308	3283
894.43	3447
894.552	3511
894.674	3469
894.796	3241
894.918	3302
895.04	3279
895.161	3412
895.283	3401
895.405	3317
895.526	3370
895.648	3420
895.769	3393
895.891	3409
896.012	3458
896.134	3496
896.255	3409
896.376	3370
896.498	3340
896.619	3420
896.74	3370
896.861	3416
896.982	3641
897.103	3850
897.224	3614
897.345	3511
897.466	3428
897.587	3481
897.708	3633
897.828	3606
897.949	3443
898.07	3306
898.19	3424
898.311	3591
898.431	3439
898.552	3507
898.672	3637
898.792	3584
898.913	3515
899.033	3462
899.153	3283
899.273	3226
899.393	3256
899.513	3336
899.633	3340
899.753	3378
899.873	3348
899.993	3405
900.113	3355
900.232	3393
900.352	3405
900.472	3302
900.591	3241
900.711	3329
900.83	3272
900.95	3450
901.069	3523
901.189	3374
901.308	3184
901.427	3165
901.546	3222
901.665	3298
901.784	3329
901.904	3222
902.023	3207
902.141	3066
902.26	3013
902.379	3154
902.498	3116
902.617	3131
902.735	3253
902.854	3291
902.973	3199
903.091	3119
903.21	3085
903.328	3176
903.446	3165
903.565	3146
903.683	3237
903.801	3173
903.919	3287
904.038	3317
904.156	3169
904.274	3336
904.392	3283
904.51	3306
904.627	3363
904.745	3481
904.863	3526
904.981	3332
905.098	3192
905.216	3283
905.334	3317
905.451	3359
905.569	3363
905.686	3454
905.803	3458
905.921	3313
906.038	3469
906.155	3389
906.272	3329
906.389	3359
906.506	3272
906.623	3287
906.74	3279
906.857	3199
906.974	3298
907.091	3523
907.208	3618
907.324	3504
907.441	3447
907.557	3245
907.674	3253
907.79	3253
907.907	3344
908.023	3386
908.139	3454
908.256	3348
908.372	3393
908.488	3393
908.604	3264
908.72	3287
908.836	3325
908.952	3336
909.068	3393
909.184	3519
909.3	3469
909.415	3492
909.531	3492
909.647	3298
909.762	3332
909.878	3321
909.993	3355
910.108	3409
910.224	3374
910.339	3428
910.454	3329
910.57	3355
910.685	3272
910.8	3625
910.915	3519
911.03	3469
911.145	3268
911.259	3279
911.374	3359
911.489	3256
911.604	3294
911.718	3169
911.833	3169
911.947	3089
912.062	3036
912.176	3173
912.291	3176
912.405	3237
912.519	3450
912.633	3488
912.748	3374
912.862	3302
912.976	3214
913.09	3131
913.204	3165
913.318	3230
913.431	3336
913.545	3374
913.659	3435
913.772	3378
913.886	3230
914	3226
914.113	3405
914.226	3431
914.34	3370
914.453	3260
914.566	3397
914.68	3359
914.793	3355
914.906	3184
915.019	3157
915.132	3089
915.245	3165
915.358	3199
915.47	3260
915.583	3275
915.696	3340
915.809	3382
915.921	3428
916.034	3294
916.146	3272
916.259	3256
916.371	3431
916.483	3401
916.595	3310
916.708	3359
916.82	3359
916.932	3374
917.044	3420
917.156	3389
917.268	3272
917.38	3374
917.491	3302
917.603	3370
917.715	3454
917.826	3507
917.938	3393
918.049	3275
918.161	3435
918.272	3637
918.384	3629
918.495	3561
918.606	3386
918.717	3344
918.828	3435
918.939	3447
919.05	3325
919.161	3458
919.272	3192
919.383	3272
919.494	3572
919.604	3743
919.715	3523
919.826	3485
919.936	3488
920.047	3648
920.157	3591
920.267	3781
920.378	3622
920.488	3599
920.598	3804
920.708	4002
920.818	3827
920.928	3827
921.038	4040
921.148	4032
921.258	3747
921.368	3641
921.477	3606
921.587	3580
921.697	3466
921.806	3660
921.916	3568
922.025	3348
922.134	3405
922.244	3348
922.353	3469
922.462	3264
922.571	3272
922.68	3123
922.789	3123
922.898	3157
923.007	3142
923.116	3272
923.224	3245
923.333	3154
923.442	3093
923.55	3131
923.659	3138
923.767	3245
923.876	3085
923.984	3260
924.092	3131
924.201	3226
924.309	3226
924.417	3279
924.525	3188
924.633	3253
924.741	4261
924.849	3112
924.956	3264
925.064	3157
925.172	3066
925.279	3135
925.387	3226
925.494	3195
925.602	3431
925.709	3355
925.816	3211
925.924	3332
926.031	3416
926.138	3378
926.245	3397
926.352	3260
926.459	3443
926.566	3477
926.673	3355
926.779	3283
926.886	3302
926.993	3180
927.099	3161
927.206	3131
927.312	3157
927.419	3275
927.525	3241
927.631	3302
927.737	3180
927.843	3146
927.95	3001
928.056	3169
928.162	3230
928.267	3275
928.373	3884
928.479	3336
928.585	3081
928.69	3237
928.796	3306
928.901	3207
929.007	3077
929.112	3245
929.218	3211
929.323	3176
929.428	3173
929.533	3336
929.638	3138
929.743	3199
929.848	3256
929.953	3256
930.058	3165
930.163	3043
930.267	3066
930.372	3226
930.477	3055
930.581	3302
930.685	3184
930.79	3077
930.894	3131
930.998	3127
931.103	3294
931.207	2960
931.311	2967
931.415	2963
931.519	2823
931.623	2838
