Data from test_V78500241_1843.txt Node
Date: Fri Mar 25 16:27:58 CST 2022
User: usil
Spectrometer: V785-0024
Trigger mode: 0
Integration Time (sec): 4.000000E-1
Scans to average: 1
Nonlinearity correction enabled: false
Boxcar width: 0
Storing dark spectrum: false
XAxis mode: Wavelengths
Number of Pixels in Spectrum: 1024
>>>>>Begin Spectral Data<<<<<
801.071	2922
801.214	2960
801.356	2868
801.499	2891
801.641	2853
801.783	2922
801.926	3051
802.068	2933
802.211	3001
802.353	3032
802.496	2948
802.638	3005
802.78	3043
802.923	3058
803.065	3028
803.208	2864
803.35	2883
803.492	2906
803.635	2933
803.777	2766
803.919	2842
804.061	3218
804.204	2944
804.346	2941
804.488	2834
804.63	2967
804.773	2819
804.915	2891
805.057	3093
805.199	2918
805.341	2944
805.483	3047
805.626	3013
805.768	2963
805.91	3104
806.052	3104
806.194	3017
806.336	3218
806.478	3036
806.62	2956
806.762	2967
806.904	3020
807.046	3203
807.188	2960
807.33	2853
807.472	2998
807.614	2929
807.756	2990
807.898	2960
808.04	2918
808.182	2967
808.324	2952
808.465	2902
808.607	2899
808.749	2811
808.891	2842
809.033	2975
809.174	2941
809.316	2880
809.458	2864
809.6	2769
809.741	2735
809.883	2773
810.025	2845
810.166	2861
810.308	2823
810.45	2876
810.591	2769
810.733	2773
810.875	2838
811.016	2743
811.158	2769
811.299	2823
811.441	2906
811.582	2895
811.724	2826
811.865	2838
812.007	2910
812.148	2853
812.29	2868
812.431	2883
812.573	2918
812.714	2952
812.855	3032
812.997	3039
813.138	3127
813.279	3024
813.421	2982
813.562	2929
813.703	2845
813.845	2861
813.986	2773
814.127	2705
814.268	2838
814.41	2830
814.551	2819
814.692	2849
814.833	2811
814.974	2929
815.115	2963
815.256	2819
815.397	2804
815.539	2876
815.68	2766
815.821	2785
815.962	2941
816.103	2922
816.244	2895
816.385	2842
816.526	2994
816.666	2933
816.807	2750
816.948	2899
817.089	2883
817.23	2864
817.371	2769
817.512	2777
817.653	2826
817.793	2830
817.934	2864
818.075	2956
818.216	2979
818.356	3024
818.497	2910
818.638	2796
818.778	2838
818.919	2766
819.06	2697
819.2	2899
819.341	2800
819.481	2838
819.622	2944
819.762	3089
819.903	3036
820.043	2918
820.184	2880
820.324	2910
820.465	2975
820.605	2998
820.746	3013
820.886	2925
821.026	3108
821.167	3142
821.307	3272
821.447	3302
821.588	3245
821.728	3192
821.868	3207
822.008	3070
822.149	3161
822.289	3211
822.429	3097
822.569	3062
822.709	3195
822.849	3028
822.99	3058
823.13	3146
823.27	3188
823.41	3070
823.55	3176
823.69	3180
823.83	3199
823.97	3108
824.11	2998
824.25	3009
824.389	3062
824.529	3093
824.669	3081
824.809	3154
824.949	3230
825.089	3207
825.228	3157
825.368	2982
825.508	2967
825.648	2956
825.787	2971
825.927	3043
826.067	2941
826.206	2929
826.346	3032
826.485	3081
826.625	3093
826.765	3306
826.904	3230
827.044	3001
827.183	2941
827.323	2826
827.462	2990
827.601	2902
827.741	2925
827.88	2952
828.02	2849
828.159	2990
828.298	3020
828.437	3116
828.577	3036
828.716	3218
828.855	3093
828.994	2918
829.134	2895
829.273	2918
829.412	2872
829.551	2845
829.69	2895
829.829	2998
829.968	3138
830.107	2960
830.246	3036
830.385	2918
830.524	2842
830.663	2811
830.802	2701
830.941	2579
831.08	2651
831.219	2762
831.357	2746
831.496	2925
831.635	2716
831.774	2636
831.913	2670
832.051	2549
832.19	2541
832.329	2678
832.467	2541
832.606	2465
832.744	2590
832.883	2629
833.022	2560
833.16	2651
833.299	2655
833.437	2705
833.576	2651
833.714	2705
833.852	2720
833.991	2743
834.129	2861
834.267	2815
834.406	2792
834.544	2845
834.682	2880
834.821	2872
834.959	3062
835.097	2925
835.235	3028
835.373	2960
835.511	2975
835.65	2937
835.788	2960
835.926	2838
836.064	2777
836.202	2849
836.34	3123
836.478	3138
836.615	3066
836.753	3112
836.891	3222
837.029	3161
837.167	3089
837.305	3089
837.443	3005
837.58	2948
837.718	3097
837.856	3051
837.993	3024
838.131	3100
838.269	3135
838.406	3077
838.544	3081
838.681	2910
838.819	2891
838.956	2796
839.094	2788
839.231	2918
839.369	3020
839.506	3359
839.643	3222
839.781	2986
839.918	2948
840.055	3062
840.193	3039
840.33	3058
840.467	3051
840.604	3131
840.742	3367
840.879	3039
841.016	3001
841.153	3135
841.29	3332
841.427	3283
841.564	3264
841.701	3332
841.838	3214
841.975	3184
842.112	3218
842.249	3070
842.385	3051
842.522	3245
842.659	3066
842.796	3058
842.933	3074
843.069	3039
843.206	3062
843.343	3195
843.479	3097
843.616	3116
843.752	2914
843.889	2880
844.025	3066
844.162	2857
844.298	3066
844.435	2933
844.571	2899
844.708	3017
844.844	3184
844.98	3241
845.117	3142
845.253	3032
845.389	2986
845.525	3070
845.661	3070
845.798	3001
845.934	3138
846.07	3028
846.206	3192
846.342	3287
846.478	3241
846.614	3108
846.75	3039
846.886	3039
847.022	3226
847.158	3108
847.294	3184
847.429	3230
847.565	3184
847.701	3477
847.837	3013
847.972	3013
848.108	3150
848.244	3108
848.379	2986
848.515	2971
848.65	2944
848.786	2960
848.921	2979
849.057	3104
849.192	3161
849.328	3036
849.463	3123
849.598	3051
849.734	3036
849.869	2944
850.004	2906
850.14	2952
850.275	2902
850.41	2853
850.545	2910
850.68	2922
850.815	2937
850.95	2929
851.085	3207
851.22	3108
851.355	3013
851.49	2941
851.625	3055
851.76	3001
851.895	2914
852.03	2891
852.165	3001
852.299	3081
852.434	3184
852.569	3104
852.703	3131
852.838	3249
852.973	3336
853.107	3310
853.242	3135
853.376	3108
853.511	2956
853.645	3039
853.78	3173
853.914	3123
854.048	3135
854.183	3047
854.317	3100
854.451	3268
854.585	3127
854.72	3036
854.854	3226
854.988	3047
855.122	3032
855.256	3001
855.39	3085
855.524	3249
855.658	3176
855.792	3165
855.926	3192
856.06	3241
856.194	3222
856.327	3173
856.461	3066
856.595	3097
856.729	3100
856.862	3230
856.996	3119
857.13	3218
857.263	3233
857.397	3184
857.53	3123
857.664	3233
857.797	3237
857.931	3237
858.064	3150
858.197	3230
858.331	3150
858.464	3081
858.597	2986
858.731	3108
858.864	3100
858.997	3051
859.13	3135
859.263	3150
859.396	3226
859.529	3058
859.662	3055
859.795	3013
859.928	3131
860.061	3260
860.194	3264
860.327	3192
860.46	3074
860.592	3230
860.725	3218
860.858	3214
860.99	3085
861.123	3062
861.256	3024
861.388	3192
861.521	3831
861.653	2998
861.786	3005
861.918	2986
862.05	3081
862.183	3085
862.315	3112
862.447	3207
862.58	3077
862.712	2902
862.844	2883
862.976	3051
863.108	2982
863.24	3420
863.372	2872
863.504	2960
863.636	2944
863.768	2979
863.9	2941
864.032	2925
864.164	2952
864.296	3055
864.428	3066
864.559	3066
864.691	3097
864.823	3055
864.954	3051
865.086	3032
865.217	2971
865.349	2960
865.48	3020
865.612	2982
865.743	3146
865.875	2979
866.006	2933
866.137	2967
866.269	2929
866.4	2925
866.531	2929
866.662	2895
866.793	2868
866.924	2891
867.055	2963
867.186	2925
867.317	2861
867.448	2811
867.579	2842
867.71	2800
867.841	2800
867.972	2906
868.103	2922
868.233	2891
868.364	2815
868.495	2933
868.625	3070
868.756	3135
868.886	2982
869.017	2971
869.147	3150
869.278	3127
869.408	3039
869.539	3051
869.669	3093
869.799	3024
869.929	3131
870.06	3127
870.19	3329
870.32	3287
870.45	3306
870.58	3378
870.71	3424
870.84	3435
870.97	3256
871.1	3233
871.23	3458
871.36	3466
871.489	3370
871.619	3378
871.749	3428
871.879	3443
872.008	3473
872.138	3355
872.267	3260
872.397	3146
872.526	3100
872.656	3017
872.785	3100
872.915	3207
873.044	3306
873.173	3249
873.303	3207
873.432	3226
873.561	3199
873.69	3135
873.819	3116
873.948	3199
874.077	3135
874.206	2994
874.335	3047
874.464	3192
874.593	3340
874.722	3207
874.851	3393
874.979	3367
875.108	3313
875.237	3218
875.365	3154
875.494	3154
875.623	3272
875.751	3074
875.88	3135
876.008	3192
876.136	3249
876.265	3359
876.393	3477
876.521	3397
876.65	3435
876.778	3325
876.906	3226
877.034	3184
877.162	3184
877.29	3192
877.418	3222
877.546	3275
877.674	3260
877.802	3199
877.93	3222
878.058	3123
878.185	3097
878.313	3173
878.441	3237
878.568	3081
878.696	3131
878.824	3256
878.951	3275
879.079	3416
879.206	3637
879.333	3401
879.461	3336
879.588	3374
879.715	3481
879.842	3625
879.97	3363
880.097	3180
880.224	3100
880.351	3176
880.478	3214
880.605	3176
880.732	3176
880.859	3507
880.986	3325
881.112	3294
881.239	3165
881.366	3119
881.493	3051
881.619	3036
881.746	3070
881.872	3093
881.999	3112
882.125	3180
882.252	3218
882.378	3260
882.505	3439
882.631	3287
882.757	3150
882.883	3192
883.01	3218
883.136	3188
883.262	3039
883.388	3150
883.514	3291
883.64	3382
883.766	3291
883.892	3165
884.018	3218
884.143	3409
884.269	3507
884.395	3180
884.52	3176
884.646	3176
884.772	3135
884.897	3074
885.023	3184
885.148	3336
885.274	3420
885.399	3363
885.524	3279
885.65	3272
885.775	3291
885.9	3260
886.025	3428
886.15	3355
886.275	3294
886.4	3211
886.525	3283
886.65	3298
886.775	3275
886.9	3488
887.025	3622
887.149	3412
887.274	3245
887.399	3173
887.523	3214
887.648	3192
887.773	3184
887.897	3370
888.021	3370
888.146	3279
888.27	3389
888.395	3515
888.519	3424
888.643	3469
888.767	3435
888.891	3310
889.015	3222
889.139	3272
889.263	3253
889.387	3367
889.511	3507
889.635	3431
889.759	3279
889.883	3302
890.006	3359
890.13	3504
890.254	3272
890.377	3332
890.501	3169
890.624	3157
890.748	3329
890.871	3165
890.995	3097
891.118	3062
891.241	3214
891.364	3203
891.488	3310
891.611	3180
891.734	3169
891.857	3260
891.98	3207
892.103	3313
892.226	3253
892.349	3203
892.471	3116
892.594	3237
892.717	3313
892.839	3260
892.962	3317
893.085	3355
893.207	3302
893.33	3150
893.452	3203
893.575	3344
893.697	3230
893.819	3428
893.941	3519
894.064	3435
894.186	3237
894.308	3233
894.43	3420
894.552	3504
894.674	3450
894.796	3253
894.918	3336
895.04	3268
895.161	3405
895.283	3386
895.405	3340
895.526	3329
895.648	3386
895.769	3363
895.891	3511
896.012	3481
896.134	3492
896.255	3389
896.376	3412
896.498	3363
896.619	3439
896.74	3332
896.861	3382
896.982	3610
897.103	3842
897.224	3564
897.345	3496
897.466	3428
897.587	3488
897.708	3629
897.828	3504
897.949	3412
898.07	3344
898.19	3416
898.311	3572
898.431	3435
898.552	3481
898.672	3572
898.792	3549
898.913	3526
899.033	3370
899.153	3272
899.273	3241
899.393	3260
899.513	3313
899.633	3329
899.753	3332
899.873	3294
899.993	3389
900.113	3306
900.232	3374
900.352	3332
900.472	3275
900.591	3199
900.711	3275
900.83	3256
900.95	3428
901.069	3473
901.189	3336
901.308	3127
901.427	3135
901.546	3169
901.665	3275
901.784	3313
901.904	3188
902.023	3131
902.141	2998
902.26	3020
902.379	3131
902.498	3081
902.617	3051
902.735	3233
902.854	3184
902.973	3203
903.091	3032
903.21	3058
903.328	3119
903.446	3116
903.565	3100
903.683	3199
903.801	3123
903.919	3260
904.038	3279
904.156	3173
904.274	3287
904.392	3222
904.51	3287
904.627	3325
904.745	3424
904.863	3447
904.981	3256
905.098	3138
905.216	3214
905.334	3283
905.451	3279
905.569	3313
905.686	3416
905.803	3424
905.921	3268
906.038	3431
906.155	3359
906.272	3264
906.389	3317
906.506	3222
906.623	3283
906.74	3268
906.857	3192
906.974	3260
907.091	3435
907.208	3553
907.324	3496
907.441	3405
907.557	3253
907.674	3283
907.79	3195
907.907	3233
908.023	3363
908.139	3329
908.256	3351
908.372	3332
908.488	3363
908.604	3214
908.72	3192
908.836	3260
908.952	3287
909.068	3340
909.184	3458
909.3	3389
909.415	3469
909.531	3485
909.647	3283
909.762	3253
909.878	3245
909.993	3363
910.108	3294
910.224	3367
910.339	3420
910.454	3332
910.57	3310
910.685	3207
910.8	3557
910.915	3523
911.03	3420
911.145	3291
911.259	3256
911.374	3302
911.489	3233
911.604	3199
911.718	3142
911.833	3097
911.947	3013
912.062	2990
912.176	3146
912.291	3154
912.405	3173
912.519	3431
912.633	3477
912.748	3351
912.862	3302
912.976	3157
913.09	3070
913.204	3100
913.318	3211
913.431	3325
913.545	3302
913.659	3412
913.772	3359
913.886	3230
914	3195
914.113	3344
914.226	3439
914.34	3332
914.453	3199
914.566	3367
914.68	3321
914.793	3310
914.906	3150
915.019	3119
915.132	3047
915.245	3146
915.358	3192
915.47	3211
915.583	3275
915.696	3264
915.809	3367
915.921	3416
916.034	3241
916.146	3233
916.259	3245
916.371	3367
916.483	3363
916.595	3275
916.708	3340
916.82	3313
916.932	3313
917.044	3317
917.156	3321
917.268	3226
917.38	3332
917.491	3313
917.603	3386
917.715	3416
917.826	3447
917.938	3416
918.049	3268
918.161	3409
918.272	3500
918.384	3587
918.495	3485
918.606	3325
918.717	3272
918.828	3386
918.939	3378
919.05	3272
919.161	3340
919.272	3169
919.383	3256
919.494	3507
919.604	3660
919.715	3477
919.826	3374
919.936	3477
920.047	3599
920.157	3542
920.267	3724
920.378	3591
920.488	3545
920.598	3793
920.708	3960
920.818	3808
920.928	3838
921.038	3975
921.148	4010
921.258	3713
921.368	3637
921.477	3572
921.587	3515
921.697	3458
921.806	3629
921.916	3500
922.025	3382
922.134	3332
922.244	3264
922.353	3443
922.462	3256
922.571	3256
922.68	3112
922.789	3055
922.898	3138
923.007	3108
923.116	3233
923.224	3161
923.333	3169
923.442	3066
923.55	3089
923.659	3180
923.767	3226
923.876	3100
923.984	3226
924.092	3127
924.201	3195
924.309	3199
924.417	3241
924.525	3184
924.633	3256
924.741	4166
924.849	3051
924.956	3272
925.064	3100
925.172	3036
925.279	3093
925.387	3176
925.494	3188
925.602	3336
925.709	3317
925.816	3199
925.924	3279
926.031	3409
926.138	3325
926.245	3378
926.352	3218
926.459	3420
926.566	3485
926.673	3313
926.779	3256
926.886	3211
926.993	3142
927.099	3108
927.206	3093
927.312	3112
927.419	3230
927.525	3195
927.631	3279
927.737	3135
927.843	3131
927.95	3032
928.056	3142
928.162	3169
928.267	3253
928.373	3778
928.479	3294
928.585	3055
928.69	3207
928.796	3329
928.901	3146
929.007	3055
929.112	3218
929.218	3169
929.323	3169
929.428	3138
929.533	3325
929.638	3123
929.743	3188
929.848	3260
929.953	3176
930.058	3169
930.163	2979
930.267	3047
930.372	3176
930.477	3077
930.581	3306
930.685	3131
930.79	3047
930.894	3100
930.998	3104
931.103	3283
931.207	2956
931.311	2925
931.415	2902
931.519	2743
931.623	2830
