Data from test_V78500241_44.txt Node
Date: Fri Mar 25 16:15:30 CST 2022
User: usil
Spectrometer: V785-0024
Trigger mode: 0
Integration Time (sec): 4.000000E-1
Scans to average: 1
Nonlinearity correction enabled: false
Boxcar width: 0
Storing dark spectrum: false
XAxis mode: Wavelengths
Number of Pixels in Spectrum: 1024
>>>>>Begin Spectral Data<<<<<
801.071	2941
801.214	2994
801.356	2922
801.499	2933
801.641	2914
801.783	2952
801.926	3058
802.068	2986
802.211	3028
802.353	3074
802.496	2990
802.638	3051
802.78	3039
802.923	3081
803.065	3013
803.208	2918
803.35	2960
803.492	2952
803.635	2933
803.777	2788
803.919	2883
804.061	3211
804.204	3001
804.346	2914
804.488	2876
804.63	3051
804.773	2902
804.915	2925
805.057	3043
805.199	2967
805.341	2998
805.483	3051
805.626	3032
805.768	3009
805.91	3127
806.052	3135
806.194	3058
806.336	3268
806.478	3032
806.62	2967
806.762	3024
806.904	3066
807.046	3199
807.188	3001
807.33	2906
807.472	3039
807.614	2933
807.756	3013
807.898	2982
808.04	2933
808.182	2986
808.324	2982
808.465	2918
808.607	2929
808.749	2849
808.891	2883
809.033	2982
809.174	3013
809.316	2922
809.458	2902
809.6	2785
809.741	2849
809.883	2811
810.025	2876
810.166	2895
810.308	2876
810.45	2864
810.591	2826
810.733	2777
810.875	2883
811.016	2804
811.158	2804
811.299	2826
811.441	2975
811.582	2963
811.724	2861
811.865	2861
812.007	2971
812.148	2910
812.29	2895
812.431	2925
812.573	2960
812.714	2994
812.855	3051
812.997	3093
813.138	3161
813.279	3062
813.421	2998
813.562	2990
813.703	2891
813.845	2887
813.986	2819
814.127	2766
814.268	2883
814.41	2872
814.551	2853
814.692	2910
814.833	2838
814.974	2910
815.115	2960
815.256	2895
815.397	2853
815.539	2880
815.68	2804
815.821	2800
815.962	2948
816.103	2975
816.244	2891
816.385	2895
816.526	3009
816.666	2941
816.807	2758
816.948	2914
817.089	2956
817.23	2895
817.371	2804
817.512	2811
817.653	2887
817.793	2807
817.934	2902
818.075	2986
818.216	2986
818.356	3055
818.497	2899
818.638	2788
818.778	2849
818.919	2845
819.06	2773
819.2	2864
819.341	2842
819.481	2777
819.622	2967
819.762	3131
819.903	3112
820.043	2937
820.184	2899
820.324	2922
820.465	3043
820.605	3047
820.746	3020
820.886	2982
821.026	3100
821.167	3188
821.307	3253
821.447	3325
821.588	3306
821.728	3264
821.868	3188
822.008	3104
822.149	3199
822.289	3233
822.429	3108
822.569	3116
822.709	3230
822.849	3070
822.99	3097
823.13	3192
823.27	3180
823.41	3157
823.55	3203
823.69	3157
823.83	3203
823.97	3119
824.11	3062
824.25	3058
824.389	3116
824.529	3154
824.669	3051
824.809	3203
824.949	3256
825.089	3256
825.228	3161
825.368	3036
825.508	3005
825.648	2979
825.787	3066
825.927	3055
826.067	2994
826.206	2998
826.346	3100
826.485	3116
826.625	3097
826.765	3291
826.904	3256
827.044	3024
827.183	2982
827.323	2952
827.462	3005
827.601	2979
827.741	2963
827.88	3005
828.02	2883
828.159	3036
828.298	3097
828.437	3180
828.577	3077
828.716	3283
828.855	3176
828.994	2967
829.134	2952
829.273	2982
829.412	2941
829.551	2899
829.69	2960
829.829	3058
829.968	3138
830.107	3066
830.246	3138
830.385	3005
830.524	2925
830.663	2883
830.802	2819
830.941	2731
831.08	2701
831.219	2823
831.357	2826
831.496	3017
831.635	2792
831.774	2720
831.913	2746
832.051	2625
832.19	2636
832.329	2735
832.467	2602
832.606	2571
832.744	2655
832.883	2587
833.022	2667
833.16	2716
833.299	2766
833.437	2762
833.576	2762
833.714	2800
833.852	2781
833.991	2842
834.129	2902
834.267	2887
834.406	2834
834.544	2906
834.682	2922
834.821	2948
834.959	3138
835.097	2979
835.235	3119
835.373	3070
835.511	3081
835.65	3062
835.788	3020
835.926	2864
836.064	2899
836.202	2941
836.34	3176
836.478	3256
836.615	3146
836.753	3222
836.891	3291
837.029	3287
837.167	3203
837.305	3138
837.443	3085
837.58	3036
837.718	3214
837.856	3161
837.993	3089
838.131	3199
838.269	3161
838.406	3199
838.544	3135
838.681	3017
838.819	2982
838.956	2895
839.094	2914
839.231	2986
839.369	3081
839.506	3473
839.643	3344
839.781	3043
839.918	3020
840.055	3142
840.193	3112
840.33	3146
840.467	3188
840.604	3211
840.742	3485
840.879	3127
841.016	3119
841.153	3161
841.29	3409
841.427	3389
841.564	3355
841.701	3370
841.838	3298
841.975	3203
842.112	3268
842.249	3180
842.385	3100
842.522	3336
842.659	3123
842.796	3157
842.933	3161
843.069	3127
843.206	3116
843.343	3283
843.479	3188
843.616	3199
843.752	3001
843.889	2933
844.025	3173
844.162	2948
844.298	3138
844.435	3043
844.571	2967
844.708	3154
844.844	3310
844.98	3325
845.117	3313
845.253	3131
845.389	3089
845.525	3173
845.661	3192
845.798	3089
845.934	3142
846.07	3093
846.206	3313
846.342	3378
846.478	3298
846.614	3192
846.75	3180
846.886	3108
847.022	3279
847.158	3211
847.294	3249
847.429	3329
847.565	3256
847.701	3568
847.837	3123
847.972	3039
848.108	3241
848.244	3241
848.379	3013
848.515	3028
848.65	2998
848.786	3047
848.921	3066
849.057	3188
849.192	3211
849.328	3135
849.463	3188
849.598	3146
849.734	3104
849.869	3058
850.004	2960
850.14	3020
850.275	2990
850.41	2899
850.545	2960
850.68	3036
850.815	3047
850.95	3028
851.085	3237
851.22	3211
851.355	3123
851.49	3013
851.625	3081
851.76	3077
851.895	3009
852.03	2967
852.165	3108
852.299	3180
852.434	3260
852.569	3237
852.703	3256
852.838	3321
852.973	3412
853.107	3401
853.242	3207
853.376	3176
853.511	3066
853.645	3127
853.78	3302
853.914	3165
854.048	3161
854.183	3188
854.317	3230
854.451	3386
854.585	3211
854.72	3173
854.854	3287
854.988	3127
855.122	3165
855.256	3036
855.39	3199
855.524	3287
855.658	3233
855.792	3237
855.926	3272
856.06	3329
856.194	3336
856.327	3211
856.461	3131
856.595	3154
856.729	3165
856.862	3275
856.996	3226
857.13	3275
857.263	3287
857.397	3344
857.53	3188
857.664	3256
857.797	3313
857.931	3351
858.064	3253
858.197	3291
858.331	3195
858.464	3154
858.597	3089
858.731	3176
858.864	3203
858.997	3173
859.13	3245
859.263	3283
859.396	3272
859.529	3150
859.662	3138
859.795	3131
859.928	3218
860.061	3332
860.194	3374
860.327	3195
860.46	3165
860.592	3275
860.725	3306
860.858	3336
860.99	3195
861.123	3138
861.256	3127
861.388	3218
861.521	3972
861.653	3100
861.786	3013
861.918	3062
862.05	3138
862.183	3180
862.315	3245
862.447	3256
862.58	3150
862.712	3020
862.844	2941
862.976	3112
863.108	3085
863.24	3359
863.372	2914
863.504	3024
863.636	3024
863.768	3058
863.9	3039
864.032	3001
864.164	2967
864.296	3074
864.428	3154
864.559	3165
864.691	3131
864.823	3131
864.954	3123
865.086	3131
865.217	3089
865.349	3020
865.48	3081
865.612	3112
865.743	3233
865.875	3036
866.006	3013
866.137	3077
866.269	3020
866.4	3032
866.531	2956
866.662	2922
866.793	2922
866.924	2998
867.055	3062
867.186	2971
867.317	2925
867.448	2918
867.579	2902
867.71	2899
867.841	2883
867.972	2941
868.103	2952
868.233	2956
868.364	2941
868.495	2960
868.625	3161
868.756	3245
868.886	3043
869.017	3085
869.147	3226
869.278	3226
869.408	3135
869.539	3081
869.669	3180
869.799	3119
869.929	3211
870.06	3199
870.19	3363
870.32	3344
870.45	3374
870.58	3401
870.71	3500
870.84	3496
870.97	3344
871.1	3291
871.23	3504
871.36	3561
871.489	3416
871.619	3439
871.749	3507
871.879	3538
872.008	3507
872.138	3450
872.267	3321
872.397	3199
872.526	3184
872.656	3085
872.785	3188
872.915	3310
873.044	3348
873.173	3287
873.303	3321
873.432	3310
873.561	3317
873.69	3226
873.819	3214
873.948	3260
874.077	3142
874.206	3108
874.335	3150
874.464	3291
874.593	3405
874.722	3302
874.851	3454
874.979	3424
875.108	3374
875.237	3226
875.365	3256
875.494	3233
875.623	3310
875.751	3150
875.88	3180
876.008	3226
876.136	3241
876.265	3443
876.393	3584
876.521	3477
876.65	3462
876.778	3397
876.906	3329
877.034	3233
877.162	3287
877.29	3233
877.418	3340
877.546	3302
877.674	3355
877.802	3317
877.93	3291
878.058	3195
878.185	3184
878.313	3279
878.441	3275
878.568	3123
878.696	3154
878.824	3287
878.951	3382
879.079	3515
879.206	3709
879.333	3485
879.461	3428
879.588	3450
879.715	3504
879.842	3663
879.97	3428
880.097	3230
880.224	3184
880.351	3222
880.478	3264
880.605	3275
880.732	3218
880.859	3549
880.986	3336
881.112	3344
881.239	3264
881.366	3138
881.493	3097
881.619	3077
881.746	3123
881.872	3154
881.999	3173
882.125	3218
882.252	3310
882.378	3359
882.505	3481
882.631	3359
882.757	3249
882.883	3268
883.01	3298
883.136	3211
883.262	3165
883.388	3154
883.514	3420
883.64	3389
883.766	3382
883.892	3214
884.018	3294
884.143	3462
884.269	3584
884.395	3264
884.52	3253
884.646	3245
884.772	3165
884.897	3146
885.023	3245
885.148	3412
885.274	3488
885.399	3447
885.524	3306
885.65	3340
885.775	3374
885.9	3370
886.025	3534
886.15	3435
886.275	3367
886.4	3336
886.525	3336
886.65	3317
886.775	3325
886.9	3534
887.025	3720
887.149	3507
887.274	3317
887.399	3218
887.523	3294
887.648	3256
887.773	3253
887.897	3469
888.021	3507
888.146	3325
888.27	3477
888.395	3606
888.519	3477
888.643	3511
888.767	3523
888.891	3389
889.015	3310
889.139	3355
889.263	3302
889.387	3488
889.511	3568
889.635	3526
889.759	3363
889.883	3355
890.006	3443
890.13	3545
890.254	3336
890.377	3412
890.501	3272
890.624	3237
890.748	3367
890.871	3211
890.995	3131
891.118	3112
891.241	3211
891.364	3272
891.488	3370
891.611	3241
891.734	3272
891.857	3325
891.98	3272
892.103	3382
892.226	3344
892.349	3275
892.471	3184
892.594	3321
892.717	3340
892.839	3321
892.962	3348
893.085	3428
893.207	3340
893.33	3207
893.452	3351
893.575	3370
893.697	3321
893.819	3557
893.941	3599
894.064	3511
894.186	3344
894.308	3340
894.43	3496
894.552	3584
894.674	3545
894.796	3302
894.918	3374
895.04	3367
895.161	3519
895.283	3439
895.405	3340
895.526	3428
895.648	3492
895.769	3492
895.891	3515
896.012	3515
896.134	3538
896.255	3454
896.376	3492
896.498	3397
896.619	3466
896.74	3401
896.861	3405
896.982	3740
897.103	3907
897.224	3656
897.345	3545
897.466	3458
897.587	3523
897.708	3720
897.828	3614
897.949	3481
898.07	3401
898.19	3443
898.311	3686
898.431	3530
898.552	3576
898.672	3648
898.792	3660
898.913	3603
899.033	3458
899.153	3367
899.273	3260
899.393	3310
899.513	3370
899.633	3340
899.753	3363
899.873	3351
899.993	3424
900.113	3374
900.232	3443
900.352	3367
900.472	3374
900.591	3268
900.711	3306
900.83	3291
900.95	3507
901.069	3526
901.189	3386
901.308	3218
901.427	3169
901.546	3268
901.665	3325
901.784	3401
901.904	3249
902.023	3180
902.141	3047
902.26	3051
902.379	3203
902.498	3119
902.617	3108
902.735	3249
902.854	3306
902.973	3291
903.091	3097
903.21	3154
903.328	3203
903.446	3188
903.565	3173
903.683	3264
903.801	3150
903.919	3294
904.038	3348
904.156	3256
904.274	3344
904.392	3313
904.51	3351
904.627	3401
904.745	3507
904.863	3587
904.981	3332
905.098	3260
905.216	3298
905.334	3393
905.451	3367
905.569	3401
905.686	3553
905.803	3564
905.921	3382
906.038	3500
906.155	3443
906.272	3351
906.389	3435
906.506	3317
906.623	3336
906.74	3321
906.857	3256
906.974	3321
907.091	3542
907.208	3618
907.324	3591
907.441	3469
907.557	3348
907.674	3351
907.79	3294
907.907	3386
908.023	3454
908.139	3504
908.256	3439
908.372	3450
908.488	3428
908.604	3393
908.72	3321
908.836	3393
908.952	3386
909.068	3466
909.184	3561
909.3	3481
909.415	3564
909.531	3561
909.647	3363
909.762	3401
909.878	3363
909.993	3397
910.108	3443
910.224	3416
910.339	3500
910.454	3447
910.57	3393
910.685	3306
910.8	3660
910.915	3610
911.03	3542
911.145	3355
911.259	3340
911.374	3412
911.489	3310
911.604	3306
911.718	3226
911.833	3264
911.947	3077
912.062	3074
912.176	3275
912.291	3302
912.405	3306
912.519	3511
912.633	3572
912.748	3397
912.862	3355
912.976	3256
913.09	3150
913.204	3230
913.318	3310
913.431	3454
913.545	3431
913.659	3507
913.772	3420
913.886	3291
914	3279
914.113	3447
914.226	3523
914.34	3443
914.453	3298
914.566	3492
914.68	3382
914.793	3405
914.906	3192
915.019	3211
915.132	3169
915.245	3237
915.358	3291
915.47	3332
915.583	3378
915.696	3431
915.809	3454
915.921	3507
916.034	3336
916.146	3359
916.259	3253
916.371	3409
916.483	3454
916.595	3317
916.708	3450
916.82	3412
916.932	3420
917.044	3401
917.156	3454
917.268	3348
917.38	3355
917.491	3397
917.603	3443
917.715	3549
917.826	3530
917.938	3492
918.049	3382
918.161	3511
918.272	3675
918.384	3633
918.495	3561
918.606	3435
918.717	3363
918.828	3428
918.939	3488
919.05	3359
919.161	3443
919.272	3264
919.383	3367
919.494	3572
919.604	3717
919.715	3542
919.826	3515
919.936	3553
920.047	3614
920.157	3641
920.267	3850
920.378	3701
920.488	3644
920.598	3888
920.708	4040
920.818	3873
920.928	3896
921.038	4109
921.148	4059
921.258	3785
921.368	3717
921.477	3633
921.587	3625
921.697	3526
921.806	3732
921.916	3587
922.025	3450
922.134	3450
922.244	3393
922.353	3515
922.462	3321
922.571	3294
922.68	3184
922.789	3123
922.898	3275
923.007	3142
923.116	3287
923.224	3275
923.333	3313
923.442	3184
923.55	3188
923.659	3180
923.767	3283
923.876	3192
923.984	3359
924.092	3237
924.201	3275
924.309	3321
924.417	3340
924.525	3253
924.633	3313
924.741	4303
924.849	3097
924.956	3313
925.064	3150
925.172	3100
925.279	3222
925.387	3279
925.494	3268
925.602	3439
925.709	3397
925.816	3268
925.924	3370
926.031	3428
926.138	3405
926.245	3420
926.352	3340
926.459	3450
926.566	3580
926.673	3397
926.779	3310
926.886	3329
926.993	3214
927.099	3176
927.206	3161
927.312	3169
927.419	3298
927.525	3287
927.631	3317
927.737	3203
927.843	3211
927.95	3085
928.056	3241
928.162	3249
928.267	3367
928.373	3865
928.479	3386
928.585	3131
928.69	3272
928.796	3359
928.901	3222
929.007	3127
929.112	3302
929.218	3237
929.323	3214
929.428	3230
929.533	3420
929.638	3207
929.743	3287
929.848	3325
929.953	3283
930.058	3214
930.163	3085
930.267	3135
930.372	3272
930.477	3127
930.581	3378
930.685	3275
930.79	3119
930.894	3161
930.998	3195
931.103	3389
931.207	3058
931.311	3013
931.415	3001
931.519	2845
931.623	2842
