Data from test_V78500241_1911.txt Node
Date: Fri Mar 25 16:28:26 CST 2022
User: usil
Spectrometer: V785-0024
Trigger mode: 0
Integration Time (sec): 4.000000E-1
Scans to average: 1
Nonlinearity correction enabled: false
Boxcar width: 0
Storing dark spectrum: false
XAxis mode: Wavelengths
Number of Pixels in Spectrum: 1024
>>>>>Begin Spectral Data<<<<<
801.071	2971
801.214	2967
801.356	2910
801.499	2952
801.641	2902
801.783	2925
801.926	3085
802.068	3013
802.211	3047
802.353	3051
802.496	3009
802.638	3036
802.78	3036
802.923	3112
803.065	2994
803.208	2944
803.35	2922
803.492	2986
803.635	2937
803.777	2773
803.919	2880
804.061	3237
804.204	2982
804.346	2948
804.488	2857
804.63	3020
804.773	2872
804.915	2941
805.057	3116
805.199	2990
805.341	3039
805.483	3104
805.626	3062
805.768	2994
805.91	3119
806.052	3173
806.194	3051
806.336	3237
806.478	3043
806.62	2956
806.762	2998
806.904	3047
807.046	3176
807.188	2979
807.33	2933
807.472	3020
807.614	2925
807.756	3032
807.898	2948
808.04	2922
808.182	2971
808.324	3020
808.465	2906
808.607	2937
808.749	2811
808.891	2845
809.033	3001
809.174	2994
809.316	2925
809.458	2891
809.6	2781
809.741	2758
809.883	2842
810.025	2849
810.166	2876
810.308	2857
810.45	2872
810.591	2796
810.733	2796
810.875	2857
811.016	2788
811.158	2762
811.299	2868
811.441	2990
811.582	2960
811.724	2815
811.865	2864
812.007	2918
812.148	2883
812.29	2845
812.431	2887
812.573	2967
812.714	2986
812.855	3077
812.997	3028
813.138	3131
813.279	3005
813.421	3020
813.562	2986
813.703	2864
813.845	2883
813.986	2781
814.127	2739
814.268	2834
814.41	2880
814.551	2849
814.692	2933
814.833	2807
814.974	2929
815.115	3043
815.256	2861
815.397	2872
815.539	2883
815.68	2804
815.821	2800
815.962	2944
816.103	2918
816.244	2918
816.385	2895
816.526	3001
816.666	2948
816.807	2792
816.948	2902
817.089	2902
817.23	2849
817.371	2819
817.512	2804
817.653	2880
817.793	2804
817.934	2910
818.075	2998
818.216	3009
818.356	3055
818.497	2914
818.638	2823
818.778	2807
818.919	2838
819.06	2788
819.2	2876
819.341	2830
819.481	2807
819.622	2963
819.762	3138
819.903	3058
820.043	2948
820.184	2937
820.324	2861
820.465	3047
820.605	3039
820.746	3032
820.886	2929
821.026	3135
821.167	3157
821.307	3268
821.447	3256
821.588	3260
821.728	3199
821.868	3188
822.008	3081
822.149	3211
822.289	3211
822.429	3070
822.569	3093
822.709	3173
822.849	3036
822.99	3097
823.13	3169
823.27	3211
823.41	3165
823.55	3123
823.69	3150
823.83	3245
823.97	3135
824.11	2990
824.25	2994
824.389	3074
824.529	3108
824.669	3074
824.809	3203
824.949	3272
825.089	3233
825.228	3199
825.368	3043
825.508	2952
825.648	2975
825.787	3024
825.927	3062
826.067	2967
826.206	2994
826.346	3043
826.485	3074
826.625	3131
826.765	3283
826.904	3199
827.044	3001
827.183	2952
827.323	2895
827.462	2998
827.601	2937
827.741	2941
827.88	2990
828.02	2861
828.159	2982
828.298	3058
828.437	3112
828.577	3036
828.716	3256
828.855	3100
828.994	2883
829.134	2902
829.273	2956
829.412	2891
829.551	2868
829.69	2899
829.829	2986
829.968	3169
830.107	3047
830.246	3032
830.385	2922
830.524	2906
830.663	2842
830.802	2773
830.941	2648
831.08	2686
831.219	2785
831.357	2735
831.496	2971
831.635	2708
831.774	2632
831.913	2663
832.051	2541
832.19	2556
832.329	2701
832.467	2579
832.606	2484
832.744	2575
832.883	2579
833.022	2598
833.16	2674
833.299	2727
833.437	2712
833.576	2701
833.714	2708
833.852	2758
833.991	2800
834.129	2857
834.267	2834
834.406	2804
834.544	2883
834.682	2880
834.821	2876
834.959	3085
835.097	2944
835.235	3077
835.373	2994
835.511	3005
835.65	2967
835.788	3009
835.926	2861
836.064	2804
836.202	2861
836.34	3066
836.478	3146
836.615	3005
836.753	3142
836.891	3211
837.029	3192
837.167	3100
837.305	3127
837.443	3020
837.58	2975
837.718	3116
837.856	3066
837.993	3020
838.131	3085
838.269	3123
838.406	3097
838.544	3070
838.681	2971
838.819	2998
838.956	2785
839.094	2849
839.231	2937
839.369	3017
839.506	3363
839.643	3249
839.781	3009
839.918	2960
840.055	3055
840.193	3043
840.33	3077
840.467	3123
840.604	3173
840.742	3389
840.879	3028
841.016	3055
841.153	3127
841.29	3329
841.427	3291
841.564	3283
841.701	3283
841.838	3211
841.975	3173
842.112	3211
842.249	3112
842.385	3039
842.522	3260
842.659	3119
842.796	3081
842.933	3116
843.069	3051
843.206	3051
843.343	3192
843.479	3108
843.616	3154
843.752	2872
843.889	2857
844.025	3062
844.162	2887
844.298	3089
844.435	2944
844.571	2902
844.708	3077
844.844	3203
844.98	3233
845.117	3203
845.253	3062
845.389	3001
845.525	3089
845.661	3142
845.798	3020
845.934	3089
846.07	3032
846.206	3218
846.342	3279
846.478	3241
846.614	3116
846.75	3051
846.886	3039
847.022	3230
847.158	3142
847.294	3176
847.429	3237
847.565	3203
847.701	3481
847.837	3043
847.972	2952
848.108	3169
848.244	3127
848.379	2971
848.515	2922
848.65	2944
848.786	2960
848.921	3001
849.057	3116
849.192	3165
849.328	3051
849.463	3104
849.598	3108
849.734	3055
849.869	2948
850.004	2922
850.14	2971
850.275	2914
850.41	2842
850.545	2899
850.68	2933
850.815	2944
850.95	3009
851.085	3214
851.22	3127
851.355	3043
851.49	2990
851.625	3024
851.76	3009
851.895	2914
852.03	2948
852.165	3081
852.299	3169
852.434	3226
852.569	3195
852.703	3195
852.838	3298
852.973	3397
853.107	3340
853.242	3188
853.376	3131
853.511	3001
853.645	3077
853.78	3310
853.914	3119
854.048	3138
854.183	3116
854.317	3176
854.451	3317
854.585	3176
854.72	3119
854.854	3268
854.988	3097
855.122	3127
855.256	3001
855.39	3119
855.524	3275
855.658	3203
855.792	3211
855.926	3241
856.06	3256
856.194	3275
856.327	3233
856.461	3074
856.595	3112
856.729	3154
856.862	3264
856.996	3230
857.13	3264
857.263	3260
857.397	3317
857.53	3161
857.664	3279
857.797	3313
857.931	3287
858.064	3218
858.197	3260
858.331	3161
858.464	3127
858.597	3032
858.731	3150
858.864	3173
858.997	3127
859.13	3214
859.263	3218
859.396	3226
859.529	3127
859.662	3138
859.795	3085
859.928	3173
860.061	3283
860.194	3336
860.327	3169
860.46	3104
860.592	3287
860.725	3279
860.858	3340
860.99	3127
861.123	3100
861.256	3070
861.388	3165
861.521	3876
861.653	3081
861.786	3028
861.918	3036
862.05	3108
862.183	3138
862.315	3184
862.447	3218
862.58	3157
862.712	3009
862.844	2899
862.976	3036
863.108	3047
863.24	3382
863.372	2963
863.504	3032
863.636	2998
863.768	3051
863.9	3036
864.032	2918
864.164	2979
864.296	3039
864.428	3165
864.559	3157
864.691	3119
864.823	3085
864.954	3070
865.086	3070
865.217	3062
865.349	2982
865.48	3043
865.612	3020
865.743	3207
865.875	3017
866.006	2994
866.137	3024
866.269	2994
866.4	2979
866.531	2929
866.662	2933
866.793	2902
866.924	2929
867.055	2986
867.186	2971
867.317	2918
867.448	2868
867.579	2868
867.71	2880
867.841	2849
867.972	2937
868.103	2937
868.233	2922
868.364	2941
868.495	2952
868.625	3112
868.756	3195
868.886	3005
869.017	3062
869.147	3203
869.278	3199
869.408	3093
869.539	3058
869.669	3116
869.799	3077
869.929	3161
870.06	3142
870.19	3336
870.32	3329
870.45	3344
870.58	3424
870.71	3515
870.84	3500
870.97	3359
871.1	3260
871.23	3492
871.36	3496
871.489	3363
871.619	3431
871.749	3458
871.879	3435
872.008	3485
872.138	3431
872.267	3279
872.397	3154
872.526	3116
872.656	3013
872.785	3146
872.915	3241
873.044	3321
873.173	3241
873.303	3245
873.432	3306
873.561	3245
873.69	3184
873.819	3195
873.948	3222
874.077	3173
874.206	3127
874.335	3081
874.464	3211
874.593	3329
874.722	3321
874.851	3420
874.979	3359
875.108	3374
875.237	3237
875.365	3199
875.494	3165
875.623	3302
875.751	3108
875.88	3138
876.008	3218
876.136	3275
876.265	3382
876.393	3561
876.521	3424
876.65	3428
876.778	3367
876.906	3287
877.034	3222
877.162	3249
877.29	3195
877.418	3222
877.546	3256
877.674	3241
877.802	3253
877.93	3256
878.058	3173
878.185	3116
878.313	3233
878.441	3245
878.568	3135
878.696	3169
878.824	3329
878.951	3310
879.079	3420
879.206	3633
879.333	3447
879.461	3344
879.588	3374
879.715	3492
879.842	3618
879.97	3393
880.097	3180
880.224	3112
880.351	3226
880.478	3230
880.605	3203
880.732	3237
880.859	3557
880.986	3329
881.112	3325
881.239	3226
881.366	3142
881.493	3036
881.619	3066
881.746	3131
881.872	3119
881.999	3119
882.125	3161
882.252	3249
882.378	3310
882.505	3485
882.631	3291
882.757	3154
882.883	3241
883.01	3245
883.136	3199
883.262	3116
883.388	3138
883.514	3332
883.64	3439
883.766	3329
883.892	3230
884.018	3268
884.143	3443
884.269	3599
884.395	3218
884.52	3203
884.646	3214
884.772	3157
884.897	3108
885.023	3207
885.148	3348
885.274	3412
885.399	3393
885.524	3348
885.65	3287
885.775	3340
885.9	3256
886.025	3466
886.15	3336
886.275	3329
886.4	3264
886.525	3321
886.65	3306
886.775	3344
886.9	3545
887.025	3667
887.149	3424
887.274	3256
887.399	3211
887.523	3233
887.648	3184
887.773	3211
887.897	3378
888.021	3473
888.146	3306
888.27	3450
888.395	3538
888.519	3466
888.643	3458
888.767	3511
888.891	3367
889.015	3283
889.139	3317
889.263	3275
889.387	3424
889.511	3504
889.635	3492
889.759	3325
889.883	3310
890.006	3424
890.13	3523
890.254	3253
890.377	3359
890.501	3195
890.624	3245
890.748	3367
890.871	3230
890.995	3097
891.118	3100
891.241	3214
891.364	3249
891.488	3336
891.611	3214
891.734	3245
891.857	3279
891.98	3291
892.103	3359
892.226	3287
892.349	3249
892.471	3119
892.594	3233
892.717	3310
892.839	3275
892.962	3298
893.085	3397
893.207	3340
893.33	3150
893.452	3264
893.575	3359
893.697	3272
893.819	3515
893.941	3496
894.064	3504
894.186	3310
894.308	3283
894.43	3485
894.552	3530
894.674	3485
894.796	3310
894.918	3291
895.04	3321
895.161	3477
895.283	3431
895.405	3298
895.526	3401
895.648	3473
895.769	3439
895.891	3507
896.012	3488
896.134	3504
896.255	3378
896.376	3416
896.498	3401
896.619	3458
896.74	3397
896.861	3428
896.982	3724
897.103	3873
897.224	3618
897.345	3534
897.466	3439
897.587	3488
897.708	3648
897.828	3564
897.949	3439
898.07	3370
898.19	3450
898.311	3633
898.431	3462
898.552	3488
898.672	3652
898.792	3587
898.913	3568
899.033	3462
899.153	3310
899.273	3207
899.393	3325
899.513	3329
899.633	3336
899.753	3351
899.873	3378
899.993	3393
900.113	3317
900.232	3416
900.352	3382
900.472	3336
900.591	3245
900.711	3329
900.83	3249
900.95	3405
901.069	3477
901.189	3363
901.308	3165
901.427	3142
901.546	3207
901.665	3313
901.784	3325
901.904	3233
902.023	3176
902.141	3001
902.26	3009
902.379	3192
902.498	3070
902.617	3017
902.735	3218
902.854	3249
902.973	3218
903.091	3077
903.21	3077
903.328	3169
903.446	3138
903.565	3135
903.683	3195
903.801	3123
903.919	3245
904.038	3317
904.156	3146
904.274	3294
904.392	3275
904.51	3302
904.627	3344
904.745	3469
904.863	3534
904.981	3279
905.098	3211
905.216	3218
905.334	3317
905.451	3279
905.569	3363
905.686	3450
905.803	3443
905.921	3310
906.038	3428
906.155	3340
906.272	3283
906.389	3336
906.506	3241
906.623	3268
906.74	3287
906.857	3176
906.974	3275
907.091	3443
907.208	3568
907.324	3488
907.441	3393
907.557	3226
907.674	3264
907.79	3245
907.907	3287
908.023	3420
908.139	3382
908.256	3389
908.372	3401
908.488	3344
908.604	3275
908.72	3268
908.836	3275
908.952	3317
909.068	3351
909.184	3534
909.3	3405
909.415	3511
909.531	3458
909.647	3283
909.762	3298
909.878	3325
909.993	3386
910.108	3367
910.224	3374
910.339	3443
910.454	3336
910.57	3302
910.685	3230
910.8	3625
910.915	3530
911.03	3393
911.145	3321
911.259	3279
911.374	3351
911.489	3245
911.604	3245
911.718	3146
911.833	3154
911.947	3028
912.062	3005
912.176	3173
912.291	3199
912.405	3245
912.519	3424
912.633	3473
912.748	3351
912.862	3275
912.976	3161
913.09	3100
913.204	3146
913.318	3214
913.431	3367
913.545	3329
913.659	3439
913.772	3370
913.886	3214
914	3230
914.113	3351
914.226	3397
914.34	3382
914.453	3222
914.566	3412
914.68	3329
914.793	3332
914.906	3135
915.019	3146
915.132	3093
915.245	3192
915.358	3203
915.47	3222
915.583	3279
915.696	3291
915.809	3424
915.921	3405
916.034	3268
916.146	3260
916.259	3211
916.371	3405
916.483	3378
916.595	3298
916.708	3348
916.82	3344
916.932	3310
917.044	3378
917.156	3348
917.268	3268
917.38	3336
917.491	3298
917.603	3355
917.715	3447
917.826	3435
917.938	3378
918.049	3302
918.161	3397
918.272	3584
918.384	3580
918.495	3473
918.606	3306
918.717	3272
918.828	3397
918.939	3447
919.05	3340
919.161	3401
919.272	3192
919.383	3321
919.494	3500
919.604	3679
919.715	3500
919.826	3416
919.936	3481
920.047	3553
920.157	3553
920.267	3751
920.378	3663
920.488	3591
920.598	3842
920.708	3918
920.818	3819
920.928	3850
921.038	4006
921.148	3994
921.258	3701
921.368	3648
921.477	3587
921.587	3591
921.697	3466
921.806	3637
921.916	3564
922.025	3363
922.134	3386
922.244	3332
922.353	3443
922.462	3249
922.571	3214
922.68	3104
922.789	3085
922.898	3135
923.007	3131
923.116	3245
923.224	3176
923.333	3161
923.442	3116
923.55	3097
923.659	3169
923.767	3222
923.876	3131
923.984	3195
924.092	3074
924.201	3203
924.309	3218
924.417	3302
924.525	3211
924.633	3279
924.741	4040
924.849	3043
924.956	3253
925.064	3116
925.172	3051
925.279	3127
925.387	3218
925.494	3214
925.602	3370
925.709	3317
925.816	3184
925.924	3283
926.031	3351
926.138	3325
926.245	3382
926.352	3241
926.459	3393
926.566	3458
926.673	3298
926.779	3237
926.886	3245
926.993	3154
927.099	3108
927.206	3112
927.312	3093
927.419	3233
927.525	3207
927.631	3287
927.737	3176
927.843	3108
927.95	3039
928.056	3131
928.162	3192
928.267	3237
928.373	3880
928.479	3325
928.585	3066
928.69	3184
928.796	3321
928.901	3169
929.007	3062
929.112	3241
929.218	3176
929.323	3146
929.428	3135
929.533	3336
929.638	3123
929.743	3150
929.848	3249
929.953	3211
930.058	3131
930.163	2986
930.267	3085
930.372	3222
930.477	3020
930.581	3298
930.685	3199
930.79	3070
930.894	3116
930.998	3104
931.103	3294
931.207	2975
931.311	2929
931.415	2933
931.519	2785
931.623	2800
