Data from test_V78500241_247.txt Node
Date: Fri Mar 25 16:16:54 CST 2022
User: usil
Spectrometer: V785-0024
Trigger mode: 0
Integration Time (sec): 4.000000E-1
Scans to average: 1
Nonlinearity correction enabled: false
Boxcar width: 0
Storing dark spectrum: false
XAxis mode: Wavelengths
Number of Pixels in Spectrum: 1024
>>>>>Begin Spectral Data<<<<<
801.071	2963
801.214	2963
801.356	2906
801.499	2979
801.641	2918
801.783	2986
801.926	3074
802.068	2982
802.211	2994
802.353	3093
802.496	3009
802.638	3047
802.78	3089
802.923	3097
803.065	3036
803.208	2918
803.35	2960
803.492	2948
803.635	2971
803.777	2773
803.919	2880
804.061	3214
804.204	2982
804.346	2922
804.488	2918
804.63	2998
804.773	2891
804.915	2929
805.057	3112
805.199	2948
805.341	2990
805.483	3058
805.626	3036
805.768	2990
805.91	3081
806.052	3127
806.194	3077
806.336	3264
806.478	3039
806.62	2990
806.762	2998
806.904	3051
807.046	3192
807.188	3013
807.33	2956
807.472	3039
807.614	2944
807.756	3001
807.898	2952
808.04	2902
808.182	2967
808.324	2967
808.465	2929
808.607	2861
808.749	2811
808.891	2861
809.033	3005
809.174	2994
809.316	2891
809.458	2887
809.6	2819
809.741	2792
809.883	2781
810.025	2883
810.166	2880
810.308	2868
810.45	2868
810.591	2796
810.733	2777
810.875	2834
811.016	2826
811.158	2754
811.299	2845
811.441	2937
811.582	2902
811.724	2804
811.865	2853
812.007	2948
812.148	2891
812.29	2857
812.431	2948
812.573	2948
812.714	2994
812.855	3074
812.997	3047
813.138	3112
813.279	3013
813.421	2963
813.562	3001
813.703	2880
813.845	2864
813.986	2807
814.127	2724
814.268	2792
814.41	2849
814.551	2811
814.692	2899
814.833	2834
814.974	2941
815.115	2956
815.256	2891
815.397	2838
815.539	2918
815.68	2766
815.821	2819
815.962	2944
816.103	2948
816.244	2902
816.385	2899
816.526	2975
816.666	2960
816.807	2788
816.948	2906
817.089	2929
817.23	2880
817.371	2777
817.512	2811
817.653	2849
817.793	2857
817.934	2883
818.075	2986
818.216	3020
818.356	3032
818.497	2880
818.638	2826
818.778	2834
818.919	2823
819.06	2819
819.2	2906
819.341	2838
819.481	2800
819.622	2925
819.762	3085
819.903	3032
820.043	2971
820.184	2925
820.324	2918
820.465	3020
820.605	3020
820.746	3085
820.886	2948
821.026	3146
821.167	3188
821.307	3256
821.447	3317
821.588	3253
821.728	3218
821.868	3199
822.008	3112
822.149	3169
822.289	3214
822.429	3112
822.569	3074
822.709	3192
822.849	3062
822.99	3074
823.13	3169
823.27	3169
823.41	3112
823.55	3188
823.69	3192
823.83	3161
823.97	3150
824.11	3013
824.25	3020
824.389	3036
824.529	3135
824.669	3081
824.809	3226
824.949	3230
825.089	3222
825.228	3146
825.368	2990
825.508	2960
825.648	2963
825.787	3005
825.927	3032
826.067	2963
826.206	2998
826.346	3039
826.485	3089
826.625	3119
826.765	3302
826.904	3199
827.044	2979
827.183	2963
827.323	2868
827.462	3013
827.601	2914
827.741	2948
827.88	2952
828.02	2883
828.159	2956
828.298	3123
828.437	3169
828.577	3074
828.716	3233
828.855	3085
828.994	2944
829.134	2910
829.273	2956
829.412	2853
829.551	2838
829.69	2925
829.829	2998
829.968	3165
830.107	3032
830.246	3043
830.385	2944
830.524	2902
830.663	2807
830.802	2758
830.941	2697
831.08	2674
831.219	2769
831.357	2754
831.496	2944
831.635	2750
831.774	2636
831.913	2651
832.051	2590
832.19	2579
832.329	2689
832.467	2541
832.606	2484
832.744	2564
832.883	2575
833.022	2606
833.16	2606
833.299	2689
833.437	2705
833.576	2720
833.714	2720
833.852	2739
833.991	2758
834.129	2845
834.267	2815
834.406	2830
834.544	2857
834.682	2883
834.821	2880
834.959	3074
835.097	2902
835.235	3055
835.373	2967
835.511	3043
835.65	2960
835.788	2986
835.926	2815
836.064	2830
836.202	2853
836.34	3119
836.478	3176
836.615	3039
836.753	3108
836.891	3222
837.029	3184
837.167	3100
837.305	3070
837.443	3039
837.58	2952
837.718	3123
837.856	3066
837.993	3043
838.131	3108
838.269	3089
838.406	3138
838.544	3116
838.681	2994
838.819	2941
838.956	2826
839.094	2811
839.231	2937
839.369	3028
839.506	3397
839.643	3230
839.781	3047
839.918	2979
840.055	3062
840.193	3062
840.33	3070
840.467	3127
840.604	3142
840.742	3447
840.879	3081
841.016	3081
841.153	3123
841.29	3313
841.427	3302
841.564	3264
841.701	3302
841.838	3214
841.975	3195
842.112	3230
842.249	3074
842.385	3024
842.522	3230
842.659	3104
842.796	3039
842.933	3142
843.069	3058
843.206	3051
843.343	3184
843.479	3116
843.616	3173
843.752	2910
843.889	2857
844.025	3074
844.162	2910
844.298	3108
844.435	2963
844.571	2902
844.708	3066
844.844	3207
844.98	3264
845.117	3176
845.253	3047
845.389	3039
845.525	3104
845.661	3131
845.798	3028
845.934	3138
846.07	3062
846.206	3226
846.342	3332
846.478	3211
846.614	3081
846.75	3074
846.886	3024
847.022	3245
847.158	3119
847.294	3199
847.429	3253
847.565	3195
847.701	3511
847.837	3024
847.972	3013
848.108	3154
848.244	3169
848.379	2990
848.515	2975
848.65	2960
848.786	2975
848.921	3013
849.057	3161
849.192	3108
849.328	3074
849.463	3097
849.598	3074
849.734	3047
849.869	2956
850.004	2960
850.14	2960
850.275	2941
850.41	2823
850.545	2891
850.68	2952
850.815	2933
850.95	2994
851.085	3203
851.22	3093
851.355	3043
851.49	3009
851.625	3028
851.76	3051
851.895	2944
852.03	2899
852.165	3032
852.299	3116
852.434	3222
852.569	3123
852.703	3169
852.838	3294
852.973	3317
853.107	3355
853.242	3154
853.376	3089
853.511	2975
853.645	3051
853.78	3230
853.914	3157
854.048	3169
854.183	3093
854.317	3123
854.451	3291
854.585	3127
854.72	3066
854.854	3192
854.988	3058
855.122	3135
855.256	2948
855.39	3112
855.524	3253
855.658	3180
855.792	3173
855.926	3211
856.06	3230
856.194	3241
856.327	3173
856.461	3108
856.595	3093
856.729	3142
856.862	3230
856.996	3161
857.13	3188
857.263	3241
857.397	3253
857.53	3097
857.664	3188
857.797	3230
857.931	3268
858.064	3199
858.197	3199
858.331	3104
858.464	3085
858.597	3005
858.731	3135
858.864	3138
858.997	3108
859.13	3150
859.263	3207
859.396	3241
859.529	3112
859.662	3112
859.795	3028
859.928	3142
860.061	3275
860.194	3275
860.327	3161
860.46	3097
860.592	3226
860.725	3226
860.858	3279
860.99	3138
861.123	3051
861.256	3093
861.388	3192
861.521	3861
861.653	3020
861.786	2986
861.918	2994
862.05	3055
862.183	3131
862.315	3184
862.447	3237
862.58	3123
862.712	2952
862.844	2868
862.976	3024
863.108	3032
863.24	3294
863.372	2918
863.504	2956
863.636	2952
863.768	3047
863.9	2982
864.032	2895
864.164	2948
864.296	3005
864.428	3085
864.559	3123
864.691	3058
864.823	3039
864.954	3043
865.086	3032
865.217	2990
865.349	2948
865.48	3001
865.612	3043
865.743	3146
865.875	3028
866.006	2944
866.137	2956
866.269	2948
866.4	2906
866.531	2952
866.662	2918
866.793	2902
866.924	2910
867.055	2979
867.186	2918
867.317	2914
867.448	2872
867.579	2857
867.71	2876
867.841	2857
867.972	2910
868.103	2906
868.233	2861
868.364	2868
868.495	2918
868.625	3116
868.756	3161
868.886	2979
869.017	3009
869.147	3192
869.278	3127
869.408	3020
869.539	3043
869.669	3108
869.799	3074
869.929	3169
870.06	3127
870.19	3294
870.32	3283
870.45	3317
870.58	3370
870.71	3458
870.84	3412
870.97	3283
871.1	3256
871.23	3447
871.36	3443
871.489	3340
871.619	3397
871.749	3409
871.879	3435
872.008	3504
872.138	3359
872.267	3287
872.397	3150
872.526	3119
872.656	3020
872.785	3104
872.915	3237
873.044	3279
873.173	3226
873.303	3253
873.432	3245
873.561	3230
873.69	3150
873.819	3169
873.948	3211
874.077	3104
874.206	3055
874.335	3085
874.464	3233
874.593	3351
874.722	3207
874.851	3424
874.979	3351
875.108	3325
875.237	3184
875.365	3180
875.494	3176
875.623	3249
875.751	3085
875.88	3097
876.008	3165
876.136	3222
876.265	3405
876.393	3534
876.521	3428
876.65	3382
876.778	3313
876.906	3249
877.034	3199
877.162	3237
877.29	3184
877.418	3233
877.546	3279
877.674	3211
877.802	3272
877.93	3245
878.058	3123
878.185	3123
878.313	3211
878.441	3253
878.568	3058
878.696	3135
878.824	3222
878.951	3279
879.079	3500
879.206	3584
879.333	3420
879.461	3302
879.588	3389
879.715	3488
879.842	3595
879.97	3340
880.097	3176
880.224	3131
880.351	3188
880.478	3264
880.605	3207
880.732	3176
880.859	3485
880.986	3340
881.112	3321
881.239	3192
881.366	3089
881.493	3001
881.619	3028
881.746	3100
881.872	3112
881.999	3161
882.125	3142
882.252	3230
882.378	3272
882.505	3435
882.631	3291
882.757	3165
882.883	3165
883.01	3226
883.136	3146
883.262	3097
883.388	3150
883.514	3313
883.64	3386
883.766	3386
883.892	3173
884.018	3233
884.143	3412
884.269	3549
884.395	3199
884.52	3138
884.646	3207
884.772	3135
884.897	3089
885.023	3214
885.148	3367
885.274	3393
885.399	3336
885.524	3272
885.65	3291
885.775	3306
885.9	3272
886.025	3435
886.15	3355
886.275	3283
886.4	3279
886.525	3294
886.65	3253
886.775	3275
886.9	3523
887.025	3629
887.149	3428
887.274	3275
887.399	3176
887.523	3195
887.648	3192
887.773	3214
887.897	3386
888.021	3401
888.146	3325
888.27	3488
888.395	3526
888.519	3462
888.643	3443
888.767	3485
888.891	3348
889.015	3241
889.139	3283
889.263	3230
889.387	3405
889.511	3542
889.635	3447
889.759	3283
889.883	3298
890.006	3389
890.13	3530
890.254	3249
890.377	3317
890.501	3165
890.624	3199
890.748	3298
890.871	3203
890.995	3097
891.118	3085
891.241	3203
891.364	3211
891.488	3302
891.611	3207
891.734	3241
891.857	3294
891.98	3211
892.103	3367
892.226	3336
892.349	3203
892.471	3119
892.594	3256
892.717	3268
892.839	3279
892.962	3302
893.085	3382
893.207	3336
893.33	3173
893.452	3188
893.575	3321
893.697	3241
893.819	3466
893.941	3473
894.064	3424
894.186	3241
894.308	3268
894.43	3424
894.552	3504
894.674	3389
894.796	3283
894.918	3332
895.04	3298
895.161	3431
895.283	3416
895.405	3302
895.526	3370
895.648	3450
895.769	3443
895.891	3485
896.012	3466
896.134	3473
896.255	3412
896.376	3389
896.498	3367
896.619	3450
896.74	3317
896.861	3401
896.982	3717
897.103	3854
897.224	3610
897.345	3507
897.466	3447
897.587	3519
897.708	3622
897.828	3564
897.949	3443
898.07	3344
898.19	3409
898.311	3595
898.431	3450
898.552	3469
898.672	3595
898.792	3572
898.913	3519
899.033	3370
899.153	3283
899.273	3222
899.393	3260
899.513	3329
899.633	3298
899.753	3329
899.873	3313
899.993	3405
900.113	3351
900.232	3428
900.352	3355
900.472	3310
900.591	3188
900.711	3294
900.83	3233
900.95	3443
901.069	3515
901.189	3348
901.308	3192
901.427	3142
901.546	3207
901.665	3329
901.784	3325
901.904	3233
902.023	3165
902.141	3001
902.26	2986
902.379	3150
902.498	3070
902.617	3039
902.735	3218
902.854	3203
902.973	3169
903.091	3047
903.21	3085
903.328	3142
903.446	3112
903.565	3108
903.683	3188
903.801	3131
903.919	3264
904.038	3302
904.156	3188
904.274	3298
904.392	3241
904.51	3268
904.627	3359
904.745	3405
904.863	3488
904.981	3291
905.098	3142
905.216	3199
905.334	3313
905.451	3348
905.569	3344
905.686	3443
905.803	3458
905.921	3306
906.038	3405
906.155	3355
906.272	3287
906.389	3382
906.506	3233
906.623	3233
906.74	3272
906.857	3211
906.974	3279
907.091	3443
907.208	3561
907.324	3473
907.441	3363
907.557	3245
907.674	3230
907.79	3226
907.907	3283
908.023	3389
908.139	3374
908.256	3332
908.372	3363
908.488	3340
908.604	3241
908.72	3226
908.836	3283
908.952	3287
909.068	3367
909.184	3462
909.3	3431
909.415	3481
909.531	3439
909.647	3264
909.762	3275
909.878	3291
909.993	3378
910.108	3302
910.224	3336
910.339	3431
910.454	3370
910.57	3291
910.685	3237
910.8	3584
910.915	3523
911.03	3450
911.145	3268
911.259	3306
911.374	3272
911.489	3256
911.604	3241
911.718	3108
911.833	3142
911.947	3024
912.062	2967
912.176	3165
912.291	3222
912.405	3233
912.519	3439
912.633	3500
912.748	3359
912.862	3279
912.976	3165
913.09	3066
913.204	3127
913.318	3222
913.431	3348
913.545	3370
913.659	3447
913.772	3363
913.886	3207
914	3192
914.113	3382
914.226	3405
914.34	3370
914.453	3214
914.566	3401
914.68	3283
914.793	3279
914.906	3131
915.019	3077
915.132	3055
915.245	3173
915.358	3199
915.47	3245
915.583	3283
915.696	3275
915.809	3374
915.921	3443
916.034	3245
916.146	3264
916.259	3211
916.371	3313
916.483	3393
916.595	3260
916.708	3370
916.82	3355
916.932	3363
917.044	3348
917.156	3389
917.268	3260
917.38	3374
917.491	3268
917.603	3386
917.715	3447
917.826	3416
917.938	3439
918.049	3253
918.161	3462
918.272	3618
918.384	3572
918.495	3481
918.606	3336
918.717	3260
918.828	3325
918.939	3435
919.05	3275
919.161	3344
919.272	3176
919.383	3294
919.494	3523
919.604	3648
919.715	3519
919.826	3416
919.936	3488
920.047	3595
920.157	3549
920.267	3789
920.378	3618
920.488	3538
920.598	3789
920.708	3972
920.818	3762
920.928	3804
921.038	3998
921.148	3994
921.258	3679
921.368	3652
921.477	3576
921.587	3549
921.697	3458
921.806	3667
921.916	3526
922.025	3374
922.134	3382
922.244	3310
922.353	3424
922.462	3291
922.571	3218
922.68	3127
922.789	3051
922.898	3157
923.007	3108
923.116	3203
923.224	3161
923.333	3214
923.442	3081
923.55	3058
923.659	3150
923.767	3230
923.876	3127
923.984	3218
924.092	3138
924.201	3173
924.309	3241
924.417	3253
924.525	3157
924.633	3256
924.741	4234
924.849	3100
924.956	3268
925.064	3119
925.172	3039
925.279	3100
925.387	3195
925.494	3184
925.602	3416
925.709	3321
925.816	3161
925.924	3256
926.031	3416
926.138	3336
926.245	3370
926.352	3249
926.459	3435
926.566	3485
926.673	3340
926.779	3260
926.886	3237
926.993	3173
927.099	3119
927.206	3100
927.312	3123
927.419	3260
927.525	3157
927.631	3268
927.737	3169
927.843	3135
927.95	3055
928.056	3116
928.162	3188
928.267	3268
928.373	3857
928.479	3317
928.585	3062
928.69	3207
928.796	3302
928.901	3157
929.007	3066
929.112	3222
929.218	3169
929.323	3138
929.428	3161
929.533	3302
929.638	3138
929.743	3173
929.848	3268
929.953	3253
930.058	3169
930.163	2971
930.267	3058
930.372	3188
930.477	3036
930.581	3317
930.685	3192
930.79	3036
930.894	3169
930.998	3104
931.103	3283
931.207	2952
931.311	2967
931.415	2929
931.519	2823
931.623	2811
