Data from test_V78500241_136.txt Node
Date: Fri Mar 25 16:16:08 CST 2022
User: usil
Spectrometer: V785-0024
Trigger mode: 0
Integration Time (sec): 4.000000E-1
Scans to average: 1
Nonlinearity correction enabled: false
Boxcar width: 0
Storing dark spectrum: false
XAxis mode: Wavelengths
Number of Pixels in Spectrum: 1024
>>>>>Begin Spectral Data<<<<<
801.071	2986
801.214	3039
801.356	2979
801.499	2952
801.641	2937
801.783	2960
801.926	3077
802.068	3005
802.211	3058
802.353	3108
802.496	3024
802.638	3089
802.78	3097
802.923	3116
803.065	3066
803.208	2941
803.35	2979
803.492	2990
803.635	3001
803.777	2853
803.919	2914
804.061	3211
804.204	2998
804.346	2967
804.488	2883
804.63	3005
804.773	2910
804.915	2960
805.057	3074
805.199	2998
805.341	3017
805.483	3089
805.626	3005
805.768	2986
805.91	3123
806.052	3138
806.194	3093
806.336	3272
806.478	3085
806.62	2956
806.762	3028
806.904	3051
807.046	3233
807.188	3051
807.33	2956
807.472	3028
807.614	2960
807.756	2982
807.898	2956
808.04	2933
808.182	2986
808.324	2990
808.465	2910
808.607	2922
808.749	2826
808.891	2906
809.033	2982
809.174	3013
809.316	2910
809.458	2933
809.6	2800
809.741	2845
809.883	2796
810.025	2948
810.166	2918
810.308	2872
810.45	2895
810.591	2830
810.733	2800
810.875	2853
811.016	2785
811.158	2781
811.299	2826
811.441	2979
811.582	2937
811.724	2891
811.865	2891
812.007	2967
812.148	2899
812.29	2895
812.431	2952
812.573	2986
812.714	3032
812.855	3081
812.997	3085
813.138	3123
813.279	3074
813.421	3028
813.562	3005
813.703	2914
813.845	2929
813.986	2796
814.127	2758
814.268	2853
814.41	2876
814.551	2899
814.692	2895
814.833	2845
814.974	2937
815.115	2990
815.256	2864
815.397	2849
815.539	2906
815.68	2819
815.821	2838
815.962	2967
816.103	2967
816.244	2861
816.385	2899
816.526	3017
816.666	2956
816.807	2796
816.948	2918
817.089	2948
817.23	2902
817.371	2834
817.512	2819
817.653	2861
817.793	2872
817.934	2933
818.075	2971
818.216	3043
818.356	3036
818.497	2941
818.638	2819
818.778	2857
818.919	2834
819.06	2796
819.2	2914
819.341	2842
819.481	2849
819.622	3001
819.762	3131
819.903	3070
820.043	2994
820.184	2925
820.324	2902
820.465	3043
820.605	3085
820.746	3081
820.886	2994
821.026	3123
821.167	3226
821.307	3302
821.447	3272
821.588	3294
821.728	3233
821.868	3226
822.008	3093
822.149	3241
822.289	3275
822.429	3146
822.569	3093
822.709	3214
822.849	3100
822.99	3112
823.13	3199
823.27	3230
823.41	3131
823.55	3161
823.69	3203
823.83	3245
823.97	3146
824.11	3081
824.25	3024
824.389	3135
824.529	3135
824.669	3062
824.809	3249
824.949	3283
825.089	3283
825.228	3207
825.368	3058
825.508	2994
825.648	3013
825.787	3039
825.927	3036
826.067	2979
826.206	2971
826.346	3116
826.485	3127
826.625	3138
826.765	3291
826.904	3230
827.044	3028
827.183	2948
827.323	2914
827.462	3005
827.601	2971
827.741	2956
827.88	3013
828.02	2864
828.159	3028
828.298	3085
828.437	3150
828.577	3089
828.716	3272
828.855	3135
828.994	2937
829.134	2910
829.273	2925
829.412	2887
829.551	2891
829.69	2925
829.829	3024
829.968	3161
830.107	3001
830.246	3074
830.385	2952
830.524	2925
830.663	2853
830.802	2754
830.941	2712
831.08	2674
831.219	2773
831.357	2785
831.496	2982
831.635	2769
831.774	2644
831.913	2655
832.051	2568
832.19	2613
832.329	2689
832.467	2556
832.606	2518
832.744	2610
832.883	2621
833.022	2621
833.16	2708
833.299	2716
833.437	2686
833.576	2739
833.714	2727
833.852	2766
833.991	2815
834.129	2872
834.267	2925
834.406	2792
834.544	2880
834.682	2864
834.821	2910
834.959	3093
835.097	2918
835.235	3081
835.373	3013
835.511	3070
835.65	2956
835.788	2986
835.926	2887
836.064	2842
836.202	2883
836.34	3127
836.478	3214
836.615	3123
836.753	3157
836.891	3211
837.029	3142
837.167	3176
837.305	3093
837.443	3070
837.58	3005
837.718	3135
837.856	3127
837.993	3051
838.131	3169
838.269	3173
838.406	3127
838.544	3127
838.681	2975
838.819	2967
838.956	2838
839.094	2868
839.231	2922
839.369	3017
839.506	3374
839.643	3214
839.781	3039
839.918	2982
840.055	3051
840.193	3112
840.33	3150
840.467	3112
840.604	3203
840.742	3412
840.879	3077
841.016	3062
841.153	3142
841.29	3359
841.427	3317
841.564	3351
841.701	3306
841.838	3256
841.975	3211
842.112	3230
842.249	3116
842.385	3081
842.522	3298
842.659	3104
842.796	3089
842.933	3135
843.069	3062
843.206	3077
843.343	3180
843.479	3161
843.616	3180
843.752	2918
843.889	2922
844.025	3116
844.162	2876
844.298	3131
844.435	2990
844.571	2975
844.708	3097
844.844	3218
844.98	3332
845.117	3218
845.253	3097
845.389	3036
845.525	3100
845.661	3138
845.798	3047
845.934	3142
846.07	3070
846.206	3253
846.342	3378
846.478	3214
846.614	3081
846.75	3093
846.886	3055
847.022	3291
847.158	3150
847.294	3237
847.429	3241
847.565	3256
847.701	3515
847.837	3055
847.972	3036
848.108	3211
848.244	3173
848.379	3024
848.515	3009
848.65	2941
848.786	3013
848.921	3036
849.057	3123
849.192	3180
849.328	3097
849.463	3112
849.598	3100
849.734	3081
849.869	2975
850.004	2975
850.14	2948
850.275	2944
850.41	2838
850.545	2906
850.68	2937
850.815	3032
850.95	2998
851.085	3192
851.22	3123
851.355	3047
851.49	2986
851.625	3005
851.76	3024
851.895	2971
852.03	2922
852.165	3047
852.299	3161
852.434	3207
852.569	3161
852.703	3230
852.838	3279
852.973	3389
853.107	3367
853.242	3192
853.376	3127
853.511	2986
853.645	3100
853.78	3294
853.914	3154
854.048	3150
854.183	3173
854.317	3154
854.451	3348
854.585	3135
854.72	3081
854.854	3233
854.988	3093
855.122	3138
855.256	3020
855.39	3157
855.524	3268
855.658	3214
855.792	3192
855.926	3173
856.06	3226
856.194	3275
856.327	3176
856.461	3089
856.595	3097
856.729	3138
856.862	3272
856.996	3188
857.13	3245
857.263	3256
857.397	3332
857.53	3150
857.664	3222
857.797	3256
857.931	3310
858.064	3154
858.197	3237
858.331	3135
858.464	3104
858.597	3032
858.731	3131
858.864	3104
858.997	3119
859.13	3184
859.263	3154
859.396	3218
859.529	3112
859.662	3081
859.795	3123
859.928	3173
860.061	3279
860.194	3302
860.327	3150
860.46	3123
860.592	3203
860.725	3230
860.858	3264
860.99	3100
861.123	3104
861.256	3074
861.388	3184
861.521	3701
861.653	3032
861.786	2986
861.918	3013
862.05	3066
862.183	3104
862.315	3199
862.447	3237
862.58	3112
862.712	2975
862.844	2902
862.976	3055
863.108	2994
863.24	3435
863.372	2929
863.504	2994
863.636	2963
863.768	3051
863.9	3028
864.032	2929
864.164	2975
864.296	3051
864.428	3100
864.559	3116
864.691	3062
864.823	3077
864.954	3077
865.086	3047
865.217	3001
865.349	2960
865.48	3036
865.612	3017
865.743	3173
865.875	3032
866.006	2979
866.137	3028
866.269	2998
866.4	2971
866.531	2956
866.662	2922
866.793	2876
866.924	2944
867.055	2982
867.186	2948
867.317	2895
867.448	2868
867.579	2861
867.71	2880
867.841	2861
867.972	2937
868.103	2944
868.233	2918
868.364	2902
868.495	2944
868.625	3112
868.756	3180
868.886	2979
869.017	3070
869.147	3195
869.278	3184
869.408	3089
869.539	3039
869.669	3104
869.799	3062
869.929	3127
870.06	3131
870.19	3332
870.32	3302
870.45	3332
870.58	3382
870.71	3504
870.84	3473
870.97	3310
871.1	3256
871.23	3545
871.36	3473
871.489	3386
871.619	3450
871.749	3450
871.879	3443
872.008	3519
872.138	3344
872.267	3310
872.397	3176
872.526	3112
872.656	3024
872.785	3116
872.915	3272
873.044	3317
873.173	3256
873.303	3291
873.432	3245
873.561	3253
873.69	3165
873.819	3161
873.948	3233
874.077	3131
874.206	3070
874.335	3100
874.464	3211
874.593	3409
874.722	3264
874.851	3397
874.979	3397
875.108	3389
875.237	3214
875.365	3218
875.494	3237
875.623	3245
875.751	3131
875.88	3097
876.008	3222
876.136	3222
876.265	3378
876.393	3545
876.521	3443
876.65	3405
876.778	3336
876.906	3313
877.034	3203
877.162	3241
877.29	3188
877.418	3291
877.546	3275
877.674	3275
877.802	3287
877.93	3245
878.058	3150
878.185	3097
878.313	3230
878.441	3245
878.568	3097
878.696	3150
878.824	3283
878.951	3329
879.079	3488
879.206	3660
879.333	3439
879.461	3431
879.588	3378
879.715	3504
879.842	3591
879.97	3435
880.097	3165
880.224	3142
880.351	3218
880.478	3222
880.605	3226
880.732	3203
880.859	3488
880.986	3298
881.112	3355
881.239	3230
881.366	3119
881.493	3062
881.619	3055
881.746	3070
881.872	3093
881.999	3142
882.125	3150
882.252	3222
882.378	3306
882.505	3473
882.631	3317
882.757	3214
882.883	3237
883.01	3264
883.136	3184
883.262	3116
883.388	3138
883.514	3359
883.64	3393
883.766	3321
883.892	3195
884.018	3272
884.143	3428
884.269	3576
884.395	3203
884.52	3218
884.646	3211
884.772	3150
884.897	3192
885.023	3233
885.148	3382
885.274	3458
885.399	3412
885.524	3332
885.65	3264
885.775	3344
885.9	3302
886.025	3458
886.15	3340
886.275	3291
886.4	3203
886.525	3355
886.65	3287
886.775	3321
886.9	3504
887.025	3675
887.149	3382
887.274	3310
887.399	3165
887.523	3253
887.648	3188
887.773	3226
887.897	3382
888.021	3424
888.146	3317
888.27	3462
888.395	3542
888.519	3431
888.643	3500
888.767	3466
888.891	3325
889.015	3298
889.139	3313
889.263	3275
889.387	3416
889.511	3534
889.635	3466
889.759	3310
889.883	3313
890.006	3428
890.13	3511
890.254	3283
890.377	3351
890.501	3222
890.624	3230
890.748	3321
890.871	3218
890.995	3157
891.118	3108
891.241	3237
891.364	3233
891.488	3344
891.611	3199
891.734	3241
891.857	3325
891.98	3275
892.103	3378
892.226	3317
892.349	3272
892.471	3150
892.594	3283
892.717	3310
892.839	3291
892.962	3317
893.085	3431
893.207	3348
893.33	3142
893.452	3226
893.575	3367
893.697	3264
893.819	3462
893.941	3557
894.064	3469
894.186	3302
894.308	3287
894.43	3469
894.552	3538
894.674	3458
894.796	3268
894.918	3332
895.04	3329
895.161	3431
895.283	3363
895.405	3302
895.526	3409
895.648	3420
895.769	3485
895.891	3458
896.012	3477
896.134	3500
896.255	3462
896.376	3412
896.498	3351
896.619	3481
896.74	3393
896.861	3393
896.982	3717
897.103	3850
897.224	3603
897.345	3549
897.466	3462
897.587	3534
897.708	3637
897.828	3526
897.949	3435
898.07	3310
898.19	3424
898.311	3618
898.431	3466
898.552	3542
898.672	3633
898.792	3610
898.913	3572
899.033	3443
899.153	3351
899.273	3256
899.393	3313
899.513	3382
899.633	3351
899.753	3321
899.873	3272
899.993	3405
900.113	3363
900.232	3401
900.352	3325
900.472	3302
900.591	3203
900.711	3302
900.83	3233
900.95	3435
901.069	3519
901.189	3351
901.308	3184
901.427	3173
901.546	3218
901.665	3336
901.784	3378
901.904	3253
902.023	3195
902.141	3036
902.26	3013
902.379	3146
902.498	3081
902.617	3062
902.735	3241
902.854	3291
902.973	3222
903.091	3051
903.21	3066
903.328	3184
903.446	3150
903.565	3138
903.683	3195
903.801	3188
903.919	3268
904.038	3306
904.156	3184
904.274	3325
904.392	3313
904.51	3306
904.627	3359
904.745	3454
904.863	3526
904.981	3264
905.098	3169
905.216	3279
905.334	3313
905.451	3367
905.569	3329
905.686	3439
905.803	3462
905.921	3313
906.038	3435
906.155	3374
906.272	3287
906.389	3370
906.506	3268
906.623	3279
906.74	3336
906.857	3230
906.974	3283
907.091	3469
907.208	3564
907.324	3530
907.441	3409
907.557	3268
907.674	3233
907.79	3237
907.907	3260
908.023	3405
908.139	3412
908.256	3374
908.372	3367
908.488	3367
908.604	3283
908.72	3222
908.836	3329
908.952	3344
909.068	3359
909.184	3523
909.3	3405
909.415	3542
909.531	3500
909.647	3325
909.762	3329
909.878	3275
909.993	3374
910.108	3386
910.224	3355
910.339	3458
910.454	3348
910.57	3298
910.685	3256
910.8	3591
910.915	3564
911.03	3435
911.145	3287
911.259	3313
911.374	3348
911.489	3272
911.604	3237
911.718	3180
911.833	3199
911.947	3093
912.062	3001
912.176	3192
912.291	3222
912.405	3199
912.519	3469
912.633	3515
912.748	3355
912.862	3294
912.976	3211
913.09	3085
913.204	3161
913.318	3237
913.431	3355
913.545	3359
913.659	3500
913.772	3370
913.886	3253
914	3237
914.113	3355
914.226	3424
914.34	3374
914.453	3203
914.566	3431
914.68	3287
914.793	3310
914.906	3119
915.019	3104
915.132	3108
915.245	3207
915.358	3283
915.47	3237
915.583	3294
915.696	3325
915.809	3443
915.921	3439
916.034	3302
916.146	3283
916.259	3253
916.371	3409
916.483	3367
916.595	3302
916.708	3336
916.82	3374
916.932	3374
917.044	3332
917.156	3355
917.268	3283
917.38	3351
917.491	3321
917.603	3409
917.715	3473
917.826	3473
917.938	3397
918.049	3310
918.161	3420
918.272	3587
918.384	3614
918.495	3519
918.606	3344
918.717	3306
918.828	3397
918.939	3424
919.05	3348
919.161	3416
919.272	3199
919.383	3268
919.494	3549
919.604	3717
919.715	3519
919.826	3439
919.936	3473
920.047	3606
920.157	3587
920.267	3804
920.378	3610
920.488	3599
920.598	3797
920.708	3991
920.818	3816
920.928	3827
921.038	4051
921.148	4017
921.258	3740
921.368	3629
921.477	3610
921.587	3572
921.697	3454
921.806	3644
921.916	3526
922.025	3370
922.134	3348
922.244	3340
922.353	3447
922.462	3260
922.571	3249
922.68	3123
922.789	3055
922.898	3123
923.007	3116
923.116	3207
923.224	3192
923.333	3188
923.442	3081
923.55	3081
923.659	3188
923.767	3268
923.876	3131
923.984	3249
924.092	3138
924.201	3199
924.309	3256
924.417	3241
924.525	3214
924.633	3245
924.741	4169
924.849	3058
924.956	3298
925.064	3112
925.172	3066
925.279	3100
925.387	3207
925.494	3192
925.602	3348
925.709	3325
925.816	3165
925.924	3241
926.031	3412
926.138	3332
926.245	3416
926.352	3268
926.459	3454
926.566	3481
926.673	3344
926.779	3249
926.886	3275
926.993	3192
927.099	3142
927.206	3108
927.312	3131
927.419	3260
927.525	3214
927.631	3237
927.737	3165
927.843	3138
927.95	3058
928.056	3123
928.162	3176
928.267	3306
928.373	3850
928.479	3313
928.585	3089
928.69	3253
928.796	3287
928.901	3169
929.007	3085
929.112	3256
929.218	3195
929.323	3188
929.428	3176
929.533	3313
929.638	3123
929.743	3199
929.848	3287
929.953	3233
930.058	3169
930.163	3024
930.267	3051
930.372	3199
930.477	3074
930.581	3363
930.685	3241
930.79	3081
930.894	3169
930.998	3108
931.103	3313
931.207	2960
931.311	2963
931.415	2902
931.519	2796
931.623	2826
