Data from test_V78500241_1614.txt Node
Date: Fri Mar 25 16:26:23 CST 2022
User: usil
Spectrometer: V785-0024
Trigger mode: 0
Integration Time (sec): 4.000000E-1
Scans to average: 1
Nonlinearity correction enabled: false
Boxcar width: 0
Storing dark spectrum: false
XAxis mode: Wavelengths
Number of Pixels in Spectrum: 1024
>>>>>Begin Spectral Data<<<<<
801.071	2922
801.214	2933
801.356	2876
801.499	2922
801.641	2883
801.783	2891
801.926	3097
802.068	2986
802.211	2982
802.353	3028
802.496	2963
802.638	3055
802.78	3058
802.923	3112
803.065	2975
803.208	2906
803.35	2922
803.492	2960
803.635	2952
803.777	2800
803.919	2872
804.061	3173
804.204	2941
804.346	2891
804.488	2842
804.63	3001
804.773	2887
804.915	2937
805.057	3100
805.199	2918
805.341	2956
805.483	3058
805.626	3017
805.768	2960
805.91	3104
806.052	3097
806.194	3043
806.336	3272
806.478	3017
806.62	2948
806.762	2952
806.904	3074
807.046	3150
807.188	2952
807.33	2929
807.472	3001
807.614	2918
807.756	2979
807.898	2891
808.04	2906
808.182	2952
808.324	2941
808.465	2895
808.607	2838
808.749	2762
808.891	2834
809.033	2975
809.174	2971
809.316	2887
809.458	2922
809.6	2785
809.741	2781
809.883	2769
810.025	2823
810.166	2868
810.308	2834
810.45	2872
810.591	2754
810.733	2773
810.875	2834
811.016	2788
811.158	2750
811.299	2826
811.441	2941
811.582	2906
811.724	2819
811.865	2777
812.007	2937
812.148	2883
812.29	2849
812.431	2868
812.573	2929
812.714	2963
812.855	3077
812.997	3062
813.138	3097
813.279	3009
813.421	2967
813.562	2963
813.703	2880
813.845	2887
813.986	2781
814.127	2727
814.268	2804
814.41	2845
814.551	2792
814.692	2914
814.833	2800
814.974	2895
815.115	2952
815.256	2785
815.397	2807
815.539	2902
815.68	2777
815.821	2804
815.962	2941
816.103	2914
816.244	2880
816.385	2861
816.526	2971
816.666	2853
816.807	2727
816.948	2868
817.089	2872
817.23	2830
817.371	2792
817.512	2788
817.653	2853
817.793	2804
817.934	2887
818.075	2967
818.216	2971
818.356	2994
818.497	2883
818.638	2815
818.778	2811
818.919	2781
819.06	2777
819.2	2876
819.341	2796
819.481	2781
819.622	2937
819.762	3108
819.903	3058
820.043	2906
820.184	2891
820.324	2918
820.465	3039
820.605	3055
820.746	3009
820.886	2971
821.026	3112
821.167	3135
821.307	3310
821.447	3287
821.588	3253
821.728	3218
821.868	3199
822.008	3123
822.149	3249
822.289	3245
822.429	3112
822.569	3154
822.709	3203
822.849	3024
822.99	3104
823.13	3157
823.27	3256
823.41	3146
823.55	3165
823.69	3192
823.83	3256
823.97	3093
824.11	3051
824.25	3047
824.389	3077
824.529	3146
824.669	3093
824.809	3218
824.949	3279
825.089	3253
825.228	3214
825.368	3043
825.508	2979
825.648	3039
825.787	3028
825.927	3043
826.067	3005
826.206	2990
826.346	3104
826.485	3100
826.625	3169
826.765	3298
826.904	3253
827.044	3058
827.183	2963
827.323	2925
827.462	2994
827.601	2960
827.741	2975
827.88	3001
828.02	2922
828.159	3005
828.298	3093
828.437	3138
828.577	3097
828.716	3306
828.855	3116
828.994	2971
829.134	2937
829.273	2960
829.412	2857
829.551	2899
829.69	2952
829.829	3039
829.968	3142
830.107	3047
830.246	3066
830.385	2948
830.524	2914
830.663	2845
830.802	2762
830.941	2712
831.08	2674
831.219	2834
831.357	2811
831.496	2963
831.635	2777
831.774	2697
831.913	2678
832.051	2556
832.19	2613
832.329	2724
832.467	2552
832.606	2537
832.744	2625
832.883	2640
833.022	2625
833.16	2701
833.299	2735
833.437	2727
833.576	2727
833.714	2731
833.852	2762
833.991	2800
834.129	2895
834.267	2849
834.406	2819
834.544	2933
834.682	2899
834.821	2933
834.959	3112
835.097	2925
835.235	3104
835.373	3020
835.511	3077
835.65	3024
835.788	2975
835.926	2864
836.064	2842
836.202	2876
836.34	3131
836.478	3195
836.615	3062
836.753	3169
836.891	3237
837.029	3203
837.167	3135
837.305	3085
837.443	3077
837.58	3017
837.718	3180
837.856	3089
837.993	3081
838.131	3127
838.269	3123
838.406	3127
838.544	3100
838.681	2925
838.819	2952
838.956	2845
839.094	2868
839.231	2967
839.369	3024
839.506	3393
839.643	3218
839.781	3077
839.918	3009
840.055	3093
840.193	3036
840.33	3104
840.467	3119
840.604	3161
840.742	3447
840.879	3089
841.016	3055
841.153	3135
841.29	3355
841.427	3348
841.564	3336
841.701	3329
841.838	3245
841.975	3237
842.112	3253
842.249	3108
842.385	3043
842.522	3351
842.659	3150
842.796	3081
842.933	3108
843.069	3058
843.206	3074
843.343	3279
843.479	3157
843.616	3119
843.752	2925
843.889	2906
844.025	3154
844.162	2895
844.298	3100
844.435	2963
844.571	2944
844.708	3081
844.844	3218
844.98	3253
845.117	3241
845.253	3104
845.389	3009
845.525	3127
845.661	3100
845.798	3036
845.934	3146
846.07	3085
846.206	3233
846.342	3355
846.478	3241
846.614	3135
846.75	3070
846.886	3058
847.022	3302
847.158	3161
847.294	3214
847.429	3294
847.565	3249
847.701	3557
847.837	3104
847.972	3051
848.108	3192
848.244	3176
848.379	3009
848.515	2963
848.65	2933
848.786	3009
848.921	3024
849.057	3146
849.192	3127
849.328	3093
849.463	3146
849.598	3123
849.734	3077
849.869	3009
850.004	2952
850.14	3005
850.275	2906
850.41	2883
850.545	2891
850.68	2982
850.815	2975
850.95	2967
851.085	3245
851.22	3116
851.355	3058
851.49	3005
851.625	3032
851.76	3028
851.895	2956
852.03	2948
852.165	3047
852.299	3138
852.434	3192
852.569	3135
852.703	3207
852.838	3291
852.973	3332
853.107	3344
853.242	3211
853.376	3097
853.511	2982
853.645	3055
853.78	3279
853.914	3142
854.048	3100
854.183	3093
854.317	3184
854.451	3302
854.585	3157
854.72	3081
854.854	3211
854.988	3089
855.122	3104
855.256	2998
855.39	3165
855.524	3268
855.658	3211
855.792	3176
855.926	3207
856.06	3245
856.194	3268
856.327	3199
856.461	3085
856.595	3104
856.729	3104
856.862	3260
856.996	3195
857.13	3253
857.263	3241
857.397	3329
857.53	3169
857.664	3233
857.797	3253
857.931	3302
858.064	3268
858.197	3253
858.331	3176
858.464	3100
858.597	3009
858.731	3142
858.864	3127
858.997	3127
859.13	3192
859.263	3207
859.396	3207
859.529	3100
859.662	3085
859.795	3070
859.928	3169
860.061	3291
860.194	3321
860.327	3180
860.46	3112
860.592	3260
860.725	3268
860.858	3256
860.99	3089
861.123	3108
861.256	3077
861.388	3127
861.521	3911
861.653	3058
861.786	3047
861.918	3020
862.05	3074
862.183	3112
862.315	3165
862.447	3237
862.58	3127
862.712	2967
862.844	2895
862.976	3062
863.108	2994
863.24	3344
863.372	2895
863.504	2967
863.636	2986
863.768	3024
863.9	3013
864.032	2902
864.164	2933
864.296	3051
864.428	3077
864.559	3112
864.691	3104
864.823	3093
864.954	3062
865.086	3112
865.217	3024
865.349	2948
865.48	3009
865.612	2994
865.743	3154
865.875	3009
866.006	2963
866.137	3009
866.269	2986
866.4	2963
866.531	2925
866.662	2902
866.793	2906
866.924	2906
867.055	2979
867.186	2899
867.317	2922
867.448	2845
867.579	2857
867.71	2857
867.841	2838
867.972	2956
868.103	2941
868.233	2887
868.364	2872
868.495	2922
868.625	3127
868.756	3176
868.886	2963
869.017	3024
869.147	3195
869.278	3192
869.408	3077
869.539	3024
869.669	3093
869.799	3058
869.929	3127
870.06	3138
870.19	3321
870.32	3306
870.45	3329
870.58	3363
870.71	3454
870.84	3447
870.97	3310
871.1	3218
871.23	3481
871.36	3458
871.489	3370
871.619	3428
871.749	3439
871.879	3424
872.008	3485
872.138	3370
872.267	3291
872.397	3150
872.526	3135
872.656	3005
872.785	3119
872.915	3264
873.044	3344
873.173	3253
873.303	3241
873.432	3249
873.561	3279
873.69	3157
873.819	3184
873.948	3275
874.077	3116
874.206	3085
874.335	3062
874.464	3211
874.593	3351
874.722	3294
874.851	3409
874.979	3409
875.108	3321
875.237	3222
875.365	3180
875.494	3154
875.623	3268
875.751	3116
875.88	3097
876.008	3233
876.136	3256
876.265	3382
876.393	3485
876.521	3431
876.65	3424
876.778	3378
876.906	3302
877.034	3226
877.162	3253
877.29	3176
877.418	3241
877.546	3313
877.674	3249
877.802	3245
877.93	3245
878.058	3211
878.185	3112
878.313	3249
878.441	3245
878.568	3066
878.696	3184
878.824	3253
878.951	3351
879.079	3504
879.206	3618
879.333	3412
879.461	3336
879.588	3351
879.715	3492
879.842	3599
879.97	3416
880.097	3192
880.224	3108
880.351	3184
880.478	3233
880.605	3260
880.732	3157
880.859	3542
880.986	3325
881.112	3317
881.239	3222
881.366	3131
881.493	3020
881.619	2990
881.746	3055
881.872	3093
881.999	3108
882.125	3161
882.252	3272
882.378	3275
882.505	3447
882.631	3283
882.757	3150
882.883	3260
883.01	3230
883.136	3165
883.262	3100
883.388	3116
883.514	3332
883.64	3416
883.766	3332
883.892	3176
884.018	3264
884.143	3386
884.269	3542
884.395	3211
884.52	3203
884.646	3241
884.772	3161
884.897	3108
885.023	3226
885.148	3340
885.274	3424
885.399	3355
885.524	3291
885.65	3275
885.775	3329
885.9	3306
886.025	3443
886.15	3374
886.275	3325
886.4	3230
886.525	3348
886.65	3260
886.775	3340
886.9	3447
887.025	3675
887.149	3439
887.274	3268
887.399	3203
887.523	3230
887.648	3138
887.773	3184
887.897	3405
888.021	3412
888.146	3298
888.27	3473
888.395	3557
888.519	3431
888.643	3439
888.767	3454
888.891	3302
889.015	3241
889.139	3279
889.263	3249
889.387	3412
889.511	3500
889.635	3447
889.759	3313
889.883	3306
890.006	3382
890.13	3515
890.254	3283
890.377	3340
890.501	3199
890.624	3138
890.748	3291
890.871	3165
890.995	3093
891.118	3100
891.241	3180
891.364	3256
891.488	3340
891.611	3192
891.734	3237
891.857	3283
891.98	3241
892.103	3359
892.226	3317
892.349	3241
892.471	3112
892.594	3245
892.717	3306
892.839	3237
892.962	3313
893.085	3416
893.207	3317
893.33	3131
893.452	3264
893.575	3351
893.697	3230
893.819	3450
893.941	3485
894.064	3466
894.186	3256
894.308	3294
894.43	3435
894.552	3545
894.674	3466
894.796	3279
894.918	3317
895.04	3325
895.161	3416
895.283	3367
895.405	3336
895.526	3382
895.648	3443
895.769	3428
895.891	3428
896.012	3488
896.134	3481
896.255	3431
896.376	3389
896.498	3344
896.619	3405
896.74	3401
896.861	3332
896.982	3690
897.103	3876
897.224	3603
897.345	3538
897.466	3424
897.587	3435
897.708	3637
897.828	3591
897.949	3469
898.07	3306
898.19	3428
898.311	3587
898.431	3466
898.552	3549
898.672	3580
898.792	3614
898.913	3504
899.033	3435
899.153	3306
899.273	3222
899.393	3272
899.513	3298
899.633	3306
899.753	3344
899.873	3313
899.993	3378
900.113	3332
900.232	3374
900.352	3370
900.472	3283
900.591	3207
900.711	3279
900.83	3230
900.95	3439
901.069	3504
901.189	3348
901.308	3192
901.427	3127
901.546	3180
901.665	3283
901.784	3325
901.904	3192
902.023	3211
902.141	2994
902.26	2998
902.379	3157
902.498	3062
902.617	3055
902.735	3192
902.854	3203
902.973	3230
903.091	3058
903.21	3119
903.328	3176
903.446	3104
903.565	3112
903.683	3184
903.801	3131
903.919	3214
904.038	3298
904.156	3230
904.274	3317
904.392	3241
904.51	3313
904.627	3378
904.745	3409
904.863	3504
904.981	3279
905.098	3142
905.216	3230
905.334	3291
905.451	3264
905.569	3287
905.686	3454
905.803	3428
905.921	3294
906.038	3393
906.155	3359
906.272	3325
906.389	3329
906.506	3241
906.623	3264
906.74	3272
906.857	3188
906.974	3241
907.091	3416
907.208	3549
907.324	3424
907.441	3378
907.557	3222
907.674	3226
907.79	3207
907.907	3291
908.023	3389
908.139	3370
908.256	3329
908.372	3393
908.488	3344
908.604	3237
908.72	3214
908.836	3321
908.952	3283
909.068	3321
909.184	3500
909.3	3386
909.415	3488
909.531	3485
909.647	3283
909.762	3298
909.878	3237
909.993	3313
910.108	3363
910.224	3355
910.339	3431
910.454	3378
910.57	3325
910.685	3291
910.8	3545
910.915	3526
911.03	3420
911.145	3298
911.259	3298
911.374	3348
911.489	3253
911.604	3226
911.718	3108
911.833	3157
911.947	3039
912.062	3005
912.176	3180
912.291	3188
912.405	3207
912.519	3435
912.633	3443
912.748	3355
912.862	3283
912.976	3199
913.09	3085
913.204	3135
913.318	3195
913.431	3336
913.545	3348
913.659	3374
913.772	3340
913.886	3214
914	3230
914.113	3367
914.226	3431
914.34	3351
914.453	3222
914.566	3412
914.68	3268
914.793	3272
914.906	3154
915.019	3112
915.132	3058
915.245	3173
915.358	3188
915.47	3245
915.583	3268
915.696	3260
915.809	3389
915.921	3405
916.034	3275
916.146	3256
916.259	3214
916.371	3401
916.483	3359
916.595	3264
916.708	3359
916.82	3386
916.932	3348
917.044	3405
917.156	3317
917.268	3275
917.38	3325
917.491	3253
917.603	3332
917.715	3447
917.826	3431
917.938	3378
918.049	3287
918.161	3409
918.272	3580
918.384	3622
918.495	3466
918.606	3325
918.717	3313
918.828	3389
918.939	3405
919.05	3317
919.161	3340
919.272	3161
919.383	3275
919.494	3473
919.604	3644
919.715	3477
919.826	3424
919.936	3466
920.047	3606
920.157	3545
920.267	3766
920.378	3625
920.488	3564
920.598	3766
920.708	3949
920.818	3819
920.928	3857
921.038	3998
921.148	3983
921.258	3717
921.368	3682
921.477	3587
921.587	3542
921.697	3454
921.806	3625
921.916	3519
922.025	3370
922.134	3359
922.244	3325
922.353	3477
922.462	3283
922.571	3222
922.68	3123
922.789	3081
922.898	3142
923.007	3081
923.116	3203
923.224	3138
923.333	3211
923.442	3138
923.55	3074
923.659	3173
923.767	3184
923.876	3138
923.984	3260
924.092	3100
924.201	3195
924.309	3237
924.417	3203
924.525	3127
924.633	3218
924.741	4188
924.849	3097
924.956	3294
925.064	3085
925.172	3047
925.279	3081
925.387	3184
925.494	3203
925.602	3363
925.709	3329
925.816	3192
925.924	3294
926.031	3374
926.138	3321
926.245	3336
926.352	3245
926.459	3397
926.566	3458
926.673	3302
926.779	3245
926.886	3283
926.993	3146
927.099	3058
927.206	3123
927.312	3093
927.419	3233
927.525	3222
927.631	3264
927.737	3157
927.843	3123
927.95	3013
928.056	3146
928.162	3150
928.267	3199
928.373	3892
928.479	3310
928.585	3039
928.69	3207
928.796	3264
928.901	3165
929.007	3020
929.112	3211
929.218	3207
929.323	3150
929.428	3135
929.533	3325
929.638	3100
929.743	3188
929.848	3302
929.953	3180
930.058	3165
930.163	3024
930.267	3032
930.372	3195
930.477	3047
930.581	3321
930.685	3203
930.79	3058
930.894	3123
930.998	3093
931.103	3279
931.207	2971
931.311	2941
931.415	2918
931.519	2758
931.623	2800
