Data from test_V78500241_235.txt Node
Date: Fri Mar 25 16:16:49 CST 2022
User: usil
Spectrometer: V785-0024
Trigger mode: 0
Integration Time (sec): 4.000000E-1
Scans to average: 1
Nonlinearity correction enabled: false
Boxcar width: 0
Storing dark spectrum: false
XAxis mode: Wavelengths
Number of Pixels in Spectrum: 1024
>>>>>Begin Spectral Data<<<<<
801.071	2922
801.214	2952
801.356	2895
801.499	2895
801.641	2876
801.783	2910
801.926	3028
802.068	3001
802.211	2982
802.353	3024
802.496	2944
802.638	3039
802.78	3028
802.923	3097
803.065	3001
803.208	2895
803.35	2956
803.492	2960
803.635	2948
803.777	2777
803.919	2868
804.061	3207
804.204	2956
804.346	2929
804.488	2876
804.63	3032
804.773	2891
804.915	2918
805.057	3135
805.199	2979
805.341	2975
805.483	3100
805.626	3032
805.768	2960
805.91	3085
806.052	3161
806.194	3036
806.336	3275
806.478	3062
806.62	2986
806.762	2998
806.904	3089
807.046	3184
807.188	3001
807.33	2933
807.472	2990
807.614	2910
807.756	3009
807.898	2918
808.04	2922
808.182	2990
808.324	2975
808.465	2902
808.607	2864
808.749	2766
808.891	2872
809.033	2990
809.174	3005
809.316	2891
809.458	2872
809.6	2804
809.741	2788
809.883	2819
810.025	2842
810.166	2880
810.308	2838
810.45	2872
810.591	2815
810.733	2792
810.875	2838
811.016	2792
811.158	2769
811.299	2823
811.441	2933
811.582	2910
811.724	2864
811.865	2842
812.007	2941
812.148	2868
812.29	2838
812.431	2902
812.573	2925
812.714	2982
812.855	3089
812.997	3081
813.138	3108
813.279	3009
813.421	3020
813.562	2956
813.703	2857
813.845	2887
813.986	2792
814.127	2735
814.268	2815
814.41	2861
814.551	2853
814.692	2922
814.833	2838
814.974	2887
815.115	2971
815.256	2868
815.397	2830
815.539	2845
815.68	2788
815.821	2842
815.962	2948
816.103	2941
816.244	2906
816.385	2872
816.526	2975
816.666	2944
816.807	2731
816.948	2918
817.089	2933
817.23	2868
817.371	2804
817.512	2792
817.653	2876
817.793	2849
817.934	2918
818.075	3001
818.216	3013
818.356	3024
818.497	2902
818.638	2804
818.778	2830
818.919	2788
819.06	2788
819.2	2876
819.341	2842
819.481	2823
819.622	2922
819.762	3119
819.903	3085
820.043	2933
820.184	2910
820.324	2887
820.465	3032
820.605	3028
820.746	3047
820.886	2933
821.026	3142
821.167	3173
821.307	3287
821.447	3283
821.588	3294
821.728	3199
821.868	3211
822.008	3093
822.149	3188
822.289	3245
822.429	3085
822.569	3116
822.709	3161
822.849	2971
822.99	3066
823.13	3161
823.27	3169
823.41	3104
823.55	3169
823.69	3169
823.83	3218
823.97	3127
824.11	2967
824.25	3017
824.389	3100
824.529	3112
824.669	3093
824.809	3180
824.949	3298
825.089	3253
825.228	3203
825.368	3024
825.508	2948
825.648	2975
825.787	3020
825.927	3032
826.067	2963
826.206	2994
826.346	3028
826.485	3085
826.625	3142
826.765	3298
826.904	3237
827.044	3036
827.183	2922
827.323	2868
827.462	2998
827.601	2944
827.741	2929
827.88	2956
828.02	2864
828.159	2986
828.298	3051
828.437	3116
828.577	3055
828.716	3268
828.855	3066
828.994	2937
829.134	2933
829.273	2929
829.412	2895
829.551	2887
829.69	2899
829.829	3028
829.968	3093
830.107	3028
830.246	3043
830.385	2922
830.524	2887
830.663	2868
830.802	2727
830.941	2648
831.08	2648
831.219	2785
831.357	2792
831.496	2952
831.635	2720
831.774	2674
831.913	2674
832.051	2556
832.19	2571
832.329	2686
832.467	2552
832.606	2492
832.744	2579
832.883	2610
833.022	2594
833.16	2636
833.299	2697
833.437	2712
833.576	2720
833.714	2674
833.852	2773
833.991	2762
834.129	2857
834.267	2834
834.406	2800
834.544	2861
834.682	2933
834.821	2902
834.959	3055
835.097	2891
835.235	3039
835.373	3020
835.511	3066
835.65	2960
835.788	2971
835.926	2838
836.064	2819
836.202	2842
836.34	3123
836.478	3157
836.615	3062
836.753	3146
836.891	3195
837.029	3176
837.167	3085
837.305	3039
837.443	3066
837.58	2971
837.718	3142
837.856	3028
837.993	3024
838.131	3123
838.269	3104
838.406	3085
838.544	3119
838.681	2937
838.819	2937
838.956	2815
839.094	2861
839.231	2902
839.369	3028
839.506	3374
839.643	3203
839.781	3009
839.918	2975
840.055	3058
840.193	3024
840.33	3112
840.467	3093
840.604	3142
840.742	3389
840.879	3070
841.016	3066
841.153	3104
841.29	3355
841.427	3283
841.564	3298
841.701	3351
841.838	3233
841.975	3161
842.112	3230
842.249	3097
842.385	3070
842.522	3294
842.659	3100
842.796	3051
842.933	3100
843.069	3058
843.206	3047
843.343	3131
843.479	3085
843.616	3131
843.752	2925
843.889	2868
844.025	3055
844.162	2922
844.298	3123
844.435	2952
844.571	2933
844.708	3093
844.844	3203
844.98	3283
845.117	3230
845.253	3055
845.389	3017
845.525	3104
845.661	3127
845.798	2994
845.934	3135
846.07	3100
846.206	3264
846.342	3355
846.478	3222
846.614	3123
846.75	3055
846.886	3024
847.022	3237
847.158	3146
847.294	3214
847.429	3260
847.565	3241
847.701	3477
847.837	3024
847.972	3005
848.108	3169
848.244	3142
848.379	2971
848.515	2952
848.65	2918
848.786	2960
848.921	2998
849.057	3176
849.192	3138
849.328	3081
849.463	3142
849.598	3058
849.734	3043
849.869	2963
850.004	2937
850.14	2994
850.275	2929
850.41	2845
850.545	2883
850.68	2925
850.815	2960
850.95	2956
851.085	3192
851.22	3123
851.355	3039
851.49	3013
851.625	2994
851.76	3032
851.895	2914
852.03	2914
852.165	3043
852.299	3100
852.434	3203
852.569	3131
852.703	3161
852.838	3264
852.973	3340
853.107	3329
853.242	3108
853.376	3074
853.511	2994
853.645	3036
853.78	3237
853.914	3108
854.048	3131
854.183	3066
854.317	3127
854.451	3272
854.585	3135
854.72	3074
854.854	3222
854.988	3081
855.122	3100
855.256	2952
855.39	3123
855.524	3226
855.658	3184
855.792	3138
855.926	3222
856.06	3253
856.194	3256
856.327	3146
856.461	3081
856.595	3089
856.729	3116
856.862	3237
856.996	3180
857.13	3173
857.263	3249
857.397	3283
857.53	3074
857.664	3222
857.797	3207
857.931	3256
858.064	3195
858.197	3211
858.331	3131
858.464	3119
858.597	3020
858.731	3116
858.864	3142
858.997	3116
859.13	3157
859.263	3184
859.396	3226
859.529	3066
859.662	3055
859.795	3085
859.928	3165
860.061	3264
860.194	3279
860.327	3108
860.46	3089
860.592	3272
860.725	3249
860.858	3233
860.99	3093
861.123	3039
861.256	3066
861.388	3146
861.521	3861
861.653	3047
861.786	2982
861.918	3020
862.05	3077
862.183	3116
862.315	3169
862.447	3169
862.58	3100
862.712	2933
862.844	2849
862.976	3058
863.108	2998
863.24	3313
863.372	2830
863.504	2963
863.636	2986
863.768	3024
863.9	3005
864.032	2910
864.164	2929
864.296	2990
864.428	3085
864.559	3123
864.691	3070
864.823	3100
864.954	3043
865.086	3013
865.217	3013
865.349	2944
865.48	3001
865.612	3013
865.743	3180
865.875	3013
866.006	2933
866.137	2967
866.269	2960
866.4	2929
866.531	2876
866.662	2914
866.793	2906
866.924	2891
867.055	2963
867.186	2941
867.317	2929
867.448	2868
867.579	2872
867.71	2834
867.841	2872
867.972	2925
868.103	2906
868.233	2910
868.364	2864
868.495	2880
868.625	3077
868.756	3184
868.886	2960
869.017	3028
869.147	3173
869.278	3150
869.408	3036
869.539	3047
869.669	3097
869.799	3005
869.929	3127
870.06	3116
870.19	3363
870.32	3245
870.45	3344
870.58	3351
870.71	3466
870.84	3450
870.97	3268
871.1	3253
871.23	3504
871.36	3496
871.489	3325
871.619	3409
871.749	3420
871.879	3424
872.008	3488
872.138	3359
872.267	3298
872.397	3165
872.526	3081
872.656	3009
872.785	3104
872.915	3249
873.044	3317
873.173	3233
873.303	3230
873.432	3275
873.561	3218
873.69	3138
873.819	3157
873.948	3207
874.077	3112
874.206	3089
874.335	3108
874.464	3188
874.593	3363
874.722	3287
874.851	3405
874.979	3389
875.108	3351
875.237	3214
875.365	3161
875.494	3169
875.623	3260
875.751	3085
875.88	3112
876.008	3165
876.136	3233
876.265	3344
876.393	3488
876.521	3447
876.65	3443
876.778	3344
876.906	3249
877.034	3154
877.162	3230
877.29	3192
877.418	3241
877.546	3260
877.674	3237
877.802	3237
877.93	3260
878.058	3165
878.185	3089
878.313	3169
878.441	3249
878.568	3066
878.696	3161
878.824	3256
878.951	3294
879.079	3481
879.206	3663
879.333	3447
879.461	3336
879.588	3374
879.715	3477
879.842	3584
879.97	3386
880.097	3203
880.224	3112
880.351	3195
880.478	3199
880.605	3199
880.732	3203
880.859	3496
880.986	3310
881.112	3329
881.239	3192
881.366	3108
881.493	2994
881.619	3013
881.746	3070
881.872	3100
881.999	3104
882.125	3123
882.252	3268
882.378	3291
882.505	3435
882.631	3291
882.757	3138
882.883	3233
883.01	3249
883.136	3173
883.262	3116
883.388	3135
883.514	3336
883.64	3374
883.766	3329
883.892	3176
884.018	3268
884.143	3409
884.269	3538
884.395	3233
884.52	3142
884.646	3188
884.772	3135
884.897	3142
885.023	3222
885.148	3332
885.274	3424
885.399	3382
885.524	3287
885.65	3264
885.775	3317
885.9	3325
886.025	3443
886.15	3348
886.275	3348
886.4	3226
886.525	3329
886.65	3275
886.775	3253
886.9	3481
887.025	3660
887.149	3401
887.274	3302
887.399	3180
887.523	3241
887.648	3214
887.773	3230
887.897	3397
888.021	3393
888.146	3302
888.27	3428
888.395	3553
888.519	3401
888.643	3469
888.767	3458
888.891	3306
889.015	3272
889.139	3306
889.263	3268
889.387	3431
889.511	3488
889.635	3439
889.759	3325
889.883	3294
890.006	3424
890.13	3500
890.254	3291
890.377	3351
890.501	3173
890.624	3173
890.748	3310
890.871	3203
890.995	3077
891.118	3070
891.241	3195
891.364	3211
891.488	3268
891.611	3176
891.734	3253
891.857	3287
891.98	3237
892.103	3367
892.226	3287
892.349	3222
892.471	3108
892.594	3294
892.717	3340
892.839	3291
892.962	3306
893.085	3386
893.207	3313
893.33	3184
893.452	3226
893.575	3367
893.697	3237
893.819	3431
893.941	3553
894.064	3447
894.186	3249
894.308	3287
894.43	3416
894.552	3504
894.674	3504
894.796	3260
894.918	3279
895.04	3317
895.161	3420
895.283	3382
895.405	3298
895.526	3378
895.648	3431
895.769	3485
895.891	3469
896.012	3492
896.134	3492
896.255	3424
896.376	3420
896.498	3370
896.619	3393
896.74	3378
896.861	3428
896.982	3694
897.103	3846
897.224	3595
897.345	3496
897.466	3428
897.587	3481
897.708	3633
897.828	3557
897.949	3431
898.07	3351
898.19	3420
898.311	3622
898.431	3450
898.552	3553
898.672	3614
898.792	3572
898.913	3526
899.033	3405
899.153	3279
899.273	3272
899.393	3279
899.513	3310
899.633	3310
899.753	3340
899.873	3336
899.993	3386
900.113	3325
900.232	3412
900.352	3340
900.472	3291
900.591	3207
900.711	3325
900.83	3264
900.95	3447
901.069	3485
901.189	3397
901.308	3176
901.427	3116
901.546	3195
901.665	3275
901.784	3325
901.904	3230
902.023	3142
902.141	3013
902.26	3017
902.379	3135
902.498	3119
902.617	3055
902.735	3214
902.854	3199
902.973	3233
903.091	3043
903.21	3047
903.328	3127
903.446	3104
903.565	3097
903.683	3222
903.801	3161
903.919	3237
904.038	3306
904.156	3195
904.274	3313
904.392	3264
904.51	3298
904.627	3348
904.745	3481
904.863	3515
904.981	3287
905.098	3211
905.216	3226
905.334	3302
905.451	3279
905.569	3325
905.686	3466
905.803	3447
905.921	3272
906.038	3477
906.155	3386
906.272	3306
906.389	3325
906.506	3237
906.623	3298
906.74	3291
906.857	3199
906.974	3253
907.091	3435
907.208	3576
907.324	3458
907.441	3431
907.557	3230
907.674	3233
907.79	3230
907.907	3256
908.023	3378
908.139	3344
908.256	3336
908.372	3382
908.488	3336
908.604	3226
908.72	3218
908.836	3294
908.952	3298
909.068	3321
909.184	3485
909.3	3378
909.415	3515
909.531	3447
909.647	3268
909.762	3313
909.878	3306
909.993	3344
910.108	3374
910.224	3367
910.339	3431
910.454	3287
910.57	3302
910.685	3253
910.8	3599
910.915	3526
911.03	3447
911.145	3321
911.259	3298
911.374	3325
911.489	3249
911.604	3237
911.718	3161
911.833	3176
911.947	3062
912.062	2994
912.176	3169
912.291	3188
912.405	3211
912.519	3435
912.633	3485
912.748	3355
912.862	3329
912.976	3176
913.09	3089
913.204	3157
913.318	3218
913.431	3348
913.545	3367
913.659	3420
913.772	3374
913.886	3249
914	3169
914.113	3344
914.226	3439
914.34	3401
914.453	3222
914.566	3405
914.68	3298
914.793	3351
914.906	3154
915.019	3135
915.132	3085
915.245	3192
915.358	3218
915.47	3226
915.583	3306
915.696	3306
915.809	3409
915.921	3409
916.034	3272
916.146	3279
916.259	3245
916.371	3397
916.483	3370
916.595	3272
916.708	3351
916.82	3317
916.932	3378
917.044	3325
917.156	3313
917.268	3268
917.38	3332
917.491	3302
917.603	3374
917.715	3462
917.826	3485
917.938	3397
918.049	3283
918.161	3458
918.272	3610
918.384	3580
918.495	3515
918.606	3359
918.717	3302
918.828	3389
918.939	3420
919.05	3279
919.161	3367
919.272	3207
919.383	3283
919.494	3538
919.604	3690
919.715	3466
919.826	3401
919.936	3500
920.047	3595
920.157	3545
920.267	3785
920.378	3584
920.488	3587
920.598	3766
920.708	3945
920.818	3831
920.928	3846
921.038	4082
921.148	4017
921.258	3736
921.368	3641
921.477	3610
921.587	3549
921.697	3500
921.806	3660
921.916	3511
922.025	3374
922.134	3355
922.244	3351
922.353	3424
922.462	3291
922.571	3241
922.68	3108
922.789	3112
922.898	3161
923.007	3104
923.116	3173
923.224	3195
923.333	3203
923.442	3108
923.55	3135
923.659	3165
923.767	3207
923.876	3112
923.984	3241
924.092	3135
924.201	3241
924.309	3226
924.417	3245
924.525	3222
924.633	3256
924.741	4150
924.849	3085
924.956	3264
925.064	3100
925.172	3043
925.279	3123
925.387	3195
925.494	3146
925.602	3370
925.709	3344
925.816	3180
925.924	3287
926.031	3374
926.138	3302
926.245	3367
926.352	3245
926.459	3428
926.566	3454
926.673	3351
926.779	3279
926.886	3287
926.993	3188
927.099	3150
927.206	3097
927.312	3131
927.419	3268
927.525	3207
927.631	3279
927.737	3188
927.843	3157
927.95	3070
928.056	3123
928.162	3173
928.267	3256
928.373	3876
928.479	3363
928.585	3058
928.69	3218
928.796	3283
928.901	3161
929.007	3039
929.112	3264
929.218	3203
929.323	3176
929.428	3165
929.533	3329
929.638	3142
929.743	3180
929.848	3264
929.953	3264
930.058	3146
930.163	3028
930.267	3066
930.372	3214
930.477	3032
930.581	3340
930.685	3157
930.79	3070
930.894	3116
930.998	3131
931.103	3264
931.207	3036
931.311	2937
931.415	2948
931.519	2788
931.623	2830
