Data from test_V78500241_28.txt Node
Date: Fri Mar 25 16:15:23 CST 2022
User: usil
Spectrometer: V785-0024
Trigger mode: 0
Integration Time (sec): 4.000000E-1
Scans to average: 1
Nonlinearity correction enabled: false
Boxcar width: 0
Storing dark spectrum: false
XAxis mode: Wavelengths
Number of Pixels in Spectrum: 1024
>>>>>Begin Spectral Data<<<<<
801.071	2990
801.214	2982
801.356	2944
801.499	2952
801.641	2899
801.783	2960
801.926	3097
802.068	3028
802.211	3070
802.353	3100
802.496	2986
802.638	3039
802.78	3093
802.923	3127
803.065	3032
803.208	2937
803.35	2990
803.492	2998
803.635	2975
803.777	2826
803.919	2922
804.061	3260
804.204	3001
804.346	2944
804.488	2895
804.63	3066
804.773	2937
804.915	2948
805.057	3161
805.199	2975
805.341	3024
805.483	3100
805.626	3070
805.768	3062
805.91	3131
806.052	3188
806.194	3097
806.336	3279
806.478	3108
806.62	2982
806.762	3039
806.904	3142
807.046	3230
807.188	3077
807.33	2967
807.472	3043
807.614	2967
807.756	3058
807.898	2971
808.04	2925
808.182	3017
808.324	2975
808.465	2960
808.607	2944
808.749	2834
808.891	2902
809.033	3062
809.174	3043
809.316	2937
809.458	2941
809.6	2811
809.741	2804
809.883	2823
810.025	2853
810.166	2880
810.308	2899
810.45	2910
810.591	2853
810.733	2819
810.875	2891
811.016	2830
811.158	2807
811.299	2826
811.441	2982
811.582	2937
811.724	2895
811.865	2883
812.007	2960
812.148	2918
812.29	2902
812.431	2975
812.573	3020
812.714	3005
812.855	3093
812.997	3127
813.138	3195
813.279	3085
813.421	3017
813.562	3020
813.703	2914
813.845	2891
813.986	2857
814.127	2819
814.268	2876
814.41	2906
814.551	2891
814.692	2914
814.833	2876
814.974	2902
815.115	2990
815.256	2902
815.397	2864
815.539	2929
815.68	2823
815.821	2861
815.962	3036
816.103	2994
816.244	2925
816.385	2891
816.526	3009
816.666	2956
816.807	2785
816.948	2925
817.089	2994
817.23	2918
817.371	2811
817.512	2849
817.653	2899
817.793	2861
817.934	2933
818.075	3028
818.216	3020
818.356	3066
818.497	2929
818.638	2853
818.778	2880
818.919	2849
819.06	2826
819.2	2925
819.341	2838
819.481	2864
819.622	2982
819.762	3161
819.903	3100
820.043	3009
820.184	2918
820.324	2933
820.465	3070
820.605	3066
820.746	3116
820.886	2990
821.026	3150
821.167	3195
821.307	3310
821.447	3359
821.588	3287
821.728	3249
821.868	3245
822.008	3135
822.149	3256
822.289	3294
822.429	3169
822.569	3146
822.709	3230
822.849	3100
822.99	3131
823.13	3203
823.27	3253
823.41	3154
823.55	3214
823.69	3180
823.83	3264
823.97	3123
824.11	3036
824.25	3024
824.389	3176
824.529	3180
824.669	3100
824.809	3249
824.949	3332
825.089	3245
825.228	3249
825.368	3062
825.508	3005
825.648	3009
825.787	3013
825.927	3077
826.067	3013
826.206	2994
826.346	3093
826.485	3138
826.625	3176
826.765	3321
826.904	3233
827.044	3077
827.183	3005
827.323	2941
827.462	3017
827.601	2944
827.741	2998
827.88	3020
828.02	2937
828.159	3009
828.298	3093
828.437	3192
828.577	3104
828.716	3272
828.855	3123
828.994	2944
829.134	2933
829.273	2960
829.412	2967
829.551	2895
829.69	2948
829.829	3028
829.968	3203
830.107	3081
830.246	3043
830.385	2944
830.524	2891
830.663	2868
830.802	2762
830.941	2712
831.08	2667
831.219	2781
831.357	2792
831.496	3024
831.635	2762
831.774	2682
831.913	2708
832.051	2590
832.19	2617
832.329	2720
832.467	2568
832.606	2537
832.744	2610
832.883	2602
833.022	2598
833.16	2712
833.299	2739
833.437	2739
833.576	2754
833.714	2785
833.852	2811
833.991	2800
834.129	2872
834.267	2883
834.406	2857
834.544	2933
834.682	2906
834.821	2918
834.959	3119
835.097	2910
835.235	3112
835.373	3043
835.511	3077
835.65	2979
835.788	2982
835.926	2861
836.064	2864
836.202	2864
836.34	3142
836.478	3195
836.615	3123
836.753	3146
836.891	3260
837.029	3226
837.167	3135
837.305	3093
837.443	3127
837.58	2971
837.718	3169
837.856	3135
837.993	3070
838.131	3180
838.269	3116
838.406	3157
838.544	3104
838.681	2994
838.819	2963
838.956	2872
839.094	2853
839.231	2933
839.369	3066
839.506	3409
839.643	3233
839.781	3085
839.918	3005
840.055	3055
840.193	3108
840.33	3146
840.467	3116
840.604	3192
840.742	3477
840.879	3058
841.016	3131
841.153	3207
841.29	3386
841.427	3329
841.564	3321
841.701	3344
841.838	3260
841.975	3272
842.112	3272
842.249	3135
842.385	3097
842.522	3294
842.659	3138
842.796	3100
842.933	3161
843.069	3127
843.206	3093
843.343	3237
843.479	3180
843.616	3188
843.752	2922
843.889	2929
844.025	3173
844.162	2895
844.298	3123
844.435	2979
844.571	2933
844.708	3123
844.844	3218
844.98	3268
845.117	3241
845.253	3108
845.389	3043
845.525	3135
845.661	3131
845.798	3089
845.934	3184
846.07	3116
846.206	3279
846.342	3370
846.478	3279
846.614	3131
846.75	3104
846.886	3055
847.022	3310
847.158	3222
847.294	3207
847.429	3310
847.565	3268
847.701	3561
847.837	3100
847.972	3047
848.108	3218
848.244	3203
848.379	3055
848.515	2956
848.65	2956
848.786	3024
848.921	3013
849.057	3161
849.192	3199
849.328	3116
849.463	3165
849.598	3097
849.734	3093
849.869	3005
850.004	2979
850.14	3001
850.275	2944
850.41	2861
850.545	2887
850.68	2990
850.815	3017
850.95	3013
851.085	3214
851.22	3184
851.355	3077
851.49	2979
851.625	3032
851.76	3055
851.895	2986
852.03	2971
852.165	3097
852.299	3138
852.434	3211
852.569	3154
852.703	3241
852.838	3283
852.973	3401
853.107	3393
853.242	3188
853.376	3150
853.511	2994
853.645	3074
853.78	3268
853.914	3192
854.048	3161
854.183	3123
854.317	3195
854.451	3317
854.585	3142
854.72	3100
854.854	3233
854.988	3066
855.122	3135
855.256	3028
855.39	3173
855.524	3310
855.658	3207
855.792	3173
855.926	3268
856.06	3222
856.194	3260
856.327	3180
856.461	3146
856.595	3135
856.729	3165
856.862	3249
856.996	3173
857.13	3256
857.263	3264
857.397	3313
857.53	3154
857.664	3218
857.797	3279
857.931	3272
858.064	3222
858.197	3264
858.331	3157
858.464	3123
858.597	3043
858.731	3169
858.864	3154
858.997	3112
859.13	3207
859.263	3226
859.396	3317
859.529	3077
859.662	3138
859.795	3074
859.928	3142
860.061	3306
860.194	3355
860.327	3157
860.46	3150
860.592	3279
860.725	3260
860.858	3291
860.99	3154
861.123	3135
861.256	3066
861.388	3146
861.521	3812
861.653	3051
861.786	3020
861.918	3058
862.05	3123
862.183	3135
862.315	3180
862.447	3222
862.58	3135
862.712	2986
862.844	2899
862.976	3058
863.108	3013
863.24	3485
863.372	2906
863.504	3020
863.636	2963
863.768	3036
863.9	3032
864.032	2967
864.164	2975
864.296	3081
864.428	3127
864.559	3188
864.691	3119
864.823	3116
864.954	3093
865.086	3077
865.217	3058
865.349	2986
865.48	3055
865.612	3032
865.743	3173
865.875	3047
866.006	2990
866.137	2982
866.269	2982
866.4	2952
866.531	2952
866.662	2925
866.793	2914
866.924	2944
867.055	3024
867.186	2971
867.317	2906
867.448	2906
867.579	2891
867.71	2880
867.841	2853
867.972	2952
868.103	2941
868.233	2906
868.364	2929
868.495	2933
868.625	3116
868.756	3195
868.886	3036
869.017	3077
869.147	3195
869.278	3211
869.408	3058
869.539	3047
869.669	3146
869.799	3074
869.929	3199
870.06	3173
870.19	3382
870.32	3313
870.45	3294
870.58	3435
870.71	3523
870.84	3504
870.97	3367
871.1	3291
871.23	3500
871.36	3519
871.489	3447
871.619	3492
871.749	3443
871.879	3485
872.008	3523
872.138	3405
872.267	3306
872.397	3165
872.526	3142
872.656	3062
872.785	3127
872.915	3306
873.044	3355
873.173	3260
873.303	3313
873.432	3253
873.561	3268
873.69	3218
873.819	3195
873.948	3237
874.077	3157
874.206	3112
874.335	3112
874.464	3260
874.593	3439
874.722	3310
874.851	3443
874.979	3367
875.108	3378
875.237	3222
875.365	3195
875.494	3230
875.623	3325
875.751	3104
875.88	3173
876.008	3253
876.136	3298
876.265	3412
876.393	3568
876.521	3466
876.65	3443
876.778	3370
876.906	3291
877.034	3222
877.162	3275
877.29	3222
877.418	3302
877.546	3237
877.674	3264
877.802	3283
877.93	3272
878.058	3211
878.185	3116
878.313	3249
878.441	3268
878.568	3131
878.696	3176
878.824	3302
878.951	3351
879.079	3515
879.206	3667
879.333	3504
879.461	3393
879.588	3393
879.715	3519
879.842	3663
879.97	3424
880.097	3226
880.224	3199
880.351	3256
880.478	3256
880.605	3256
880.732	3249
880.859	3572
880.986	3313
881.112	3359
881.239	3237
881.366	3123
881.493	3066
881.619	3032
881.746	3119
881.872	3112
881.999	3146
882.125	3161
882.252	3302
882.378	3329
882.505	3504
882.631	3310
882.757	3211
882.883	3188
883.01	3268
883.136	3199
883.262	3100
883.388	3127
883.514	3370
883.64	3458
883.766	3340
883.892	3230
884.018	3294
884.143	3454
884.269	3595
884.395	3268
884.52	3192
884.646	3241
884.772	3188
884.897	3195
885.023	3237
885.148	3359
885.274	3462
885.399	3412
885.524	3294
885.65	3332
885.775	3336
885.9	3306
886.025	3538
886.15	3443
886.275	3344
886.4	3275
886.525	3344
886.65	3332
886.775	3340
886.9	3542
887.025	3698
887.149	3435
887.274	3340
887.399	3233
887.523	3264
887.648	3188
887.773	3272
887.897	3405
888.021	3439
888.146	3378
888.27	3496
888.395	3576
888.519	3458
888.643	3500
888.767	3572
888.891	3348
889.015	3298
889.139	3329
889.263	3294
889.387	3439
889.511	3572
889.635	3519
889.759	3306
889.883	3348
890.006	3443
890.13	3561
890.254	3291
890.377	3397
890.501	3260
890.624	3214
890.748	3397
890.871	3245
890.995	3165
891.118	3093
891.241	3241
891.364	3306
891.488	3386
891.611	3233
891.734	3245
891.857	3325
891.98	3310
892.103	3355
892.226	3340
892.349	3245
892.471	3192
892.594	3310
892.717	3302
892.839	3313
892.962	3329
893.085	3401
893.207	3332
893.33	3226
893.452	3298
893.575	3405
893.697	3313
893.819	3568
893.941	3526
894.064	3492
894.186	3332
894.308	3287
894.43	3473
894.552	3610
894.674	3553
894.796	3317
894.918	3329
895.04	3359
895.161	3488
895.283	3439
895.405	3336
895.526	3420
895.648	3507
895.769	3492
895.891	3462
896.012	3568
896.134	3504
896.255	3477
896.376	3447
896.498	3393
896.619	3492
896.74	3416
896.861	3454
896.982	3751
897.103	3888
897.224	3667
897.345	3564
897.466	3488
897.587	3530
897.708	3637
897.828	3625
897.949	3485
898.07	3393
898.19	3488
898.311	3675
898.431	3496
898.552	3515
898.672	3633
898.792	3618
898.913	3561
899.033	3431
899.153	3332
899.273	3230
899.393	3332
899.513	3355
899.633	3355
899.753	3374
899.873	3393
899.993	3447
900.113	3386
900.232	3462
900.352	3405
900.472	3313
900.591	3275
900.711	3313
900.83	3268
900.95	3466
901.069	3553
901.189	3412
901.308	3230
901.427	3180
901.546	3245
901.665	3359
901.784	3401
901.904	3226
902.023	3195
902.141	3074
902.26	3020
902.379	3188
902.498	3142
902.617	3062
902.735	3283
902.854	3306
902.973	3214
903.091	3108
903.21	3074
903.328	3188
903.446	3157
903.565	3169
903.683	3241
903.801	3211
903.919	3325
904.038	3306
904.156	3176
904.274	3306
904.392	3329
904.51	3340
904.627	3386
904.745	3469
904.863	3542
904.981	3325
905.098	3233
905.216	3291
905.334	3359
905.451	3336
905.569	3355
905.686	3504
905.803	3496
905.921	3336
906.038	3469
906.155	3412
906.272	3351
906.389	3393
906.506	3275
906.623	3306
906.74	3298
906.857	3237
906.974	3287
907.091	3496
907.208	3641
907.324	3545
907.441	3435
907.557	3272
907.674	3287
907.79	3291
907.907	3329
908.023	3439
908.139	3416
908.256	3382
908.372	3420
908.488	3431
908.604	3332
908.72	3287
908.836	3378
908.952	3336
909.068	3428
909.184	3534
909.3	3447
909.415	3568
909.531	3477
909.647	3310
909.762	3351
909.878	3302
909.993	3416
910.108	3439
910.224	3435
910.339	3458
910.454	3374
910.57	3321
910.685	3302
910.8	3667
910.915	3580
911.03	3469
911.145	3302
911.259	3340
911.374	3389
911.489	3287
911.604	3264
911.718	3157
911.833	3173
911.947	3047
912.062	3066
912.176	3207
912.291	3294
912.405	3264
912.519	3519
912.633	3534
912.748	3378
912.862	3348
912.976	3207
913.09	3138
913.204	3199
913.318	3260
913.431	3409
913.545	3378
913.659	3420
913.772	3351
913.886	3264
914	3218
914.113	3435
914.226	3481
914.34	3382
914.453	3302
914.566	3454
914.68	3340
914.793	3336
914.906	3184
915.019	3176
915.132	3104
915.245	3180
915.358	3253
915.47	3287
915.583	3340
915.696	3363
915.809	3454
915.921	3496
916.034	3302
916.146	3268
916.259	3287
916.371	3435
916.483	3416
916.595	3317
916.708	3370
916.82	3420
916.932	3420
917.044	3409
917.156	3435
917.268	3310
917.38	3317
917.491	3344
917.603	3405
917.715	3515
917.826	3488
917.938	3416
918.049	3329
918.161	3469
918.272	3610
918.384	3584
918.495	3572
918.606	3386
918.717	3359
918.828	3469
918.939	3454
919.05	3386
919.161	3416
919.272	3233
919.383	3344
919.494	3549
919.604	3720
919.715	3504
919.826	3431
919.936	3530
920.047	3641
920.157	3614
920.267	3804
920.378	3641
920.488	3622
920.598	3827
920.708	4006
920.818	3915
920.928	3907
921.038	4116
921.148	4040
921.258	3713
921.368	3656
921.477	3618
921.587	3629
921.697	3500
921.806	3724
921.916	3587
922.025	3424
922.134	3401
922.244	3386
922.353	3477
922.462	3279
922.571	3222
922.68	3138
922.789	3146
922.898	3211
923.007	3108
923.116	3245
923.224	3199
923.333	3218
923.442	3138
923.55	3146
923.659	3199
923.767	3222
923.876	3116
923.984	3294
924.092	3184
924.201	3233
924.309	3241
924.417	3294
924.525	3203
924.633	3332
924.741	4234
924.849	3077
924.956	3306
925.064	3138
925.172	3081
925.279	3154
925.387	3222
925.494	3275
925.602	3416
925.709	3405
925.816	3264
925.924	3355
926.031	3447
926.138	3355
926.245	3405
926.352	3321
926.459	3439
926.566	3545
926.673	3431
926.779	3313
926.886	3298
926.993	3207
927.099	3192
927.206	3154
927.312	3165
927.419	3218
927.525	3272
927.631	3329
927.737	3207
927.843	3180
927.95	3062
928.056	3150
928.162	3199
928.267	3317
928.373	3846
928.479	3355
928.585	3154
928.69	3218
928.796	3291
928.901	3222
929.007	3074
929.112	3203
929.218	3222
929.323	3192
929.428	3214
929.533	3389
929.638	3154
929.743	3253
929.848	3302
929.953	3249
930.058	3211
930.163	3020
930.267	3093
930.372	3230
930.477	3077
930.581	3336
930.685	3249
930.79	3093
930.894	3176
930.998	3131
931.103	3310
931.207	2994
931.311	3001
931.415	2960
931.519	2815
931.623	2868
