Data from test_V78500241_1554.txt Node
Date: Fri Mar 25 16:25:58 CST 2022
User: usil
Spectrometer: V785-0024
Trigger mode: 0
Integration Time (sec): 4.000000E-1
Scans to average: 1
Nonlinearity correction enabled: false
Boxcar width: 0
Storing dark spectrum: false
XAxis mode: Wavelengths
Number of Pixels in Spectrum: 1024
>>>>>Begin Spectral Data<<<<<
801.071	2937
801.214	2982
801.356	2895
801.499	2967
801.641	2948
801.783	2944
801.926	3127
802.068	3013
802.211	3051
802.353	3100
802.496	2982
802.638	3066
802.78	3089
802.923	3123
803.065	3036
803.208	2925
803.35	2998
803.492	3001
803.635	2986
803.777	2830
803.919	2929
804.061	3230
804.204	3013
804.346	2937
804.488	2899
804.63	3032
804.773	2902
804.915	2967
805.057	3135
805.199	2952
805.341	3047
805.483	3055
805.626	3032
805.768	3020
805.91	3138
806.052	3150
806.194	3074
806.336	3268
806.478	3013
806.62	2979
806.762	3020
806.904	3138
807.046	3218
807.188	3001
807.33	2979
807.472	2994
807.614	2944
807.756	3005
807.898	2933
808.04	2937
808.182	3009
808.324	3005
808.465	2952
808.607	2895
808.749	2857
808.891	2868
809.033	3013
809.174	2971
809.316	2944
809.458	2918
809.6	2838
809.741	2792
809.883	2826
810.025	2895
810.166	2918
810.308	2902
810.45	2887
810.591	2777
810.733	2804
810.875	2895
811.016	2815
811.158	2804
811.299	2868
811.441	2967
811.582	2922
811.724	2861
811.865	2853
812.007	2944
812.148	2899
812.29	2895
812.431	2902
812.573	2975
812.714	3005
812.855	3077
812.997	3108
813.138	3100
813.279	3055
813.421	3043
813.562	3009
813.703	2861
813.845	2906
813.986	2823
814.127	2758
814.268	2853
814.41	2891
814.551	2872
814.692	2902
814.833	2853
814.974	2937
815.115	2979
815.256	2864
815.397	2876
815.539	2899
815.68	2796
815.821	2830
815.962	2971
816.103	2975
816.244	2929
816.385	2895
816.526	3036
816.666	2944
816.807	2792
816.948	2956
817.089	2929
817.23	2906
817.371	2853
817.512	2845
817.653	2880
817.793	2845
817.934	2910
818.075	3005
818.216	2990
818.356	3066
818.497	2902
818.638	2826
818.778	2849
818.919	2842
819.06	2804
819.2	2914
819.341	2834
819.481	2845
819.622	2960
819.762	3146
819.903	3077
820.043	2941
820.184	2941
820.324	2929
820.465	3009
820.605	3028
820.746	3017
820.886	2956
821.026	3127
821.167	3214
821.307	3291
821.447	3294
821.588	3268
821.728	3199
821.868	3237
822.008	3119
822.149	3203
822.289	3233
822.429	3157
822.569	3146
822.709	3211
822.849	3070
822.99	3112
823.13	3173
823.27	3253
823.41	3154
823.55	3157
823.69	3138
823.83	3218
823.97	3112
824.11	3047
824.25	3047
824.389	3093
824.529	3127
824.669	3097
824.809	3233
824.949	3275
825.089	3230
825.228	3184
825.368	3062
825.508	2982
825.648	3001
825.787	3051
825.927	3017
826.067	3017
826.206	2952
826.346	3055
826.485	3100
826.625	3131
826.765	3291
826.904	3294
827.044	3017
827.183	2956
827.323	2872
827.462	3020
827.601	2948
827.741	2982
827.88	2982
828.02	2880
828.159	2994
828.298	3024
828.437	3173
828.577	3081
828.716	3279
828.855	3104
828.994	2944
829.134	2899
829.273	2922
829.412	2895
829.551	2918
829.69	2910
829.829	3001
829.968	3146
830.107	3047
830.246	3032
830.385	2963
830.524	2868
830.663	2815
830.802	2781
830.941	2670
831.08	2697
831.219	2811
831.357	2781
831.496	2963
831.635	2743
831.774	2659
831.913	2636
832.051	2564
832.19	2590
832.329	2682
832.467	2533
832.606	2503
832.744	2629
832.883	2629
833.022	2594
833.16	2693
833.299	2746
833.437	2746
833.576	2739
833.714	2705
833.852	2739
833.991	2777
834.129	2864
834.267	2830
834.406	2807
834.544	2910
834.682	2918
834.821	2883
834.959	3062
835.097	2933
835.235	3097
835.373	3062
835.511	3047
835.65	2952
835.788	2963
835.926	2872
836.064	2826
836.202	2872
836.34	3119
836.478	3176
836.615	3043
836.753	3203
836.891	3180
837.029	3169
837.167	3157
837.305	3112
837.443	3051
837.58	3013
837.718	3188
837.856	3093
837.993	3051
838.131	3154
838.269	3135
838.406	3180
838.544	3127
838.681	2922
838.819	2941
838.956	2804
839.094	2880
839.231	2941
839.369	3039
839.506	3389
839.643	3211
839.781	3055
839.918	2967
840.055	3009
840.193	3093
840.33	3058
840.467	3119
840.604	3180
840.742	3443
840.879	3081
841.016	3043
841.153	3138
841.29	3332
841.427	3294
841.564	3294
841.701	3294
841.838	3226
841.975	3184
842.112	3275
842.249	3085
842.385	3085
842.522	3245
842.659	3135
842.796	3100
842.933	3112
843.069	3051
843.206	3062
843.343	3199
843.479	3112
843.616	3146
843.752	2941
843.889	2880
844.025	3112
844.162	2880
844.298	3077
844.435	2979
844.571	2906
844.708	3085
844.844	3176
844.98	3249
845.117	3195
845.253	3074
845.389	3017
845.525	3146
845.661	3131
845.798	3039
845.934	3188
846.07	3077
846.206	3233
846.342	3351
846.478	3275
846.614	3081
846.75	3058
846.886	3028
847.022	3230
847.158	3157
847.294	3214
847.429	3302
847.565	3203
847.701	3507
847.837	3055
847.972	3009
848.108	3146
848.244	3188
848.379	3013
848.515	2963
848.65	2933
848.786	2986
848.921	3028
849.057	3108
849.192	3154
849.328	3066
849.463	3157
849.598	3100
849.734	3055
849.869	2960
850.004	2944
850.14	2986
850.275	2914
850.41	2864
850.545	2895
850.68	2948
850.815	3005
850.95	3005
851.085	3207
851.22	3135
851.355	3055
851.49	3017
851.625	3055
851.76	3017
851.895	2948
852.03	2963
852.165	3043
852.299	3097
852.434	3207
852.569	3161
852.703	3173
852.838	3211
852.973	3386
853.107	3329
853.242	3203
853.376	3100
853.511	2956
853.645	3074
853.78	3283
853.914	3112
854.048	3104
854.183	3085
854.317	3146
854.451	3306
854.585	3169
854.72	3104
854.854	3207
854.988	3093
855.122	3093
855.256	2979
855.39	3157
855.524	3230
855.658	3184
855.792	3173
855.926	3176
856.06	3237
856.194	3268
856.327	3188
856.461	3074
856.595	3108
856.729	3104
856.862	3222
856.996	3157
857.13	3241
857.263	3241
857.397	3268
857.53	3173
857.664	3184
857.797	3283
857.931	3230
858.064	3169
858.197	3256
858.331	3180
858.464	3123
858.597	3017
858.731	3131
858.864	3180
858.997	3100
859.13	3184
859.263	3161
859.396	3249
859.529	3093
859.662	3055
859.795	3077
859.928	3154
860.061	3329
860.194	3264
860.327	3123
860.46	3093
860.592	3241
860.725	3249
860.858	3237
860.99	3138
861.123	3036
861.256	3077
861.388	3135
861.521	3972
861.653	3005
861.786	2994
861.918	3001
862.05	3089
862.183	3081
862.315	3184
862.447	3176
862.58	3108
862.712	2910
862.844	2902
862.976	3036
863.108	2963
863.24	3340
863.372	2925
863.504	2963
863.636	2937
863.768	3020
863.9	3009
864.032	2925
864.164	2941
864.296	3039
864.428	3077
864.559	3085
864.691	3089
864.823	3062
864.954	3036
865.086	3074
865.217	2975
865.349	2990
865.48	2998
865.612	3032
865.743	3188
865.875	3005
866.006	2952
866.137	2982
866.269	2937
866.4	2960
866.531	2944
866.662	2899
866.793	2895
866.924	2910
867.055	3009
867.186	2933
867.317	2880
867.448	2861
867.579	2880
867.71	2868
867.841	2845
867.972	2925
868.103	2933
868.233	2914
868.364	2880
868.495	2933
868.625	3089
868.756	3150
868.886	2956
869.017	3036
869.147	3176
869.278	3230
869.408	3009
869.539	3058
869.669	3112
869.799	3039
869.929	3146
870.06	3154
870.19	3329
870.32	3306
870.45	3268
870.58	3378
870.71	3450
870.84	3500
870.97	3287
871.1	3264
871.23	3530
871.36	3469
871.489	3393
871.619	3420
871.749	3412
871.879	3412
872.008	3523
872.138	3386
872.267	3317
872.397	3173
872.526	3157
872.656	3017
872.785	3112
872.915	3226
873.044	3283
873.173	3203
873.303	3218
873.432	3268
873.561	3222
873.69	3146
873.819	3131
873.948	3211
874.077	3119
874.206	3020
874.335	3116
874.464	3188
874.593	3332
874.722	3222
874.851	3389
874.979	3409
875.108	3332
875.237	3211
875.365	3138
875.494	3157
875.623	3275
875.751	3097
875.88	3146
876.008	3192
876.136	3207
876.265	3378
876.393	3534
876.521	3458
876.65	3378
876.778	3344
876.906	3256
877.034	3245
877.162	3230
877.29	3195
877.418	3222
877.546	3226
877.674	3214
877.802	3253
877.93	3249
878.058	3161
878.185	3108
878.313	3207
878.441	3211
878.568	3077
878.696	3138
878.824	3275
878.951	3310
879.079	3450
879.206	3656
879.333	3447
879.461	3313
879.588	3340
879.715	3492
879.842	3576
879.97	3428
880.097	3176
880.224	3131
880.351	3161
880.478	3199
880.605	3188
880.732	3176
880.859	3488
880.986	3306
881.112	3336
881.239	3226
881.366	3108
881.493	3055
881.619	3024
881.746	3051
881.872	3089
881.999	3100
882.125	3146
882.252	3241
882.378	3302
882.505	3443
882.631	3275
882.757	3176
882.883	3214
883.01	3192
883.136	3176
883.262	3089
883.388	3123
883.514	3336
883.64	3370
883.766	3287
883.892	3199
884.018	3184
884.143	3416
884.269	3523
884.395	3203
884.52	3176
884.646	3180
884.772	3097
884.897	3119
885.023	3207
885.148	3348
885.274	3420
885.399	3367
885.524	3275
885.65	3245
885.775	3306
885.9	3306
886.025	3412
886.15	3351
886.275	3313
886.4	3241
886.525	3363
886.65	3245
886.775	3287
886.9	3481
887.025	3633
887.149	3409
887.274	3241
887.399	3199
887.523	3199
887.648	3207
887.773	3211
887.897	3378
888.021	3382
888.146	3283
888.27	3416
888.395	3519
888.519	3466
888.643	3450
888.767	3462
888.891	3268
889.015	3233
889.139	3268
889.263	3268
889.387	3389
889.511	3564
889.635	3450
889.759	3268
889.883	3272
890.006	3428
890.13	3481
890.254	3287
890.377	3336
890.501	3222
890.624	3188
890.748	3302
890.871	3173
890.995	3100
891.118	3039
891.241	3192
891.364	3218
891.488	3287
891.611	3165
891.734	3230
891.857	3302
891.98	3211
892.103	3306
892.226	3302
892.349	3192
892.471	3108
892.594	3260
892.717	3298
892.839	3272
892.962	3264
893.085	3344
893.207	3291
893.33	3165
893.452	3222
893.575	3351
893.697	3237
893.819	3469
893.941	3538
894.064	3454
894.186	3287
894.308	3306
894.43	3450
894.552	3564
894.674	3462
894.796	3245
894.918	3310
895.04	3287
895.161	3439
895.283	3370
895.405	3287
895.526	3336
895.648	3439
895.769	3420
895.891	3462
896.012	3450
896.134	3435
896.255	3416
896.376	3401
896.498	3378
896.619	3409
896.74	3336
896.861	3363
896.982	3671
897.103	3835
897.224	3580
897.345	3534
897.466	3393
897.587	3485
897.708	3622
897.828	3561
897.949	3462
898.07	3294
898.19	3401
898.311	3637
898.431	3416
898.552	3553
898.672	3572
898.792	3564
898.913	3549
899.033	3420
899.153	3279
899.273	3233
899.393	3283
899.513	3325
899.633	3321
899.753	3325
899.873	3291
899.993	3382
900.113	3321
900.232	3405
900.352	3340
900.472	3275
900.591	3161
900.711	3294
900.83	3253
900.95	3389
901.069	3488
901.189	3355
901.308	3199
901.427	3188
901.546	3222
901.665	3237
901.784	3351
901.904	3195
902.023	3176
902.141	3001
902.26	3039
902.379	3142
902.498	3051
902.617	3055
902.735	3226
902.854	3237
902.973	3180
903.091	3005
903.21	3066
903.328	3100
903.446	3108
903.565	3123
903.683	3192
903.801	3138
903.919	3233
904.038	3321
904.156	3127
904.274	3313
904.392	3260
904.51	3287
904.627	3306
904.745	3401
904.863	3511
904.981	3272
905.098	3188
905.216	3180
905.334	3253
905.451	3302
905.569	3313
905.686	3389
905.803	3424
905.921	3287
906.038	3416
906.155	3348
906.272	3272
906.389	3336
906.506	3180
906.623	3245
906.74	3253
906.857	3188
906.974	3222
907.091	3435
907.208	3576
907.324	3443
907.441	3382
907.557	3268
907.674	3222
907.79	3207
907.907	3291
908.023	3325
908.139	3367
908.256	3291
908.372	3367
908.488	3409
908.604	3264
908.72	3222
908.836	3298
908.952	3291
909.068	3313
909.184	3469
909.3	3409
909.415	3523
909.531	3481
909.647	3264
909.762	3325
909.878	3287
909.993	3351
910.108	3317
910.224	3359
910.339	3439
910.454	3370
910.57	3291
910.685	3310
910.8	3553
910.915	3519
911.03	3428
911.145	3253
911.259	3302
911.374	3306
911.489	3249
911.604	3207
911.718	3112
911.833	3119
911.947	3032
912.062	3001
912.176	3138
912.291	3192
912.405	3199
912.519	3378
912.633	3477
912.748	3287
912.862	3287
912.976	3169
913.09	3039
913.204	3131
913.318	3230
913.431	3317
913.545	3329
913.659	3458
913.772	3363
913.886	3230
914	3180
914.113	3344
914.226	3431
914.34	3332
914.453	3195
914.566	3382
914.68	3302
914.793	3344
914.906	3138
915.019	3077
915.132	3074
915.245	3165
915.358	3230
915.47	3211
915.583	3275
915.696	3317
915.809	3405
915.921	3386
916.034	3275
916.146	3268
916.259	3207
916.371	3409
916.483	3344
916.595	3260
916.708	3317
916.82	3321
916.932	3321
917.044	3355
917.156	3359
917.268	3264
917.38	3317
917.491	3298
917.603	3428
917.715	3450
917.826	3462
917.938	3355
918.049	3264
918.161	3439
918.272	3618
918.384	3530
918.495	3435
918.606	3275
918.717	3291
918.828	3378
918.939	3386
919.05	3294
919.161	3386
919.272	3150
919.383	3306
919.494	3485
919.604	3633
919.715	3481
919.826	3439
919.936	3439
920.047	3576
920.157	3576
920.267	3778
920.378	3667
920.488	3557
920.598	3759
920.708	3941
920.818	3873
920.928	3781
921.038	4017
921.148	4010
921.258	3698
921.368	3610
921.477	3610
921.587	3542
921.697	3450
921.806	3629
921.916	3515
922.025	3329
922.134	3359
922.244	3321
922.353	3382
922.462	3256
922.571	3237
922.68	3154
922.789	3055
922.898	3146
923.007	3047
923.116	3192
923.224	3184
923.333	3169
923.442	3097
923.55	3077
923.659	3142
923.767	3249
923.876	3138
923.984	3207
924.092	3108
924.201	3214
924.309	3214
924.417	3218
924.525	3195
924.633	3195
924.741	4177
924.849	3100
924.956	3249
925.064	3077
925.172	3047
925.279	3097
925.387	3211
925.494	3184
925.602	3348
925.709	3313
925.816	3237
925.924	3279
926.031	3389
926.138	3359
926.245	3374
926.352	3253
926.459	3428
926.566	3458
926.673	3310
926.779	3287
926.886	3264
926.993	3157
927.099	3150
927.206	3119
927.312	3108
927.419	3218
927.525	3173
927.631	3241
927.737	3150
927.843	3119
927.95	3020
928.056	3138
928.162	3157
928.267	3268
928.373	3766
928.479	3291
928.585	3070
928.69	3203
928.796	3233
928.901	3169
929.007	3066
929.112	3211
929.218	3169
929.323	3188
929.428	3161
929.533	3317
929.638	3112
929.743	3173
929.848	3256
929.953	3192
930.058	3154
930.163	3009
930.267	3062
930.372	3203
930.477	3058
930.581	3291
930.685	3161
930.79	3043
930.894	3146
930.998	3085
931.103	3245
931.207	2990
931.311	2918
931.415	2914
931.519	2762
931.623	2834
