Data from test_V78500241_1323.txt Node
Date: Fri Mar 25 16:24:22 CST 2022
User: usil
Spectrometer: V785-0024
Trigger mode: 0
Integration Time (sec): 4.000000E-1
Scans to average: 1
Nonlinearity correction enabled: false
Boxcar width: 0
Storing dark spectrum: false
XAxis mode: Wavelengths
Number of Pixels in Spectrum: 1024
>>>>>Begin Spectral Data<<<<<
801.071	2956
801.214	2933
801.356	2868
801.499	2876
801.641	2861
801.783	2880
801.926	3074
802.068	2963
802.211	2998
802.353	3055
802.496	2960
802.638	3001
802.78	3009
802.923	3070
803.065	2982
803.208	2910
803.35	2922
803.492	2925
803.635	2933
803.777	2735
803.919	2853
804.061	3207
804.204	2933
804.346	2895
804.488	2819
804.63	3009
804.773	2876
804.915	2891
805.057	3077
805.199	2906
805.341	2925
805.483	3028
805.626	3005
805.768	2960
805.91	3089
806.052	3116
806.194	3028
806.336	3211
806.478	3001
806.62	2956
806.762	2952
806.904	3074
807.046	3157
807.188	2963
807.33	2952
807.472	3005
807.614	2937
807.756	2975
807.898	2933
808.04	2910
808.182	2982
808.324	2944
808.465	2864
808.607	2857
808.749	2773
808.891	2857
809.033	2971
809.174	2937
809.316	2887
809.458	2895
809.6	2727
809.741	2762
809.883	2781
810.025	2857
810.166	2796
810.308	2842
810.45	2842
810.591	2830
810.733	2773
810.875	2830
811.016	2792
811.158	2800
811.299	2815
811.441	2944
811.582	2906
811.724	2819
811.865	2876
812.007	2910
812.148	2842
812.29	2834
812.431	2910
812.573	2937
812.714	2967
812.855	3043
812.997	3039
813.138	3116
813.279	2998
813.421	2990
813.562	2952
813.703	2853
813.845	2868
813.986	2739
814.127	2739
814.268	2811
814.41	2804
814.551	2857
814.692	2880
814.833	2788
814.974	2887
815.115	2963
815.256	2807
815.397	2788
815.539	2868
815.68	2769
815.821	2826
815.962	2944
816.103	2910
816.244	2838
816.385	2815
816.526	2922
816.666	2922
816.807	2727
816.948	2830
817.089	2895
817.23	2819
817.371	2773
817.512	2773
817.653	2849
817.793	2845
817.934	2895
818.075	2982
818.216	3005
818.356	3013
818.497	2872
818.638	2800
818.778	2781
818.919	2769
819.06	2777
819.2	2868
819.341	2773
819.481	2781
819.622	2922
819.762	3100
819.903	3032
820.043	2910
820.184	2872
820.324	2906
820.465	3017
820.605	2998
820.746	3036
820.886	2925
821.026	3085
821.167	3150
821.307	3260
821.447	3275
821.588	3249
821.728	3233
821.868	3157
822.008	3097
822.149	3207
822.289	3192
822.429	3108
822.569	3070
822.709	3146
822.849	3013
822.99	3039
823.13	3135
823.27	3192
823.41	3123
823.55	3173
823.69	3161
823.83	3207
823.97	3100
824.11	3005
824.25	2986
824.389	3047
824.529	3104
824.669	3074
824.809	3157
824.949	3199
825.089	3214
825.228	3161
825.368	2975
825.508	2967
825.648	2960
825.787	3032
825.927	3017
826.067	2963
826.206	2982
826.346	3047
826.485	3089
826.625	3142
826.765	3260
826.904	3184
827.044	2986
827.183	2922
827.323	2830
827.462	2967
827.601	2906
827.741	2975
827.88	2960
828.02	2834
828.159	2944
828.298	3009
828.437	3100
828.577	3039
828.716	3237
828.855	3085
828.994	2906
829.134	2899
829.273	2899
829.412	2872
829.551	2849
829.69	2887
829.829	2975
829.968	3108
830.107	3013
830.246	2998
830.385	2918
830.524	2876
830.663	2823
830.802	2746
830.941	2632
831.08	2655
831.219	2735
831.357	2750
831.496	2925
831.635	2735
831.774	2655
831.913	2648
832.051	2583
832.19	2568
832.329	2655
832.467	2549
832.606	2473
832.744	2590
832.883	2583
833.022	2583
833.16	2663
833.299	2705
833.437	2670
833.576	2674
833.714	2663
833.852	2750
833.991	2754
834.129	2838
834.267	2811
834.406	2777
834.544	2861
834.682	2861
834.821	2868
834.959	3024
835.097	2868
835.235	3058
835.373	3013
835.511	3013
835.65	2937
835.788	2963
835.926	2838
836.064	2804
836.202	2857
836.34	3097
836.478	3127
836.615	3028
836.753	3131
836.891	3199
837.029	3146
837.167	3074
837.305	3036
837.443	3051
837.58	2937
837.718	3131
837.856	3009
837.993	3039
838.131	3131
838.269	3058
838.406	3081
838.544	3093
838.681	2956
838.819	2925
838.956	2811
839.094	2819
839.231	2922
839.369	2998
839.506	3393
839.643	3207
839.781	3036
839.918	2944
840.055	2979
840.193	3036
840.33	3055
840.467	3108
840.604	3131
840.742	3378
840.879	3024
841.016	3055
841.153	3131
841.29	3336
841.427	3253
841.564	3264
841.701	3340
841.838	3211
841.975	3173
842.112	3195
842.249	3108
842.385	3024
842.522	3260
842.659	3100
842.796	3081
842.933	3081
843.069	3020
843.206	3051
843.343	3135
843.479	3108
843.616	3100
843.752	2876
843.889	2872
844.025	3112
844.162	2857
844.298	3047
844.435	2944
844.571	2887
844.708	3070
844.844	3195
844.98	3214
845.117	3180
845.253	3047
845.389	2967
845.525	3081
845.661	3077
845.798	3001
845.934	3093
846.07	3047
846.206	3199
846.342	3298
846.478	3211
846.614	3070
846.75	3047
846.886	3066
847.022	3264
847.158	3135
847.294	3207
847.429	3211
847.565	3222
847.701	3477
847.837	2986
847.972	2998
848.108	3154
848.244	3116
848.379	2990
848.515	2948
848.65	2937
848.786	2941
848.921	2975
849.057	3142
849.192	3112
849.328	3077
849.463	3089
849.598	3074
849.734	3032
849.869	2960
850.004	2922
850.14	2944
850.275	2876
850.41	2811
850.545	2883
850.68	2922
850.815	2941
850.95	2979
851.085	3157
851.22	3127
851.355	3024
851.49	2979
851.625	3020
851.76	3032
851.895	2922
852.03	2895
852.165	3032
852.299	3119
852.434	3195
852.569	3108
852.703	3199
852.838	3264
852.973	3378
853.107	3332
853.242	3127
853.376	3081
853.511	2944
853.645	3055
853.78	3230
853.914	3142
854.048	3081
854.183	3070
854.317	3119
854.451	3283
854.585	3112
854.72	3097
854.854	3211
854.988	3043
855.122	3066
855.256	2971
855.39	3135
855.524	3249
855.658	3135
855.792	3150
855.926	3176
856.06	3241
856.194	3253
856.327	3165
856.461	3062
856.595	3005
856.729	3077
856.862	3226
856.996	3157
857.13	3226
857.263	3230
857.397	3256
857.53	3104
857.664	3157
857.797	3256
857.931	3207
858.064	3138
858.197	3203
858.331	3089
858.464	3055
858.597	3009
858.731	3108
858.864	3135
858.997	3066
859.13	3135
859.263	3138
859.396	3188
859.529	3055
859.662	3089
859.795	3020
859.928	3135
860.061	3230
860.194	3272
860.327	3097
860.46	3066
860.592	3233
860.725	3245
860.858	3237
860.99	3077
861.123	3036
861.256	3036
861.388	3123
861.521	3694
861.653	2986
861.786	2963
861.918	2986
862.05	3058
862.183	3070
862.315	3119
862.447	3169
862.58	3062
862.712	2929
862.844	2853
862.976	3009
863.108	2982
863.24	3313
863.372	2864
863.504	2960
863.636	2975
863.768	3032
863.9	2971
864.032	2857
864.164	2918
864.296	3028
864.428	3081
864.559	3116
864.691	3062
864.823	3039
864.954	3005
865.086	3036
865.217	2975
865.349	2956
865.48	2971
865.612	3009
865.743	3146
865.875	2952
866.006	2933
866.137	2960
866.269	2952
866.4	2910
866.531	2902
866.662	2849
866.793	2880
866.924	2899
867.055	2929
867.186	2937
867.317	2880
867.448	2834
867.579	2857
867.71	2849
867.841	2785
867.972	2891
868.103	2944
868.233	2883
868.364	2807
868.495	2914
868.625	3089
868.756	3173
868.886	2971
869.017	3028
869.147	3142
869.278	3154
869.408	3066
869.539	2975
869.669	3074
869.799	3024
869.929	3138
870.06	3089
870.19	3302
870.32	3279
870.45	3306
870.58	3363
870.71	3458
870.84	3424
870.97	3306
871.1	3226
871.23	3462
871.36	3374
871.489	3359
871.619	3397
871.749	3401
871.879	3458
872.008	3500
872.138	3344
872.267	3279
872.397	3131
872.526	3085
872.656	2994
872.785	3081
872.915	3233
873.044	3332
873.173	3195
873.303	3188
873.432	3249
873.561	3233
873.69	3142
873.819	3123
873.948	3203
874.077	3062
874.206	3032
874.335	3081
874.464	3226
874.593	3317
874.722	3245
874.851	3359
874.979	3370
875.108	3306
875.237	3192
875.365	3112
875.494	3173
875.623	3249
875.751	3104
875.88	3108
876.008	3173
876.136	3226
876.265	3348
876.393	3477
876.521	3389
876.65	3401
876.778	3336
876.906	3249
877.034	3173
877.162	3230
877.29	3169
877.418	3249
877.546	3256
877.674	3264
877.802	3233
877.93	3184
878.058	3150
878.185	3089
878.313	3230
878.441	3165
878.568	3077
878.696	3135
878.824	3214
878.951	3275
879.079	3488
879.206	3618
879.333	3431
879.461	3336
879.588	3374
879.715	3466
879.842	3584
879.97	3359
880.097	3165
880.224	3131
880.351	3188
880.478	3214
880.605	3180
880.732	3165
880.859	3477
880.986	3310
881.112	3291
881.239	3180
881.366	3062
881.493	3055
881.619	3017
881.746	3062
881.872	3077
881.999	3100
882.125	3135
882.252	3207
882.378	3268
882.505	3428
882.631	3306
882.757	3119
882.883	3180
883.01	3230
883.136	3188
883.262	3104
883.388	3112
883.514	3313
883.64	3344
883.766	3283
883.892	3188
884.018	3249
884.143	3405
884.269	3526
884.395	3211
884.52	3176
884.646	3161
884.772	3138
884.897	3100
885.023	3169
885.148	3313
885.274	3393
885.399	3359
885.524	3256
885.65	3294
885.775	3283
885.9	3302
886.025	3389
886.15	3389
886.275	3249
886.4	3245
886.525	3302
886.65	3283
886.775	3272
886.9	3515
887.025	3648
887.149	3382
887.274	3275
887.399	3169
887.523	3207
887.648	3180
887.773	3192
887.897	3355
888.021	3401
888.146	3287
888.27	3435
888.395	3481
888.519	3416
888.643	3412
888.767	3492
888.891	3294
889.015	3230
889.139	3294
889.263	3260
889.387	3393
889.511	3492
889.635	3416
889.759	3306
889.883	3291
890.006	3348
890.13	3454
890.254	3302
890.377	3355
890.501	3188
890.624	3127
890.748	3298
890.871	3211
890.995	3131
891.118	3047
891.241	3192
891.364	3214
891.488	3313
891.611	3180
891.734	3218
891.857	3317
891.98	3214
892.103	3340
892.226	3256
892.349	3207
892.471	3085
892.594	3226
892.717	3302
892.839	3294
892.962	3275
893.085	3329
893.207	3272
893.33	3146
893.452	3211
893.575	3336
893.697	3264
893.819	3450
893.941	3496
894.064	3496
894.186	3264
894.308	3253
894.43	3447
894.552	3523
894.674	3462
894.796	3268
894.918	3298
895.04	3298
895.161	3481
895.283	3370
895.405	3321
895.526	3351
895.648	3420
895.769	3420
895.891	3458
896.012	3481
896.134	3488
896.255	3401
896.376	3409
896.498	3313
896.619	3416
896.74	3351
896.861	3416
896.982	3641
897.103	3842
897.224	3568
897.345	3515
897.466	3450
897.587	3462
897.708	3641
897.828	3545
897.949	3428
898.07	3306
898.19	3405
898.311	3603
898.431	3439
898.552	3549
898.672	3580
898.792	3515
898.913	3530
899.033	3412
899.153	3294
899.273	3230
899.393	3283
899.513	3317
899.633	3302
899.753	3351
899.873	3336
899.993	3367
900.113	3313
900.232	3409
900.352	3317
900.472	3272
900.591	3188
900.711	3283
900.83	3256
900.95	3416
901.069	3462
901.189	3321
901.308	3192
901.427	3093
901.546	3211
901.665	3294
901.784	3302
901.904	3169
902.023	3154
902.141	2998
902.26	3005
902.379	3100
902.498	3081
902.617	3036
902.735	3253
902.854	3272
902.973	3176
903.091	3028
903.21	3043
903.328	3157
903.446	3100
903.565	3116
903.683	3199
903.801	3123
903.919	3264
904.038	3313
904.156	3195
904.274	3287
904.392	3268
904.51	3313
904.627	3321
904.745	3386
904.863	3462
904.981	3233
905.098	3154
905.216	3184
905.334	3283
905.451	3298
905.569	3253
905.686	3401
905.803	3447
905.921	3275
906.038	3409
906.155	3329
906.272	3283
906.389	3306
906.506	3192
906.623	3306
906.74	3253
906.857	3184
906.974	3249
907.091	3443
907.208	3534
907.324	3435
907.441	3382
907.557	3199
907.674	3222
907.79	3226
907.907	3287
908.023	3348
908.139	3370
908.256	3310
908.372	3355
908.488	3348
908.604	3211
908.72	3230
908.836	3283
908.952	3279
909.068	3310
909.184	3458
909.3	3382
909.415	3500
909.531	3431
909.647	3291
909.762	3268
909.878	3260
909.993	3370
910.108	3325
910.224	3313
910.339	3378
910.454	3294
910.57	3294
910.685	3237
910.8	3584
910.915	3534
911.03	3416
911.145	3275
911.259	3237
911.374	3306
911.489	3241
911.604	3214
911.718	3127
911.833	3157
911.947	3028
912.062	2979
912.176	3150
912.291	3165
912.405	3207
912.519	3458
912.633	3435
912.748	3363
912.862	3279
912.976	3188
913.09	3036
913.204	3108
913.318	3211
913.431	3359
913.545	3386
913.659	3428
913.772	3325
913.886	3237
914	3176
914.113	3348
914.226	3378
914.34	3325
914.453	3233
914.566	3401
914.68	3294
914.793	3302
914.906	3089
915.019	3104
915.132	3077
915.245	3176
915.358	3188
915.47	3233
915.583	3287
915.696	3294
915.809	3409
915.921	3428
916.034	3260
916.146	3222
916.259	3241
916.371	3340
916.483	3386
916.595	3260
916.708	3336
916.82	3359
916.932	3367
917.044	3310
917.156	3386
917.268	3253
917.38	3264
917.491	3291
917.603	3370
917.715	3412
917.826	3450
917.938	3367
918.049	3249
918.161	3435
918.272	3530
918.384	3591
918.495	3458
918.606	3329
918.717	3268
918.828	3378
918.939	3397
919.05	3283
919.161	3378
919.272	3211
919.383	3294
919.494	3500
919.604	3644
919.715	3477
919.826	3367
919.936	3466
920.047	3542
920.157	3545
920.267	3728
920.378	3618
920.488	3595
920.598	3785
920.708	3934
920.818	3793
920.928	3827
921.038	3937
921.148	3972
921.258	3720
921.368	3618
921.477	3542
921.587	3564
921.697	3473
921.806	3629
921.916	3515
922.025	3386
922.134	3336
922.244	3344
922.353	3378
922.462	3287
922.571	3214
922.68	3116
922.789	3070
922.898	3123
923.007	3093
923.116	3188
923.224	3180
923.333	3218
923.442	3108
923.55	3081
923.659	3138
923.767	3241
923.876	3116
923.984	3253
924.092	3108
924.201	3184
924.309	3218
924.417	3253
924.525	3222
924.633	3211
924.741	3979
924.849	3058
924.956	3233
925.064	3097
925.172	3055
925.279	3112
925.387	3188
925.494	3237
925.602	3344
925.709	3302
925.816	3161
925.924	3245
926.031	3351
926.138	3294
926.245	3348
926.352	3279
926.459	3401
926.566	3485
926.673	3279
926.779	3264
926.886	3233
926.993	3146
927.099	3100
927.206	3108
927.312	3100
927.419	3184
927.525	3230
927.631	3291
927.737	3142
927.843	3119
927.95	3039
928.056	3116
928.162	3161
928.267	3218
928.373	3861
928.479	3317
928.585	3009
928.69	3184
928.796	3245
928.901	3127
929.007	3028
929.112	3207
929.218	3161
929.323	3119
929.428	3138
929.533	3310
929.638	3093
929.743	3131
929.848	3268
929.953	3207
930.058	3146
930.163	3017
930.267	3039
930.372	3157
930.477	3017
930.581	3298
930.685	3157
930.79	3062
930.894	3138
930.998	3074
931.103	3245
931.207	2956
931.311	2914
931.415	2910
931.519	2766
931.623	2811
