Data from test_V78500241_1945.txt Node
Date: Fri Mar 25 16:28:40 CST 2022
User: usil
Spectrometer: V785-0024
Trigger mode: 0
Integration Time (sec): 4.000000E-1
Scans to average: 1
Nonlinearity correction enabled: false
Boxcar width: 0
Storing dark spectrum: false
XAxis mode: Wavelengths
Number of Pixels in Spectrum: 1024
>>>>>Begin Spectral Data<<<<<
801.071	2910
801.214	2929
801.356	2868
801.499	2872
801.641	2868
801.783	2925
801.926	3039
802.068	3017
802.211	2982
802.353	3039
802.496	2967
802.638	3001
802.78	3024
802.923	3070
803.065	3024
803.208	2910
803.35	2910
803.492	2922
803.635	2891
803.777	2758
803.919	2826
804.061	3195
804.204	2963
804.346	2887
804.488	2834
804.63	2967
804.773	2872
804.915	2899
805.057	3089
805.199	2944
805.341	2986
805.483	3020
805.626	2986
805.768	2975
805.91	3062
806.052	3093
806.194	3017
806.336	3230
806.478	3036
806.62	2952
806.762	2982
806.904	3043
807.046	3169
807.188	2937
807.33	2895
807.472	2979
807.614	2902
807.756	2963
807.898	2918
808.04	2887
808.182	2960
808.324	2960
808.465	2891
808.607	2864
808.749	2788
808.891	2872
809.033	3001
809.174	3001
809.316	2880
809.458	2922
809.6	2743
809.741	2739
809.883	2773
810.025	2834
810.166	2849
810.308	2823
810.45	2853
810.591	2777
810.733	2766
810.875	2830
811.016	2781
811.158	2777
811.299	2819
811.441	2902
811.582	2899
811.724	2830
811.865	2811
812.007	2887
812.148	2861
812.29	2815
812.431	2899
812.573	2902
812.714	3005
812.855	3066
812.997	3028
813.138	3116
813.279	3024
813.421	2941
813.562	2990
813.703	2880
813.845	2876
813.986	2807
814.127	2716
814.268	2830
814.41	2842
814.551	2785
814.692	2868
814.833	2826
814.974	2891
815.115	2998
815.256	2823
815.397	2815
815.539	2830
815.68	2750
815.821	2777
815.962	2952
816.103	2963
816.244	2880
816.385	2880
816.526	2956
816.666	2925
816.807	2754
816.948	2880
817.089	2899
817.23	2823
817.371	2781
817.512	2750
817.653	2815
817.793	2830
817.934	2876
818.075	2990
818.216	2990
818.356	3039
818.497	2864
818.638	2773
818.778	2807
818.919	2788
819.06	2769
819.2	2861
819.341	2819
819.481	2792
819.622	2914
819.762	3043
819.903	3074
820.043	2925
820.184	2906
820.324	2899
820.465	2994
820.605	3024
820.746	3024
820.886	2941
821.026	3097
821.167	3165
821.307	3283
821.447	3268
821.588	3218
821.728	3268
821.868	3214
822.008	3081
822.149	3154
822.289	3218
822.429	3077
822.569	3070
822.709	3188
822.849	3017
822.99	3085
823.13	3112
823.27	3230
823.41	3081
823.55	3157
823.69	3173
823.83	3203
823.97	3085
824.11	3001
824.25	2982
824.389	3043
824.529	3135
824.669	3077
824.809	3173
824.949	3203
825.089	3253
825.228	3192
825.368	3009
825.508	2910
825.648	2952
825.787	2990
825.927	3055
826.067	2963
826.206	2960
826.346	3043
826.485	3104
826.625	3097
826.765	3241
826.904	3188
827.044	3001
827.183	2937
827.323	2876
827.462	2963
827.601	2914
827.741	2895
827.88	2971
828.02	2838
828.159	2994
828.298	3009
828.437	3142
828.577	3039
828.716	3218
828.855	3097
828.994	2910
829.134	2872
829.273	2941
829.412	2864
829.551	2861
829.69	2918
829.829	2975
829.968	3108
830.107	3047
830.246	3013
830.385	2910
830.524	2864
830.663	2834
830.802	2705
830.941	2632
831.08	2629
831.219	2746
831.357	2724
831.496	2937
831.635	2682
831.774	2640
831.913	2651
832.051	2537
832.19	2602
832.329	2655
832.467	2560
832.606	2492
832.744	2549
832.883	2575
833.022	2545
833.16	2636
833.299	2670
833.437	2693
833.576	2705
833.714	2739
833.852	2708
833.991	2762
834.129	2826
834.267	2842
834.406	2777
834.544	2868
834.682	2868
834.821	2883
834.959	3058
835.097	2861
835.235	3081
835.373	3005
835.511	3013
835.65	2922
835.788	2933
835.926	2849
836.064	2788
836.202	2834
836.34	3062
836.478	3150
836.615	3028
836.753	3127
836.891	3211
837.029	3165
837.167	3100
837.305	3036
837.443	2994
837.58	2986
837.718	3135
837.856	3028
837.993	3005
838.131	3108
838.269	3108
838.406	3116
838.544	3097
838.681	2952
838.819	2914
838.956	2811
839.094	2853
839.231	2906
839.369	2967
839.506	3359
839.643	3211
839.781	2986
839.918	2960
840.055	3043
840.193	3043
840.33	3047
840.467	3066
840.604	3157
840.742	3428
840.879	3043
841.016	3032
841.153	3100
841.29	3321
841.427	3329
841.564	3256
841.701	3287
841.838	3222
841.975	3154
842.112	3199
842.249	3089
842.385	3081
842.522	3226
842.659	3062
842.796	3024
842.933	3093
843.069	3062
843.206	3032
843.343	3154
843.479	3100
843.616	3131
843.752	2895
843.889	2887
844.025	3089
844.162	2887
844.298	3077
844.435	2906
844.571	2918
844.708	3028
844.844	3173
844.98	3237
845.117	3199
845.253	3032
845.389	2990
845.525	3074
845.661	3097
845.798	3020
845.934	3093
846.07	3020
846.206	3226
846.342	3294
846.478	3272
846.614	3085
846.75	3055
846.886	3043
847.022	3226
847.158	3100
847.294	3214
847.429	3222
847.565	3195
847.701	3443
847.837	3032
847.972	2994
848.108	3169
848.244	3154
848.379	2998
848.515	2914
848.65	2960
848.786	2956
848.921	3001
849.057	3058
849.192	3127
849.328	3024
849.463	3135
849.598	3047
849.734	3032
849.869	2960
850.004	2880
850.14	2941
850.275	2922
850.41	2845
850.545	2922
850.68	2933
850.815	2948
850.95	2933
851.085	3199
851.22	3089
851.355	3036
851.49	2971
851.625	2982
851.76	3039
851.895	2948
852.03	2883
852.165	3039
852.299	3081
852.434	3176
852.569	3157
852.703	3173
852.838	3207
852.973	3344
853.107	3329
853.242	3135
853.376	3116
853.511	2979
853.645	3024
853.78	3207
853.914	3097
854.048	3093
854.183	3089
854.317	3097
854.451	3260
854.585	3150
854.72	3077
854.854	3203
854.988	3051
855.122	3097
855.256	2967
855.39	3108
855.524	3245
855.658	3192
855.792	3138
855.926	3180
856.06	3222
856.194	3260
856.327	3119
856.461	3058
856.595	3070
856.729	3066
856.862	3180
856.996	3161
857.13	3207
857.263	3207
857.397	3283
857.53	3116
857.664	3192
857.797	3214
857.931	3253
858.064	3150
858.197	3211
858.331	3081
858.464	3104
858.597	2982
858.731	3116
858.864	3104
858.997	3108
859.13	3112
859.263	3184
859.396	3184
859.529	3074
859.662	3081
859.795	3039
859.928	3108
860.061	3222
860.194	3272
860.327	3123
860.46	3093
860.592	3195
860.725	3260
860.858	3203
860.99	3074
861.123	3051
861.256	3032
861.388	3108
861.521	3846
861.653	2990
861.786	2975
861.918	2982
862.05	3036
862.183	3123
862.315	3108
862.447	3214
862.58	3051
862.712	2952
862.844	2868
862.976	2967
863.108	3028
863.24	3336
863.372	2880
863.504	2937
863.636	2929
863.768	2982
863.9	2956
864.032	2944
864.164	2918
864.296	3039
864.428	3055
864.559	3100
864.691	3066
864.823	3074
864.954	3036
865.086	3039
865.217	2963
865.349	2937
865.48	2982
865.612	3036
865.743	3161
865.875	2986
866.006	2948
866.137	2952
866.269	2960
866.4	2906
866.531	2952
866.662	2868
866.793	2895
866.924	2944
867.055	2933
867.186	2929
867.317	2925
867.448	2823
867.579	2868
867.71	2849
867.841	2849
867.972	2902
868.103	2895
868.233	2895
868.364	2876
868.495	2895
868.625	3093
868.756	3173
868.886	2918
869.017	2979
869.147	3180
869.278	3138
869.408	3062
869.539	3017
869.669	3077
869.799	3074
869.929	3104
870.06	3112
870.19	3313
870.32	3275
870.45	3279
870.58	3382
870.71	3454
870.84	3435
870.97	3306
871.1	3268
871.23	3477
871.36	3443
871.489	3332
871.619	3378
871.749	3386
871.879	3447
872.008	3488
872.138	3317
872.267	3245
872.397	3165
872.526	3127
872.656	3001
872.785	3070
872.915	3195
873.044	3298
873.173	3207
873.303	3207
873.432	3214
873.561	3195
873.69	3146
873.819	3173
873.948	3165
874.077	3074
874.206	3058
874.335	3070
874.464	3222
874.593	3298
874.722	3195
874.851	3424
874.979	3325
875.108	3291
875.237	3211
875.365	3150
875.494	3131
875.623	3226
875.751	3093
875.88	3119
876.008	3176
876.136	3253
876.265	3397
876.393	3492
876.521	3405
876.65	3393
876.778	3317
876.906	3226
877.034	3199
877.162	3245
877.29	3173
877.418	3226
877.546	3256
877.674	3237
877.802	3226
877.93	3192
878.058	3157
878.185	3116
878.313	3203
878.441	3226
878.568	3039
878.696	3138
878.824	3253
878.951	3325
879.079	3409
879.206	3603
879.333	3435
879.461	3321
879.588	3363
879.715	3447
879.842	3584
879.97	3370
880.097	3150
880.224	3119
880.351	3161
880.478	3218
880.605	3176
880.732	3165
880.859	3473
880.986	3249
881.112	3332
881.239	3199
881.366	3066
881.493	3058
881.619	2998
881.746	3077
881.872	3077
881.999	3097
882.125	3142
882.252	3192
882.378	3272
882.505	3412
882.631	3233
882.757	3165
882.883	3218
883.01	3249
883.136	3146
883.262	3077
883.388	3108
883.514	3302
883.64	3374
883.766	3325
883.892	3188
884.018	3230
884.143	3367
884.269	3500
884.395	3199
884.52	3173
884.646	3157
884.772	3108
884.897	3104
885.023	3230
885.148	3306
885.274	3401
885.399	3348
885.524	3294
885.65	3268
885.775	3287
885.9	3279
886.025	3382
886.15	3359
886.275	3306
886.4	3253
886.525	3287
886.65	3275
886.775	3268
886.9	3500
887.025	3618
887.149	3435
887.274	3245
887.399	3150
887.523	3169
887.648	3184
887.773	3157
887.897	3332
888.021	3405
888.146	3294
888.27	3412
888.395	3515
888.519	3393
888.643	3439
888.767	3435
888.891	3287
889.015	3249
889.139	3272
889.263	3245
889.387	3412
889.511	3500
889.635	3435
889.759	3291
889.883	3283
890.006	3340
890.13	3507
890.254	3283
890.377	3348
890.501	3199
890.624	3180
890.748	3291
890.871	3184
890.995	3081
891.118	3051
891.241	3192
891.364	3233
891.488	3302
891.611	3165
891.734	3211
891.857	3302
891.98	3249
892.103	3325
892.226	3268
892.349	3176
892.471	3093
892.594	3222
892.717	3256
892.839	3306
892.962	3260
893.085	3355
893.207	3325
893.33	3138
893.452	3207
893.575	3336
893.697	3245
893.819	3447
893.941	3469
894.064	3443
894.186	3268
894.308	3264
894.43	3431
894.552	3564
894.674	3454
894.796	3253
894.918	3264
895.04	3279
895.161	3435
895.283	3378
895.405	3310
895.526	3363
895.648	3428
895.769	3405
895.891	3485
896.012	3458
896.134	3469
896.255	3416
896.376	3367
896.498	3355
896.619	3370
896.74	3370
896.861	3412
896.982	3652
897.103	3861
897.224	3580
897.345	3485
897.466	3424
897.587	3481
897.708	3629
897.828	3553
897.949	3450
898.07	3355
898.19	3424
898.311	3584
898.431	3469
898.552	3466
898.672	3587
898.792	3564
898.913	3496
899.033	3420
899.153	3298
899.273	3211
899.393	3272
899.513	3310
899.633	3302
899.753	3329
899.873	3302
899.993	3374
900.113	3306
900.232	3382
900.352	3344
900.472	3272
900.591	3199
900.711	3291
900.83	3226
900.95	3401
901.069	3450
901.189	3351
901.308	3138
901.427	3142
901.546	3180
901.665	3256
901.784	3306
901.904	3199
902.023	3116
902.141	2979
902.26	2975
902.379	3150
902.498	3074
902.617	3089
902.735	3226
902.854	3226
902.973	3173
903.091	3032
903.21	3085
903.328	3154
903.446	3150
903.565	3127
903.683	3207
903.801	3138
903.919	3249
904.038	3264
904.156	3150
904.274	3249
904.392	3241
904.51	3275
904.627	3351
904.745	3416
904.863	3504
904.981	3287
905.098	3173
905.216	3230
905.334	3313
905.451	3298
905.569	3294
905.686	3416
905.803	3405
905.921	3260
906.038	3389
906.155	3348
906.272	3233
906.389	3344
906.506	3222
906.623	3241
906.74	3306
906.857	3211
906.974	3256
907.091	3458
907.208	3580
907.324	3469
907.441	3370
907.557	3214
907.674	3184
907.79	3195
907.907	3283
908.023	3389
908.139	3344
908.256	3344
908.372	3336
908.488	3344
908.604	3249
908.72	3253
908.836	3253
908.952	3260
909.068	3370
909.184	3458
909.3	3401
909.415	3500
909.531	3469
909.647	3264
909.762	3268
909.878	3249
909.993	3298
910.108	3351
910.224	3378
910.339	3382
910.454	3351
910.57	3272
910.685	3245
910.8	3572
910.915	3538
911.03	3431
911.145	3272
911.259	3245
911.374	3329
911.489	3241
911.604	3211
911.718	3097
911.833	3161
911.947	3039
912.062	2971
912.176	3180
912.291	3207
912.405	3195
912.519	3428
912.633	3435
912.748	3340
912.862	3256
912.976	3184
913.09	3085
913.204	3157
913.318	3245
913.431	3378
913.545	3298
913.659	3420
913.772	3336
913.886	3226
914	3176
914.113	3367
914.226	3405
914.34	3359
914.453	3237
914.566	3370
914.68	3272
914.793	3313
914.906	3138
915.019	3146
915.132	3058
915.245	3154
915.358	3214
915.47	3230
915.583	3268
915.696	3329
915.809	3428
915.921	3431
916.034	3249
916.146	3222
916.259	3237
916.371	3355
916.483	3355
916.595	3241
916.708	3325
916.82	3291
916.932	3367
917.044	3329
917.156	3344
917.268	3260
917.38	3302
917.491	3283
917.603	3359
917.715	3420
917.826	3435
917.938	3355
918.049	3275
918.161	3393
918.272	3545
918.384	3557
918.495	3454
918.606	3317
918.717	3253
918.828	3321
918.939	3409
919.05	3291
919.161	3351
919.272	3195
919.383	3241
919.494	3443
919.604	3698
919.715	3447
919.826	3370
919.936	3420
920.047	3568
920.157	3553
920.267	3736
920.378	3564
920.488	3557
920.598	3789
920.708	3911
920.818	3785
920.928	3816
921.038	4006
921.148	3991
921.258	3667
921.368	3591
921.477	3519
921.587	3530
921.697	3439
921.806	3644
921.916	3504
922.025	3355
922.134	3332
922.244	3291
922.353	3397
922.462	3283
922.571	3211
922.68	3077
922.789	3077
922.898	3157
923.007	3066
923.116	3154
923.224	3176
923.333	3161
923.442	3112
923.55	3058
923.659	3157
923.767	3230
923.876	3135
923.984	3233
924.092	3093
924.201	3195
924.309	3199
924.417	3287
924.525	3218
924.633	3253
924.741	4185
924.849	3051
924.956	3291
925.064	3089
925.172	3017
925.279	3093
925.387	3203
925.494	3211
925.602	3363
925.709	3332
925.816	3188
925.924	3283
926.031	3405
926.138	3325
926.245	3405
926.352	3275
926.459	3443
926.566	3549
926.673	3336
926.779	3298
926.886	3268
926.993	3173
927.099	3119
927.206	3093
927.312	3112
927.419	3298
927.525	3241
927.631	3325
927.737	3161
927.843	3157
927.95	3043
928.056	3184
928.162	3230
928.267	3291
928.373	3896
928.479	3389
928.585	3100
928.69	3237
928.796	3336
928.901	3237
929.007	3081
929.112	3275
929.218	3195
929.323	3176
929.428	3203
929.533	3351
929.638	3161
929.743	3226
929.848	3275
929.953	3192
930.058	3188
930.163	3028
930.267	3112
930.372	3218
930.477	3077
930.581	3348
930.685	3222
930.79	3097
930.894	3146
930.998	3154
931.103	3294
931.207	3047
931.311	3005
931.415	2967
931.519	2845
931.623	2842
