Data from test_V78500241_22.txt Node
Date: Fri Mar 25 16:15:21 CST 2022
User: usil
Spectrometer: V785-0024
Trigger mode: 0
Integration Time (sec): 4.000000E-1
Scans to average: 1
Nonlinearity correction enabled: false
Boxcar width: 0
Storing dark spectrum: false
XAxis mode: Wavelengths
Number of Pixels in Spectrum: 1024
>>>>>Begin Spectral Data<<<<<
801.071	2971
801.214	2971
801.356	2941
801.499	2979
801.641	2918
801.783	2963
801.926	3062
802.068	2998
802.211	3047
802.353	3093
802.496	3028
802.638	3074
802.78	3070
802.923	3138
803.065	3028
803.208	2922
803.35	2990
803.492	2998
803.635	2956
803.777	2769
803.919	2902
804.061	3260
804.204	2994
804.346	2963
804.488	2910
804.63	3032
804.773	2929
804.915	2986
805.057	3138
805.199	2929
805.341	3032
805.483	3085
805.626	3020
805.768	3005
805.91	3138
806.052	3161
806.194	3089
806.336	3291
806.478	3051
806.62	2975
806.762	3028
806.904	3100
807.046	3188
807.188	2986
807.33	2975
807.472	3051
807.614	2956
807.756	3032
807.898	2929
808.04	2967
808.182	3017
808.324	2998
808.465	2922
808.607	2952
808.749	2788
808.891	2891
809.033	3020
809.174	3005
809.316	2944
809.458	2925
809.6	2811
809.741	2826
809.883	2796
810.025	2895
810.166	2895
810.308	2895
810.45	2883
810.591	2811
810.733	2800
810.875	2872
811.016	2811
811.158	2811
811.299	2861
811.441	2918
811.582	2937
811.724	2895
811.865	2906
812.007	2941
812.148	2956
812.29	2891
812.431	2902
812.573	2971
812.714	3036
812.855	3100
812.997	3085
813.138	3222
813.279	3028
813.421	3017
813.562	3013
813.703	2948
813.845	2952
813.986	2804
814.127	2773
814.268	2830
814.41	2883
814.551	2876
814.692	2929
814.833	2864
814.974	2933
815.115	3028
815.256	2887
815.397	2845
815.539	2880
815.68	2838
815.821	2845
815.962	2948
816.103	2979
816.244	2902
816.385	2891
816.526	3024
816.666	2967
816.807	2773
816.948	2902
817.089	2963
817.23	2918
817.371	2845
817.512	2838
817.653	2861
817.793	2864
817.934	2963
818.075	3032
818.216	3013
818.356	3043
818.497	2933
818.638	2811
818.778	2887
818.919	2876
819.06	2830
819.2	2933
819.341	2853
819.481	2857
819.622	2971
819.762	3135
819.903	3089
820.043	2925
820.184	2929
820.324	2929
820.465	3074
820.605	3039
820.746	3085
820.886	2990
821.026	3135
821.167	3218
821.307	3313
821.447	3344
821.588	3294
821.728	3260
821.868	3241
822.008	3138
822.149	3230
822.289	3310
822.429	3123
822.569	3138
822.709	3256
822.849	3058
822.99	3142
823.13	3241
823.27	3268
823.41	3146
823.55	3184
823.69	3169
823.83	3222
823.97	3104
824.11	3058
824.25	3032
824.389	3123
824.529	3127
824.669	3116
824.809	3233
824.949	3298
825.089	3272
825.228	3188
825.368	3081
825.508	3017
825.648	3013
825.787	3020
825.927	3039
826.067	3028
826.206	3009
826.346	3081
826.485	3077
826.625	3093
826.765	3291
826.904	3245
827.044	3081
827.183	3013
827.323	2933
827.462	3028
827.601	3009
827.741	2979
827.88	3001
828.02	2864
828.159	3051
828.298	3089
828.437	3127
828.577	3123
828.716	3287
828.855	3150
828.994	2975
829.134	2929
829.273	2963
829.412	2914
829.551	2899
829.69	2925
829.829	3028
829.968	3150
830.107	3039
830.246	3077
830.385	2979
830.524	2914
830.663	2838
830.802	2746
830.941	2689
831.08	2682
831.219	2773
831.357	2762
831.496	2979
831.635	2766
831.774	2686
831.913	2659
832.051	2583
832.19	2644
832.329	2735
832.467	2594
832.606	2518
832.744	2594
832.883	2640
833.022	2613
833.16	2682
833.299	2727
833.437	2739
833.576	2731
833.714	2746
833.852	2750
833.991	2758
834.129	2883
834.267	2845
834.406	2842
834.544	2895
834.682	2918
834.821	2899
834.959	3074
835.097	2941
835.235	3123
835.373	3055
835.511	3043
835.65	3009
835.788	2990
835.926	2868
836.064	2853
836.202	2857
836.34	3180
836.478	3222
836.615	3070
836.753	3146
836.891	3241
837.029	3184
837.167	3180
837.305	3100
837.443	3070
837.58	2986
837.718	3199
837.856	3112
837.993	3066
838.131	3161
838.269	3127
838.406	3146
838.544	3142
838.681	2979
838.819	2982
838.956	2868
839.094	2880
839.231	2933
839.369	3043
839.506	3405
839.643	3241
839.781	3051
839.918	3032
840.055	3081
840.193	3112
840.33	3150
840.467	3131
840.604	3180
840.742	3428
840.879	3104
841.016	3089
841.153	3138
841.29	3382
841.427	3363
841.564	3340
841.701	3363
841.838	3249
841.975	3214
842.112	3287
842.249	3119
842.385	3066
842.522	3264
842.659	3123
842.796	3097
842.933	3188
843.069	3081
843.206	3066
843.343	3214
843.479	3154
843.616	3192
843.752	2929
843.889	2902
844.025	3135
844.162	2891
844.298	3146
844.435	2979
844.571	2956
844.708	3131
844.844	3233
844.98	3249
845.117	3222
845.253	3085
845.389	3047
845.525	3173
845.661	3112
845.798	3093
845.934	3203
846.07	3058
846.206	3287
846.342	3370
846.478	3256
846.614	3131
846.75	3085
846.886	3081
847.022	3306
847.158	3176
847.294	3195
847.429	3329
847.565	3245
847.701	3526
847.837	3039
847.972	3119
848.108	3180
848.244	3184
848.379	3017
848.515	2998
848.65	2990
848.786	3005
848.921	3055
849.057	3146
849.192	3214
849.328	3062
849.463	3157
849.598	3112
849.734	3081
849.869	3009
850.004	2971
850.14	3036
850.275	2948
850.41	2849
850.545	2937
850.68	2990
850.815	2971
850.95	3005
851.085	3211
851.22	3131
851.355	3085
851.49	3070
851.625	3032
851.76	3017
851.895	2990
852.03	2944
852.165	3131
852.299	3161
852.434	3222
852.569	3188
852.703	3226
852.838	3291
852.973	3397
853.107	3405
853.242	3222
853.376	3138
853.511	2982
853.645	3093
853.78	3291
853.914	3169
854.048	3165
854.183	3138
854.317	3176
854.451	3378
854.585	3184
854.72	3173
854.854	3192
854.988	3112
855.122	3127
855.256	3001
855.39	3150
855.524	3294
855.658	3245
855.792	3211
855.926	3260
856.06	3233
856.194	3317
856.327	3203
856.461	3131
856.595	3150
856.729	3116
856.862	3283
856.996	3154
857.13	3230
857.263	3283
857.397	3287
857.53	3169
857.664	3226
857.797	3249
857.931	3317
858.064	3222
858.197	3245
858.331	3165
858.464	3112
858.597	3043
858.731	3150
858.864	3150
858.997	3150
859.13	3214
859.263	3195
859.396	3226
859.529	3142
859.662	3112
859.795	3116
859.928	3195
860.061	3310
860.194	3313
860.327	3173
860.46	3157
860.592	3298
860.725	3325
860.858	3283
860.99	3135
861.123	3089
861.256	3108
861.388	3173
861.521	3732
861.653	3085
861.786	3028
861.918	3058
862.05	3112
862.183	3131
862.315	3180
862.447	3241
862.58	3138
862.712	3009
862.844	2929
862.976	3108
863.108	3055
863.24	3477
863.372	2902
863.504	3066
863.636	3017
863.768	3077
863.9	3028
864.032	2986
864.164	3013
864.296	3043
864.428	3142
864.559	3138
864.691	3119
864.823	3112
864.954	3085
865.086	3058
865.217	3036
865.349	2960
865.48	3036
865.612	3043
865.743	3188
865.875	3032
866.006	2998
866.137	3028
866.269	2967
866.4	2975
866.531	2922
866.662	2933
866.793	2941
866.924	2952
867.055	3009
867.186	2994
867.317	2922
867.448	2880
867.579	2895
867.71	2891
867.841	2845
867.972	2933
868.103	2944
868.233	2906
868.364	2876
868.495	2963
868.625	3135
868.756	3199
868.886	3001
869.017	3085
869.147	3222
869.278	3222
869.408	3077
869.539	3058
869.669	3176
869.799	3089
869.929	3192
870.06	3119
870.19	3363
870.32	3348
870.45	3332
870.58	3401
870.71	3545
870.84	3466
870.97	3325
871.1	3291
871.23	3572
871.36	3515
871.489	3397
871.619	3424
871.749	3431
871.879	3530
872.008	3545
872.138	3409
872.267	3321
872.397	3180
872.526	3146
872.656	3070
872.785	3131
872.915	3336
873.044	3374
873.173	3268
873.303	3317
873.432	3256
873.561	3275
873.69	3211
873.819	3180
873.948	3256
874.077	3176
874.206	3100
874.335	3108
874.464	3275
874.593	3431
874.722	3302
874.851	3450
874.979	3382
875.108	3370
875.237	3249
875.365	3203
875.494	3180
875.623	3294
875.751	3108
875.88	3161
876.008	3241
876.136	3264
876.265	3393
876.393	3584
876.521	3496
876.65	3443
876.778	3389
876.906	3298
877.034	3249
877.162	3275
877.29	3245
877.418	3313
877.546	3313
877.674	3287
877.802	3306
877.93	3272
878.058	3161
878.185	3123
878.313	3283
878.441	3253
878.568	3119
878.696	3184
878.824	3249
878.951	3321
879.079	3473
879.206	3671
879.333	3504
879.461	3405
879.588	3431
879.715	3557
879.842	3622
879.97	3378
880.097	3237
880.224	3176
880.351	3222
880.478	3268
880.605	3256
880.732	3211
880.859	3576
880.986	3359
881.112	3412
881.239	3264
881.366	3131
881.493	3077
881.619	3077
881.746	3131
881.872	3119
881.999	3123
882.125	3157
882.252	3291
882.378	3340
882.505	3492
882.631	3313
882.757	3203
882.883	3241
883.01	3272
883.136	3192
883.262	3104
883.388	3161
883.514	3382
883.64	3454
883.766	3351
883.892	3245
884.018	3279
884.143	3473
884.269	3587
884.395	3275
884.52	3226
884.646	3241
884.772	3218
884.897	3165
885.023	3253
885.148	3405
885.274	3473
885.399	3409
885.524	3374
885.65	3329
885.775	3351
885.9	3298
886.025	3485
886.15	3382
886.275	3359
886.4	3283
886.525	3359
886.65	3321
886.775	3313
886.9	3507
887.025	3694
887.149	3458
887.274	3291
887.399	3207
887.523	3233
887.648	3192
887.773	3241
887.897	3439
888.021	3420
888.146	3332
888.27	3515
888.395	3614
888.519	3515
888.643	3500
888.767	3488
888.891	3359
889.015	3310
889.139	3340
889.263	3313
889.387	3488
889.511	3545
889.635	3530
889.759	3329
889.883	3359
890.006	3435
890.13	3519
890.254	3317
890.377	3420
890.501	3256
890.624	3230
890.748	3344
890.871	3203
890.995	3146
891.118	3089
891.241	3291
891.364	3302
891.488	3363
891.611	3256
891.734	3260
891.857	3325
891.98	3291
892.103	3382
892.226	3321
892.349	3222
892.471	3150
892.594	3291
892.717	3317
892.839	3340
892.962	3336
893.085	3409
893.207	3370
893.33	3214
893.452	3294
893.575	3382
893.697	3291
893.819	3564
893.941	3564
894.064	3530
894.186	3321
894.308	3306
894.43	3496
894.552	3625
894.674	3500
894.796	3298
894.918	3336
895.04	3351
895.161	3507
895.283	3401
895.405	3344
895.526	3367
895.648	3466
895.769	3458
895.891	3515
896.012	3530
896.134	3519
896.255	3481
896.376	3481
896.498	3397
896.619	3507
896.74	3397
896.861	3458
896.982	3766
897.103	3892
897.224	3660
897.345	3549
897.466	3492
897.587	3568
897.708	3686
897.828	3553
897.949	3534
898.07	3435
898.19	3450
898.311	3682
898.431	3523
898.552	3545
898.672	3660
898.792	3629
898.913	3564
899.033	3458
899.153	3370
899.273	3245
899.393	3321
899.513	3325
899.633	3363
899.753	3386
899.873	3348
899.993	3401
900.113	3401
900.232	3469
900.352	3389
900.472	3374
900.591	3214
900.711	3370
900.83	3313
900.95	3466
901.069	3549
901.189	3401
901.308	3203
901.427	3199
901.546	3230
901.665	3351
901.784	3420
901.904	3260
902.023	3207
902.141	3077
902.26	3024
902.379	3192
902.498	3123
902.617	3131
902.735	3241
902.854	3275
902.973	3291
903.091	3055
903.21	3119
903.328	3192
903.446	3157
903.565	3138
903.683	3283
903.801	3169
903.919	3275
904.038	3340
904.156	3245
904.274	3321
904.392	3302
904.51	3310
904.627	3355
904.745	3504
904.863	3545
904.981	3291
905.098	3199
905.216	3287
905.334	3329
905.451	3412
905.569	3359
905.686	3469
905.803	3504
905.921	3336
906.038	3473
906.155	3409
906.272	3336
906.389	3378
906.506	3272
906.623	3287
906.74	3329
906.857	3199
906.974	3317
907.091	3496
907.208	3625
907.324	3473
907.441	3458
907.557	3283
907.674	3291
907.79	3272
907.907	3329
908.023	3420
908.139	3443
908.256	3363
908.372	3462
908.488	3428
908.604	3298
908.72	3302
908.836	3317
908.952	3302
909.068	3416
909.184	3587
909.3	3447
909.415	3515
909.531	3538
909.647	3294
909.762	3313
909.878	3329
909.993	3374
910.108	3397
910.224	3378
910.339	3462
910.454	3374
910.57	3332
910.685	3283
910.8	3641
910.915	3576
911.03	3477
911.145	3340
911.259	3321
911.374	3351
911.489	3302
911.604	3268
911.718	3165
911.833	3241
911.947	3093
912.062	3020
912.176	3237
912.291	3233
912.405	3256
912.519	3481
912.633	3500
912.748	3351
912.862	3317
912.976	3214
913.09	3138
913.204	3218
913.318	3279
913.431	3367
913.545	3405
913.659	3481
913.772	3412
913.886	3272
914	3283
914.113	3454
914.226	3477
914.34	3420
914.453	3279
914.566	3469
914.68	3329
914.793	3397
914.906	3173
915.019	3146
915.132	3116
915.245	3230
915.358	3241
915.47	3291
915.583	3287
915.696	3370
915.809	3466
915.921	3435
916.034	3325
916.146	3310
916.259	3279
916.371	3428
916.483	3389
916.595	3325
916.708	3409
916.82	3409
916.932	3401
917.044	3374
917.156	3405
917.268	3310
917.38	3367
917.491	3329
917.603	3458
917.715	3515
917.826	3538
917.938	3431
918.049	3302
918.161	3496
918.272	3610
918.384	3667
918.495	3538
918.606	3412
918.717	3298
918.828	3409
918.939	3473
919.05	3409
919.161	3424
919.272	3233
919.383	3386
919.494	3595
919.604	3720
919.715	3523
919.826	3439
919.936	3504
920.047	3667
920.157	3587
920.267	3842
920.378	3701
920.488	3622
920.598	3861
920.708	3987
920.818	3888
920.928	3884
921.038	4097
921.148	4051
921.258	3778
921.368	3709
921.477	3637
921.587	3538
921.697	3538
921.806	3694
921.916	3545
922.025	3443
922.134	3412
922.244	3310
922.353	3462
922.462	3332
922.571	3321
922.68	3154
922.789	3119
922.898	3173
923.007	3169
923.116	3298
923.224	3222
923.333	3226
923.442	3135
923.55	3123
923.659	3207
923.767	3241
923.876	3157
923.984	3245
924.092	3142
924.201	3256
924.309	3302
924.417	3317
924.525	3253
924.633	3340
924.741	4246
924.849	3116
924.956	3321
925.064	3146
925.172	3089
925.279	3203
925.387	3264
925.494	3233
925.602	3412
925.709	3363
925.816	3245
925.924	3344
926.031	3447
926.138	3409
926.245	3389
926.352	3283
926.459	3469
926.566	3511
926.673	3336
926.779	3283
926.886	3344
926.993	3180
927.099	3218
927.206	3180
927.312	3180
927.419	3298
927.525	3279
927.631	3313
927.737	3188
927.843	3176
927.95	3097
928.056	3180
928.162	3249
928.267	3298
928.373	3854
928.479	3367
928.585	3066
928.69	3249
928.796	3302
928.901	3192
929.007	3131
929.112	3218
929.218	3203
929.323	3222
929.428	3222
929.533	3370
929.638	3169
929.743	3180
929.848	3272
929.953	3291
930.058	3169
930.163	3058
930.267	3089
930.372	3260
930.477	3051
930.581	3363
930.685	3241
930.79	3142
930.894	3192
930.998	3112
931.103	3298
931.207	2998
931.311	2979
931.415	2994
931.519	2826
931.623	2838
