Data from test_V78500241_1771.txt Node
Date: Fri Mar 25 16:27:28 CST 2022
User: usil
Spectrometer: V785-0024
Trigger mode: 0
Integration Time (sec): 4.000000E-1
Scans to average: 1
Nonlinearity correction enabled: false
Boxcar width: 0
Storing dark spectrum: false
XAxis mode: Wavelengths
Number of Pixels in Spectrum: 1024
>>>>>Begin Spectral Data<<<<<
801.071	2872
801.214	2937
801.356	2861
801.499	2906
801.641	2883
801.783	2956
801.926	3055
802.068	2914
802.211	2994
802.353	3036
802.496	2960
802.638	2944
802.78	3032
802.923	3093
803.065	2963
803.208	2910
803.35	2895
803.492	2918
803.635	2914
803.777	2777
803.919	2845
804.061	3218
804.204	2979
804.346	2876
804.488	2853
804.63	3020
804.773	2857
804.915	2910
805.057	3036
805.199	2937
805.341	2967
805.483	3001
805.626	3036
805.768	2979
805.91	3058
806.052	3074
806.194	3032
806.336	3226
806.478	3001
806.62	2948
806.762	2994
806.904	3039
807.046	3207
807.188	3009
807.33	2910
807.472	2975
807.614	2895
807.756	3001
807.898	2918
808.04	2880
808.182	2982
808.324	2929
808.465	2849
808.607	2853
808.749	2766
808.891	2796
809.033	3005
809.174	2982
809.316	2887
809.458	2872
809.6	2792
809.741	2773
809.883	2754
810.025	2838
810.166	2883
810.308	2857
810.45	2861
810.591	2766
810.733	2746
810.875	2838
811.016	2800
811.158	2743
811.299	2800
811.441	2910
811.582	2876
811.724	2823
811.865	2849
812.007	2899
812.148	2876
812.29	2849
812.431	2861
812.573	2922
812.714	2952
812.855	3047
812.997	3043
813.138	3123
813.279	3043
813.421	2975
813.562	2933
813.703	2899
813.845	2887
813.986	2773
814.127	2735
814.268	2804
814.41	2842
814.551	2830
814.692	2887
814.833	2819
814.974	2864
815.115	2967
815.256	2811
815.397	2800
815.539	2819
815.68	2758
815.821	2754
815.962	2899
816.103	2918
816.244	2883
816.385	2845
816.526	2994
816.666	2895
816.807	2686
816.948	2868
817.089	2876
817.23	2834
817.371	2758
817.512	2792
817.653	2826
817.793	2815
817.934	2880
818.075	2960
818.216	2963
818.356	3032
818.497	2868
818.638	2777
818.778	2785
818.919	2785
819.06	2773
819.2	2857
819.341	2788
819.481	2826
819.622	2895
819.762	3070
819.903	3043
820.043	2925
820.184	2891
820.324	2864
820.465	3009
820.605	2990
820.746	3009
820.886	2948
821.026	3077
821.167	3123
821.307	3211
821.447	3241
821.588	3211
821.728	3188
821.868	3222
822.008	3089
822.149	3226
822.289	3218
822.429	3089
822.569	3093
822.709	3203
822.849	3005
822.99	3043
823.13	3127
823.27	3169
823.41	3116
823.55	3119
823.69	3157
823.83	3176
823.97	3150
824.11	2944
824.25	2975
824.389	3066
824.529	3074
824.669	3066
824.809	3222
824.949	3249
825.089	3173
825.228	3176
825.368	3024
825.508	2952
825.648	2975
825.787	3013
825.927	3009
826.067	2982
826.206	2937
826.346	3013
826.485	3085
826.625	3112
826.765	3249
826.904	3211
827.044	3005
827.183	2887
827.323	2883
827.462	2971
827.601	2880
827.741	2941
827.88	2925
828.02	2826
828.159	2960
828.298	3032
828.437	3100
828.577	3032
828.716	3287
828.855	3074
828.994	2944
829.134	2910
829.273	2899
829.412	2853
829.551	2857
829.69	2872
829.829	2929
829.968	3116
830.107	2986
830.246	2986
830.385	2914
830.524	2849
830.663	2838
830.802	2743
830.941	2621
831.08	2682
831.219	2743
831.357	2746
831.496	2990
831.635	2682
831.774	2644
831.913	2655
832.051	2537
832.19	2549
832.329	2659
832.467	2533
832.606	2473
832.744	2568
832.883	2598
833.022	2571
833.16	2659
833.299	2670
833.437	2678
833.576	2682
833.714	2708
833.852	2750
833.991	2727
834.129	2853
834.267	2849
834.406	2800
834.544	2864
834.682	2838
834.821	2868
834.959	3062
835.097	2883
835.235	3043
835.373	3005
835.511	2990
835.65	2937
835.788	2922
835.926	2834
836.064	2773
836.202	2826
836.34	3097
836.478	3146
836.615	3032
836.753	3100
836.891	3165
837.029	3165
837.167	3093
837.305	3066
837.443	3062
837.58	2975
837.718	3127
837.856	3024
837.993	3001
838.131	3089
838.269	3100
838.406	3097
838.544	3074
838.681	2960
838.819	2914
838.956	2804
839.094	2819
839.231	2910
839.369	2990
839.506	3355
839.643	3211
839.781	3032
839.918	2941
840.055	3032
840.193	3062
840.33	3066
840.467	3070
840.604	3157
840.742	3393
840.879	3028
841.016	3013
841.153	3104
841.29	3363
841.427	3302
841.564	3306
841.701	3287
841.838	3184
841.975	3150
842.112	3188
842.249	3081
842.385	3020
842.522	3268
842.659	3055
842.796	3062
842.933	3108
843.069	3005
843.206	3028
843.343	3203
843.479	3081
843.616	3104
843.752	2876
843.889	2880
844.025	3039
844.162	2880
844.298	3039
844.435	2944
844.571	2880
844.708	3058
844.844	3173
844.98	3214
845.117	3184
845.253	3051
845.389	3017
845.525	3055
845.661	3093
845.798	3005
845.934	3119
846.07	3062
846.206	3207
846.342	3313
846.478	3218
846.614	3055
846.75	3039
846.886	3001
847.022	3241
847.158	3108
847.294	3157
847.429	3226
847.565	3207
847.701	3496
847.837	3020
847.972	2986
848.108	3123
848.244	3104
848.379	2998
848.515	2937
848.65	2914
848.786	2944
848.921	2994
849.057	3093
849.192	3135
849.328	3032
849.463	3108
849.598	3085
849.734	3028
849.869	2982
850.004	2902
850.14	2975
850.275	2944
850.41	2823
850.545	2876
850.68	2944
850.815	2990
850.95	3001
851.085	3195
851.22	3093
851.355	2998
851.49	2967
851.625	2963
851.76	3032
851.895	2906
852.03	2922
852.165	2998
852.299	3100
852.434	3157
852.569	3161
852.703	3176
852.838	3233
852.973	3298
853.107	3298
853.242	3146
853.376	3085
853.511	2982
853.645	3051
853.78	3203
853.914	3138
854.048	3138
854.183	3066
854.317	3169
854.451	3302
854.585	3108
854.72	3104
854.854	3161
854.988	3047
855.122	3085
855.256	2979
855.39	3074
855.524	3275
855.658	3192
855.792	3123
855.926	3169
856.06	3184
856.194	3226
856.327	3135
856.461	3055
856.595	3058
856.729	3074
856.862	3157
856.996	3157
857.13	3195
857.263	3203
857.397	3291
857.53	3119
857.664	3173
857.797	3211
857.931	3214
858.064	3165
858.197	3230
858.331	3123
858.464	3093
858.597	2975
858.731	3085
858.864	3150
858.997	3058
859.13	3135
859.263	3180
859.396	3199
859.529	3055
859.662	3051
859.795	3058
859.928	3138
860.061	3249
860.194	3287
860.327	3157
860.46	3058
860.592	3226
860.725	3195
860.858	3230
860.99	3100
861.123	3047
861.256	3051
861.388	3135
861.521	3842
861.653	3051
861.786	3005
861.918	2998
862.05	3020
862.183	3070
862.315	3123
862.447	3161
862.58	3070
862.712	2933
862.844	2842
862.976	2998
863.108	3020
863.24	3298
863.372	2872
863.504	2918
863.636	2990
863.768	3001
863.9	2994
864.032	2899
864.164	2906
864.296	3001
864.428	3077
864.559	3074
864.691	3077
864.823	3051
864.954	3028
865.086	3032
865.217	3001
865.349	2941
865.48	2971
865.612	3001
865.743	3131
865.875	2990
866.006	2933
866.137	2994
866.269	2922
866.4	2887
866.531	2899
866.662	2880
866.793	2899
866.924	2895
867.055	2933
867.186	2899
867.317	2826
867.448	2777
867.579	2845
867.71	2838
867.841	2838
867.972	2868
868.103	2910
868.233	2891
868.364	2872
868.495	2899
868.625	3097
868.756	3146
868.886	2948
869.017	3009
869.147	3154
869.278	3169
869.408	3028
869.539	3005
869.669	3097
869.799	3043
869.929	3146
870.06	3077
870.19	3348
870.32	3275
870.45	3272
870.58	3393
870.71	3450
870.84	3473
870.97	3291
871.1	3237
871.23	3454
871.36	3439
871.489	3329
871.619	3412
871.749	3397
871.879	3412
872.008	3507
872.138	3351
872.267	3249
872.397	3184
872.526	3070
872.656	2986
872.785	3085
872.915	3218
873.044	3325
873.173	3230
873.303	3253
873.432	3226
873.561	3241
873.69	3176
873.819	3116
873.948	3154
874.077	3081
874.206	3020
874.335	3039
874.464	3203
874.593	3294
874.722	3233
874.851	3359
874.979	3378
875.108	3340
875.237	3154
875.365	3142
875.494	3112
875.623	3237
875.751	3077
875.88	3093
876.008	3157
876.136	3192
876.265	3332
876.393	3481
876.521	3397
876.65	3367
876.778	3306
876.906	3207
877.034	3169
877.162	3207
877.29	3180
877.418	3218
877.546	3207
877.674	3214
877.802	3222
877.93	3260
878.058	3150
878.185	3097
878.313	3180
878.441	3188
878.568	3062
878.696	3097
878.824	3226
878.951	3313
879.079	3416
879.206	3580
879.333	3439
879.461	3340
879.588	3351
879.715	3443
879.842	3584
879.97	3332
880.097	3165
880.224	3100
880.351	3169
880.478	3192
880.605	3180
880.732	3218
880.859	3481
880.986	3310
881.112	3321
881.239	3176
881.366	3097
881.493	3039
881.619	3020
881.746	3062
881.872	3070
881.999	3104
882.125	3131
882.252	3249
882.378	3272
882.505	3405
882.631	3264
882.757	3135
882.883	3211
883.01	3233
883.136	3157
883.262	3081
883.388	3100
883.514	3302
883.64	3393
883.766	3336
883.892	3203
884.018	3268
884.143	3412
884.269	3538
884.395	3203
884.52	3180
884.646	3165
884.772	3108
884.897	3112
885.023	3222
885.148	3329
885.274	3443
885.399	3412
885.524	3287
885.65	3294
885.775	3348
885.9	3294
886.025	3496
886.15	3363
886.275	3336
886.4	3287
886.525	3310
886.65	3298
886.775	3310
886.9	3542
887.025	3675
887.149	3504
887.274	3306
887.399	3226
887.523	3211
887.648	3207
887.773	3195
887.897	3431
888.021	3416
888.146	3355
888.27	3485
888.395	3576
888.519	3439
888.643	3485
888.767	3500
888.891	3386
889.015	3249
889.139	3321
889.263	3264
889.387	3469
889.511	3576
889.635	3519
889.759	3348
889.883	3317
890.006	3405
890.13	3545
890.254	3302
890.377	3378
890.501	3245
890.624	3203
890.748	3294
890.871	3199
890.995	3154
891.118	3100
891.241	3241
891.364	3283
891.488	3348
891.611	3203
891.734	3287
891.857	3340
891.98	3302
892.103	3329
892.226	3336
892.349	3233
892.471	3157
892.594	3283
892.717	3310
892.839	3294
892.962	3313
893.085	3393
893.207	3344
893.33	3256
893.452	3256
893.575	3351
893.697	3279
893.819	3504
893.941	3515
894.064	3492
894.186	3298
894.308	3275
894.43	3485
894.552	3545
894.674	3485
894.796	3325
894.918	3351
895.04	3313
895.161	3443
895.283	3393
895.405	3302
895.526	3431
895.648	3488
895.769	3477
895.891	3507
896.012	3553
896.134	3481
896.255	3416
896.376	3454
896.498	3450
896.619	3450
896.74	3378
896.861	3431
896.982	3656
897.103	3861
897.224	3629
897.345	3511
897.466	3477
897.587	3507
897.708	3667
897.828	3561
897.949	3412
898.07	3351
898.19	3420
898.311	3606
898.431	3485
898.552	3564
898.672	3591
898.792	3606
898.913	3511
899.033	3409
899.153	3336
899.273	3233
899.393	3291
899.513	3329
899.633	3321
899.753	3351
899.873	3359
899.993	3431
900.113	3355
900.232	3412
900.352	3374
900.472	3313
900.591	3237
900.711	3291
900.83	3245
900.95	3435
901.069	3511
901.189	3378
901.308	3176
901.427	3108
901.546	3241
901.665	3298
901.784	3348
901.904	3241
902.023	3176
902.141	3036
902.26	3047
902.379	3165
902.498	3116
902.617	3123
902.735	3241
902.854	3253
902.973	3272
903.091	3097
903.21	3100
903.328	3173
903.446	3165
903.565	3150
903.683	3233
903.801	3146
903.919	3275
904.038	3291
904.156	3241
904.274	3298
904.392	3302
904.51	3306
904.627	3329
904.745	3435
904.863	3526
904.981	3302
905.098	3214
905.216	3260
905.334	3332
905.451	3355
905.569	3310
905.686	3466
905.803	3481
905.921	3291
906.038	3519
906.155	3370
906.272	3340
906.389	3382
906.506	3245
906.623	3264
906.74	3294
906.857	3230
906.974	3283
907.091	3466
907.208	3595
907.324	3507
907.441	3382
907.557	3298
907.674	3253
907.79	3268
907.907	3306
908.023	3367
908.139	3443
908.256	3355
908.372	3420
908.488	3386
908.604	3294
908.72	3275
908.836	3302
908.952	3294
909.068	3359
909.184	3557
909.3	3412
909.415	3557
909.531	3500
909.647	3321
909.762	3351
909.878	3275
909.993	3370
910.108	3344
910.224	3321
910.339	3431
910.454	3397
910.57	3291
910.685	3237
910.8	3622
910.915	3549
911.03	3511
911.145	3340
911.259	3306
911.374	3325
911.489	3268
911.604	3256
911.718	3127
911.833	3173
911.947	3043
912.062	2952
912.176	3222
912.291	3207
912.405	3214
912.519	3458
912.633	3462
912.748	3363
912.862	3245
912.976	3180
913.09	3112
913.204	3173
913.318	3214
913.431	3325
913.545	3393
913.659	3439
913.772	3329
913.886	3233
914	3256
914.113	3382
914.226	3424
914.34	3439
914.453	3230
914.566	3447
914.68	3310
914.793	3329
914.906	3165
915.019	3100
915.132	3085
915.245	3142
915.358	3256
915.47	3256
915.583	3310
915.696	3332
915.809	3412
915.921	3447
916.034	3275
916.146	3256
916.259	3268
916.371	3405
916.483	3405
916.595	3321
916.708	3351
916.82	3355
916.932	3378
917.044	3367
917.156	3416
917.268	3302
917.38	3298
917.491	3294
917.603	3389
917.715	3511
917.826	3500
917.938	3382
918.049	3287
918.161	3435
918.272	3595
918.384	3584
918.495	3466
918.606	3332
918.717	3321
918.828	3420
918.939	3424
919.05	3329
919.161	3393
919.272	3222
919.383	3340
919.494	3496
919.604	3713
919.715	3515
919.826	3462
919.936	3477
920.047	3606
920.157	3568
920.267	3785
920.378	3606
920.488	3553
920.598	3778
920.708	3972
920.818	3850
920.928	3838
921.038	4063
921.148	4017
921.258	3724
921.368	3675
921.477	3561
921.587	3557
921.697	3485
921.806	3618
921.916	3545
922.025	3340
922.134	3382
922.244	3340
922.353	3462
922.462	3298
922.571	3237
922.68	3135
922.789	3089
922.898	3207
923.007	3089
923.116	3233
923.224	3214
923.333	3214
923.442	3131
923.55	3146
923.659	3157
923.767	3203
923.876	3116
923.984	3268
924.092	3104
924.201	3195
924.309	3218
924.417	3298
924.525	3173
924.633	3241
924.741	4036
924.849	3093
924.956	3279
925.064	3112
925.172	3070
925.279	3119
925.387	3199
925.494	3218
925.602	3393
925.709	3355
925.816	3199
925.924	3298
926.031	3374
926.138	3344
926.245	3405
926.352	3256
926.459	3435
926.566	3469
926.673	3374
926.779	3249
926.886	3241
926.993	3165
927.099	3161
927.206	3173
927.312	3138
927.419	3268
927.525	3230
927.631	3325
927.737	3154
927.843	3157
927.95	3051
928.056	3146
928.162	3199
928.267	3226
928.373	3888
928.479	3317
928.585	3081
928.69	3233
928.796	3310
928.901	3154
929.007	3097
929.112	3249
929.218	3192
929.323	3192
929.428	3184
929.533	3363
929.638	3157
929.743	3192
929.848	3260
929.953	3260
930.058	3173
930.163	3005
930.267	3104
930.372	3241
930.477	3085
930.581	3355
930.685	3211
930.79	3085
930.894	3150
930.998	3123
931.103	3287
931.207	3036
931.311	2929
931.415	2971
931.519	2785
931.623	2819
