Data from test_V78500241_1729.txt Node
Date: Fri Mar 25 16:27:10 CST 2022
User: usil
Spectrometer: V785-0024
Trigger mode: 0
Integration Time (sec): 4.000000E-1
Scans to average: 1
Nonlinearity correction enabled: false
Boxcar width: 0
Storing dark spectrum: false
XAxis mode: Wavelengths
Number of Pixels in Spectrum: 1024
>>>>>Begin Spectral Data<<<<<
801.071	2952
801.214	2941
801.356	2906
801.499	2933
801.641	2933
801.783	2979
801.926	3051
802.068	3005
802.211	3013
802.353	3036
802.496	3009
802.638	3009
802.78	3055
802.923	3093
803.065	3017
803.208	2929
803.35	2979
803.492	2963
803.635	2929
803.777	2796
803.919	2902
804.061	3218
804.204	2986
804.346	2941
804.488	2849
804.63	3028
804.773	2891
804.915	2960
805.057	3097
805.199	2922
805.341	3024
805.483	3062
805.626	3020
805.768	3001
805.91	3051
806.052	3104
806.194	3047
806.336	3199
806.478	3055
806.62	2967
806.762	2963
806.904	3077
807.046	3195
807.188	2986
807.33	2906
807.472	2986
807.614	2918
807.756	2990
807.898	2944
808.04	2906
808.182	2982
808.324	2975
808.465	2925
808.607	2849
808.749	2800
808.891	2880
809.033	3047
809.174	2990
809.316	2895
809.458	2914
809.6	2796
809.741	2819
809.883	2804
810.025	2895
810.166	2883
810.308	2887
810.45	2868
810.591	2823
810.733	2804
810.875	2834
811.016	2811
811.158	2773
811.299	2838
811.441	2967
811.582	2902
811.724	2845
811.865	2864
812.007	2952
812.148	2918
812.29	2861
812.431	2891
812.573	2922
812.714	2971
812.855	3097
812.997	3036
813.138	3157
813.279	3024
813.421	2986
813.562	2960
813.703	2918
813.845	2941
813.986	2804
814.127	2743
814.268	2807
814.41	2864
814.551	2785
814.692	2914
814.833	2830
814.974	2960
815.115	2986
815.256	2876
815.397	2842
815.539	2838
815.68	2826
815.821	2823
815.962	2967
816.103	2956
816.244	2910
816.385	2895
816.526	3001
816.666	2902
816.807	2769
816.948	2914
817.089	2929
817.23	2899
817.371	2807
817.512	2868
817.653	2842
817.793	2819
817.934	2891
818.075	2994
818.216	2979
818.356	3055
818.497	2906
818.638	2807
818.778	2849
818.919	2815
819.06	2758
819.2	2914
819.341	2838
819.481	2845
819.622	2979
819.762	3135
819.903	3036
820.043	2948
820.184	2937
820.324	2891
820.465	3028
820.605	3024
820.746	3036
820.886	2960
821.026	3142
821.167	3195
821.307	3245
821.447	3283
821.588	3260
821.728	3222
821.868	3176
822.008	3097
822.149	3249
822.289	3241
822.429	3074
822.569	3112
822.709	3165
822.849	3047
822.99	3074
823.13	3146
823.27	3222
823.41	3154
823.55	3184
823.69	3180
823.83	3199
823.97	3100
824.11	3070
824.25	3028
824.389	3093
824.529	3104
824.669	3116
824.809	3214
824.949	3249
825.089	3241
825.228	3230
825.368	3058
825.508	2998
825.648	2994
825.787	3005
825.927	3024
826.067	3005
826.206	2998
826.346	3066
826.485	3070
826.625	3123
826.765	3332
826.904	3218
827.044	3043
827.183	2944
827.323	2876
827.462	3020
827.601	2922
827.741	2910
827.88	2948
828.02	2880
828.159	2990
828.298	3051
828.437	3154
828.577	3028
828.716	3294
828.855	3077
828.994	2948
829.134	2883
829.273	2876
829.412	2902
829.551	2880
829.69	2906
829.829	2986
829.968	3127
830.107	3017
830.246	3043
830.385	2944
830.524	2895
830.663	2834
830.802	2762
830.941	2655
831.08	2659
831.219	2796
831.357	2754
831.496	2937
831.635	2720
831.774	2648
831.913	2636
832.051	2552
832.19	2583
832.329	2674
832.467	2533
832.606	2503
832.744	2571
832.883	2590
833.022	2617
833.16	2651
833.299	2682
833.437	2705
833.576	2720
833.714	2762
833.852	2754
833.991	2750
834.129	2849
834.267	2838
834.406	2804
834.544	2872
834.682	2895
834.821	2864
834.959	3077
835.097	2914
835.235	3085
835.373	3043
835.511	3017
835.65	2967
835.788	2963
835.926	2857
836.064	2811
836.202	2861
836.34	3112
836.478	3138
836.615	3089
836.753	3142
836.891	3211
837.029	3184
837.167	3070
837.305	3097
837.443	3085
837.58	2975
837.718	3135
837.856	3066
837.993	3047
838.131	3157
838.269	3123
838.406	3097
838.544	3104
838.681	2925
838.819	2933
838.956	2838
839.094	2830
839.231	2937
839.369	3047
839.506	3378
839.643	3214
839.781	3005
839.918	2975
840.055	3081
840.193	3077
840.33	3062
840.467	3070
840.604	3169
840.742	3405
840.879	3001
841.016	3055
841.153	3116
841.29	3336
841.427	3272
841.564	3272
841.701	3298
841.838	3230
841.975	3222
842.112	3207
842.249	3058
842.385	3070
842.522	3268
842.659	3074
842.796	3070
842.933	3081
843.069	3036
843.206	3058
843.343	3184
843.479	3093
843.616	3165
843.752	2929
843.889	2914
844.025	3089
844.162	2918
844.298	3085
844.435	2952
844.571	2899
844.708	3047
844.844	3214
844.98	3237
845.117	3192
845.253	3058
845.389	2994
845.525	3146
845.661	3127
845.798	3032
845.934	3150
846.07	3005
846.206	3222
846.342	3310
846.478	3222
846.614	3146
846.75	3055
846.886	3024
847.022	3253
847.158	3127
847.294	3173
847.429	3264
847.565	3233
847.701	3458
847.837	3036
847.972	2990
848.108	3150
848.244	3131
848.379	2994
848.515	2941
848.65	2956
848.786	2986
848.921	3009
849.057	3100
849.192	3135
849.328	3089
849.463	3135
849.598	3036
849.734	3047
849.869	2998
850.004	2944
850.14	2956
850.275	2933
850.41	2842
850.545	2895
850.68	2933
850.815	3009
850.95	2998
851.085	3161
851.22	3097
851.355	3047
851.49	2979
851.625	3028
851.76	3032
851.895	2902
852.03	2925
852.165	3020
852.299	3131
852.434	3188
852.569	3116
852.703	3184
852.838	3264
852.973	3370
853.107	3340
853.242	3157
853.376	3138
853.511	2982
853.645	3074
853.78	3245
853.914	3108
854.048	3150
854.183	3100
854.317	3146
854.451	3310
854.585	3135
854.72	3070
854.854	3310
854.988	3100
855.122	3104
855.256	3039
855.39	3173
855.524	3249
855.658	3192
855.792	3188
855.926	3249
856.06	3260
856.194	3294
856.327	3188
856.461	3123
856.595	3123
856.729	3138
856.862	3256
856.996	3222
857.13	3241
857.263	3275
857.397	3306
857.53	3184
857.664	3237
857.797	3237
857.931	3302
858.064	3195
858.197	3294
858.331	3146
858.464	3131
858.597	3051
858.731	3161
858.864	3157
858.997	3127
859.13	3184
859.263	3218
859.396	3256
859.529	3127
859.662	3112
859.795	3100
859.928	3199
860.061	3325
860.194	3302
860.327	3195
860.46	3161
860.592	3245
860.725	3272
860.858	3302
860.99	3127
861.123	3089
861.256	3077
861.388	3184
861.521	3983
861.653	3055
861.786	2975
861.918	3047
862.05	3116
862.183	3138
862.315	3207
862.447	3203
862.58	3142
862.712	2998
862.844	2922
862.976	3062
863.108	3013
863.24	3348
863.372	2941
863.504	3009
863.636	2994
863.768	3062
863.9	2990
864.032	2925
864.164	2982
864.296	3051
864.428	3116
864.559	3138
864.691	3081
864.823	3070
864.954	3097
865.086	3081
865.217	3020
865.349	3036
865.48	3001
865.612	3047
865.743	3184
865.875	3055
866.006	2937
866.137	3005
866.269	2986
866.4	2952
866.531	2960
866.662	2944
866.793	2941
866.924	2933
867.055	2994
867.186	2971
867.317	2937
867.448	2899
867.579	2918
867.71	2880
867.841	2857
867.972	2948
868.103	2963
868.233	2948
868.364	2914
868.495	2922
868.625	3116
868.756	3230
868.886	3009
869.017	3028
869.147	3203
869.278	3161
869.408	3108
869.539	3062
869.669	3119
869.799	3074
869.929	3131
870.06	3142
870.19	3321
870.32	3310
870.45	3325
870.58	3401
870.71	3462
870.84	3488
870.97	3317
871.1	3268
871.23	3511
871.36	3500
871.489	3386
871.619	3405
871.749	3450
871.879	3496
872.008	3469
872.138	3386
872.267	3306
872.397	3211
872.526	3150
872.656	3032
872.785	3127
872.915	3249
873.044	3332
873.173	3253
873.303	3275
873.432	3294
873.561	3260
873.69	3169
873.819	3184
873.948	3241
874.077	3131
874.206	3066
874.335	3135
874.464	3237
874.593	3367
874.722	3287
874.851	3462
874.979	3401
875.108	3355
875.237	3222
875.365	3207
875.494	3192
875.623	3272
875.751	3119
875.88	3146
876.008	3233
876.136	3256
876.265	3389
876.393	3515
876.521	3477
876.65	3450
876.778	3336
876.906	3207
877.034	3222
877.162	3245
877.29	3203
877.418	3256
877.546	3294
877.674	3279
877.802	3260
877.93	3245
878.058	3173
878.185	3108
878.313	3268
878.441	3268
878.568	3123
878.696	3176
878.824	3256
878.951	3336
879.079	3481
879.206	3644
879.333	3492
879.461	3348
879.588	3405
879.715	3519
879.842	3652
879.97	3412
880.097	3188
880.224	3157
880.351	3195
880.478	3233
880.605	3237
880.732	3214
880.859	3511
880.986	3370
881.112	3348
881.239	3195
881.366	3100
881.493	3062
881.619	3051
881.746	3081
881.872	3135
881.999	3138
882.125	3146
882.252	3272
882.378	3298
882.505	3466
882.631	3329
882.757	3173
882.883	3214
883.01	3237
883.136	3184
883.262	3119
883.388	3112
883.514	3332
883.64	3409
883.766	3310
883.892	3195
884.018	3287
884.143	3405
884.269	3584
884.395	3260
884.52	3237
884.646	3195
884.772	3176
884.897	3108
885.023	3264
885.148	3340
885.274	3431
885.399	3351
885.524	3291
885.65	3291
885.775	3370
885.9	3340
886.025	3424
886.15	3397
886.275	3317
886.4	3256
886.525	3329
886.65	3287
886.775	3287
886.9	3545
887.025	3663
887.149	3477
887.274	3283
887.399	3192
887.523	3230
887.648	3211
887.773	3241
887.897	3401
888.021	3454
888.146	3298
888.27	3462
888.395	3545
888.519	3477
888.643	3450
888.767	3485
888.891	3298
889.015	3268
889.139	3336
889.263	3283
889.387	3401
889.511	3515
889.635	3466
889.759	3279
889.883	3302
890.006	3382
890.13	3507
890.254	3321
890.377	3359
890.501	3230
890.624	3253
890.748	3279
890.871	3207
890.995	3131
891.118	3066
891.241	3253
891.364	3279
891.488	3332
891.611	3150
891.734	3249
891.857	3306
891.98	3283
892.103	3378
892.226	3302
892.349	3275
892.471	3112
892.594	3272
892.717	3272
892.839	3283
892.962	3348
893.085	3363
893.207	3332
893.33	3180
893.452	3237
893.575	3351
893.697	3230
893.819	3519
893.941	3530
894.064	3450
894.186	3268
894.308	3310
894.43	3469
894.552	3572
894.674	3439
894.796	3317
894.918	3310
895.04	3283
895.161	3443
895.283	3424
895.405	3279
895.526	3401
895.648	3458
895.769	3409
895.891	3477
896.012	3545
896.134	3500
896.255	3431
896.376	3386
896.498	3420
896.619	3496
896.74	3363
896.861	3431
896.982	3732
897.103	3876
897.224	3599
897.345	3549
897.466	3519
897.587	3492
897.708	3641
897.828	3599
897.949	3450
898.07	3393
898.19	3420
898.311	3629
898.431	3477
898.552	3549
898.672	3595
898.792	3614
898.913	3496
899.033	3439
899.153	3298
899.273	3260
899.393	3355
899.513	3329
899.633	3287
899.753	3351
899.873	3344
899.993	3439
900.113	3382
900.232	3412
900.352	3370
900.472	3321
900.591	3218
900.711	3294
900.83	3253
900.95	3447
901.069	3477
901.189	3389
901.308	3176
901.427	3150
901.546	3233
901.665	3348
901.784	3370
901.904	3245
902.023	3211
902.141	3047
902.26	3001
902.379	3173
902.498	3077
902.617	3077
902.735	3249
902.854	3249
902.973	3218
903.091	3100
903.21	3093
903.328	3127
903.446	3150
903.565	3116
903.683	3207
903.801	3165
903.919	3264
904.038	3302
904.156	3180
904.274	3279
904.392	3279
904.51	3306
904.627	3351
904.745	3473
904.863	3523
904.981	3298
905.098	3180
905.216	3279
905.334	3306
905.451	3325
905.569	3332
905.686	3416
905.803	3481
905.921	3329
906.038	3450
906.155	3382
906.272	3302
906.389	3348
906.506	3287
906.623	3241
906.74	3298
906.857	3226
906.974	3279
907.091	3447
907.208	3553
907.324	3462
907.441	3393
907.557	3272
907.674	3249
907.79	3241
907.907	3329
908.023	3389
908.139	3409
908.256	3363
908.372	3355
908.488	3389
908.604	3275
908.72	3256
908.836	3329
908.952	3332
909.068	3374
909.184	3469
909.3	3439
909.415	3545
909.531	3542
909.647	3279
909.762	3348
909.878	3256
909.993	3340
910.108	3359
910.224	3359
910.339	3382
910.454	3363
910.57	3279
910.685	3279
910.8	3606
910.915	3587
911.03	3466
911.145	3283
911.259	3256
911.374	3336
911.489	3249
911.604	3226
911.718	3123
911.833	3195
911.947	3032
912.062	3028
912.176	3211
912.291	3207
912.405	3237
912.519	3431
912.633	3507
912.748	3367
912.862	3321
912.976	3230
913.09	3089
913.204	3112
913.318	3272
913.431	3348
913.545	3332
913.659	3424
913.772	3344
913.886	3214
914	3230
914.113	3382
914.226	3454
914.34	3355
914.453	3211
914.566	3447
914.68	3313
914.793	3351
914.906	3173
915.019	3127
915.132	3089
915.245	3180
915.358	3211
915.47	3214
915.583	3256
915.696	3355
915.809	3473
915.921	3397
916.034	3245
916.146	3298
916.259	3233
916.371	3443
916.483	3386
916.595	3294
916.708	3351
916.82	3374
916.932	3336
917.044	3317
917.156	3389
917.268	3287
917.38	3370
917.491	3294
917.603	3374
917.715	3443
917.826	3462
917.938	3401
918.049	3287
918.161	3450
918.272	3603
918.384	3580
918.495	3450
918.606	3363
918.717	3298
918.828	3374
918.939	3412
919.05	3298
919.161	3374
919.272	3173
919.383	3321
919.494	3496
919.604	3682
919.715	3492
919.826	3386
919.936	3431
920.047	3622
920.157	3580
920.267	3785
920.378	3637
920.488	3568
920.598	3800
920.708	3953
920.818	3876
920.928	3869
921.038	4002
921.148	4002
921.258	3732
921.368	3629
921.477	3576
921.587	3530
921.697	3496
921.806	3625
921.916	3542
922.025	3374
922.134	3393
922.244	3355
922.353	3420
922.462	3275
922.571	3275
922.68	3119
922.789	3074
922.898	3146
923.007	3123
923.116	3218
923.224	3165
923.333	3253
923.442	3116
923.55	3112
923.659	3192
923.767	3245
923.876	3146
923.984	3272
924.092	3135
924.201	3211
924.309	3226
924.417	3256
924.525	3218
924.633	3230
924.741	4017
924.849	3062
924.956	3245
925.064	3119
925.172	3032
925.279	3100
925.387	3214
925.494	3237
925.602	3393
925.709	3321
925.816	3192
925.924	3313
926.031	3431
926.138	3287
926.245	3386
926.352	3241
926.459	3466
926.566	3454
926.673	3310
926.779	3268
926.886	3279
926.993	3119
927.099	3157
927.206	3093
927.312	3104
927.419	3214
927.525	3211
927.631	3272
927.737	3180
927.843	3127
927.95	3020
928.056	3180
928.162	3195
928.267	3256
928.373	3880
928.479	3317
928.585	3055
928.69	3230
928.796	3253
928.901	3199
929.007	3055
929.112	3222
929.218	3218
929.323	3146
929.428	3154
929.533	3348
929.638	3116
929.743	3180
929.848	3256
929.953	3275
930.058	3169
930.163	2998
930.267	3066
930.372	3233
930.477	3062
930.581	3374
930.685	3214
930.79	3081
930.894	3100
930.998	3108
931.103	3272
931.207	2956
931.311	2933
931.415	2944
931.519	2766
931.623	2807
