Data from test_V78500241_955.txt Node
Date: Fri Mar 25 16:21:49 CST 2022
User: usil
Spectrometer: V785-0024
Trigger mode: 0
Integration Time (sec): 4.000000E-1
Scans to average: 1
Nonlinearity correction enabled: false
Boxcar width: 0
Storing dark spectrum: false
XAxis mode: Wavelengths
Number of Pixels in Spectrum: 1024
>>>>>Begin Spectral Data<<<<<
801.071	2933
801.214	2937
801.356	2861
801.499	2853
801.641	2876
801.783	2941
801.926	3055
802.068	2952
802.211	2960
802.353	2994
802.496	2937
802.638	2986
802.78	3013
802.923	3100
803.065	2982
803.208	2887
803.35	2937
803.492	2941
803.635	2918
803.777	2777
803.919	2834
804.061	3180
804.204	2952
804.346	2910
804.488	2842
804.63	2986
804.773	2842
804.915	2872
805.057	3039
805.199	2906
805.341	2971
805.483	3043
805.626	2990
805.768	2929
805.91	3051
806.052	3104
806.194	3058
806.336	3253
806.478	3043
806.62	2910
806.762	2986
806.904	3028
807.046	3138
807.188	2998
807.33	2910
807.472	2982
807.614	2876
807.756	2971
807.898	2933
808.04	2914
808.182	2944
808.324	2929
808.465	2899
808.607	2891
808.749	2800
808.891	2868
809.033	2967
809.174	2979
809.316	2883
809.458	2918
809.6	2769
809.741	2800
809.883	2762
810.025	2834
810.166	2830
810.308	2819
810.45	2834
810.591	2788
810.733	2743
810.875	2842
811.016	2746
811.158	2739
811.299	2830
811.441	2906
811.582	2899
811.724	2823
811.865	2849
812.007	2914
812.148	2925
812.29	2887
812.431	2914
812.573	2914
812.714	2952
812.855	3047
812.997	3017
813.138	3146
813.279	3020
813.421	2960
813.562	2967
813.703	2883
813.845	2902
813.986	2746
814.127	2708
814.268	2815
814.41	2845
814.551	2788
814.692	2876
814.833	2815
814.974	2887
815.115	2948
815.256	2826
815.397	2811
815.539	2876
815.68	2739
815.821	2785
815.962	2918
816.103	2922
816.244	2891
816.385	2826
816.526	2922
816.666	2906
816.807	2735
816.948	2853
817.089	2883
817.23	2864
817.371	2792
817.512	2758
817.653	2849
817.793	2864
817.934	2861
818.075	2960
818.216	2979
818.356	3017
818.497	2876
818.638	2811
818.778	2785
818.919	2804
819.06	2746
819.2	2864
819.341	2800
819.481	2773
819.622	2914
819.762	3112
819.903	3009
820.043	2899
820.184	2883
820.324	2895
820.465	3005
820.605	3055
820.746	3009
820.886	2952
821.026	3077
821.167	3146
821.307	3241
821.447	3249
821.588	3233
821.728	3199
821.868	3195
822.008	3062
822.149	3157
822.289	3241
822.429	3070
822.569	3093
822.709	3188
822.849	3024
822.99	3074
823.13	3173
823.27	3211
823.41	3070
823.55	3142
823.69	3112
823.83	3199
823.97	3108
824.11	2971
824.25	2975
824.389	3058
824.529	3127
824.669	3066
824.809	3199
824.949	3199
825.089	3203
825.228	3119
825.368	3017
825.508	2948
825.648	2933
825.787	3009
825.927	2994
826.067	2937
826.206	2952
826.346	3047
826.485	3036
826.625	3093
826.765	3260
826.904	3207
827.044	3001
827.183	2910
827.323	2861
827.462	2982
827.601	2891
827.741	2899
827.88	2952
828.02	2880
828.159	2933
828.298	3047
828.437	3093
828.577	3032
828.716	3233
828.855	3058
828.994	2937
829.134	2899
829.273	2891
829.412	2823
829.551	2883
829.69	2880
829.829	2994
829.968	3142
830.107	3039
830.246	3028
830.385	2895
830.524	2883
830.663	2834
830.802	2720
830.941	2651
831.08	2613
831.219	2739
831.357	2781
831.496	2929
831.635	2724
831.774	2659
831.913	2621
832.051	2530
832.19	2571
832.329	2663
832.467	2503
832.606	2499
832.744	2583
832.883	2583
833.022	2590
833.16	2659
833.299	2697
833.437	2667
833.576	2705
833.714	2720
833.852	2693
833.991	2781
834.129	2830
834.267	2800
834.406	2758
834.544	2899
834.682	2807
834.821	2876
834.959	3077
835.097	2914
835.235	3074
835.373	2956
835.511	3005
835.65	2941
835.788	2933
835.926	2807
836.064	2811
836.202	2861
836.34	3093
836.478	3112
836.615	3047
836.753	3112
836.891	3165
837.029	3142
837.167	3081
837.305	3062
837.443	3009
837.58	2979
837.718	3123
837.856	3043
837.993	3009
838.131	3066
838.269	3089
838.406	3077
838.544	3039
838.681	2922
838.819	2914
838.956	2815
839.094	2834
839.231	2906
839.369	3039
839.506	3351
839.643	3230
839.781	3032
839.918	2937
840.055	3043
840.193	3043
840.33	3043
840.467	3077
840.604	3123
840.742	3374
840.879	3070
841.016	3032
841.153	3100
841.29	3321
841.427	3291
841.564	3268
841.701	3306
841.838	3222
841.975	3199
842.112	3211
842.249	3062
842.385	3047
842.522	3214
842.659	3055
842.796	3062
842.933	3070
843.069	3024
843.206	3024
843.343	3123
843.479	3085
843.616	3142
843.752	2868
843.889	2857
844.025	3062
844.162	2887
844.298	3047
844.435	2941
844.571	2922
844.708	3074
844.844	3188
844.98	3214
845.117	3195
845.253	3039
845.389	2998
845.525	3123
845.661	3066
845.798	3017
845.934	3112
846.07	3066
846.206	3218
846.342	3291
846.478	3195
846.614	3036
846.75	3077
846.886	3055
847.022	3241
847.158	3161
847.294	3188
847.429	3279
847.565	3165
847.701	3481
847.837	3001
847.972	2986
848.108	3169
848.244	3138
848.379	2967
848.515	2929
848.65	2891
848.786	2956
848.921	3020
849.057	3074
849.192	3169
849.328	3062
849.463	3089
849.598	3093
849.734	3058
849.869	2975
850.004	2910
850.14	2986
850.275	2918
850.41	2811
850.545	2845
850.68	2899
850.815	2948
850.95	2982
851.085	3184
851.22	3112
851.355	3028
851.49	2967
851.625	2971
851.76	2998
851.895	2933
852.03	2883
852.165	3017
852.299	3051
852.434	3157
852.569	3131
852.703	3173
852.838	3241
852.973	3336
853.107	3332
853.242	3150
853.376	3055
853.511	2944
853.645	3024
853.78	3226
853.914	3123
854.048	3085
854.183	3074
854.317	3127
854.451	3264
854.585	3108
854.72	3108
854.854	3218
854.988	3036
855.122	3047
855.256	2960
855.39	3100
855.524	3214
855.658	3203
855.792	3165
855.926	3173
856.06	3207
856.194	3233
856.327	3127
856.461	3097
856.595	3089
856.729	3077
856.862	3199
856.996	3146
857.13	3211
857.263	3241
857.397	3275
857.53	3112
857.664	3165
857.797	3256
857.931	3237
858.064	3165
858.197	3222
858.331	3116
858.464	3051
858.597	3020
858.731	3100
858.864	3127
858.997	3066
859.13	3135
859.263	3165
859.396	3218
859.529	3131
859.662	3055
859.795	3001
859.928	3116
860.061	3275
860.194	3275
860.327	3089
860.46	3097
860.592	3260
860.725	3222
860.858	3226
860.99	3119
861.123	3028
861.256	3024
861.388	3150
861.521	3812
861.653	3017
861.786	2967
861.918	3005
862.05	3051
862.183	3100
862.315	3116
862.447	3176
862.58	3097
862.712	2922
862.844	2834
862.976	3001
863.108	3009
863.24	3450
863.372	2880
863.504	2956
863.636	2948
863.768	3036
863.9	2963
864.032	2910
864.164	2941
864.296	3066
864.428	3097
864.559	3085
864.691	3051
864.823	3074
864.954	3020
865.086	3020
865.217	2960
865.349	2925
865.48	2960
865.612	2998
865.743	3161
865.875	2963
866.006	2933
866.137	2937
866.269	2941
866.4	2933
866.531	2925
866.662	2887
866.793	2853
866.924	2902
867.055	2971
867.186	2941
867.317	2883
867.448	2861
867.579	2864
867.71	2849
867.841	2792
867.972	2902
868.103	2895
868.233	2902
868.364	2853
868.495	2918
868.625	3062
868.756	3161
868.886	2941
869.017	2994
869.147	3176
869.278	3127
869.408	3051
869.539	3024
869.669	3097
869.799	3009
869.929	3150
870.06	3093
870.19	3329
870.32	3279
870.45	3283
870.58	3393
870.71	3450
870.84	3420
870.97	3302
871.1	3253
871.23	3504
871.36	3420
871.489	3329
871.619	3386
871.749	3389
871.879	3389
872.008	3477
872.138	3378
872.267	3275
872.397	3123
872.526	3119
872.656	3032
872.785	3097
872.915	3279
873.044	3294
873.173	3199
873.303	3214
873.432	3218
873.561	3245
873.69	3135
873.819	3138
873.948	3195
874.077	3100
874.206	3020
874.335	3093
874.464	3249
874.593	3325
874.722	3211
874.851	3363
874.979	3321
875.108	3302
875.237	3169
875.365	3127
875.494	3112
875.623	3237
875.751	3074
875.88	3089
876.008	3192
876.136	3173
876.265	3382
876.393	3515
876.521	3401
876.65	3367
876.778	3340
876.906	3211
877.034	3180
877.162	3211
877.29	3199
877.418	3264
877.546	3207
877.674	3233
877.802	3230
877.93	3176
878.058	3165
878.185	3081
878.313	3180
878.441	3176
878.568	3028
878.696	3150
878.824	3264
878.951	3313
879.079	3454
879.206	3610
879.333	3420
879.461	3317
879.588	3321
879.715	3454
879.842	3568
879.97	3397
880.097	3184
880.224	3119
880.351	3165
880.478	3192
880.605	3165
880.732	3131
880.859	3473
880.986	3272
881.112	3275
881.239	3256
881.366	3097
881.493	3051
881.619	3036
881.746	3062
881.872	3119
881.999	3100
882.125	3173
882.252	3203
882.378	3298
882.505	3439
882.631	3302
882.757	3135
882.883	3211
883.01	3233
883.136	3161
883.262	3093
883.388	3123
883.514	3268
883.64	3351
883.766	3310
883.892	3142
884.018	3222
884.143	3428
884.269	3511
884.395	3203
884.52	3135
884.646	3146
884.772	3135
884.897	3070
885.023	3150
885.148	3294
885.274	3397
885.399	3355
885.524	3245
885.65	3253
885.775	3291
885.9	3245
886.025	3420
886.15	3416
886.275	3249
886.4	3203
886.525	3279
886.65	3268
886.775	3256
886.9	3515
887.025	3660
887.149	3397
887.274	3230
887.399	3154
887.523	3161
887.648	3192
887.773	3222
887.897	3363
888.021	3428
888.146	3275
888.27	3431
888.395	3515
888.519	3473
888.643	3435
888.767	3439
888.891	3302
889.015	3218
889.139	3298
889.263	3245
889.387	3428
889.511	3530
889.635	3443
889.759	3256
889.883	3275
890.006	3409
890.13	3485
890.254	3268
890.377	3302
890.501	3199
890.624	3169
890.748	3283
890.871	3173
890.995	3093
891.118	3043
891.241	3180
891.364	3199
891.488	3287
891.611	3169
891.734	3222
891.857	3253
891.98	3218
892.103	3306
892.226	3245
892.349	3218
892.471	3081
892.594	3226
892.717	3245
892.839	3260
892.962	3245
893.085	3344
893.207	3306
893.33	3119
893.452	3199
893.575	3351
893.697	3264
893.819	3443
893.941	3485
894.064	3443
894.186	3226
894.308	3264
894.43	3439
894.552	3530
894.674	3500
894.796	3249
894.918	3268
895.04	3256
895.161	3420
895.283	3370
895.405	3264
895.526	3340
895.648	3374
895.769	3355
895.891	3412
896.012	3458
896.134	3488
896.255	3412
896.376	3370
896.498	3291
896.619	3424
896.74	3355
896.861	3389
896.982	3648
897.103	3827
897.224	3595
897.345	3507
897.466	3401
897.587	3485
897.708	3576
897.828	3553
897.949	3439
898.07	3325
898.19	3382
898.311	3572
898.431	3424
898.552	3507
898.672	3618
898.792	3587
898.913	3515
899.033	3367
899.153	3275
899.273	3207
899.393	3260
899.513	3287
899.633	3344
899.753	3359
899.873	3310
899.993	3386
900.113	3351
900.232	3382
900.352	3348
900.472	3283
900.591	3207
900.711	3298
900.83	3253
900.95	3443
901.069	3473
901.189	3397
901.308	3203
901.427	3180
901.546	3207
901.665	3294
901.784	3359
901.904	3253
902.023	3203
902.141	3024
902.26	3043
902.379	3161
902.498	3047
902.617	3039
902.735	3253
902.854	3249
902.973	3207
903.091	3074
903.21	3127
903.328	3226
903.446	3154
903.565	3123
903.683	3226
903.801	3161
903.919	3275
904.038	3298
904.156	3195
904.274	3329
904.392	3313
904.51	3332
904.627	3397
904.745	3462
904.863	3526
904.981	3321
905.098	3142
905.216	3317
905.334	3355
905.451	3359
905.569	3336
905.686	3454
905.803	3473
905.921	3306
906.038	3481
906.155	3336
906.272	3268
906.389	3370
906.506	3233
906.623	3317
906.74	3302
906.857	3245
906.974	3275
907.091	3450
907.208	3564
907.324	3511
907.441	3435
907.557	3272
907.674	3253
907.79	3222
907.907	3298
908.023	3435
908.139	3393
908.256	3355
908.372	3420
908.488	3359
908.604	3306
908.72	3241
908.836	3344
908.952	3306
909.068	3370
909.184	3530
909.3	3431
909.415	3584
909.531	3519
909.647	3279
909.762	3332
909.878	3302
909.993	3355
910.108	3348
910.224	3405
910.339	3473
910.454	3389
910.57	3359
910.685	3275
910.8	3595
910.915	3564
911.03	3462
911.145	3291
911.259	3298
911.374	3310
911.489	3272
911.604	3283
911.718	3157
911.833	3154
911.947	3089
912.062	2971
912.176	3188
912.291	3245
912.405	3230
912.519	3454
912.633	3507
912.748	3370
912.862	3279
912.976	3165
913.09	3104
913.204	3131
913.318	3233
913.431	3355
913.545	3359
913.659	3458
913.772	3344
913.886	3256
914	3222
914.113	3420
914.226	3488
914.34	3424
914.453	3237
914.566	3412
914.68	3298
914.793	3382
914.906	3165
915.019	3085
915.132	3104
915.245	3218
915.358	3268
915.47	3283
915.583	3298
915.696	3329
915.809	3416
915.921	3466
916.034	3279
916.146	3317
916.259	3260
916.371	3416
916.483	3382
916.595	3279
916.708	3359
916.82	3401
916.932	3393
917.044	3348
917.156	3378
917.268	3313
917.38	3313
917.491	3340
917.603	3420
917.715	3481
917.826	3458
917.938	3428
918.049	3302
918.161	3454
918.272	3557
918.384	3584
918.495	3507
918.606	3359
918.717	3279
918.828	3393
918.939	3431
919.05	3348
919.161	3374
919.272	3218
919.383	3332
919.494	3538
919.604	3732
919.715	3542
919.826	3416
919.936	3481
920.047	3572
920.157	3572
920.267	3778
920.378	3610
920.488	3576
920.598	3808
920.708	3983
920.818	3846
920.928	3854
921.038	4093
921.148	4067
921.258	3717
921.368	3660
921.477	3576
921.587	3557
921.697	3515
921.806	3660
921.916	3561
922.025	3386
922.134	3370
922.244	3340
922.353	3466
922.462	3359
922.571	3264
922.68	3138
922.789	3108
922.898	3180
923.007	3104
923.116	3275
923.224	3169
923.333	3214
923.442	3100
923.55	3135
923.659	3180
923.767	3233
923.876	3150
923.984	3230
924.092	3131
924.201	3233
924.309	3268
924.417	3249
924.525	3199
924.633	3275
924.741	4154
924.849	3085
924.956	3279
925.064	3176
925.172	3051
925.279	3119
925.387	3218
925.494	3249
925.602	3412
925.709	3359
925.816	3241
925.924	3306
926.031	3424
926.138	3386
926.245	3386
926.352	3260
926.459	3431
926.566	3526
926.673	3351
926.779	3291
926.886	3283
926.993	3173
927.099	3150
927.206	3142
927.312	3123
927.419	3249
927.525	3230
927.631	3287
927.737	3203
927.843	3150
927.95	3058
928.056	3195
928.162	3188
928.267	3298
928.373	3835
928.479	3340
928.585	3093
928.69	3233
928.796	3279
928.901	3211
929.007	3077
929.112	3233
929.218	3199
929.323	3188
929.428	3211
929.533	3359
929.638	3150
929.743	3192
929.848	3287
929.953	3245
930.058	3211
930.163	3039
930.267	3089
930.372	3233
930.477	3074
930.581	3340
930.685	3226
930.79	3097
930.894	3195
930.998	3119
931.103	3298
931.207	2979
931.311	2960
931.415	2941
931.519	2800
931.623	2811
