Data from test_V78500241_1696.txt Node
Date: Fri Mar 25 16:26:57 CST 2022
User: usil
Spectrometer: V785-0024
Trigger mode: 0
Integration Time (sec): 4.000000E-1
Scans to average: 1
Nonlinearity correction enabled: false
Boxcar width: 0
Storing dark spectrum: false
XAxis mode: Wavelengths
Number of Pixels in Spectrum: 1024
>>>>>Begin Spectral Data<<<<<
801.071	2922
801.214	2918
801.356	2883
801.499	2914
801.641	2872
801.783	2876
801.926	3043
802.068	2986
802.211	2994
802.353	3017
802.496	2948
802.638	2975
802.78	3009
802.923	3058
803.065	2941
803.208	2883
803.35	2922
803.492	2906
803.635	2902
803.777	2769
803.919	2826
804.061	3165
804.204	2941
804.346	2891
804.488	2861
804.63	2952
804.773	2823
804.915	2895
805.057	3036
805.199	2895
805.341	2963
805.483	3009
805.626	2948
805.768	2914
805.91	3058
806.052	3070
806.194	3005
806.336	3214
806.478	3017
806.62	2929
806.762	2902
806.904	3024
807.046	3131
807.188	2960
807.33	2872
807.472	2937
807.614	2895
807.756	2925
807.898	2899
808.04	2845
808.182	2952
808.324	2887
808.465	2845
808.607	2849
808.749	2750
808.891	2796
809.033	2922
809.174	2944
809.316	2857
809.458	2872
809.6	2731
809.741	2766
809.883	2750
810.025	2857
810.166	2823
810.308	2804
810.45	2804
810.591	2758
810.733	2777
810.875	2800
811.016	2792
811.158	2727
811.299	2826
811.441	2910
811.582	2872
811.724	2785
811.865	2807
812.007	2906
812.148	2853
812.29	2838
812.431	2910
812.573	2948
812.714	2960
812.855	2994
812.997	3043
813.138	3184
813.279	3001
813.421	2982
813.562	2982
813.703	2868
813.845	2899
813.986	2773
814.127	2731
814.268	2849
814.41	2849
814.551	2804
814.692	2849
814.833	2834
814.974	2883
815.115	2979
815.256	2861
815.397	2849
815.539	2861
815.68	2834
815.821	2826
815.962	2986
816.103	2960
816.244	2902
816.385	2895
816.526	2986
816.666	2960
816.807	2769
816.948	2925
817.089	2967
817.23	2891
817.371	2830
817.512	2792
817.653	2842
817.793	2853
817.934	2922
818.075	2994
818.216	3013
818.356	3051
818.497	2922
818.638	2826
818.778	2849
818.919	2838
819.06	2800
819.2	2910
819.341	2887
819.481	2826
819.622	2979
819.762	3119
819.903	3077
820.043	2960
820.184	2914
820.324	2952
820.465	3039
820.605	3055
820.746	3039
820.886	2994
821.026	3127
821.167	3180
821.307	3291
821.447	3294
821.588	3245
821.728	3245
821.868	3199
822.008	3097
822.149	3214
822.289	3218
822.429	3123
822.569	3127
822.709	3241
822.849	3043
822.99	3077
823.13	3211
823.27	3233
823.41	3123
823.55	3188
823.69	3146
823.83	3211
823.97	3108
824.11	3024
824.25	3013
824.389	3089
824.529	3161
824.669	3100
824.809	3176
824.949	3253
825.089	3237
825.228	3165
825.368	3051
825.508	2967
825.648	2994
825.787	3058
825.927	3058
826.067	3009
826.206	2971
826.346	3085
826.485	3085
826.625	3157
826.765	3317
826.904	3245
827.044	3032
827.183	2952
827.323	2887
827.462	3036
827.601	2971
827.741	2952
827.88	2986
828.02	2891
828.159	2994
828.298	3043
828.437	3135
828.577	3058
828.716	3264
828.855	3119
828.994	2944
829.134	2918
829.273	2952
829.412	2891
829.551	2902
829.69	2922
829.829	2994
829.968	3165
830.107	3062
830.246	3070
830.385	2925
830.524	2895
830.663	2815
830.802	2743
830.941	2667
831.08	2651
831.219	2815
831.357	2777
831.496	2998
831.635	2716
831.774	2644
831.913	2708
832.051	2568
832.19	2598
832.329	2670
832.467	2541
832.606	2533
832.744	2617
832.883	2590
833.022	2598
833.16	2670
833.299	2701
833.437	2701
833.576	2697
833.714	2773
833.852	2750
833.991	2834
834.129	2864
834.267	2864
834.406	2830
834.544	2910
834.682	2933
834.821	2891
834.959	3089
835.097	2948
835.235	3100
835.373	2982
835.511	3024
835.65	2933
835.788	2982
835.926	2857
836.064	2842
836.202	2895
836.34	3135
836.478	3150
836.615	3055
836.753	3188
836.891	3230
837.029	3207
837.167	3169
837.305	3112
837.443	3085
837.58	2994
837.718	3131
837.856	3104
837.993	3062
838.131	3135
838.269	3135
838.406	3116
838.544	3150
838.681	2986
838.819	2937
838.956	2838
839.094	2876
839.231	2979
839.369	3043
839.506	3374
839.643	3283
839.781	3058
839.918	2990
840.055	3074
840.193	3081
840.33	3089
840.467	3104
840.604	3169
840.742	3405
840.879	3077
841.016	3085
841.153	3184
841.29	3370
841.427	3336
841.564	3283
841.701	3336
841.838	3253
841.975	3192
842.112	3237
842.249	3119
842.385	3020
842.522	3291
842.659	3135
842.796	3093
842.933	3100
843.069	3077
843.206	3055
843.343	3169
843.479	3112
843.616	3142
843.752	2902
843.889	2876
844.025	3085
844.162	2880
844.298	3070
844.435	2963
844.571	2906
844.708	3123
844.844	3226
844.98	3298
845.117	3241
845.253	3051
845.389	3017
845.525	3074
845.661	3119
845.798	3020
845.934	3169
846.07	3062
846.206	3230
846.342	3325
846.478	3256
846.614	3093
846.75	3074
846.886	3032
847.022	3272
847.158	3169
847.294	3203
847.429	3279
847.565	3233
847.701	3511
847.837	3085
847.972	3055
848.108	3195
848.244	3116
848.379	2994
848.515	2956
848.65	2914
848.786	3001
848.921	3017
849.057	3104
849.192	3207
849.328	3085
849.463	3131
849.598	3074
849.734	3055
849.869	3005
850.004	2963
850.14	2960
850.275	2948
850.41	2868
850.545	2918
850.68	2963
850.815	2963
850.95	3032
851.085	3226
851.22	3123
851.355	3024
851.49	3001
851.625	3009
851.76	3036
851.895	2952
852.03	2929
852.165	3051
852.299	3119
852.434	3233
852.569	3192
852.703	3203
852.838	3256
852.973	3363
853.107	3348
853.242	3203
853.376	3104
853.511	3005
853.645	3055
853.78	3226
853.914	3173
854.048	3150
854.183	3127
854.317	3142
854.451	3287
854.585	3131
854.72	3077
854.854	3207
854.988	3093
855.122	3142
855.256	3001
855.39	3150
855.524	3222
855.658	3199
855.792	3211
855.926	3233
856.06	3249
856.194	3302
856.327	3173
856.461	3066
856.595	3157
856.729	3116
856.862	3253
856.996	3184
857.13	3207
857.263	3268
857.397	3249
857.53	3142
857.664	3188
857.797	3302
857.931	3253
858.064	3180
858.197	3260
858.331	3142
858.464	3100
858.597	3032
858.731	3119
858.864	3142
858.997	3112
859.13	3150
859.263	3176
859.396	3222
859.529	3123
859.662	3085
859.795	3039
859.928	3157
860.061	3287
860.194	3348
860.327	3135
860.46	3146
860.592	3272
860.725	3275
860.858	3302
860.99	3142
861.123	3058
861.256	3058
861.388	3150
861.521	3876
861.653	3036
861.786	3013
861.918	3009
862.05	3074
862.183	3108
862.315	3173
862.447	3233
862.58	3104
862.712	2952
862.844	2876
862.976	3024
863.108	3013
863.24	3450
863.372	2929
863.504	2994
863.636	2963
863.768	3039
863.9	3009
864.032	2925
864.164	2982
864.296	3074
864.428	3089
864.559	3104
864.691	3081
864.823	3085
864.954	3047
865.086	3077
865.217	3017
865.349	2975
865.48	3036
865.612	3047
865.743	3184
865.875	2963
866.006	2975
866.137	2975
866.269	2986
866.4	2941
866.531	2929
866.662	2925
866.793	2933
866.924	2918
867.055	2944
867.186	3001
867.317	2929
867.448	2861
867.579	2864
867.71	2880
867.841	2826
867.972	2914
868.103	2937
868.233	2899
868.364	2868
868.495	2899
868.625	3100
868.756	3180
868.886	2986
869.017	3066
869.147	3211
869.278	3184
869.408	3089
869.539	3036
869.669	3119
869.799	3036
869.929	3157
870.06	3081
870.19	3325
870.32	3294
870.45	3336
870.58	3363
870.71	3466
870.84	3462
870.97	3272
871.1	3226
871.23	3504
871.36	3469
871.489	3367
871.619	3409
871.749	3401
871.879	3469
872.008	3519
872.138	3363
872.267	3291
872.397	3135
872.526	3131
872.656	3005
872.785	3100
872.915	3245
873.044	3340
873.173	3233
873.303	3272
873.432	3233
873.561	3222
873.69	3173
873.819	3150
873.948	3188
874.077	3081
874.206	3066
874.335	3089
874.464	3226
874.593	3378
874.722	3275
874.851	3397
874.979	3370
875.108	3336
875.237	3176
875.365	3176
875.494	3195
875.623	3264
875.751	3093
875.88	3135
876.008	3199
876.136	3222
876.265	3409
876.393	3534
876.521	3447
876.65	3428
876.778	3344
876.906	3256
877.034	3203
877.162	3268
877.29	3211
877.418	3275
877.546	3317
877.674	3207
877.802	3226
877.93	3233
878.058	3176
878.185	3119
878.313	3180
878.441	3237
878.568	3100
878.696	3165
878.824	3245
878.951	3325
879.079	3492
879.206	3614
879.333	3447
879.461	3348
879.588	3344
879.715	3507
879.842	3610
879.97	3355
880.097	3188
880.224	3131
880.351	3176
880.478	3241
880.605	3214
880.732	3211
880.859	3477
880.986	3317
881.112	3336
881.239	3233
881.366	3089
881.493	3055
881.619	3062
881.746	3062
881.872	3108
881.999	3097
882.125	3135
882.252	3241
882.378	3260
882.505	3435
882.631	3287
882.757	3165
882.883	3222
883.01	3272
883.136	3192
883.262	3112
883.388	3097
883.514	3313
883.64	3420
883.766	3294
883.892	3218
884.018	3245
884.143	3363
884.269	3568
884.395	3260
884.52	3249
884.646	3211
884.772	3150
884.897	3119
885.023	3222
885.148	3340
885.274	3409
885.399	3374
885.524	3291
885.65	3310
885.775	3298
885.9	3268
886.025	3447
886.15	3370
886.275	3294
886.4	3268
886.525	3302
886.65	3264
886.775	3298
886.9	3523
887.025	3652
887.149	3420
887.274	3256
887.399	3199
887.523	3203
887.648	3180
887.773	3214
887.897	3416
888.021	3416
888.146	3310
888.27	3424
888.395	3492
888.519	3435
888.643	3431
888.767	3504
888.891	3321
889.015	3249
889.139	3310
889.263	3260
889.387	3386
889.511	3549
889.635	3439
889.759	3306
889.883	3332
890.006	3409
890.13	3507
890.254	3291
890.377	3344
890.501	3211
890.624	3184
890.748	3272
890.871	3195
890.995	3138
891.118	3108
891.241	3184
891.364	3237
891.488	3336
891.611	3203
891.734	3253
891.857	3294
891.98	3283
892.103	3317
892.226	3268
892.349	3211
892.471	3116
892.594	3256
892.717	3310
892.839	3298
892.962	3291
893.085	3393
893.207	3298
893.33	3161
893.452	3203
893.575	3370
893.697	3241
893.819	3447
893.941	3542
894.064	3428
894.186	3268
894.308	3260
894.43	3397
894.552	3564
894.674	3492
894.796	3264
894.918	3317
895.04	3298
895.161	3431
895.283	3420
895.405	3332
895.526	3386
895.648	3420
895.769	3382
895.891	3450
896.012	3500
896.134	3496
896.255	3435
896.376	3382
896.498	3344
896.619	3412
896.74	3355
896.861	3401
896.982	3648
897.103	3846
897.224	3595
897.345	3500
897.466	3450
897.587	3454
897.708	3622
897.828	3595
897.949	3431
898.07	3336
898.19	3397
898.311	3644
898.431	3439
898.552	3534
898.672	3576
898.792	3595
898.913	3504
899.033	3412
899.153	3310
899.273	3211
899.393	3260
899.513	3329
899.633	3310
899.753	3336
899.873	3306
899.993	3332
900.113	3329
900.232	3393
900.352	3374
900.472	3302
900.591	3230
900.711	3249
900.83	3222
900.95	3397
901.069	3485
901.189	3367
901.308	3161
901.427	3127
901.546	3173
901.665	3302
901.784	3302
901.904	3214
902.023	3154
902.141	3024
902.26	2990
902.379	3154
902.498	3089
902.617	3081
902.735	3207
902.854	3180
902.973	3195
903.091	3058
903.21	3055
903.328	3176
903.446	3104
903.565	3093
903.683	3241
903.801	3131
903.919	3245
904.038	3279
904.156	3199
904.274	3313
904.392	3264
904.51	3283
904.627	3325
904.745	3420
904.863	3485
904.981	3264
905.098	3157
905.216	3222
905.334	3310
905.451	3310
905.569	3275
905.686	3428
905.803	3462
905.921	3275
906.038	3450
906.155	3363
906.272	3253
906.389	3332
906.506	3222
906.623	3275
906.74	3268
906.857	3169
906.974	3256
907.091	3469
907.208	3526
907.324	3500
907.441	3386
907.557	3226
907.674	3272
907.79	3241
907.907	3275
908.023	3397
908.139	3393
908.256	3321
908.372	3370
908.488	3363
908.604	3287
908.72	3241
908.836	3268
908.952	3272
909.068	3336
909.184	3469
909.3	3401
909.415	3492
909.531	3469
909.647	3294
909.762	3287
909.878	3249
909.993	3344
910.108	3344
910.224	3367
910.339	3450
910.454	3340
910.57	3313
910.685	3233
910.8	3584
910.915	3504
911.03	3443
911.145	3245
911.259	3283
911.374	3329
911.489	3237
911.604	3195
911.718	3135
911.833	3127
911.947	3013
912.062	2979
912.176	3207
912.291	3237
912.405	3184
912.519	3439
912.633	3492
912.748	3294
912.862	3264
912.976	3169
913.09	3116
913.204	3146
913.318	3211
913.431	3298
913.545	3336
913.659	3382
913.772	3336
913.886	3253
914	3188
914.113	3405
914.226	3420
914.34	3386
914.453	3184
914.566	3397
914.68	3321
914.793	3321
914.906	3142
915.019	3104
915.132	3081
915.245	3123
915.358	3173
915.47	3275
915.583	3249
915.696	3287
915.809	3420
915.921	3435
916.034	3260
916.146	3279
916.259	3230
916.371	3344
916.483	3348
916.595	3310
916.708	3348
916.82	3329
916.932	3325
917.044	3382
917.156	3367
917.268	3241
917.38	3359
917.491	3279
917.603	3397
917.715	3447
917.826	3500
917.938	3397
918.049	3272
918.161	3420
918.272	3553
918.384	3603
918.495	3473
918.606	3370
918.717	3275
918.828	3397
918.939	3405
919.05	3283
919.161	3367
919.272	3161
919.383	3287
919.494	3507
919.604	3660
919.715	3469
919.826	3435
919.936	3447
920.047	3568
920.157	3580
920.267	3785
920.378	3606
920.488	3561
920.598	3789
920.708	3941
920.818	3827
920.928	3842
921.038	4032
921.148	3987
921.258	3701
921.368	3644
921.477	3576
921.587	3538
921.697	3435
921.806	3618
921.916	3564
922.025	3359
922.134	3348
922.244	3283
922.353	3409
922.462	3310
922.571	3180
922.68	3081
922.789	3039
922.898	3165
923.007	3051
923.116	3176
923.224	3180
923.333	3188
923.442	3081
923.55	3062
923.659	3154
923.767	3214
923.876	3131
923.984	3230
924.092	3097
924.201	3154
924.309	3233
924.417	3256
924.525	3192
924.633	3214
924.741	4017
924.849	3077
924.956	3233
925.064	3104
925.172	3055
925.279	3097
925.387	3184
925.494	3214
925.602	3355
925.709	3317
925.816	3180
925.924	3306
926.031	3386
926.138	3329
926.245	3363
926.352	3237
926.459	3424
926.566	3458
926.673	3321
926.779	3245
926.886	3256
926.993	3165
927.099	3119
927.206	3154
927.312	3135
927.419	3241
927.525	3211
927.631	3256
927.737	3146
927.843	3097
927.95	3032
928.056	3108
928.162	3184
928.267	3199
928.373	3865
928.479	3332
928.585	3070
928.69	3226
928.796	3260
928.901	3150
929.007	3043
929.112	3218
929.218	3192
929.323	3176
929.428	3173
929.533	3313
929.638	3123
929.743	3157
929.848	3264
929.953	3256
930.058	3123
930.163	2994
930.267	3062
930.372	3211
930.477	3036
930.581	3298
930.685	3146
930.79	3070
930.894	3131
930.998	3085
931.103	3275
931.207	2937
931.311	2933
931.415	2937
931.519	2792
931.623	2785
