Data from test_V78500241_1384.txt Node
Date: Fri Mar 25 16:24:47 CST 2022
User: usil
Spectrometer: V785-0024
Trigger mode: 0
Integration Time (sec): 4.000000E-1
Scans to average: 1
Nonlinearity correction enabled: false
Boxcar width: 0
Storing dark spectrum: false
XAxis mode: Wavelengths
Number of Pixels in Spectrum: 1024
>>>>>Begin Spectral Data<<<<<
801.071	2922
801.214	2979
801.356	2876
801.499	2944
801.641	2899
801.783	2975
801.926	3051
802.068	2990
802.211	3009
802.353	3005
802.496	2994
802.638	3043
802.78	3047
802.923	3074
803.065	3001
803.208	2910
803.35	2902
803.492	2937
803.635	2963
803.777	2773
803.919	2861
804.061	3169
804.204	2937
804.346	2906
804.488	2823
804.63	2960
804.773	2933
804.915	2880
805.057	3127
805.199	2963
805.341	2971
805.483	3028
805.626	3009
805.768	2963
805.91	3119
806.052	3119
806.194	3005
806.336	3268
806.478	3062
806.62	2956
806.762	3005
806.904	3074
807.046	3146
807.188	3005
807.33	2914
807.472	3024
807.614	2925
807.756	3001
807.898	2922
808.04	2937
808.182	2967
808.324	2944
808.465	2902
808.607	2914
808.749	2834
808.891	2845
809.033	2986
809.174	2967
809.316	2929
809.458	2891
809.6	2781
809.741	2777
809.883	2754
810.025	2845
810.166	2838
810.308	2834
810.45	2861
810.591	2781
810.733	2769
810.875	2845
811.016	2792
811.158	2750
811.299	2796
811.441	2944
811.582	2857
811.724	2826
811.865	2842
812.007	2883
812.148	2864
812.29	2857
812.431	2891
812.573	2933
812.714	2979
812.855	3066
812.997	3055
813.138	3184
813.279	3017
813.421	2982
813.562	3009
813.703	2864
813.845	2933
813.986	2773
814.127	2792
814.268	2815
814.41	2849
814.551	2804
814.692	2864
814.833	2815
814.974	2880
815.115	2944
815.256	2834
815.397	2792
815.539	2899
815.68	2769
815.821	2815
815.962	2979
816.103	2967
816.244	2902
816.385	2918
816.526	2994
816.666	2899
816.807	2785
816.948	2922
817.089	2906
817.23	2864
817.371	2754
817.512	2796
817.653	2834
817.793	2842
817.934	2925
818.075	3001
818.216	2975
818.356	3032
818.497	2902
818.638	2826
818.778	2826
818.919	2800
819.06	2769
819.2	2895
819.341	2823
819.481	2819
819.622	2937
819.762	3119
819.903	3043
820.043	2922
820.184	2914
820.324	2910
820.465	2990
820.605	3036
820.746	3017
820.886	2918
821.026	3104
821.167	3161
821.307	3237
821.447	3298
821.588	3214
821.728	3211
821.868	3192
822.008	3089
822.149	3184
822.289	3207
822.429	3085
822.569	3089
822.709	3180
822.849	3024
822.99	3089
823.13	3169
823.27	3207
823.41	3127
823.55	3146
823.69	3135
823.83	3233
823.97	3127
824.11	3032
824.25	2986
824.389	3089
824.529	3116
824.669	3104
824.809	3203
824.949	3245
825.089	3207
825.228	3150
825.368	2998
825.508	2979
825.648	3009
825.787	3017
825.927	3020
826.067	2952
826.206	2975
826.346	3055
826.485	3081
826.625	3097
826.765	3279
826.904	3203
827.044	3005
827.183	2956
827.323	2906
827.462	2982
827.601	2941
827.741	2910
827.88	2948
828.02	2880
828.159	2990
828.298	3066
828.437	3146
828.577	3032
828.716	3268
828.855	3066
828.994	2902
829.134	2853
829.273	2902
829.412	2876
829.551	2883
829.69	2899
829.829	2982
829.968	3154
830.107	3039
830.246	3013
830.385	2933
830.524	2899
830.663	2811
830.802	2720
830.941	2648
831.08	2670
831.219	2720
831.357	2731
831.496	2941
831.635	2746
831.774	2651
831.913	2674
832.051	2537
832.19	2590
832.329	2693
832.467	2533
832.606	2488
832.744	2583
832.883	2560
833.022	2598
833.16	2659
833.299	2689
833.437	2686
833.576	2708
833.714	2731
833.852	2754
833.991	2766
834.129	2819
834.267	2842
834.406	2796
834.544	2872
834.682	2895
834.821	2872
834.959	3051
835.097	2857
835.235	3058
835.373	2952
835.511	3005
835.65	2937
835.788	2952
835.926	2823
836.064	2826
836.202	2861
836.34	3093
836.478	3176
836.615	3055
836.753	3154
836.891	3203
837.029	3161
837.167	3138
837.305	3043
837.443	3028
837.58	2994
837.718	3100
837.856	3077
837.993	3070
838.131	3119
838.269	3116
838.406	3100
838.544	3077
838.681	2933
838.819	2902
838.956	2842
839.094	2838
839.231	2925
839.369	2990
839.506	3378
839.643	3214
839.781	3032
839.918	2967
840.055	3032
840.193	3036
840.33	3081
840.467	3070
840.604	3142
840.742	3382
840.879	3066
841.016	3081
841.153	3123
841.29	3370
841.427	3332
841.564	3233
841.701	3298
841.838	3222
841.975	3150
842.112	3188
842.249	3089
842.385	3024
842.522	3249
842.659	3093
842.796	3116
842.933	3127
843.069	3085
843.206	3047
843.343	3184
843.479	3146
843.616	3154
843.752	2933
843.889	2899
844.025	3108
844.162	2918
844.298	3077
844.435	2975
844.571	2982
844.708	3116
844.844	3203
844.98	3268
845.117	3230
845.253	3085
845.389	2994
845.525	3104
845.661	3161
845.798	3058
845.934	3203
846.07	3127
846.206	3287
846.342	3374
846.478	3272
846.614	3142
846.75	3119
846.886	3089
847.022	3291
847.158	3195
847.294	3245
847.429	3279
847.565	3233
847.701	3504
847.837	3066
847.972	3017
848.108	3180
848.244	3176
848.379	2986
848.515	2990
848.65	2967
848.786	2982
848.921	3055
849.057	3138
849.192	3184
849.328	3074
849.463	3131
849.598	3146
849.734	3070
849.869	3043
850.004	2933
850.14	3001
850.275	2929
850.41	2891
850.545	2941
850.68	2941
850.815	3009
850.95	2990
851.085	3199
851.22	3138
851.355	3047
851.49	3074
851.625	3017
851.76	3070
851.895	2982
852.03	2963
852.165	3081
852.299	3138
852.434	3195
852.569	3180
852.703	3203
852.838	3306
852.973	3382
853.107	3348
853.242	3180
853.376	3119
853.511	3043
853.645	3055
853.78	3249
853.914	3195
854.048	3112
854.183	3074
854.317	3173
854.451	3344
854.585	3176
854.72	3154
854.854	3237
854.988	3100
855.122	3097
855.256	3036
855.39	3146
855.524	3268
855.658	3165
855.792	3157
855.926	3199
856.06	3233
856.194	3294
856.327	3188
856.461	3142
856.595	3108
856.729	3131
856.862	3237
856.996	3233
857.13	3230
857.263	3260
857.397	3291
857.53	3138
857.664	3222
857.797	3214
857.931	3332
858.064	3192
858.197	3230
858.331	3165
858.464	3142
858.597	3043
858.731	3161
858.864	3165
858.997	3131
859.13	3199
859.263	3195
859.396	3199
859.529	3127
859.662	3097
859.795	3039
859.928	3127
860.061	3268
860.194	3313
860.327	3161
860.46	3119
860.592	3249
860.725	3287
860.858	3275
860.99	3131
861.123	3097
861.256	3108
861.388	3169
861.521	3804
861.653	3039
861.786	3024
861.918	3081
862.05	3085
862.183	3127
862.315	3192
862.447	3188
862.58	3119
862.712	2975
862.844	2899
862.976	3081
863.108	3051
863.24	3340
863.372	2876
863.504	3020
863.636	3001
863.768	3032
863.9	3028
864.032	2895
864.164	2982
864.296	3024
864.428	3108
864.559	3142
864.691	3108
864.823	3081
864.954	3039
865.086	3051
865.217	3020
865.349	2979
865.48	3009
865.612	3051
865.743	3169
865.875	3043
866.006	2971
866.137	2986
866.269	2956
866.4	2933
866.531	2937
866.662	2895
866.793	2922
866.924	2925
867.055	3009
867.186	2918
867.317	2906
867.448	2845
867.579	2838
867.71	2868
867.841	2857
867.972	2952
868.103	2922
868.233	2914
868.364	2933
868.495	2914
868.625	3112
868.756	3173
868.886	3001
869.017	3051
869.147	3169
869.278	3222
869.408	3051
869.539	3066
869.669	3108
869.799	3089
869.929	3176
870.06	3116
870.19	3321
870.32	3310
870.45	3256
870.58	3382
870.71	3511
870.84	3462
870.97	3329
871.1	3264
871.23	3545
871.36	3466
871.489	3397
871.619	3450
871.749	3409
871.879	3458
872.008	3500
872.138	3382
872.267	3260
872.397	3188
872.526	3119
872.656	3070
872.785	3104
872.915	3291
873.044	3355
873.173	3233
873.303	3275
873.432	3268
873.561	3237
873.69	3180
873.819	3154
873.948	3218
874.077	3104
874.206	3074
874.335	3119
874.464	3291
874.593	3386
874.722	3249
874.851	3409
874.979	3397
875.108	3344
875.237	3199
875.365	3188
875.494	3176
875.623	3264
875.751	3119
875.88	3150
876.008	3188
876.136	3253
876.265	3405
876.393	3557
876.521	3435
876.65	3450
876.778	3332
876.906	3279
877.034	3233
877.162	3275
877.29	3195
877.418	3275
877.546	3260
877.674	3264
877.802	3272
877.93	3233
878.058	3199
878.185	3104
878.313	3211
878.441	3203
878.568	3066
878.696	3154
878.824	3313
878.951	3294
879.079	3466
879.206	3652
879.333	3447
879.461	3310
879.588	3428
879.715	3530
879.842	3587
879.97	3397
880.097	3165
880.224	3146
880.351	3214
880.478	3214
880.605	3188
880.732	3180
880.859	3523
880.986	3325
881.112	3321
881.239	3211
881.366	3127
881.493	3077
881.619	3055
881.746	3081
881.872	3104
881.999	3135
882.125	3176
882.252	3264
882.378	3298
882.505	3409
882.631	3283
882.757	3203
882.883	3233
883.01	3253
883.136	3138
883.262	3085
883.388	3119
883.514	3325
883.64	3363
883.766	3332
883.892	3211
884.018	3264
884.143	3488
884.269	3504
884.395	3218
884.52	3203
884.646	3211
884.772	3112
884.897	3070
885.023	3203
885.148	3386
885.274	3481
885.399	3370
885.524	3283
885.65	3268
885.775	3340
885.9	3260
886.025	3412
886.15	3344
886.275	3279
886.4	3241
886.525	3340
886.65	3302
886.775	3298
886.9	3526
887.025	3675
887.149	3409
887.274	3302
887.399	3222
887.523	3241
887.648	3264
887.773	3218
887.897	3355
888.021	3420
888.146	3317
888.27	3428
888.395	3530
888.519	3412
888.643	3439
888.767	3492
888.891	3283
889.015	3249
889.139	3294
889.263	3306
889.387	3412
889.511	3545
889.635	3481
889.759	3336
889.883	3283
890.006	3416
890.13	3534
890.254	3302
890.377	3374
890.501	3226
890.624	3188
890.748	3283
890.871	3211
890.995	3135
891.118	3085
891.241	3222
891.364	3268
891.488	3336
891.611	3199
891.734	3237
891.857	3310
891.98	3272
892.103	3344
892.226	3268
892.349	3249
892.471	3123
892.594	3279
892.717	3310
892.839	3275
892.962	3336
893.085	3378
893.207	3264
893.33	3119
893.452	3218
893.575	3389
893.697	3260
893.819	3466
893.941	3519
894.064	3466
894.186	3317
894.308	3291
894.43	3458
894.552	3557
894.674	3477
894.796	3294
894.918	3306
895.04	3310
895.161	3435
895.283	3424
895.405	3340
895.526	3374
895.648	3462
895.769	3469
895.891	3458
896.012	3481
896.134	3469
896.255	3412
896.376	3382
896.498	3386
896.619	3439
896.74	3336
896.861	3416
896.982	3671
897.103	3884
897.224	3591
897.345	3526
897.466	3469
897.587	3530
897.708	3622
897.828	3542
897.949	3454
898.07	3370
898.19	3447
898.311	3580
898.431	3507
898.552	3523
898.672	3622
898.792	3587
898.913	3526
899.033	3428
899.153	3287
899.273	3207
899.393	3310
899.513	3317
899.633	3325
899.753	3363
899.873	3298
899.993	3389
900.113	3344
900.232	3401
900.352	3321
900.472	3279
900.591	3207
900.711	3336
900.83	3249
900.95	3439
901.069	3515
901.189	3329
901.308	3214
901.427	3123
901.546	3184
901.665	3302
901.784	3359
901.904	3188
902.023	3161
902.141	3024
902.26	3009
902.379	3169
902.498	3116
902.617	3070
902.735	3222
902.854	3253
902.973	3218
903.091	3017
903.21	3089
903.328	3165
903.446	3150
903.565	3119
903.683	3192
903.801	3161
903.919	3237
904.038	3294
904.156	3176
904.274	3264
904.392	3222
904.51	3283
904.627	3306
904.745	3458
904.863	3500
904.981	3283
905.098	3173
905.216	3245
905.334	3313
905.451	3294
905.569	3317
905.686	3420
905.803	3488
905.921	3321
906.038	3416
906.155	3355
906.272	3291
906.389	3370
906.506	3279
906.623	3241
906.74	3310
906.857	3203
906.974	3253
907.091	3454
907.208	3580
907.324	3485
907.441	3389
907.557	3207
907.674	3249
907.79	3256
907.907	3272
908.023	3378
908.139	3416
908.256	3329
908.372	3325
908.488	3367
908.604	3253
908.72	3222
908.836	3272
908.952	3291
909.068	3370
909.184	3443
909.3	3420
909.415	3485
909.531	3526
909.647	3218
909.762	3291
909.878	3260
909.993	3344
910.108	3351
910.224	3344
910.339	3443
910.454	3340
910.57	3317
910.685	3306
910.8	3622
910.915	3534
911.03	3412
911.145	3279
911.259	3275
911.374	3329
911.489	3253
911.604	3249
911.718	3154
911.833	3173
911.947	3039
912.062	2994
912.176	3161
912.291	3218
912.405	3188
912.519	3466
912.633	3435
912.748	3340
912.862	3294
912.976	3138
913.09	3074
913.204	3119
913.318	3218
913.431	3355
913.545	3317
913.659	3424
913.772	3351
913.886	3222
914	3237
914.113	3378
914.226	3435
914.34	3367
914.453	3233
914.566	3389
914.68	3275
914.793	3348
914.906	3184
915.019	3135
915.132	3058
915.245	3157
915.358	3233
915.47	3226
915.583	3302
915.696	3294
915.809	3420
915.921	3397
916.034	3272
916.146	3291
916.259	3241
916.371	3409
916.483	3344
916.595	3275
916.708	3340
916.82	3344
916.932	3340
917.044	3336
917.156	3329
917.268	3268
917.38	3325
917.491	3321
917.603	3336
917.715	3431
917.826	3481
917.938	3386
918.049	3291
918.161	3393
918.272	3568
918.384	3568
918.495	3454
918.606	3340
918.717	3321
918.828	3405
918.939	3405
919.05	3283
919.161	3374
919.272	3203
919.383	3272
919.494	3485
919.604	3701
919.715	3469
919.826	3389
919.936	3409
920.047	3622
920.157	3545
920.267	3740
920.378	3606
920.488	3553
920.598	3793
920.708	3953
920.818	3823
920.928	3797
921.038	3968
921.148	4071
921.258	3682
921.368	3648
921.477	3542
921.587	3572
921.697	3454
921.806	3656
921.916	3507
922.025	3363
922.134	3363
922.244	3306
922.353	3416
922.462	3302
922.571	3214
922.68	3154
922.789	3100
922.898	3131
923.007	3070
923.116	3188
923.224	3176
923.333	3173
923.442	3131
923.55	3112
923.659	3131
923.767	3199
923.876	3161
923.984	3237
924.092	3127
924.201	3188
924.309	3218
924.417	3226
924.525	3249
924.633	3230
924.741	3987
924.849	3058
924.956	3275
925.064	3127
925.172	3024
925.279	3093
925.387	3173
925.494	3180
925.602	3363
925.709	3298
925.816	3211
925.924	3294
926.031	3401
926.138	3370
926.245	3378
926.352	3275
926.459	3397
926.566	3477
926.673	3340
926.779	3241
926.886	3245
926.993	3131
927.099	3119
927.206	3112
927.312	3093
927.419	3176
927.525	3207
927.631	3287
927.737	3150
927.843	3127
927.95	3005
928.056	3131
928.162	3169
928.267	3237
928.373	3880
928.479	3294
928.585	3039
928.69	3199
928.796	3298
928.901	3157
929.007	3020
929.112	3264
929.218	3176
929.323	3150
929.428	3157
929.533	3313
929.638	3112
929.743	3138
929.848	3222
929.953	3214
930.058	3123
930.163	2975
930.267	3058
930.372	3214
930.477	3036
930.581	3332
930.685	3199
930.79	3036
930.894	3097
930.998	3097
931.103	3287
931.207	2933
931.311	2922
931.415	2967
931.519	2800
931.623	2811
