Data from test_V78500241_1029.txt Node
Date: Fri Mar 25 16:22:19 CST 2022
User: usil
Spectrometer: V785-0024
Trigger mode: 0
Integration Time (sec): 4.000000E-1
Scans to average: 1
Nonlinearity correction enabled: false
Boxcar width: 0
Storing dark spectrum: false
XAxis mode: Wavelengths
Number of Pixels in Spectrum: 1024
>>>>>Begin Spectral Data<<<<<
801.071	2857
801.214	2952
801.356	2899
801.499	2925
801.641	2872
801.783	2937
801.926	3028
802.068	3005
802.211	3028
802.353	3043
802.496	2937
802.638	3017
802.78	3032
802.923	3097
803.065	3024
803.208	2872
803.35	2910
803.492	2948
803.635	2933
803.777	2762
803.919	2868
804.061	3199
804.204	2948
804.346	2918
804.488	2838
804.63	2990
804.773	2864
804.915	2899
805.057	3051
805.199	2952
805.341	2956
805.483	2998
805.626	3017
805.768	2960
805.91	3070
806.052	3108
806.194	3039
806.336	3233
806.478	3005
806.62	3001
806.762	2960
806.904	3070
807.046	3207
807.188	2975
807.33	2891
807.472	2975
807.614	2910
807.756	2944
807.898	2941
808.04	2922
808.182	2944
808.324	2971
808.465	2895
808.607	2899
808.749	2830
808.891	2876
809.033	2994
809.174	2979
809.316	2883
809.458	2891
809.6	2754
809.741	2766
809.883	2781
810.025	2849
810.166	2868
810.308	2811
810.45	2853
810.591	2762
810.733	2773
810.875	2819
811.016	2743
811.158	2724
811.299	2815
811.441	2910
811.582	2902
811.724	2815
811.865	2842
812.007	2910
812.148	2883
812.29	2864
812.431	2910
812.573	2929
812.714	2982
812.855	3055
812.997	3039
813.138	3116
813.279	3024
813.421	3047
813.562	2948
813.703	2853
813.845	2883
813.986	2785
814.127	2712
814.268	2807
814.41	2857
814.551	2792
814.692	2876
814.833	2804
814.974	2906
815.115	2941
815.256	2834
815.397	2811
815.539	2864
815.68	2777
815.821	2769
815.962	2937
816.103	2918
816.244	2910
816.385	2842
816.526	2922
816.666	2914
816.807	2750
816.948	2880
817.089	2925
817.23	2853
817.371	2762
817.512	2750
817.653	2849
817.793	2834
817.934	2872
818.075	2963
818.216	3005
818.356	3051
818.497	2872
818.638	2788
818.778	2807
818.919	2823
819.06	2739
819.2	2876
819.341	2815
819.481	2788
819.622	2963
819.762	3081
819.903	3051
820.043	2906
820.184	2883
820.324	2887
820.465	3017
820.605	3013
820.746	3009
820.886	2906
821.026	3097
821.167	3138
821.307	3211
821.447	3306
821.588	3245
821.728	3211
821.868	3180
822.008	3081
822.149	3188
822.289	3230
822.429	3077
822.569	3085
822.709	3199
822.849	3017
822.99	3085
823.13	3119
823.27	3211
823.41	3085
823.55	3138
823.69	3154
823.83	3184
823.97	3116
824.11	2967
824.25	3001
824.389	3077
824.529	3119
824.669	3051
824.809	3169
824.949	3237
825.089	3203
825.228	3150
825.368	3005
825.508	2994
825.648	2975
825.787	3013
825.927	3009
826.067	2952
826.206	2960
826.346	3066
826.485	3093
826.625	3081
826.765	3256
826.904	3184
827.044	2979
827.183	2914
827.323	2857
827.462	2963
827.601	2872
827.741	2906
827.88	2975
828.02	2857
828.159	2971
828.298	3013
828.437	3100
828.577	3028
828.716	3256
828.855	3077
828.994	2933
829.134	2857
829.273	2933
829.412	2849
829.551	2857
829.69	2906
829.829	2982
829.968	3116
830.107	2967
830.246	3009
830.385	2929
830.524	2872
830.663	2819
830.802	2731
830.941	2629
831.08	2674
831.219	2781
831.357	2731
831.496	2922
831.635	2724
831.774	2644
831.913	2621
832.051	2549
832.19	2556
832.329	2640
832.467	2526
832.606	2484
832.744	2564
832.883	2568
833.022	2564
833.16	2674
833.299	2667
833.437	2682
833.576	2716
833.714	2727
833.852	2739
833.991	2727
834.129	2788
834.267	2804
834.406	2773
834.544	2883
834.682	2834
834.821	2880
834.959	3058
835.097	2899
835.235	3066
835.373	2967
835.511	2994
835.65	2941
835.788	2967
835.926	2838
836.064	2796
836.202	2823
836.34	3127
836.478	3135
836.615	3051
836.753	3116
836.891	3195
837.029	3135
837.167	3112
837.305	3043
837.443	3017
837.58	2922
837.718	3146
837.856	3032
837.993	3020
838.131	3089
838.269	3077
838.406	3058
838.544	3066
838.681	2929
838.819	2918
838.956	2796
839.094	2823
839.231	2906
839.369	2994
839.506	3363
839.643	3226
839.781	3013
839.918	2979
840.055	3047
840.193	3036
840.33	3093
840.467	3108
840.604	3135
840.742	3416
840.879	3043
841.016	3055
841.153	3093
841.29	3329
841.427	3283
841.564	3279
841.701	3313
841.838	3180
841.975	3211
842.112	3211
842.249	3036
842.385	3005
842.522	3226
842.659	3043
842.796	3085
842.933	3112
843.069	3017
843.206	3028
843.343	3211
843.479	3146
843.616	3138
843.752	2872
843.889	2895
844.025	3066
844.162	2868
844.298	3123
844.435	2933
844.571	2883
844.708	3017
844.844	3199
844.98	3226
845.117	3176
845.253	3077
845.389	2998
845.525	3074
845.661	3123
845.798	3009
845.934	3112
846.07	3036
846.206	3192
846.342	3275
846.478	3207
846.614	3074
846.75	3028
846.886	2994
847.022	3226
847.158	3089
847.294	3199
847.429	3233
847.565	3207
847.701	3458
847.837	3028
847.972	2979
848.108	3108
848.244	3150
848.379	2979
848.515	2952
848.65	2906
848.786	2922
848.921	2994
849.057	3074
849.192	3135
849.328	3074
849.463	3081
849.598	3055
849.734	3005
849.869	2967
850.004	2918
850.14	2960
850.275	2902
850.41	2830
850.545	2849
850.68	2891
850.815	2944
850.95	2975
851.085	3173
851.22	3112
851.355	2998
851.49	3009
851.625	3009
851.76	2998
851.895	2929
852.03	2918
852.165	3032
852.299	3100
852.434	3180
852.569	3150
852.703	3184
852.838	3222
852.973	3329
853.107	3325
853.242	3116
853.376	3081
853.511	2967
853.645	3051
853.78	3241
853.914	3119
854.048	3074
854.183	3081
854.317	3104
854.451	3283
854.585	3100
854.72	3055
854.854	3173
854.988	3039
855.122	3081
855.256	2979
855.39	3085
855.524	3211
855.658	3184
855.792	3157
855.926	3165
856.06	3218
856.194	3256
856.327	3138
856.461	3062
856.595	3058
856.729	3089
856.862	3211
856.996	3184
857.13	3154
857.263	3230
857.397	3218
857.53	3116
857.664	3188
857.797	3222
857.931	3230
858.064	3157
858.197	3214
858.331	3127
858.464	3100
858.597	3009
858.731	3161
858.864	3100
858.997	3055
859.13	3161
859.263	3184
859.396	3203
859.529	3039
859.662	3055
859.795	3032
859.928	3119
860.061	3253
860.194	3264
860.327	3142
860.46	3116
860.592	3222
860.725	3188
860.858	3253
860.99	3077
861.123	3058
861.256	3028
861.388	3100
861.521	3789
861.653	3005
861.786	2998
861.918	2990
862.05	3070
862.183	3070
862.315	3138
862.447	3173
862.58	3093
862.712	2956
862.844	2849
862.976	3013
863.108	2967
863.24	3447
863.372	2887
863.504	2956
863.636	2967
863.768	3028
863.9	2952
864.032	2914
864.164	2952
864.296	3028
864.428	3058
864.559	3108
864.691	3047
864.823	3074
864.954	3001
865.086	3051
865.217	2986
865.349	2899
865.48	2979
865.612	2982
865.743	3119
865.875	2979
866.006	2937
866.137	2956
866.269	2910
866.4	2910
866.531	2887
866.662	2872
866.793	2899
866.924	2861
867.055	2963
867.186	2887
867.317	2883
867.448	2826
867.579	2838
867.71	2823
867.841	2834
867.972	2883
868.103	2880
868.233	2826
868.364	2845
868.495	2883
868.625	3043
868.756	3119
868.886	2975
869.017	3028
869.147	3192
869.278	3138
869.408	3005
869.539	3017
869.669	3043
869.799	3032
869.929	3085
870.06	3058
870.19	3302
870.32	3279
870.45	3253
870.58	3313
870.71	3409
870.84	3443
870.97	3249
871.1	3192
871.23	3481
871.36	3469
871.489	3325
871.619	3355
871.749	3397
871.879	3424
872.008	3443
872.138	3329
872.267	3283
872.397	3157
872.526	3089
872.656	2998
872.785	3123
872.915	3226
873.044	3302
873.173	3165
873.303	3237
873.432	3260
873.561	3253
873.69	3173
873.819	3173
873.948	3222
874.077	3108
874.206	3058
874.335	3070
874.464	3268
874.593	3344
874.722	3264
874.851	3389
874.979	3382
875.108	3336
875.237	3226
875.365	3195
875.494	3173
875.623	3226
875.751	3066
875.88	3138
876.008	3218
876.136	3264
876.265	3397
876.393	3530
876.521	3447
876.65	3393
876.778	3359
876.906	3264
877.034	3214
877.162	3264
877.29	3192
877.418	3256
877.546	3272
877.674	3306
877.802	3272
877.93	3287
878.058	3214
878.185	3157
878.313	3230
878.441	3256
878.568	3089
878.696	3222
878.824	3253
878.951	3355
879.079	3481
879.206	3648
879.333	3454
879.461	3332
879.588	3409
879.715	3523
879.842	3614
879.97	3443
880.097	3222
880.224	3199
880.351	3253
880.478	3310
880.605	3264
880.732	3233
880.859	3519
880.986	3351
881.112	3386
881.239	3256
881.366	3150
881.493	3074
881.619	3085
881.746	3119
881.872	3154
881.999	3112
882.125	3184
882.252	3302
882.378	3321
882.505	3443
882.631	3336
882.757	3218
882.883	3283
883.01	3310
883.136	3188
883.262	3104
883.388	3138
883.514	3317
883.64	3439
883.766	3336
883.892	3226
884.018	3268
884.143	3435
884.269	3576
884.395	3253
884.52	3218
884.646	3218
884.772	3165
884.897	3142
885.023	3230
885.148	3374
885.274	3450
885.399	3409
885.524	3321
885.65	3351
885.775	3355
885.9	3325
886.025	3439
886.15	3382
886.275	3313
886.4	3260
886.525	3367
886.65	3294
886.775	3287
886.9	3561
887.025	3652
887.149	3420
887.274	3302
887.399	3211
887.523	3230
887.648	3188
887.773	3203
887.897	3397
888.021	3428
888.146	3313
888.27	3454
888.395	3580
888.519	3443
888.643	3466
888.767	3519
888.891	3370
889.015	3283
889.139	3340
889.263	3294
889.387	3409
889.511	3553
889.635	3462
889.759	3321
889.883	3332
890.006	3397
890.13	3507
890.254	3302
890.377	3363
890.501	3226
890.624	3233
890.748	3306
890.871	3218
890.995	3116
891.118	3089
891.241	3188
891.364	3260
891.488	3321
891.611	3211
891.734	3279
891.857	3310
891.98	3298
892.103	3370
892.226	3268
892.349	3199
892.471	3135
892.594	3268
892.717	3363
892.839	3313
892.962	3325
893.085	3382
893.207	3302
893.33	3188
893.452	3237
893.575	3386
893.697	3298
893.819	3496
893.941	3519
894.064	3466
894.186	3317
894.308	3268
894.43	3466
894.552	3584
894.674	3526
894.796	3329
894.918	3348
895.04	3321
895.161	3458
895.283	3420
895.405	3340
895.526	3363
895.648	3450
895.769	3439
895.891	3500
896.012	3500
896.134	3466
896.255	3420
896.376	3359
896.498	3397
896.619	3454
896.74	3393
896.861	3450
896.982	3755
897.103	3854
897.224	3610
897.345	3530
897.466	3485
897.587	3519
897.708	3637
897.828	3557
897.949	3443
898.07	3363
898.19	3424
898.311	3633
898.431	3454
898.552	3549
898.672	3656
898.792	3644
898.913	3561
899.033	3439
899.153	3294
899.273	3245
899.393	3291
899.513	3348
899.633	3329
899.753	3370
899.873	3340
899.993	3397
900.113	3363
900.232	3386
900.352	3348
900.472	3313
900.591	3226
900.711	3382
900.83	3275
900.95	3409
901.069	3553
901.189	3374
901.308	3180
901.427	3176
901.546	3260
901.665	3367
901.784	3367
901.904	3264
902.023	3142
902.141	3043
902.26	3024
902.379	3154
902.498	3108
902.617	3066
902.735	3253
902.854	3260
902.973	3195
903.091	3070
903.21	3058
903.328	3142
903.446	3119
903.565	3131
903.683	3203
903.801	3157
903.919	3253
904.038	3348
904.156	3180
904.274	3329
904.392	3283
904.51	3306
904.627	3359
904.745	3481
904.863	3496
904.981	3279
905.098	3226
905.216	3268
905.334	3310
905.451	3359
905.569	3374
905.686	3473
905.803	3454
905.921	3302
906.038	3443
906.155	3348
906.272	3298
906.389	3393
906.506	3260
906.623	3291
906.74	3313
906.857	3199
906.974	3241
907.091	3454
907.208	3599
907.324	3523
907.441	3374
907.557	3275
907.674	3249
907.79	3230
907.907	3325
908.023	3397
908.139	3393
908.256	3325
908.372	3420
908.488	3405
908.604	3313
908.72	3275
908.836	3306
908.952	3321
909.068	3344
909.184	3492
909.3	3431
909.415	3549
909.531	3504
909.647	3351
909.762	3325
909.878	3317
909.993	3363
910.108	3332
910.224	3340
910.339	3405
910.454	3348
910.57	3340
910.685	3298
910.8	3591
910.915	3576
911.03	3439
911.145	3294
911.259	3313
911.374	3313
911.489	3310
911.604	3260
911.718	3173
911.833	3173
911.947	3062
912.062	3001
912.176	3184
912.291	3203
912.405	3222
912.519	3439
912.633	3492
912.748	3363
912.862	3264
912.976	3142
913.09	3093
913.204	3184
913.318	3222
913.431	3340
913.545	3359
913.659	3409
913.772	3275
913.886	3253
914	3214
914.113	3389
914.226	3424
914.34	3382
914.453	3233
914.566	3447
914.68	3279
914.793	3340
914.906	3150
915.019	3146
915.132	3058
915.245	3218
915.358	3226
915.47	3275
915.583	3283
915.696	3332
915.809	3431
915.921	3450
916.034	3272
916.146	3298
916.259	3211
916.371	3393
916.483	3367
916.595	3272
916.708	3351
916.82	3367
916.932	3348
917.044	3389
917.156	3287
917.268	3302
917.38	3294
917.491	3344
917.603	3405
917.715	3466
917.826	3485
917.938	3359
918.049	3291
918.161	3431
918.272	3591
918.384	3610
918.495	3542
918.606	3359
918.717	3283
918.828	3405
918.939	3439
919.05	3332
919.161	3389
919.272	3211
919.383	3329
919.494	3526
919.604	3694
919.715	3523
919.826	3420
919.936	3466
920.047	3618
920.157	3625
920.267	3816
920.378	3618
920.488	3561
920.598	3808
920.708	4010
920.818	3842
920.928	3838
921.038	4048
921.148	4036
921.258	3736
921.368	3641
921.477	3648
921.587	3549
921.697	3466
921.806	3652
921.916	3542
922.025	3382
922.134	3412
922.244	3336
922.353	3435
922.462	3241
922.571	3256
922.68	3097
922.789	3093
922.898	3192
923.007	3127
923.116	3230
923.224	3173
923.333	3253
923.442	3138
923.55	3104
923.659	3135
923.767	3249
923.876	3142
923.984	3249
924.092	3093
924.201	3192
924.309	3230
924.417	3253
924.525	3188
924.633	3245
924.741	4196
924.849	3024
924.956	3302
925.064	3123
925.172	3055
925.279	3127
925.387	3241
925.494	3253
925.602	3382
925.709	3344
925.816	3233
925.924	3275
926.031	3435
926.138	3359
926.245	3382
926.352	3272
926.459	3447
926.566	3450
926.673	3317
926.779	3268
926.886	3237
926.993	3169
927.099	3157
927.206	3150
927.312	3150
927.419	3268
927.525	3241
927.631	3283
927.737	3173
927.843	3146
927.95	3089
928.056	3154
928.162	3214
928.267	3249
928.373	3865
928.479	3378
928.585	3097
928.69	3230
928.796	3306
928.901	3176
929.007	3100
929.112	3218
929.218	3203
929.323	3173
929.428	3199
929.533	3355
929.638	3100
929.743	3199
929.848	3241
929.953	3199
930.058	3173
930.163	3055
930.267	3058
930.372	3241
930.477	3047
930.581	3348
930.685	3188
930.79	3051
930.894	3135
930.998	3108
931.103	3294
931.207	2967
931.311	2933
931.415	2979
931.519	2769
931.623	2804
