Data from test_V78500241_823.txt Node
Date: Fri Mar 25 16:20:54 CST 2022
User: usil
Spectrometer: V785-0024
Trigger mode: 0
Integration Time (sec): 4.000000E-1
Scans to average: 1
Nonlinearity correction enabled: false
Boxcar width: 0
Storing dark spectrum: false
XAxis mode: Wavelengths
Number of Pixels in Spectrum: 1024
>>>>>Begin Spectral Data<<<<<
801.071	2967
801.214	3013
801.356	2872
801.499	2941
801.641	2922
801.783	2941
801.926	3062
802.068	2982
802.211	3020
802.353	3058
802.496	2990
802.638	3009
802.78	3055
802.923	3123
803.065	2979
803.208	2902
803.35	2910
803.492	2967
803.635	2963
803.777	2819
803.919	2872
804.061	3214
804.204	2975
804.346	2922
804.488	2857
804.63	3028
804.773	2864
804.915	2937
805.057	3089
805.199	2986
805.341	2998
805.483	3058
805.626	3020
805.768	3039
805.91	3085
806.052	3127
806.194	3062
806.336	3294
806.478	3043
806.62	2967
806.762	2986
806.904	3070
807.046	3184
807.188	3017
807.33	2956
807.472	3001
807.614	2914
807.756	3036
807.898	2918
808.04	2933
808.182	3001
808.324	2982
808.465	2906
808.607	2899
808.749	2815
808.891	2872
809.033	2975
809.174	2956
809.316	2918
809.458	2899
809.6	2781
809.741	2766
809.883	2773
810.025	2819
810.166	2891
810.308	2800
810.45	2876
810.591	2766
810.733	2777
810.875	2842
811.016	2766
811.158	2746
811.299	2823
811.441	2918
811.582	2956
811.724	2845
811.865	2830
812.007	2910
812.148	2857
812.29	2842
812.431	2895
812.573	2963
812.714	3013
812.855	3036
812.997	3039
813.138	3116
813.279	3009
813.421	2982
813.562	2952
813.703	2887
813.845	2925
813.986	2781
814.127	2743
814.268	2826
814.41	2815
814.551	2864
814.692	2906
814.833	2800
814.974	2929
815.115	2986
815.256	2857
815.397	2823
815.539	2876
815.68	2769
815.821	2800
815.962	2941
816.103	2925
816.244	2891
816.385	2895
816.526	2979
816.666	2956
816.807	2762
816.948	2891
817.089	2906
817.23	2861
817.371	2769
817.512	2815
817.653	2857
817.793	2830
817.934	2891
818.075	2975
818.216	2986
818.356	2998
818.497	2925
818.638	2819
818.778	2834
818.919	2845
819.06	2762
819.2	2891
819.341	2804
819.481	2796
819.622	2918
819.762	3116
819.903	3081
820.043	2925
820.184	2910
820.324	2910
820.465	3043
820.605	2990
820.746	3024
820.886	2948
821.026	3062
821.167	3173
821.307	3253
821.447	3287
821.588	3226
821.728	3222
821.868	3199
822.008	3123
822.149	3199
822.289	3249
822.429	3093
822.569	3112
822.709	3150
822.849	3032
822.99	3077
823.13	3173
823.27	3230
823.41	3089
823.55	3165
823.69	3176
823.83	3192
823.97	3077
824.11	3020
824.25	3001
824.389	3112
824.529	3100
824.669	3055
824.809	3199
824.949	3275
825.089	3222
825.228	3127
825.368	2960
825.508	2967
825.648	2948
825.787	3001
825.927	3047
826.067	2998
826.206	2979
826.346	3017
826.485	3108
826.625	3131
826.765	3226
826.904	3260
827.044	3036
827.183	2967
827.323	2872
827.462	3005
827.601	2948
827.741	2960
827.88	2956
828.02	2830
828.159	2960
828.298	3066
828.437	3108
828.577	3077
828.716	3222
828.855	3066
828.994	2899
829.134	2906
829.273	2937
829.412	2883
829.551	2868
829.69	2895
829.829	2994
829.968	3150
830.107	2986
830.246	3055
830.385	2948
830.524	2876
830.663	2819
830.802	2727
830.941	2625
831.08	2651
831.219	2769
831.357	2727
831.496	2937
831.635	2731
831.774	2644
831.913	2659
832.051	2545
832.19	2594
832.329	2697
832.467	2530
832.606	2526
832.744	2594
832.883	2579
833.022	2579
833.16	2644
833.299	2697
833.437	2686
833.576	2693
833.714	2727
833.852	2727
833.991	2762
834.129	2857
834.267	2834
834.406	2807
834.544	2853
834.682	2891
834.821	2887
834.959	3066
835.097	2902
835.235	3077
835.373	3005
835.511	3024
835.65	2933
835.788	3024
835.926	2838
836.064	2823
836.202	2830
836.34	3089
836.478	3135
836.615	3036
836.753	3116
836.891	3199
837.029	3199
837.167	3100
837.305	3047
837.443	3043
837.58	2975
837.718	3180
837.856	3066
837.993	3009
838.131	3100
838.269	3123
838.406	3081
838.544	3058
838.681	2922
838.819	2956
838.956	2811
839.094	2857
839.231	2941
839.369	3009
839.506	3355
839.643	3199
839.781	2990
839.918	2971
840.055	2990
840.193	3089
840.33	3089
840.467	3036
840.604	3157
840.742	3450
840.879	3097
841.016	3058
841.153	3108
841.29	3351
841.427	3298
841.564	3264
841.701	3275
841.838	3218
841.975	3165
842.112	3207
842.249	3089
842.385	3020
842.522	3253
842.659	3123
842.796	3051
842.933	3089
843.069	3058
843.206	3066
843.343	3214
843.479	3165
843.616	3112
843.752	2891
843.889	2902
844.025	3112
844.162	2872
844.298	3032
844.435	2952
844.571	2925
844.708	3066
844.844	3203
844.98	3222
845.117	3207
845.253	3070
845.389	3001
845.525	3123
845.661	3119
845.798	2971
845.934	3127
846.07	3062
846.206	3218
846.342	3310
846.478	3230
846.614	3097
846.75	3039
846.886	3020
847.022	3279
847.158	3146
847.294	3195
847.429	3230
847.565	3230
847.701	3504
847.837	3020
847.972	3020
848.108	3157
848.244	3146
848.379	2960
848.515	2944
848.65	2906
848.786	3001
848.921	3028
849.057	3119
849.192	3150
849.328	3055
849.463	3142
849.598	3047
849.734	3024
849.869	2960
850.004	2941
850.14	2941
850.275	2899
850.41	2838
850.545	2883
850.68	2937
850.815	2971
850.95	2979
851.085	3207
851.22	3093
851.355	3020
851.49	2967
851.625	2967
851.76	2990
851.895	2925
852.03	2933
852.165	3043
852.299	3119
852.434	3176
852.569	3142
852.703	3184
852.838	3233
852.973	3325
853.107	3332
853.242	3138
853.376	3081
853.511	2948
853.645	3051
853.78	3211
853.914	3116
854.048	3123
854.183	3077
854.317	3150
854.451	3310
854.585	3089
854.72	3108
854.854	3226
854.988	3047
855.122	3093
855.256	2994
855.39	3104
855.524	3241
855.658	3214
855.792	3150
855.926	3184
856.06	3207
856.194	3253
856.327	3154
856.461	3039
856.595	3062
856.729	3093
856.862	3211
856.996	3157
857.13	3195
857.263	3218
857.397	3226
857.53	3112
857.664	3211
857.797	3249
857.931	3195
858.064	3165
858.197	3192
858.331	3119
858.464	3085
858.597	2990
858.731	3108
858.864	3154
858.997	3085
859.13	3176
859.263	3184
859.396	3161
859.529	3062
859.662	3077
859.795	3085
859.928	3135
860.061	3287
860.194	3291
860.327	3112
860.46	3077
860.592	3245
860.725	3272
860.858	3192
860.99	3085
861.123	3062
861.256	3039
861.388	3138
861.521	3918
861.653	3017
861.786	3009
861.918	2994
862.05	3039
862.183	3116
862.315	3165
862.447	3203
862.58	3100
862.712	2941
862.844	2883
862.976	3024
863.108	2998
863.24	3340
863.372	2902
863.504	2982
863.636	2952
863.768	3020
863.9	2960
864.032	2910
864.164	2941
864.296	3005
864.428	3062
864.559	3081
864.691	3081
864.823	3032
864.954	3028
865.086	3055
865.217	2994
865.349	2948
865.48	3009
865.612	3013
865.743	3173
865.875	2998
866.006	2963
866.137	2975
866.269	2975
866.4	2929
866.531	2971
866.662	2876
866.793	2849
866.924	2861
867.055	2956
867.186	2914
867.317	2868
867.448	2826
867.579	2887
867.71	2849
867.841	2819
867.972	2868
868.103	2887
868.233	2887
868.364	2849
868.495	2918
868.625	3085
868.756	3150
868.886	2963
869.017	3013
869.147	3173
869.278	3150
869.408	3058
869.539	3005
869.669	3097
869.799	3032
869.929	3150
870.06	3127
870.19	3340
870.32	3275
870.45	3283
870.58	3382
870.71	3439
870.84	3435
870.97	3317
871.1	3260
871.23	3458
871.36	3454
871.489	3332
871.619	3355
871.749	3382
871.879	3416
872.008	3477
872.138	3348
872.267	3279
872.397	3157
872.526	3100
872.656	2990
872.785	3081
872.915	3241
873.044	3298
873.173	3245
873.303	3260
873.432	3249
873.561	3241
873.69	3173
873.819	3138
873.948	3203
874.077	3081
874.206	3020
874.335	3085
874.464	3237
874.593	3313
874.722	3226
874.851	3405
874.979	3367
875.108	3264
875.237	3199
875.365	3142
875.494	3165
875.623	3298
875.751	3104
875.88	3097
876.008	3192
876.136	3199
876.265	3344
876.393	3511
876.521	3431
876.65	3386
876.778	3321
876.906	3218
877.034	3165
877.162	3211
877.29	3169
877.418	3230
877.546	3233
877.674	3211
877.802	3222
877.93	3253
878.058	3161
878.185	3108
878.313	3203
878.441	3199
878.568	3055
878.696	3176
878.824	3203
878.951	3317
879.079	3447
879.206	3610
879.333	3450
879.461	3298
879.588	3363
879.715	3454
879.842	3584
879.97	3393
880.097	3138
880.224	3089
880.351	3161
880.478	3199
880.605	3207
880.732	3150
880.859	3481
880.986	3306
881.112	3306
881.239	3169
881.366	3097
881.493	3047
881.619	2994
881.746	3077
881.872	3108
881.999	3097
882.125	3116
882.252	3279
882.378	3283
882.505	3428
882.631	3253
882.757	3176
882.883	3199
883.01	3226
883.136	3142
883.262	3112
883.388	3127
883.514	3325
883.64	3332
883.766	3321
883.892	3165
884.018	3222
884.143	3416
884.269	3530
884.395	3192
884.52	3207
884.646	3199
884.772	3127
884.897	3093
885.023	3249
885.148	3321
885.274	3435
885.399	3370
885.524	3340
885.65	3283
885.775	3329
885.9	3294
886.025	3405
886.15	3306
886.275	3351
886.4	3214
886.525	3260
886.65	3237
886.775	3291
886.9	3507
887.025	3614
887.149	3435
887.274	3245
887.399	3214
887.523	3192
887.648	3176
887.773	3199
887.897	3344
888.021	3374
888.146	3275
888.27	3439
888.395	3523
888.519	3409
888.643	3424
888.767	3439
888.891	3348
889.015	3272
889.139	3283
889.263	3230
889.387	3401
889.511	3488
889.635	3458
889.759	3268
889.883	3241
890.006	3382
890.13	3466
890.254	3260
890.377	3344
890.501	3207
890.624	3203
890.748	3287
890.871	3173
890.995	3097
891.118	3062
891.241	3165
891.364	3199
891.488	3298
891.611	3199
891.734	3192
891.857	3287
891.98	3214
892.103	3332
892.226	3260
892.349	3214
892.471	3097
892.594	3230
892.717	3294
892.839	3233
892.962	3321
893.085	3351
893.207	3287
893.33	3127
893.452	3211
893.575	3336
893.697	3256
893.819	3431
893.941	3492
894.064	3435
894.186	3211
894.308	3287
894.43	3420
894.552	3504
894.674	3428
894.796	3253
894.918	3260
895.04	3294
895.161	3389
895.283	3378
895.405	3294
895.526	3386
895.648	3428
895.769	3428
895.891	3469
896.012	3485
896.134	3439
896.255	3450
896.376	3370
896.498	3378
896.619	3405
896.74	3348
896.861	3412
896.982	3686
897.103	3812
897.224	3622
897.345	3526
897.466	3435
897.587	3515
897.708	3618
897.828	3538
897.949	3405
898.07	3336
898.19	3389
898.311	3603
898.431	3450
898.552	3511
898.672	3603
898.792	3614
898.913	3523
899.033	3405
899.153	3268
899.273	3230
899.393	3298
899.513	3279
899.633	3317
899.753	3344
899.873	3298
899.993	3359
900.113	3348
900.232	3370
900.352	3340
900.472	3275
900.591	3211
900.711	3317
900.83	3230
900.95	3412
901.069	3534
901.189	3283
901.308	3161
901.427	3142
901.546	3211
901.665	3287
901.784	3348
901.904	3245
902.023	3157
902.141	3017
902.26	3009
902.379	3131
902.498	3081
902.617	3028
902.735	3207
902.854	3195
902.973	3184
903.091	3039
903.21	3081
903.328	3093
903.446	3089
903.565	3085
903.683	3203
903.801	3138
903.919	3268
904.038	3287
904.156	3176
904.274	3279
904.392	3233
904.51	3253
904.627	3325
904.745	3424
904.863	3485
904.981	3260
905.098	3169
905.216	3203
905.334	3313
905.451	3321
905.569	3313
905.686	3424
905.803	3458
905.921	3256
906.038	3454
906.155	3332
906.272	3298
906.389	3332
906.506	3222
906.623	3260
906.74	3256
906.857	3195
906.974	3264
907.091	3454
907.208	3591
907.324	3469
907.441	3374
907.557	3211
907.674	3268
907.79	3211
907.907	3291
908.023	3393
908.139	3321
908.256	3344
908.372	3386
908.488	3344
908.604	3272
908.72	3268
908.836	3313
908.952	3279
909.068	3325
909.184	3439
909.3	3401
909.415	3492
909.531	3496
909.647	3260
909.762	3241
909.878	3233
909.993	3325
910.108	3329
910.224	3332
910.339	3393
910.454	3340
910.57	3336
910.685	3237
910.8	3545
910.915	3519
911.03	3435
911.145	3272
911.259	3272
911.374	3310
911.489	3264
911.604	3180
911.718	3127
911.833	3142
911.947	3020
912.062	2979
912.176	3161
912.291	3218
912.405	3226
912.519	3409
912.633	3447
912.748	3279
912.862	3272
912.976	3195
913.09	3081
913.204	3169
913.318	3233
913.431	3325
913.545	3317
913.659	3443
913.772	3298
913.886	3218
914	3188
914.113	3321
914.226	3428
914.34	3344
914.453	3218
914.566	3397
914.68	3275
914.793	3313
914.906	3161
915.019	3116
915.132	3089
915.245	3165
915.358	3230
915.47	3218
915.583	3230
915.696	3321
915.809	3393
915.921	3443
916.034	3245
916.146	3233
916.259	3203
916.371	3374
916.483	3389
916.595	3291
916.708	3344
916.82	3336
916.932	3340
917.044	3306
917.156	3332
917.268	3226
917.38	3306
917.491	3317
917.603	3359
917.715	3500
917.826	3431
917.938	3359
918.049	3264
918.161	3405
918.272	3553
918.384	3553
918.495	3500
918.606	3332
918.717	3249
918.828	3374
918.939	3412
919.05	3287
919.161	3344
919.272	3188
919.383	3264
919.494	3507
919.604	3633
919.715	3496
919.826	3386
919.936	3420
920.047	3584
920.157	3523
920.267	3743
920.378	3618
920.488	3587
920.598	3736
920.708	3896
920.818	3819
920.928	3827
921.038	4002
921.148	4006
921.258	3675
921.368	3637
921.477	3549
921.587	3549
921.697	3439
921.806	3637
921.916	3519
922.025	3344
922.134	3336
922.244	3310
922.353	3424
922.462	3275
922.571	3203
922.68	3097
922.789	3089
922.898	3142
923.007	3142
923.116	3249
923.224	3195
923.333	3146
923.442	3108
923.55	3085
923.659	3176
923.767	3192
923.876	3146
923.984	3207
924.092	3100
924.201	3226
924.309	3188
924.417	3214
924.525	3180
924.633	3211
924.741	4006
924.849	3036
924.956	3256
925.064	3157
925.172	3093
925.279	3100
925.387	3199
925.494	3180
925.602	3340
925.709	3348
925.816	3211
925.924	3283
926.031	3386
926.138	3329
926.245	3363
926.352	3237
926.459	3435
926.566	3477
926.673	3321
926.779	3260
926.886	3279
926.993	3112
927.099	3150
927.206	3112
927.312	3127
927.419	3180
927.525	3203
927.631	3275
927.737	3154
927.843	3119
927.95	3047
928.056	3123
928.162	3157
928.267	3249
928.373	3808
928.479	3306
928.585	3074
928.69	3211
928.796	3264
928.901	3199
929.007	3028
929.112	3214
929.218	3218
929.323	3165
929.428	3127
929.533	3306
929.638	3138
929.743	3154
929.848	3245
929.953	3230
930.058	3119
930.163	2990
930.267	3074
930.372	3230
930.477	3028
930.581	3336
930.685	3184
930.79	3077
930.894	3127
930.998	3131
931.103	3291
931.207	2963
931.311	2933
931.415	2895
931.519	2769
931.623	2800
