Data from test_V78500241_187.txt Node
Date: Fri Mar 25 16:16:29 CST 2022
User: usil
Spectrometer: V785-0024
Trigger mode: 0
Integration Time (sec): 4.000000E-1
Scans to average: 1
Nonlinearity correction enabled: false
Boxcar width: 0
Storing dark spectrum: false
XAxis mode: Wavelengths
Number of Pixels in Spectrum: 1024
>>>>>Begin Spectral Data<<<<<
801.071	2948
801.214	2925
801.356	2857
801.499	2948
801.641	2872
801.783	2944
801.926	3085
802.068	2979
802.211	3013
802.353	3055
802.496	2982
802.638	3024
802.78	3055
802.923	3074
803.065	2994
803.208	2902
803.35	2925
803.492	2910
803.635	2906
803.777	2712
803.919	2891
804.061	3211
804.204	2922
804.346	2880
804.488	2899
804.63	2994
804.773	2906
804.915	2925
805.057	3093
805.199	2944
805.341	2956
805.483	3055
805.626	2982
805.768	2982
805.91	3135
806.052	3123
806.194	3074
806.336	3272
806.478	3055
806.62	3001
806.762	2998
806.904	3074
807.046	3192
807.188	3017
807.33	2941
807.472	3017
807.614	2914
807.756	3005
807.898	2960
808.04	2899
808.182	2982
808.324	3001
808.465	2902
808.607	2902
808.749	2861
808.891	2880
809.033	3009
809.174	2990
809.316	2948
809.458	2944
809.6	2811
809.741	2800
809.883	2826
810.025	2880
810.166	2906
810.308	2899
810.45	2891
810.591	2815
810.733	2819
810.875	2895
811.016	2815
811.158	2815
811.299	2853
811.441	3001
811.582	2933
811.724	2861
811.865	2868
812.007	2941
812.148	2918
812.29	2872
812.431	2948
812.573	2998
812.714	3020
812.855	3127
812.997	3097
813.138	3161
813.279	3043
813.421	3047
813.562	3001
813.703	2941
813.845	2952
813.986	2792
814.127	2811
814.268	2887
814.41	2895
814.551	2910
814.692	2960
814.833	2857
814.974	2941
815.115	3001
815.256	2872
815.397	2868
815.539	2906
815.68	2807
815.821	2872
815.962	2998
816.103	2944
816.244	2895
816.385	2914
816.526	3036
816.666	2960
816.807	2762
816.948	2937
817.089	2967
817.23	2914
817.371	2842
817.512	2857
817.653	2929
817.793	2868
817.934	2960
818.075	3032
818.216	3043
818.356	3085
818.497	2925
818.638	2845
818.778	2883
818.919	2826
819.06	2781
819.2	2941
819.341	2849
819.481	2864
819.622	3001
819.762	3119
819.903	3085
820.043	2986
820.184	2929
820.324	2952
820.465	3074
820.605	3070
820.746	3108
820.886	2979
821.026	3135
821.167	3222
821.307	3321
821.447	3344
821.588	3256
821.728	3291
821.868	3237
822.008	3127
822.149	3222
822.289	3253
822.429	3135
822.569	3142
822.709	3222
822.849	3077
822.99	3100
823.13	3180
823.27	3233
823.41	3184
823.55	3192
823.69	3207
823.83	3233
823.97	3135
824.11	3062
824.25	3013
824.389	3093
824.529	3146
824.669	3104
824.809	3230
824.949	3298
825.089	3264
825.228	3195
825.368	3055
825.508	3017
825.648	3005
825.787	3093
825.927	3043
826.067	3047
826.206	2998
826.346	3131
826.485	3097
826.625	3157
826.765	3279
826.904	3207
827.044	3009
827.183	2994
827.323	2918
827.462	3028
827.601	2948
827.741	2937
827.88	2998
828.02	2876
828.159	3028
828.298	3070
828.437	3112
828.577	3100
828.716	3268
828.855	3146
828.994	2933
829.134	2925
829.273	2956
829.412	2902
829.551	2880
829.69	2986
829.829	3020
829.968	3142
830.107	2994
830.246	3081
830.385	2956
830.524	2933
830.663	2857
830.802	2750
830.941	2708
831.08	2663
831.219	2792
831.357	2823
831.496	3039
831.635	2769
831.774	2682
831.913	2689
832.051	2568
832.19	2629
832.329	2735
832.467	2583
832.606	2556
832.744	2640
832.883	2621
833.022	2621
833.16	2712
833.299	2724
833.437	2746
833.576	2712
833.714	2792
833.852	2766
833.991	2788
834.129	2880
834.267	2872
834.406	2819
834.544	2895
834.682	2933
834.821	2906
834.959	3131
835.097	2941
835.235	3108
835.373	3024
835.511	3036
835.65	3001
835.788	3001
835.926	2834
836.064	2864
836.202	2910
836.34	3119
836.478	3192
836.615	3062
836.753	3146
836.891	3245
837.029	3203
837.167	3127
837.305	3142
837.443	3085
837.58	3032
837.718	3165
837.856	3112
837.993	3085
838.131	3138
838.269	3123
838.406	3127
838.544	3119
838.681	2967
838.819	2979
838.956	2834
839.094	2895
839.231	2963
839.369	3058
839.506	3382
839.643	3260
839.781	3085
839.918	2990
840.055	3070
840.193	3097
840.33	3093
840.467	3135
840.604	3173
840.742	3435
840.879	3085
841.016	3108
841.153	3157
841.29	3389
841.427	3348
841.564	3321
841.701	3340
841.838	3226
841.975	3226
842.112	3230
842.249	3154
842.385	3070
842.522	3321
842.659	3123
842.796	3100
842.933	3112
843.069	3093
843.206	3055
843.343	3245
843.479	3142
843.616	3157
843.752	2933
843.889	2929
844.025	3127
844.162	2925
844.298	3135
844.435	2994
844.571	2948
844.708	3097
844.844	3256
844.98	3294
845.117	3211
845.253	3127
845.389	3066
845.525	3165
845.661	3146
845.798	3074
845.934	3154
846.07	3097
846.206	3256
846.342	3351
846.478	3264
846.614	3112
846.75	3097
846.886	3089
847.022	3283
847.158	3131
847.294	3233
847.429	3264
847.565	3264
847.701	3545
847.837	3047
847.972	3051
848.108	3199
848.244	3180
848.379	3013
848.515	2979
848.65	2963
848.786	3009
848.921	3043
849.057	3119
849.192	3154
849.328	3116
849.463	3165
849.598	3108
849.734	3055
849.869	3001
850.004	2967
850.14	3005
850.275	2937
850.41	2872
850.545	2952
850.68	2956
850.815	3058
850.95	3001
851.085	3237
851.22	3127
851.355	3055
851.49	2982
851.625	3058
851.76	3047
851.895	2998
852.03	2941
852.165	3074
852.299	3157
852.434	3222
852.569	3173
852.703	3165
852.838	3253
852.973	3412
853.107	3348
853.242	3184
853.376	3116
853.511	3001
853.645	3070
853.78	3306
853.914	3104
854.048	3157
854.183	3108
854.317	3176
854.451	3367
854.585	3180
854.72	3119
854.854	3222
854.988	3104
855.122	3135
855.256	3017
855.39	3154
855.524	3272
855.658	3188
855.792	3192
855.926	3222
856.06	3268
856.194	3310
856.327	3165
856.461	3112
856.595	3085
856.729	3127
856.862	3237
856.996	3207
857.13	3233
857.263	3256
857.397	3332
857.53	3161
857.664	3192
857.797	3237
857.931	3317
858.064	3161
858.197	3237
858.331	3161
858.464	3085
858.597	2998
858.731	3127
858.864	3176
858.997	3119
859.13	3173
859.263	3245
859.396	3241
859.529	3131
859.662	3108
859.795	3097
859.928	3161
860.061	3302
860.194	3302
860.327	3165
860.46	3150
860.592	3279
860.725	3302
860.858	3294
860.99	3116
861.123	3104
861.256	3085
861.388	3207
861.521	3747
861.653	3066
861.786	3005
861.918	3020
862.05	3108
862.183	3104
862.315	3169
862.447	3226
862.58	3119
862.712	2994
862.844	2880
862.976	2994
863.108	3039
863.24	3321
863.372	2918
863.504	2975
863.636	2975
863.768	3058
863.9	2975
864.032	2933
864.164	2979
864.296	3005
864.428	3142
864.559	3097
864.691	3131
864.823	3074
864.954	3024
865.086	3074
865.217	3039
865.349	2975
865.48	2994
865.612	3032
865.743	3150
865.875	2975
866.006	2979
866.137	3020
866.269	2975
866.4	2948
866.531	2944
866.662	2902
866.793	2899
866.924	2910
867.055	3032
867.186	2937
867.317	2887
867.448	2883
867.579	2857
867.71	2868
867.841	2834
867.972	2963
868.103	2922
868.233	2925
868.364	2902
868.495	2937
868.625	3127
868.756	3154
868.886	3013
869.017	3013
869.147	3195
869.278	3211
869.408	3074
869.539	3043
869.669	3119
869.799	3077
869.929	3142
870.06	3161
870.19	3351
870.32	3329
870.45	3332
870.58	3435
870.71	3435
870.84	3504
870.97	3340
871.1	3256
871.23	3504
871.36	3477
871.489	3405
871.619	3389
871.749	3466
871.879	3458
872.008	3496
872.138	3355
872.267	3291
872.397	3180
872.526	3150
872.656	3074
872.785	3131
872.915	3294
873.044	3351
873.173	3245
873.303	3291
873.432	3260
873.561	3268
873.69	3165
873.819	3154
873.948	3211
874.077	3131
874.206	3097
874.335	3097
874.464	3245
874.593	3367
874.722	3272
874.851	3409
874.979	3370
875.108	3351
875.237	3211
875.365	3188
875.494	3211
875.623	3256
875.751	3116
875.88	3142
876.008	3192
876.136	3294
876.265	3412
876.393	3534
876.521	3435
876.65	3386
876.778	3359
876.906	3241
877.034	3173
877.162	3268
877.29	3226
877.418	3302
877.546	3279
877.674	3283
877.802	3287
877.93	3241
878.058	3161
878.185	3104
878.313	3245
878.441	3199
878.568	3066
878.696	3184
878.824	3241
878.951	3359
879.079	3466
879.206	3660
879.333	3481
879.461	3351
879.588	3370
879.715	3469
879.842	3610
879.97	3405
880.097	3154
880.224	3150
880.351	3211
880.478	3230
880.605	3237
880.732	3188
880.859	3549
880.986	3389
881.112	3348
881.239	3241
881.366	3131
881.493	3036
881.619	3043
881.746	3100
881.872	3131
881.999	3108
882.125	3165
882.252	3313
882.378	3298
882.505	3435
882.631	3310
882.757	3195
882.883	3253
883.01	3222
883.136	3184
883.262	3108
883.388	3165
883.514	3348
883.64	3393
883.766	3317
883.892	3192
884.018	3275
884.143	3428
884.269	3584
884.395	3211
884.52	3203
884.646	3203
884.772	3123
884.897	3142
885.023	3211
885.148	3340
885.274	3454
885.399	3420
885.524	3279
885.65	3283
885.775	3340
885.9	3321
886.025	3420
886.15	3416
886.275	3313
886.4	3264
886.525	3340
886.65	3275
886.775	3321
886.9	3538
887.025	3648
887.149	3409
887.274	3291
887.399	3180
887.523	3207
887.648	3230
887.773	3188
887.897	3378
888.021	3439
888.146	3302
888.27	3454
888.395	3572
888.519	3454
888.643	3504
888.767	3488
888.891	3359
889.015	3298
889.139	3298
889.263	3268
889.387	3416
889.511	3526
889.635	3466
889.759	3340
889.883	3298
890.006	3382
890.13	3481
890.254	3294
890.377	3370
890.501	3233
890.624	3176
890.748	3310
890.871	3199
890.995	3104
891.118	3089
891.241	3230
891.364	3260
891.488	3340
891.611	3211
891.734	3230
891.857	3310
891.98	3272
892.103	3367
892.226	3294
892.349	3214
892.471	3154
892.594	3241
892.717	3264
892.839	3298
892.962	3298
893.085	3374
893.207	3306
893.33	3161
893.452	3176
893.575	3348
893.697	3237
893.819	3492
893.941	3507
894.064	3481
894.186	3279
894.308	3291
894.43	3485
894.552	3538
894.674	3519
894.796	3298
894.918	3348
895.04	3283
895.161	3462
895.283	3416
895.405	3340
895.526	3401
895.648	3401
895.769	3450
895.891	3450
896.012	3473
896.134	3538
896.255	3431
896.376	3409
896.498	3416
896.619	3412
896.74	3393
896.861	3412
896.982	3717
897.103	3861
897.224	3595
897.345	3553
897.466	3462
897.587	3496
897.708	3622
897.828	3530
897.949	3492
898.07	3336
898.19	3416
898.311	3618
898.431	3488
898.552	3568
898.672	3622
898.792	3580
898.913	3557
899.033	3382
899.153	3344
899.273	3260
899.393	3329
899.513	3355
899.633	3313
899.753	3355
899.873	3329
899.993	3348
900.113	3332
900.232	3454
900.352	3370
900.472	3340
900.591	3207
900.711	3294
900.83	3253
900.95	3447
901.069	3538
901.189	3409
901.308	3226
901.427	3184
901.546	3249
901.665	3294
901.784	3370
901.904	3230
902.023	3192
902.141	3058
902.26	2986
902.379	3169
902.498	3058
902.617	3116
902.735	3233
902.854	3275
902.973	3226
903.091	3066
903.21	3066
903.328	3180
903.446	3089
903.565	3100
903.683	3207
903.801	3169
903.919	3279
904.038	3287
904.156	3173
904.274	3287
904.392	3294
904.51	3317
904.627	3363
904.745	3462
904.863	3538
904.981	3279
905.098	3188
905.216	3241
905.334	3310
905.451	3306
905.569	3348
905.686	3428
905.803	3477
905.921	3317
906.038	3431
906.155	3363
906.272	3268
906.389	3332
906.506	3218
906.623	3275
906.74	3291
906.857	3218
906.974	3233
907.091	3435
907.208	3584
907.324	3496
907.441	3363
907.557	3233
907.674	3268
907.79	3230
907.907	3313
908.023	3382
908.139	3378
908.256	3355
908.372	3401
908.488	3389
908.604	3294
908.72	3249
908.836	3283
908.952	3268
909.068	3340
909.184	3507
909.3	3389
909.415	3485
909.531	3477
909.647	3310
909.762	3336
909.878	3302
909.993	3332
910.108	3321
910.224	3351
910.339	3393
910.454	3386
910.57	3313
910.685	3272
910.8	3591
910.915	3595
911.03	3485
911.145	3325
911.259	3275
911.374	3329
911.489	3207
911.604	3241
911.718	3138
911.833	3165
911.947	3039
912.062	2979
912.176	3211
912.291	3203
912.405	3214
912.519	3454
912.633	3507
912.748	3332
912.862	3302
912.976	3184
913.09	3074
913.204	3135
913.318	3237
913.431	3317
913.545	3374
913.659	3439
913.772	3291
913.886	3237
914	3211
914.113	3389
914.226	3431
914.34	3412
914.453	3245
914.566	3409
914.68	3291
914.793	3310
914.906	3169
915.019	3123
915.132	3085
915.245	3214
915.358	3195
915.47	3272
915.583	3317
915.696	3298
915.809	3443
915.921	3462
916.034	3294
916.146	3294
916.259	3241
916.371	3409
916.483	3382
916.595	3245
916.708	3325
916.82	3310
916.932	3336
917.044	3325
917.156	3344
917.268	3264
917.38	3317
917.491	3325
917.603	3382
917.715	3481
917.826	3462
917.938	3382
918.049	3325
918.161	3462
918.272	3568
918.384	3606
918.495	3469
918.606	3367
918.717	3302
918.828	3374
918.939	3477
919.05	3283
919.161	3374
919.272	3157
919.383	3332
919.494	3496
919.604	3694
919.715	3507
919.826	3409
919.936	3511
920.047	3610
920.157	3591
920.267	3781
920.378	3595
920.488	3576
920.598	3800
920.708	3968
920.818	3816
920.928	3857
921.038	4093
921.148	4025
921.258	3736
921.368	3686
921.477	3595
921.587	3614
921.697	3496
921.806	3652
921.916	3530
922.025	3374
922.134	3393
922.244	3332
922.353	3443
922.462	3302
922.571	3256
922.68	3093
922.789	3135
922.898	3161
923.007	3142
923.116	3195
923.224	3199
923.333	3199
923.442	3081
923.55	3112
923.659	3142
923.767	3237
923.876	3146
923.984	3237
924.092	3108
924.201	3214
924.309	3226
924.417	3302
924.525	3214
924.633	3272
924.741	4234
924.849	3081
924.956	3249
925.064	3135
925.172	3028
925.279	3116
925.387	3180
925.494	3272
925.602	3359
925.709	3367
925.816	3184
925.924	3283
926.031	3397
926.138	3332
926.245	3374
926.352	3298
926.459	3466
926.566	3515
926.673	3340
926.779	3283
926.886	3253
926.993	3176
927.099	3138
927.206	3097
927.312	3135
927.419	3233
927.525	3211
927.631	3279
927.737	3192
927.843	3169
927.95	3036
928.056	3146
928.162	3176
928.267	3241
928.373	3835
928.479	3313
928.585	3047
928.69	3241
928.796	3302
928.901	3180
929.007	3066
929.112	3176
929.218	3192
929.323	3154
929.428	3192
929.533	3344
929.638	3112
929.743	3173
929.848	3275
929.953	3237
930.058	3176
930.163	3017
930.267	3051
930.372	3207
930.477	3013
930.581	3321
930.685	3184
930.79	3051
930.894	3131
930.998	3108
931.103	3291
931.207	2979
931.311	2956
931.415	2929
931.519	2830
931.623	2826
