Data from test_V78500241_625.txt Node
Date: Fri Mar 25 16:19:31 CST 2022
User: usil
Spectrometer: V785-0024
Trigger mode: 0
Integration Time (sec): 4.000000E-1
Scans to average: 1
Nonlinearity correction enabled: false
Boxcar width: 0
Storing dark spectrum: false
XAxis mode: Wavelengths
Number of Pixels in Spectrum: 1024
>>>>>Begin Spectral Data<<<<<
801.071	2910
801.214	2933
801.356	2853
801.499	2880
801.641	2853
801.783	2941
801.926	3043
802.068	2979
802.211	3005
802.353	3013
802.496	2952
802.638	2998
802.78	3066
802.923	3051
803.065	2971
803.208	2876
803.35	2891
803.492	2899
803.635	2952
803.777	2743
803.919	2834
804.061	3188
804.204	2918
804.346	2891
804.488	2853
804.63	2967
804.773	2864
804.915	2914
805.057	3047
805.199	2937
805.341	2967
805.483	3017
805.626	2956
805.768	2967
805.91	3055
806.052	3100
806.194	3020
806.336	3180
806.478	2994
806.62	2956
806.762	2956
806.904	3047
807.046	3146
807.188	2967
807.33	2895
807.472	2986
807.614	2902
807.756	2967
807.898	2933
808.04	2891
808.182	2971
808.324	2937
808.465	2868
808.607	2891
808.749	2823
808.891	2849
809.033	2933
809.174	2941
809.316	2864
809.458	2887
809.6	2788
809.741	2743
809.883	2727
810.025	2834
810.166	2815
810.308	2842
810.45	2838
810.591	2731
810.733	2739
810.875	2792
811.016	2766
811.158	2739
811.299	2792
811.441	2910
811.582	2918
811.724	2800
811.865	2807
812.007	2895
812.148	2895
812.29	2830
812.431	2861
812.573	2918
812.714	2948
812.855	3013
812.997	3013
813.138	3100
813.279	2994
813.421	2963
813.562	2922
813.703	2849
813.845	2883
813.986	2758
814.127	2712
814.268	2788
814.41	2815
814.551	2800
814.692	2849
814.833	2788
814.974	2906
815.115	2952
815.256	2804
815.397	2762
815.539	2830
815.68	2785
815.821	2750
815.962	2929
816.103	2937
816.244	2823
816.385	2830
816.526	2941
816.666	2887
816.807	2743
816.948	2842
817.089	2906
817.23	2830
817.371	2766
817.512	2758
817.653	2842
817.793	2781
817.934	2838
818.075	2948
818.216	2967
818.356	2994
818.497	2880
818.638	2804
818.778	2807
818.919	2792
819.06	2735
819.2	2880
819.341	2788
819.481	2788
819.622	2887
819.762	3070
819.903	3013
820.043	2864
820.184	2899
820.324	2895
820.465	3017
820.605	2979
820.746	2998
820.886	2902
821.026	3070
821.167	3123
821.307	3226
821.447	3245
821.588	3188
821.728	3173
821.868	3195
822.008	3062
822.149	3192
822.289	3207
822.429	3058
822.569	3097
822.709	3188
822.849	2998
822.99	3081
823.13	3138
823.27	3214
823.41	3108
823.55	3150
823.69	3165
823.83	3176
823.97	3093
824.11	2994
824.25	2998
824.389	3077
824.529	3119
824.669	3112
824.809	3161
824.949	3275
825.089	3222
825.228	3157
825.368	3039
825.508	2990
825.648	2986
825.787	3039
825.927	3020
826.067	2982
826.206	2982
826.346	3058
826.485	3074
826.625	3116
826.765	3287
826.904	3226
827.044	3013
827.183	2952
827.323	2849
827.462	3043
827.601	2975
827.741	2971
827.88	2986
828.02	2857
828.159	2994
828.298	3028
828.437	3165
828.577	3077
828.716	3272
828.855	3089
828.994	2990
829.134	2941
829.273	2933
829.412	2883
829.551	2864
829.69	2922
829.829	3005
829.968	3146
830.107	3043
830.246	3058
830.385	2967
830.524	2925
830.663	2853
830.802	2758
830.941	2663
831.08	2644
831.219	2792
831.357	2773
831.496	3028
831.635	2769
831.774	2705
831.913	2686
832.051	2598
832.19	2606
832.329	2735
832.467	2533
832.606	2499
832.744	2602
832.883	2636
833.022	2655
833.16	2670
833.299	2708
833.437	2746
833.576	2743
833.714	2727
833.852	2781
833.991	2788
834.129	2872
834.267	2834
834.406	2807
834.544	2872
834.682	2910
834.821	2906
834.959	3055
835.097	2887
835.235	3138
835.373	3009
835.511	3024
835.65	2990
835.788	3020
835.926	2853
836.064	2849
836.202	2891
836.34	3116
836.478	3161
836.615	3093
836.753	3154
836.891	3256
837.029	3192
837.167	3157
837.305	3081
837.443	3051
837.58	2975
837.718	3161
837.856	3070
837.993	3043
838.131	3150
838.269	3131
838.406	3108
838.544	3100
838.681	3001
838.819	2944
838.956	2849
839.094	2834
839.231	2937
839.369	3051
839.506	3386
839.643	3256
839.781	3039
839.918	2998
840.055	3100
840.193	3085
840.33	3104
840.467	3119
840.604	3157
840.742	3428
840.879	3097
841.016	3070
841.153	3135
841.29	3355
841.427	3344
841.564	3275
841.701	3370
841.838	3268
841.975	3184
842.112	3283
842.249	3116
842.385	3066
842.522	3260
842.659	3116
842.796	3074
842.933	3070
843.069	3062
843.206	3062
843.343	3176
843.479	3161
843.616	3180
843.752	2937
843.889	2887
844.025	3074
844.162	2902
844.298	3150
844.435	2952
844.571	2960
844.708	3081
844.844	3222
844.98	3253
845.117	3249
845.253	3043
845.389	3039
845.525	3135
845.661	3146
845.798	3036
845.934	3154
846.07	3074
846.206	3211
846.342	3363
846.478	3272
846.614	3097
846.75	3077
846.886	3058
847.022	3233
847.158	3138
847.294	3222
847.429	3272
847.565	3268
847.701	3504
847.837	3081
847.972	3047
848.108	3142
848.244	3157
848.379	3024
848.515	2975
848.65	2979
848.786	2967
848.921	3028
849.057	3112
849.192	3169
849.328	3074
849.463	3131
849.598	3047
849.734	3074
849.869	2990
850.004	2967
850.14	2956
850.275	2933
850.41	2807
850.545	2929
850.68	2960
850.815	2975
850.95	2979
851.085	3241
851.22	3142
851.355	3047
851.49	3047
851.625	3028
851.76	3043
851.895	2960
852.03	2952
852.165	3055
852.299	3169
852.434	3192
852.569	3169
852.703	3173
852.838	3294
852.973	3348
853.107	3355
853.242	3165
853.376	3119
853.511	3005
853.645	3039
853.78	3294
853.914	3165
854.048	3131
854.183	3142
854.317	3173
854.451	3325
854.585	3176
854.72	3123
854.854	3226
854.988	3043
855.122	3108
855.256	3020
855.39	3157
855.524	3253
855.658	3176
855.792	3176
855.926	3222
856.06	3260
856.194	3302
856.327	3176
856.461	3081
856.595	3104
856.729	3123
856.862	3233
856.996	3176
857.13	3241
857.263	3249
857.397	3294
857.53	3127
857.664	3211
857.797	3237
857.931	3264
858.064	3195
858.197	3253
858.331	3180
858.464	3116
858.597	2998
858.731	3150
858.864	3157
858.997	3131
859.13	3214
859.263	3214
859.396	3245
859.529	3108
859.662	3123
859.795	3039
859.928	3199
860.061	3329
860.194	3344
860.327	3146
860.46	3108
860.592	3260
860.725	3302
860.858	3291
860.99	3116
861.123	3089
861.256	3070
861.388	3146
861.521	3724
861.653	3001
861.786	3005
861.918	3039
862.05	3112
862.183	3077
862.315	3192
862.447	3203
862.58	3131
862.712	3028
862.844	2918
862.976	3036
863.108	3055
863.24	3443
863.372	2906
863.504	3074
863.636	2986
863.768	3089
863.9	3005
864.032	2925
864.164	2944
864.296	3077
864.428	3104
864.559	3116
864.691	3108
864.823	3062
864.954	3051
865.086	3055
865.217	2986
865.349	2990
865.48	3020
865.612	3062
865.743	3154
865.875	3017
866.006	2975
866.137	2963
866.269	2967
866.4	2967
866.531	2963
866.662	2918
866.793	2902
866.924	2918
867.055	2979
867.186	2948
867.317	2925
867.448	2929
867.579	2845
867.71	2880
867.841	2857
867.972	2883
868.103	2937
868.233	2902
868.364	2861
868.495	2933
868.625	3100
868.756	3211
868.886	3001
869.017	3062
869.147	3192
869.278	3207
869.408	3058
869.539	3081
869.669	3123
869.799	3055
869.929	3138
870.06	3142
870.19	3336
870.32	3294
870.45	3283
870.58	3367
870.71	3447
870.84	3435
870.97	3310
871.1	3256
871.23	3492
871.36	3466
871.489	3382
871.619	3409
871.749	3431
871.879	3462
872.008	3477
872.138	3344
872.267	3287
872.397	3188
872.526	3135
872.656	3070
872.785	3142
872.915	3249
873.044	3340
873.173	3207
873.303	3268
873.432	3275
873.561	3253
873.69	3119
873.819	3157
873.948	3230
874.077	3104
874.206	3077
874.335	3112
874.464	3260
874.593	3378
874.722	3230
874.851	3409
874.979	3370
875.108	3329
875.237	3203
875.365	3188
875.494	3192
875.623	3268
875.751	3116
875.88	3104
876.008	3199
876.136	3279
876.265	3363
876.393	3481
876.521	3416
876.65	3401
876.778	3355
876.906	3272
877.034	3218
877.162	3256
877.29	3218
877.418	3279
877.546	3253
877.674	3226
877.802	3241
877.93	3241
878.058	3180
878.185	3093
878.313	3264
878.441	3233
878.568	3097
878.696	3154
878.824	3249
878.951	3363
879.079	3462
879.206	3610
879.333	3424
879.461	3351
879.588	3401
879.715	3526
879.842	3587
879.97	3370
880.097	3192
880.224	3119
880.351	3218
880.478	3192
880.605	3192
880.732	3195
880.859	3435
880.986	3310
881.112	3317
881.239	3233
881.366	3081
881.493	3020
881.619	2990
881.746	3077
881.872	3112
881.999	3085
882.125	3154
882.252	3237
882.378	3298
882.505	3439
882.631	3275
882.757	3184
882.883	3214
883.01	3188
883.136	3173
883.262	3104
883.388	3135
883.514	3321
883.64	3416
883.766	3321
883.892	3249
884.018	3241
884.143	3439
884.269	3526
884.395	3214
884.52	3135
884.646	3207
884.772	3131
884.897	3081
885.023	3226
885.148	3344
885.274	3420
885.399	3355
885.524	3306
885.65	3241
885.775	3302
885.9	3272
886.025	3466
886.15	3378
886.275	3298
886.4	3237
886.525	3291
886.65	3306
886.775	3291
886.9	3507
887.025	3637
887.149	3424
887.274	3260
887.399	3157
887.523	3226
887.648	3184
887.773	3203
887.897	3386
888.021	3393
888.146	3298
888.27	3447
888.395	3469
888.519	3462
888.643	3424
888.767	3485
888.891	3310
889.015	3272
889.139	3294
889.263	3283
889.387	3409
889.511	3504
889.635	3481
889.759	3298
889.883	3321
890.006	3401
890.13	3492
890.254	3302
890.377	3351
890.501	3226
890.624	3192
890.748	3298
890.871	3131
890.995	3131
891.118	3077
891.241	3211
891.364	3199
891.488	3317
891.611	3211
891.734	3230
891.857	3332
891.98	3222
892.103	3329
892.226	3279
892.349	3218
892.471	3119
892.594	3214
892.717	3291
892.839	3268
892.962	3317
893.085	3374
893.207	3325
893.33	3150
893.452	3214
893.575	3348
893.697	3272
893.819	3458
893.941	3500
894.064	3435
894.186	3302
894.308	3256
894.43	3431
894.552	3564
894.674	3469
894.796	3245
894.918	3298
895.04	3294
895.161	3424
895.283	3386
895.405	3359
895.526	3355
895.648	3412
895.769	3447
895.891	3458
896.012	3519
896.134	3450
896.255	3397
896.376	3401
896.498	3382
896.619	3424
896.74	3370
896.861	3431
896.982	3713
897.103	3838
897.224	3614
897.345	3488
897.466	3420
897.587	3496
897.708	3591
897.828	3580
897.949	3431
898.07	3359
898.19	3397
898.311	3599
898.431	3462
898.552	3523
898.672	3610
898.792	3549
898.913	3526
899.033	3416
899.153	3310
899.273	3203
899.393	3317
899.513	3332
899.633	3344
899.753	3325
899.873	3317
899.993	3374
900.113	3344
900.232	3397
900.352	3363
900.472	3332
900.591	3214
900.711	3332
900.83	3245
900.95	3450
901.069	3519
901.189	3378
901.308	3214
901.427	3135
901.546	3192
901.665	3336
901.784	3336
901.904	3241
902.023	3154
902.141	3066
902.26	2994
902.379	3116
902.498	3077
902.617	3055
902.735	3184
902.854	3287
902.973	3230
903.091	3032
903.21	3055
903.328	3123
903.446	3085
903.565	3112
903.683	3203
903.801	3116
903.919	3264
904.038	3249
904.156	3146
904.274	3279
904.392	3253
904.51	3279
904.627	3340
904.745	3443
904.863	3500
904.981	3306
905.098	3188
905.216	3211
905.334	3279
905.451	3298
905.569	3332
905.686	3389
905.803	3477
905.921	3291
906.038	3420
906.155	3359
906.272	3283
906.389	3363
906.506	3214
906.623	3256
906.74	3321
906.857	3226
906.974	3226
907.091	3431
907.208	3561
907.324	3488
907.441	3412
907.557	3245
907.674	3207
907.79	3203
907.907	3306
908.023	3344
908.139	3409
908.256	3359
908.372	3405
908.488	3348
908.604	3256
908.72	3214
908.836	3264
908.952	3260
909.068	3317
909.184	3504
909.3	3382
909.415	3553
909.531	3485
909.647	3245
909.762	3291
909.878	3268
909.993	3359
910.108	3287
910.224	3340
910.339	3420
910.454	3332
910.57	3287
910.685	3272
910.8	3610
910.915	3526
911.03	3431
911.145	3245
911.259	3241
911.374	3317
911.489	3256
911.604	3226
911.718	3119
911.833	3157
911.947	3028
912.062	3009
912.176	3173
912.291	3180
912.405	3207
912.519	3416
912.633	3496
912.748	3325
912.862	3294
912.976	3184
913.09	3047
913.204	3154
913.318	3245
913.431	3325
913.545	3355
913.659	3409
913.772	3302
913.886	3233
914	3207
914.113	3386
914.226	3439
914.34	3332
914.453	3211
914.566	3412
914.68	3272
914.793	3310
914.906	3165
915.019	3135
915.132	3070
915.245	3165
915.358	3233
915.47	3214
915.583	3237
915.696	3294
915.809	3367
915.921	3409
916.034	3241
916.146	3302
916.259	3230
916.371	3344
916.483	3405
916.595	3275
916.708	3359
916.82	3325
916.932	3317
917.044	3355
917.156	3310
917.268	3287
917.38	3325
917.491	3287
917.603	3363
917.715	3450
917.826	3488
917.938	3393
918.049	3249
918.161	3416
918.272	3549
918.384	3564
918.495	3473
918.606	3340
918.717	3264
918.828	3348
918.939	3393
919.05	3294
919.161	3397
919.272	3180
919.383	3275
919.494	3500
919.604	3732
919.715	3496
919.826	3409
919.936	3439
920.047	3603
920.157	3519
920.267	3770
920.378	3603
920.488	3580
920.598	3747
920.708	3956
920.818	3823
920.928	3857
921.038	4048
921.148	3975
921.258	3679
921.368	3606
921.477	3576
921.587	3526
921.697	3458
921.806	3633
921.916	3530
922.025	3355
922.134	3374
922.244	3329
922.353	3450
922.462	3291
922.571	3192
922.68	3089
922.789	3116
922.898	3157
923.007	3089
923.116	3203
923.224	3165
923.333	3211
923.442	3108
923.55	3097
923.659	3131
923.767	3218
923.876	3127
923.984	3230
924.092	3108
924.201	3195
924.309	3222
924.417	3207
924.525	3195
924.633	3245
924.741	4032
924.849	3051
924.956	3253
925.064	3093
925.172	3024
925.279	3089
925.387	3161
925.494	3184
925.602	3367
925.709	3336
925.816	3192
925.924	3237
926.031	3355
926.138	3294
926.245	3336
926.352	3253
926.459	3393
926.566	3485
926.673	3332
926.779	3256
926.886	3272
926.993	3131
927.099	3108
927.206	3093
927.312	3116
927.419	3222
927.525	3184
927.631	3298
927.737	3165
927.843	3108
927.95	3017
928.056	3123
928.162	3165
928.267	3214
928.373	3800
928.479	3275
928.585	3020
928.69	3211
928.796	3272
928.901	3131
929.007	3047
929.112	3199
929.218	3173
929.323	3157
929.428	3146
929.533	3317
929.638	3138
929.743	3173
929.848	3291
929.953	3192
930.058	3119
930.163	3001
930.267	2986
930.372	3218
930.477	3028
930.581	3302
930.685	3188
930.79	3039
930.894	3119
930.998	3119
931.103	3291
931.207	2922
931.311	2941
931.415	2925
931.519	2777
931.623	2785
