Data from test_V78500241_1159.txt Node
Date: Fri Mar 25 16:23:13 CST 2022
User: usil
Spectrometer: V785-0024
Trigger mode: 0
Integration Time (sec): 4.000000E-1
Scans to average: 1
Nonlinearity correction enabled: false
Boxcar width: 0
Storing dark spectrum: false
XAxis mode: Wavelengths
Number of Pixels in Spectrum: 1024
>>>>>Begin Spectral Data<<<<<
801.071	2960
801.214	2982
801.356	2872
801.499	2925
801.641	2880
801.783	2929
801.926	3077
802.068	2979
802.211	2994
802.353	3047
802.496	2967
802.638	3039
802.78	3058
802.923	3131
803.065	3005
803.208	2914
803.35	2967
803.492	2986
803.635	2922
803.777	2788
803.919	2872
804.061	3245
804.204	2952
804.346	2914
804.488	2868
804.63	3013
804.773	2902
804.915	2925
805.057	3085
805.199	2975
805.341	2994
805.483	3047
805.626	3013
805.768	3013
805.91	3032
806.052	3100
806.194	3097
806.336	3241
806.478	3009
806.62	2986
806.762	2975
806.904	3051
807.046	3214
807.188	3020
807.33	2910
807.472	3028
807.614	2933
807.756	2998
807.898	2948
808.04	2918
808.182	3005
808.324	2994
808.465	2906
808.607	2876
808.749	2819
808.891	2834
809.033	3024
809.174	3005
809.316	2910
809.458	2910
809.6	2785
809.741	2792
809.883	2819
810.025	2872
810.166	2857
810.308	2845
810.45	2857
810.591	2792
810.733	2796
810.875	2857
811.016	2758
811.158	2811
811.299	2819
811.441	2960
811.582	2922
811.724	2834
811.865	2800
812.007	2918
812.148	2883
812.29	2815
812.431	2891
812.573	2960
812.714	2975
812.855	3039
812.997	3058
813.138	3146
813.279	2982
813.421	3024
813.562	2960
813.703	2891
813.845	2922
813.986	2792
814.127	2769
814.268	2838
814.41	2834
814.551	2804
814.692	2891
814.833	2838
814.974	2891
815.115	2948
815.256	2838
815.397	2838
815.539	2902
815.68	2796
815.821	2746
815.962	2952
816.103	2971
816.244	2887
816.385	2902
816.526	2937
816.666	2956
816.807	2785
816.948	2872
817.089	2918
817.23	2861
817.371	2819
817.512	2807
817.653	2864
817.793	2842
817.934	2853
818.075	2986
818.216	2979
818.356	3047
818.497	2872
818.638	2773
818.778	2842
818.919	2807
819.06	2777
819.2	2876
819.341	2807
819.481	2823
819.622	2948
819.762	3119
819.903	3055
820.043	2925
820.184	2902
820.324	2891
820.465	3020
820.605	3009
820.746	3055
820.886	2967
821.026	3135
821.167	3157
821.307	3253
821.447	3275
821.588	3245
821.728	3237
821.868	3199
822.008	3074
822.149	3176
822.289	3203
822.429	3093
822.569	3081
822.709	3214
822.849	3036
822.99	3051
823.13	3154
823.27	3207
823.41	3104
823.55	3146
823.69	3173
823.83	3180
823.97	3077
824.11	3032
824.25	2998
824.389	3077
824.529	3123
824.669	3058
824.809	3188
824.949	3260
825.089	3233
825.228	3184
825.368	2998
825.508	2967
825.648	2952
825.787	3036
825.927	3013
826.067	2979
826.206	2929
826.346	3032
826.485	3089
826.625	3116
826.765	3325
826.904	3218
827.044	3001
827.183	2933
827.323	2876
827.462	2986
827.601	2891
827.741	2933
827.88	2906
828.02	2842
828.159	2990
828.298	3032
828.437	3123
828.577	3051
828.716	3264
828.855	3089
828.994	2925
829.134	2914
829.273	2948
829.412	2876
829.551	2872
829.69	2929
829.829	2979
829.968	3116
830.107	3055
830.246	3055
830.385	2922
830.524	2883
830.663	2807
830.802	2762
830.941	2659
831.08	2644
831.219	2792
831.357	2746
831.496	2971
831.635	2731
831.774	2644
831.913	2648
832.051	2568
832.19	2575
832.329	2686
832.467	2545
832.606	2488
832.744	2575
832.883	2571
833.022	2560
833.16	2625
833.299	2701
833.437	2697
833.576	2712
833.714	2720
833.852	2746
833.991	2769
834.129	2823
834.267	2834
834.406	2777
834.544	2895
834.682	2914
834.821	2872
834.959	3081
835.097	2914
835.235	3058
835.373	3036
835.511	3039
835.65	2963
835.788	2960
835.926	2819
836.064	2800
836.202	2845
836.34	3093
836.478	3176
836.615	3039
836.753	3142
836.891	3211
837.029	3180
837.167	3123
837.305	3066
837.443	3055
837.58	2933
837.718	3150
837.856	3074
837.993	3013
838.131	3116
838.269	3081
838.406	3051
838.544	3077
838.681	2941
838.819	2941
838.956	2823
839.094	2826
839.231	2948
839.369	3001
839.506	3393
839.643	3199
839.781	3013
839.918	2975
840.055	3051
840.193	3043
840.33	3062
840.467	3077
840.604	3157
840.742	3374
840.879	3047
841.016	3062
841.153	3104
841.29	3329
841.427	3306
841.564	3218
841.701	3332
841.838	3218
841.975	3157
842.112	3211
842.249	3112
842.385	3032
842.522	3291
842.659	3108
842.796	3074
842.933	3119
843.069	3024
843.206	3020
843.343	3222
843.479	3104
843.616	3112
843.752	2883
843.889	2872
844.025	3062
844.162	2872
844.298	3081
844.435	2960
844.571	2918
844.708	3093
844.844	3176
844.98	3256
845.117	3195
845.253	3024
845.389	3024
845.525	3146
845.661	3104
845.798	3058
845.934	3142
846.07	3032
846.206	3195
846.342	3302
846.478	3203
846.614	3047
846.75	3047
846.886	3032
847.022	3241
847.158	3138
847.294	3192
847.429	3222
847.565	3230
847.701	3462
847.837	3051
847.972	3017
848.108	3184
848.244	3157
848.379	3001
848.515	2941
848.65	2967
848.786	2971
848.921	2982
849.057	3127
849.192	3165
849.328	3081
849.463	3104
849.598	3047
849.734	3055
849.869	2998
850.004	2910
850.14	2944
850.275	2925
850.41	2883
850.545	2902
850.68	2914
850.815	2975
850.95	2982
851.085	3199
851.22	3089
851.355	3058
851.49	2982
851.625	2990
851.76	3017
851.895	2960
852.03	2925
852.165	3055
852.299	3077
852.434	3180
852.569	3135
852.703	3131
852.838	3203
852.973	3336
853.107	3310
853.242	3169
853.376	3058
853.511	2986
853.645	3017
853.78	3233
853.914	3131
854.048	3081
854.183	3055
854.317	3146
854.451	3302
854.585	3131
854.72	3112
854.854	3199
854.988	3039
855.122	3074
855.256	2990
855.39	3123
855.524	3233
855.658	3184
855.792	3157
855.926	3188
856.06	3268
856.194	3222
856.327	3131
856.461	3077
856.595	3085
856.729	3100
856.862	3218
856.996	3192
857.13	3192
857.263	3218
857.397	3287
857.53	3116
857.664	3188
857.797	3264
857.931	3260
858.064	3161
858.197	3203
858.331	3104
858.464	3116
858.597	3001
858.731	3146
858.864	3081
858.997	3089
859.13	3169
859.263	3161
859.396	3195
859.529	3066
859.662	3093
859.795	3085
859.928	3123
860.061	3279
860.194	3264
860.327	3146
860.46	3081
860.592	3253
860.725	3245
860.858	3249
860.99	3127
861.123	3043
861.256	3024
861.388	3154
861.521	3736
861.653	3005
861.786	3013
861.918	3005
862.05	3093
862.183	3112
862.315	3157
862.447	3184
862.58	3093
862.712	2963
862.844	2880
862.976	3028
863.108	3020
863.24	3332
863.372	2891
863.504	2971
863.636	2967
863.768	3005
863.9	2971
864.032	2918
864.164	2960
864.296	3005
864.428	3085
864.559	3093
864.691	3104
864.823	3058
864.954	3032
865.086	3058
865.217	2975
865.349	2902
865.48	2994
865.612	2990
865.743	3161
865.875	3009
866.006	2906
866.137	2967
866.269	2948
866.4	2956
866.531	2899
866.662	2948
866.793	2906
866.924	2849
867.055	2975
867.186	2906
867.317	2868
867.448	2857
867.579	2838
867.71	2830
867.841	2807
867.972	2902
868.103	2899
868.233	2902
868.364	2899
868.495	2918
868.625	3081
868.756	3188
868.886	2967
869.017	2982
869.147	3131
869.278	3154
869.408	3043
869.539	3043
869.669	3104
869.799	3009
869.929	3108
870.06	3123
870.19	3317
870.32	3272
870.45	3310
870.58	3363
870.71	3462
870.84	3447
870.97	3279
871.1	3245
871.23	3469
871.36	3450
871.489	3355
871.619	3382
871.749	3412
871.879	3488
872.008	3477
872.138	3363
872.267	3275
872.397	3138
872.526	3032
872.656	2982
872.785	3127
872.915	3245
873.044	3283
873.173	3199
873.303	3233
873.432	3222
873.561	3230
873.69	3138
873.819	3131
873.948	3176
874.077	3123
874.206	3028
874.335	3081
874.464	3173
874.593	3336
874.722	3253
874.851	3367
874.979	3332
875.108	3310
875.237	3165
875.365	3150
875.494	3180
875.623	3237
875.751	3093
875.88	3100
876.008	3195
876.136	3222
876.265	3393
876.393	3511
876.521	3386
876.65	3367
876.778	3329
876.906	3260
877.034	3176
877.162	3226
877.29	3157
877.418	3203
877.546	3222
877.674	3272
877.802	3222
877.93	3241
878.058	3138
878.185	3100
878.313	3188
878.441	3203
878.568	3074
878.696	3100
878.824	3256
878.951	3310
879.079	3450
879.206	3622
879.333	3409
879.461	3325
879.588	3329
879.715	3454
879.842	3576
879.97	3355
880.097	3165
880.224	3127
880.351	3207
880.478	3230
880.605	3180
880.732	3176
880.859	3507
880.986	3279
881.112	3298
881.239	3165
881.366	3093
881.493	3009
881.619	3058
881.746	3066
881.872	3085
881.999	3108
882.125	3150
882.252	3256
882.378	3260
882.505	3393
882.631	3298
882.757	3108
882.883	3207
883.01	3195
883.136	3161
883.262	3093
883.388	3097
883.514	3302
883.64	3344
883.766	3302
883.892	3154
884.018	3214
884.143	3409
884.269	3557
884.395	3226
884.52	3154
884.646	3176
884.772	3089
884.897	3097
885.023	3188
885.148	3348
885.274	3435
885.399	3332
885.524	3279
885.65	3264
885.775	3294
885.9	3291
886.025	3412
886.15	3389
886.275	3302
886.4	3256
886.525	3298
886.65	3260
886.775	3241
886.9	3500
887.025	3656
887.149	3359
887.274	3207
887.399	3146
887.523	3173
887.648	3188
887.773	3146
887.897	3374
888.021	3447
888.146	3256
888.27	3389
888.395	3485
888.519	3428
888.643	3409
888.767	3507
888.891	3313
889.015	3253
889.139	3256
889.263	3260
889.387	3401
889.511	3500
889.635	3439
889.759	3272
889.883	3310
890.006	3378
890.13	3485
890.254	3237
890.377	3332
890.501	3207
890.624	3135
890.748	3279
890.871	3165
890.995	3097
891.118	3077
891.241	3176
891.364	3253
891.488	3294
891.611	3161
891.734	3268
891.857	3279
891.98	3233
892.103	3275
892.226	3317
892.349	3233
892.471	3104
892.594	3214
892.717	3287
892.839	3279
892.962	3287
893.085	3367
893.207	3279
893.33	3188
893.452	3161
893.575	3325
893.697	3279
893.819	3458
893.941	3523
894.064	3405
894.186	3291
894.308	3264
894.43	3401
894.552	3542
894.674	3473
894.796	3249
894.918	3287
895.04	3279
895.161	3424
895.283	3336
895.405	3359
895.526	3351
895.648	3409
895.769	3431
895.891	3439
896.012	3481
896.134	3424
896.255	3409
896.376	3355
896.498	3370
896.619	3420
896.74	3359
896.861	3412
896.982	3663
897.103	3861
897.224	3564
897.345	3511
897.466	3405
897.587	3454
897.708	3625
897.828	3511
897.949	3420
898.07	3287
898.19	3382
898.311	3572
898.431	3435
898.552	3466
898.672	3557
898.792	3557
898.913	3481
899.033	3431
899.153	3310
899.273	3184
899.393	3279
899.513	3306
899.633	3340
899.753	3302
899.873	3302
899.993	3386
900.113	3313
900.232	3340
900.352	3332
900.472	3279
900.591	3161
900.711	3275
900.83	3214
900.95	3409
901.069	3481
901.189	3363
901.308	3173
901.427	3131
901.546	3207
901.665	3306
901.784	3332
901.904	3222
902.023	3100
902.141	3020
902.26	3013
902.379	3119
902.498	3055
902.617	3009
902.735	3230
902.854	3230
902.973	3188
903.091	3043
903.21	3062
903.328	3104
903.446	3127
903.565	3093
903.683	3199
903.801	3108
903.919	3230
904.038	3256
904.156	3154
904.274	3268
904.392	3279
904.51	3283
904.627	3313
904.745	3431
904.863	3473
904.981	3241
905.098	3165
905.216	3237
905.334	3294
905.451	3275
905.569	3279
905.686	3420
905.803	3409
905.921	3249
906.038	3435
906.155	3340
906.272	3245
906.389	3321
906.506	3256
906.623	3218
906.74	3275
906.857	3176
906.974	3249
907.091	3435
907.208	3523
907.324	3431
907.441	3386
907.557	3218
907.674	3222
907.79	3199
907.907	3268
908.023	3374
908.139	3389
908.256	3367
908.372	3332
908.488	3329
908.604	3230
908.72	3233
908.836	3283
908.952	3298
909.068	3336
909.184	3492
909.3	3374
909.415	3488
909.531	3447
909.647	3249
909.762	3283
909.878	3233
909.993	3325
910.108	3336
910.224	3344
910.339	3393
910.454	3355
910.57	3279
910.685	3237
910.8	3576
910.915	3545
911.03	3424
911.145	3340
911.259	3275
911.374	3332
911.489	3275
911.604	3192
911.718	3112
911.833	3131
911.947	3055
912.062	2998
912.176	3127
912.291	3169
912.405	3253
912.519	3424
912.633	3450
912.748	3348
912.862	3294
912.976	3176
913.09	3066
913.204	3154
913.318	3218
913.431	3325
913.545	3325
913.659	3431
913.772	3351
913.886	3256
914	3195
914.113	3313
914.226	3462
914.34	3325
914.453	3188
914.566	3412
914.68	3294
914.793	3294
914.906	3173
915.019	3112
915.132	3070
915.245	3169
915.358	3199
915.47	3222
915.583	3268
915.696	3302
915.809	3412
915.921	3405
916.034	3272
916.146	3260
916.259	3218
916.371	3382
916.483	3386
916.595	3279
916.708	3344
916.82	3321
916.932	3340
917.044	3370
917.156	3344
917.268	3249
917.38	3272
917.491	3237
917.603	3344
917.715	3439
917.826	3447
917.938	3405
918.049	3260
918.161	3424
918.272	3572
918.384	3587
918.495	3500
918.606	3325
918.717	3279
918.828	3348
918.939	3405
919.05	3310
919.161	3317
919.272	3161
919.383	3249
919.494	3542
919.604	3671
919.715	3488
919.826	3382
919.936	3424
920.047	3595
920.157	3561
920.267	3785
920.378	3637
920.488	3538
920.598	3709
920.708	3964
920.818	3838
920.928	3823
921.038	3991
921.148	3968
921.258	3717
921.368	3618
921.477	3576
921.587	3534
921.697	3450
921.806	3644
921.916	3568
922.025	3374
922.134	3389
922.244	3313
922.353	3412
922.462	3260
922.571	3211
922.68	3138
922.789	3081
922.898	3138
923.007	3093
923.116	3180
923.224	3211
923.333	3150
923.442	3119
923.55	3077
923.659	3146
923.767	3218
923.876	3112
923.984	3245
924.092	3127
924.201	3192
924.309	3218
924.417	3241
924.525	3146
924.633	3256
924.741	4017
924.849	3001
924.956	3275
925.064	3100
925.172	3028
925.279	3127
925.387	3157
925.494	3192
925.602	3340
925.709	3321
925.816	3142
925.924	3310
926.031	3374
926.138	3313
926.245	3416
926.352	3233
926.459	3405
926.566	3477
926.673	3291
926.779	3203
926.886	3272
926.993	3123
927.099	3131
927.206	3116
927.312	3093
927.419	3214
927.525	3268
927.631	3302
927.737	3161
927.843	3135
927.95	2994
928.056	3146
928.162	3165
928.267	3245
928.373	3888
928.479	3321
928.585	3062
928.69	3211
928.796	3237
928.901	3176
929.007	3043
929.112	3214
929.218	3154
929.323	3142
929.428	3138
929.533	3302
929.638	3097
929.743	3169
929.848	3245
929.953	3195
930.058	3150
930.163	2998
930.267	3028
930.372	3222
930.477	2998
930.581	3302
930.685	3195
930.79	3036
930.894	3138
930.998	3093
931.103	3294
931.207	2925
931.311	2941
931.415	2937
931.519	2735
931.623	2811
