Data from test_V78500241_162.txt Node
Date: Fri Mar 25 16:16:19 CST 2022
User: usil
Spectrometer: V785-0024
Trigger mode: 0
Integration Time (sec): 4.000000E-1
Scans to average: 1
Nonlinearity correction enabled: false
Boxcar width: 0
Storing dark spectrum: false
XAxis mode: Wavelengths
Number of Pixels in Spectrum: 1024
>>>>>Begin Spectral Data<<<<<
801.071	2933
801.214	2986
801.356	2887
801.499	2948
801.641	2914
801.783	2952
801.926	3097
802.068	2994
802.211	3043
802.353	3097
802.496	3009
802.638	3062
802.78	3070
802.923	3135
803.065	3032
803.208	2952
803.35	2944
803.492	2986
803.635	2994
803.777	2823
803.919	2914
804.061	3294
804.204	3001
804.346	2971
804.488	2922
804.63	3036
804.773	2944
804.915	2986
805.057	3104
805.199	2963
805.341	3020
805.483	3097
805.626	3039
805.768	3013
805.91	3161
806.052	3173
806.194	3077
806.336	3272
806.478	3093
806.62	3036
806.762	2986
806.904	3100
807.046	3226
807.188	3017
807.33	2941
807.472	3066
807.614	2929
807.756	2990
807.898	3005
808.04	2948
808.182	3039
808.324	3005
808.465	2952
808.607	2937
808.749	2861
808.891	2891
809.033	3024
809.174	3024
809.316	2929
809.458	2960
809.6	2811
809.741	2845
809.883	2819
810.025	2910
810.166	2899
810.308	2914
810.45	2891
810.591	2819
810.733	2861
810.875	2895
811.016	2807
811.158	2823
811.299	2819
811.441	2963
811.582	2960
811.724	2872
811.865	2853
812.007	2963
812.148	2937
812.29	2868
812.431	2918
812.573	2944
812.714	3020
812.855	3085
812.997	3116
813.138	3169
813.279	3097
813.421	3043
813.562	3001
813.703	2914
813.845	2925
813.986	2830
814.127	2769
814.268	2849
814.41	2872
814.551	2868
814.692	2956
814.833	2891
814.974	2944
815.115	3020
815.256	2861
815.397	2857
815.539	2891
815.68	2777
815.821	2861
815.962	2963
816.103	2979
816.244	2895
816.385	2933
816.526	3028
816.666	2941
816.807	2785
816.948	2960
817.089	2975
817.23	2891
817.371	2811
817.512	2849
817.653	2887
817.793	2883
817.934	2929
818.075	3009
818.216	3024
818.356	3024
818.497	2944
818.638	2872
818.778	2876
818.919	2826
819.06	2815
819.2	2941
819.341	2864
819.481	2838
819.622	2929
819.762	3188
819.903	3051
820.043	2952
820.184	2899
820.324	2971
820.465	3093
820.605	3058
820.746	3097
820.886	2952
821.026	3154
821.167	3214
821.307	3283
821.447	3279
821.588	3298
821.728	3249
821.868	3237
822.008	3135
822.149	3226
822.289	3256
822.429	3176
822.569	3127
822.709	3264
822.849	3074
822.99	3119
823.13	3211
823.27	3260
823.41	3154
823.55	3176
823.69	3157
823.83	3230
823.97	3176
824.11	3047
824.25	3001
824.389	3116
824.529	3135
824.669	3070
824.809	3272
824.949	3306
825.089	3264
825.228	3199
825.368	3066
825.508	3055
825.648	2990
825.787	3097
825.927	3074
826.067	3024
826.206	2967
826.346	3119
826.485	3089
826.625	3165
826.765	3325
826.904	3260
827.044	3055
827.183	2963
827.323	2933
827.462	3043
827.601	2960
827.741	2933
827.88	2960
828.02	2891
828.159	3017
828.298	3119
828.437	3119
828.577	3077
828.716	3287
828.855	3135
828.994	2982
829.134	2941
829.273	2967
829.412	2895
829.551	2914
829.69	2941
829.829	3009
829.968	3154
830.107	3062
830.246	3077
830.385	2963
830.524	2918
830.663	2868
830.802	2762
830.941	2670
831.08	2701
831.219	2773
831.357	2777
831.496	2979
831.635	2766
831.774	2678
831.913	2693
832.051	2590
832.19	2617
832.329	2727
832.467	2537
832.606	2526
832.744	2648
832.883	2610
833.022	2651
833.16	2701
833.299	2705
833.437	2731
833.576	2712
833.714	2758
833.852	2785
833.991	2834
834.129	2902
834.267	2887
834.406	2842
834.544	2933
834.682	2948
834.821	2876
834.959	3127
835.097	2906
835.235	3108
835.373	3043
835.511	3017
835.65	3001
835.788	3005
835.926	2861
836.064	2853
836.202	2891
836.34	3123
836.478	3241
836.615	3074
836.753	3188
836.891	3249
837.029	3241
837.167	3173
837.305	3127
837.443	3100
837.58	2998
837.718	3180
837.856	3135
837.993	3077
838.131	3207
838.269	3154
838.406	3112
838.544	3112
838.681	2960
838.819	2975
838.956	2864
839.094	2883
839.231	2925
839.369	3058
839.506	3409
839.643	3283
839.781	3077
839.918	3017
840.055	3104
840.193	3119
840.33	3108
840.467	3108
840.604	3199
840.742	3439
840.879	3138
841.016	3062
841.153	3138
841.29	3363
841.427	3306
841.564	3317
841.701	3310
841.838	3256
841.975	3230
842.112	3256
842.249	3142
842.385	3100
842.522	3264
842.659	3119
842.796	3108
842.933	3150
843.069	3062
843.206	3100
843.343	3214
843.479	3119
843.616	3165
843.752	2941
843.889	2937
844.025	3116
844.162	2906
844.298	3138
844.435	2956
844.571	2941
844.708	3119
844.844	3222
844.98	3294
845.117	3192
845.253	3104
845.389	3066
845.525	3150
845.661	3154
845.798	3047
845.934	3150
846.07	3097
846.206	3253
846.342	3355
846.478	3253
846.614	3123
846.75	3089
846.886	3062
847.022	3294
847.158	3161
847.294	3226
847.429	3272
847.565	3287
847.701	3549
847.837	3062
847.972	3074
848.108	3176
848.244	3207
848.379	3013
848.515	2963
848.65	2948
848.786	3020
848.921	3017
849.057	3138
849.192	3211
849.328	3108
849.463	3154
849.598	3100
849.734	3058
849.869	3013
850.004	2937
850.14	3013
850.275	2914
850.41	2883
850.545	2906
850.68	2941
850.815	2979
850.95	2990
851.085	3211
851.22	3154
851.355	3047
851.49	3032
851.625	3005
851.76	3074
851.895	2982
852.03	2948
852.165	3043
852.299	3131
852.434	3241
852.569	3131
852.703	3233
852.838	3313
852.973	3351
853.107	3336
853.242	3184
853.376	3123
853.511	3020
853.645	3081
853.78	3287
853.914	3116
854.048	3150
854.183	3119
854.317	3180
854.451	3348
854.585	3142
854.72	3108
854.854	3195
854.988	3093
855.122	3127
855.256	3047
855.39	3165
855.524	3298
855.658	3230
855.792	3173
855.926	3214
856.06	3279
856.194	3298
856.327	3173
856.461	3093
856.595	3093
856.729	3123
856.862	3233
856.996	3195
857.13	3226
857.263	3283
857.397	3287
857.53	3169
857.664	3275
857.797	3272
857.931	3291
858.064	3222
858.197	3264
858.331	3157
858.464	3127
858.597	3070
858.731	3112
858.864	3188
858.997	3123
859.13	3165
859.263	3188
859.396	3207
859.529	3116
859.662	3081
859.795	3070
859.928	3195
860.061	3279
860.194	3329
860.327	3188
860.46	3089
860.592	3241
860.725	3294
860.858	3245
860.99	3123
861.123	3097
861.256	3089
861.388	3142
861.521	3800
861.653	3074
861.786	2986
861.918	3020
862.05	3077
862.183	3146
862.315	3218
862.447	3241
862.58	3089
862.712	2941
862.844	2929
862.976	3058
863.108	3055
863.24	3359
863.372	2910
863.504	2982
863.636	3009
863.768	3093
863.9	3024
864.032	2937
864.164	2952
864.296	3062
864.428	3104
864.559	3093
864.691	3093
864.823	3100
864.954	3062
865.086	3085
865.217	3032
865.349	2990
865.48	2998
865.612	3055
865.743	3180
865.875	3020
866.006	2994
866.137	3028
866.269	2982
866.4	2960
866.531	2960
866.662	2933
866.793	2910
866.924	2918
867.055	3043
867.186	2960
867.317	2895
867.448	2853
867.579	2891
867.71	2864
867.841	2868
867.972	2952
868.103	2929
868.233	2914
868.364	2891
868.495	2914
868.625	3112
868.756	3188
868.886	3032
869.017	3077
869.147	3176
869.278	3195
869.408	3070
869.539	3055
869.669	3165
869.799	3055
869.929	3161
870.06	3157
870.19	3344
870.32	3294
870.45	3317
870.58	3397
870.71	3473
870.84	3504
870.97	3317
871.1	3275
871.23	3507
871.36	3469
871.489	3389
871.619	3431
871.749	3458
871.879	3450
872.008	3507
872.138	3401
872.267	3268
872.397	3188
872.526	3176
872.656	3013
872.785	3138
872.915	3291
873.044	3336
873.173	3253
873.303	3256
873.432	3264
873.561	3245
873.69	3192
873.819	3169
873.948	3272
874.077	3154
874.206	3055
874.335	3112
874.464	3222
874.593	3397
874.722	3253
874.851	3401
874.979	3348
875.108	3393
875.237	3222
875.365	3207
875.494	3226
875.623	3268
875.751	3116
875.88	3142
876.008	3192
876.136	3256
876.265	3367
876.393	3557
876.521	3416
876.65	3428
876.778	3374
876.906	3256
877.034	3268
877.162	3291
877.29	3169
877.418	3256
877.546	3226
877.674	3321
877.802	3256
877.93	3268
878.058	3176
878.185	3154
878.313	3260
878.441	3256
878.568	3089
878.696	3169
878.824	3275
878.951	3325
879.079	3507
879.206	3641
879.333	3439
879.461	3351
879.588	3405
879.715	3504
879.842	3618
879.97	3393
880.097	3203
880.224	3188
880.351	3218
880.478	3233
880.605	3230
880.732	3226
880.859	3542
880.986	3351
881.112	3374
881.239	3230
881.366	3131
881.493	3097
881.619	3039
881.746	3108
881.872	3085
881.999	3097
882.125	3188
882.252	3222
882.378	3325
882.505	3439
882.631	3340
882.757	3169
882.883	3249
883.01	3218
883.136	3165
883.262	3112
883.388	3146
883.514	3336
883.64	3401
883.766	3332
883.892	3203
884.018	3294
884.143	3477
884.269	3576
884.395	3233
884.52	3195
884.646	3218
884.772	3127
884.897	3097
885.023	3237
885.148	3340
885.274	3397
885.399	3348
885.524	3275
885.65	3260
885.775	3317
885.9	3283
886.025	3485
886.15	3416
886.275	3348
886.4	3211
886.525	3298
886.65	3302
886.775	3268
886.9	3492
887.025	3701
887.149	3443
887.274	3294
887.399	3207
887.523	3245
887.648	3218
887.773	3214
887.897	3412
888.021	3409
888.146	3344
888.27	3458
888.395	3557
888.519	3466
888.643	3477
888.767	3504
888.891	3340
889.015	3241
889.139	3321
889.263	3291
889.387	3420
889.511	3515
889.635	3469
889.759	3313
889.883	3306
890.006	3420
890.13	3523
890.254	3325
890.377	3359
890.501	3218
890.624	3199
890.748	3389
890.871	3199
890.995	3142
891.118	3047
891.241	3195
891.364	3241
891.488	3378
891.611	3218
891.734	3195
891.857	3283
891.98	3253
892.103	3374
892.226	3310
892.349	3275
892.471	3119
892.594	3256
892.717	3332
892.839	3264
892.962	3332
893.085	3374
893.207	3313
893.33	3165
893.452	3237
893.575	3359
893.697	3291
893.819	3492
893.941	3542
894.064	3496
894.186	3302
894.308	3268
894.43	3466
894.552	3545
894.674	3473
894.796	3298
894.918	3355
895.04	3336
895.161	3439
895.283	3458
895.405	3310
895.526	3409
895.648	3450
895.769	3454
895.891	3488
896.012	3542
896.134	3496
896.255	3397
896.376	3386
896.498	3389
896.619	3420
896.74	3393
896.861	3450
896.982	3690
897.103	3911
897.224	3610
897.345	3519
897.466	3473
897.587	3526
897.708	3637
897.828	3576
897.949	3435
898.07	3306
898.19	3420
898.311	3671
898.431	3473
898.552	3481
898.672	3625
898.792	3610
898.913	3523
899.033	3435
899.153	3306
899.273	3237
899.393	3264
899.513	3351
899.633	3336
899.753	3359
899.873	3340
899.993	3405
900.113	3363
900.232	3401
900.352	3325
900.472	3302
900.591	3268
900.711	3317
900.83	3256
900.95	3424
901.069	3549
901.189	3370
901.308	3180
901.427	3176
901.546	3203
901.665	3264
901.784	3355
901.904	3222
902.023	3150
902.141	3051
902.26	3032
902.379	3157
902.498	3093
902.617	3093
902.735	3272
902.854	3275
902.973	3211
903.091	3055
903.21	3081
903.328	3199
903.446	3138
903.565	3127
903.683	3241
903.801	3131
903.919	3268
904.038	3306
904.156	3184
904.274	3351
904.392	3275
904.51	3310
904.627	3291
904.745	3466
904.863	3534
904.981	3272
905.098	3211
905.216	3241
905.334	3313
905.451	3321
905.569	3310
905.686	3485
905.803	3443
905.921	3268
906.038	3458
906.155	3363
906.272	3306
906.389	3363
906.506	3237
906.623	3272
906.74	3313
906.857	3211
906.974	3264
907.091	3462
907.208	3599
907.324	3496
907.441	3435
907.557	3253
907.674	3256
907.79	3233
907.907	3287
908.023	3409
908.139	3435
908.256	3367
908.372	3370
908.488	3409
908.604	3272
908.72	3279
908.836	3291
908.952	3294
909.068	3355
909.184	3485
909.3	3424
909.415	3485
909.531	3500
909.647	3287
909.762	3279
909.878	3260
909.993	3351
910.108	3310
910.224	3355
910.339	3481
910.454	3332
910.57	3268
910.685	3264
910.8	3606
910.915	3553
911.03	3435
911.145	3260
911.259	3302
911.374	3336
911.489	3283
911.604	3256
911.718	3165
911.833	3157
911.947	3062
912.062	3005
912.176	3157
912.291	3207
912.405	3253
912.519	3477
912.633	3469
912.748	3344
912.862	3298
912.976	3176
913.09	3081
913.204	3127
913.318	3268
913.431	3370
913.545	3374
913.659	3409
913.772	3374
913.886	3222
914	3195
914.113	3439
914.226	3466
914.34	3428
914.453	3222
914.566	3420
914.68	3348
914.793	3272
914.906	3112
915.019	3138
915.132	3100
915.245	3161
915.358	3195
915.47	3260
915.583	3329
915.696	3302
915.809	3435
915.921	3462
916.034	3272
916.146	3249
916.259	3214
916.371	3401
916.483	3374
916.595	3249
916.708	3348
916.82	3325
916.932	3363
917.044	3363
917.156	3382
917.268	3291
917.38	3302
917.491	3313
917.603	3397
917.715	3450
917.826	3500
917.938	3412
918.049	3279
918.161	3450
918.272	3561
918.384	3595
918.495	3534
918.606	3344
918.717	3302
918.828	3409
918.939	3485
919.05	3329
919.161	3393
919.272	3222
919.383	3287
919.494	3500
919.604	3713
919.715	3530
919.826	3435
919.936	3481
920.047	3591
920.157	3580
920.267	3781
920.378	3622
920.488	3572
920.598	3781
920.708	3956
920.818	3816
920.928	3846
921.038	4067
921.148	4044
921.258	3743
921.368	3637
921.477	3576
921.587	3561
921.697	3450
921.806	3694
921.916	3553
922.025	3370
922.134	3363
922.244	3321
922.353	3466
922.462	3302
922.571	3253
922.68	3131
922.789	3116
922.898	3161
923.007	3119
923.116	3218
923.224	3188
923.333	3207
923.442	3116
923.55	3123
923.659	3150
923.767	3237
923.876	3154
923.984	3253
924.092	3135
924.201	3222
924.309	3241
924.417	3245
924.525	3195
924.633	3268
924.741	4204
924.849	3043
924.956	3287
925.064	3085
925.172	3077
925.279	3154
925.387	3245
925.494	3233
925.602	3370
925.709	3340
925.816	3180
925.924	3294
926.031	3405
926.138	3336
926.245	3416
926.352	3275
926.459	3435
926.566	3523
926.673	3367
926.779	3264
926.886	3260
926.993	3180
927.099	3127
927.206	3097
927.312	3127
927.419	3218
927.525	3211
927.631	3310
927.737	3135
927.843	3154
927.95	3051
928.056	3184
928.162	3169
928.267	3283
928.373	3911
928.479	3325
928.585	3051
928.69	3222
928.796	3283
928.901	3214
929.007	3077
929.112	3203
929.218	3199
929.323	3150
929.428	3154
929.533	3336
929.638	3135
929.743	3184
929.848	3218
929.953	3195
930.058	3173
930.163	3001
930.267	3093
930.372	3226
930.477	3043
930.581	3321
930.685	3230
930.79	3066
930.894	3112
930.998	3089
931.103	3279
931.207	2944
931.311	2982
931.415	2880
931.519	2777
931.623	2811
