Data from test_V78500241_554.txt Node
Date: Fri Mar 25 16:19:02 CST 2022
User: usil
Spectrometer: V785-0024
Trigger mode: 0
Integration Time (sec): 4.000000E-1
Scans to average: 1
Nonlinearity correction enabled: false
Boxcar width: 0
Storing dark spectrum: false
XAxis mode: Wavelengths
Number of Pixels in Spectrum: 1024
>>>>>Begin Spectral Data<<<<<
801.071	2861
801.214	2895
801.356	2845
801.499	2910
801.641	2864
801.783	2948
801.926	3032
802.068	2944
802.211	3032
802.353	3024
802.496	2971
802.638	2994
802.78	3017
802.923	3074
803.065	3001
803.208	2872
803.35	2933
803.492	2922
803.635	2929
803.777	2769
803.919	2826
804.061	3199
804.204	2910
804.346	2868
804.488	2849
804.63	2960
804.773	2826
804.915	2910
805.057	3066
805.199	2910
805.341	2963
805.483	3036
805.626	2975
805.768	2929
805.91	3039
806.052	3093
806.194	3024
806.336	3253
806.478	3017
806.62	2960
806.762	2944
806.904	3047
807.046	3157
807.188	2986
807.33	2944
807.472	2979
807.614	2876
807.756	2941
807.898	2925
808.04	2876
808.182	2952
808.324	2956
808.465	2918
808.607	2891
808.749	2804
808.891	2785
809.033	2925
809.174	2960
809.316	2883
809.458	2891
809.6	2754
809.741	2750
809.883	2754
810.025	2826
810.166	2845
810.308	2819
810.45	2845
810.591	2785
810.733	2727
810.875	2834
811.016	2746
811.158	2724
811.299	2800
811.441	2895
811.582	2902
811.724	2819
811.865	2834
812.007	2872
812.148	2872
812.29	2800
812.431	2895
812.573	2937
812.714	2952
812.855	3036
812.997	3055
813.138	3131
813.279	2975
813.421	2960
813.562	2963
813.703	2830
813.845	2876
813.986	2758
814.127	2727
814.268	2819
814.41	2838
814.551	2804
814.692	2883
814.833	2800
814.974	2925
815.115	2933
815.256	2815
815.397	2807
815.539	2857
815.68	2754
815.821	2800
815.962	2883
816.103	2910
816.244	2872
816.385	2872
816.526	2944
816.666	2906
816.807	2716
816.948	2857
817.089	2929
817.23	2838
817.371	2762
817.512	2811
817.653	2838
817.793	2819
817.934	2880
818.075	2922
818.216	2967
818.356	2998
818.497	2853
818.638	2773
818.778	2781
818.919	2815
819.06	2743
819.2	2845
819.341	2811
819.481	2792
819.622	2891
819.762	3100
819.903	2982
820.043	2902
820.184	2902
820.324	2853
820.465	2975
820.605	2975
820.746	3001
820.886	2948
821.026	3070
821.167	3150
821.307	3241
821.447	3245
821.588	3226
821.728	3207
821.868	3169
822.008	3097
822.149	3157
822.289	3241
822.429	3055
822.569	3074
822.709	3165
822.849	3005
822.99	3036
823.13	3138
823.27	3226
823.41	3104
823.55	3154
823.69	3146
823.83	3176
823.97	3085
824.11	2982
824.25	2986
824.389	3039
824.529	3131
824.669	3081
824.809	3192
824.949	3237
825.089	3226
825.228	3176
825.368	3017
825.508	2941
825.648	2963
825.787	3001
825.927	3009
826.067	2994
826.206	2979
826.346	3009
826.485	3100
826.625	3131
826.765	3272
826.904	3218
827.044	3005
827.183	2975
827.323	2861
827.462	2998
827.601	2941
827.741	2979
827.88	2971
828.02	2872
828.159	3017
828.298	3100
828.437	3165
828.577	3085
828.716	3310
828.855	3119
828.994	2944
829.134	2925
829.273	2963
829.412	2891
829.551	2899
829.69	2952
829.829	3047
829.968	3169
830.107	3081
830.246	3077
830.385	2944
830.524	2872
830.663	2826
830.802	2762
830.941	2667
831.08	2686
831.219	2823
831.357	2800
831.496	2967
831.635	2785
831.774	2663
831.913	2724
832.051	2579
832.19	2648
832.329	2754
832.467	2568
832.606	2537
832.744	2579
832.883	2598
833.022	2621
833.16	2701
833.299	2762
833.437	2746
833.576	2708
833.714	2777
833.852	2785
833.991	2819
834.129	2883
834.267	2891
834.406	2834
834.544	2914
834.682	2925
834.821	2922
834.959	3116
835.097	2944
835.235	3123
835.373	3020
835.511	3066
835.65	2979
835.788	3005
835.926	2868
836.064	2876
836.202	2887
836.34	3085
836.478	3218
836.615	3043
836.753	3176
836.891	3268
837.029	3199
837.167	3119
837.305	3123
837.443	3100
837.58	3017
837.718	3188
837.856	3108
837.993	3070
838.131	3165
838.269	3150
838.406	3119
838.544	3116
838.681	2986
838.819	2967
838.956	2830
839.094	2891
839.231	2960
839.369	3039
839.506	3409
839.643	3226
839.781	3055
839.918	3005
840.055	3058
840.193	3055
840.33	3093
840.467	3108
840.604	3188
840.742	3443
840.879	3100
841.016	3089
841.153	3157
841.29	3363
841.427	3317
841.564	3283
841.701	3310
841.838	3218
841.975	3176
842.112	3275
842.249	3116
842.385	3058
842.522	3294
842.659	3100
842.796	3074
842.933	3142
843.069	3100
843.206	3089
843.343	3203
843.479	3154
843.616	3127
843.752	2925
843.889	2914
844.025	3116
844.162	2902
844.298	3089
844.435	2967
844.571	2948
844.708	3116
844.844	3230
844.98	3275
845.117	3222
845.253	3085
845.389	3032
845.525	3131
845.661	3116
845.798	3039
845.934	3169
846.07	3070
846.206	3241
846.342	3329
846.478	3268
846.614	3104
846.75	3089
846.886	3058
847.022	3260
847.158	3180
847.294	3222
847.429	3249
847.565	3256
847.701	3530
847.837	3081
847.972	3001
848.108	3230
848.244	3127
848.379	3020
848.515	2979
848.65	2990
848.786	2998
848.921	3070
849.057	3127
849.192	3188
849.328	3127
849.463	3150
849.598	3074
849.734	3081
849.869	2975
850.004	2952
850.14	3032
850.275	2948
850.41	2864
850.545	2922
850.68	2963
850.815	3009
850.95	2986
851.085	3222
851.22	3154
851.355	3066
851.49	2986
851.625	3017
851.76	3001
851.895	2990
852.03	2952
852.165	3051
852.299	3173
852.434	3176
852.569	3176
852.703	3173
852.838	3264
852.973	3355
853.107	3431
853.242	3203
853.376	3131
853.511	3005
853.645	3058
853.78	3222
853.914	3146
854.048	3135
854.183	3093
854.317	3188
854.451	3351
854.585	3127
854.72	3135
854.854	3226
854.988	3070
855.122	3097
855.256	3024
855.39	3154
855.524	3226
855.658	3230
855.792	3176
855.926	3226
856.06	3233
856.194	3291
856.327	3161
856.461	3085
856.595	3131
856.729	3089
856.862	3222
856.996	3188
857.13	3226
857.263	3256
857.397	3275
857.53	3138
857.664	3230
857.797	3245
857.931	3291
858.064	3169
858.197	3275
858.331	3161
858.464	3108
858.597	3081
858.731	3131
858.864	3165
858.997	3104
859.13	3207
859.263	3211
859.396	3214
859.529	3119
859.662	3097
859.795	3062
859.928	3157
860.061	3313
860.194	3306
860.327	3173
860.46	3119
860.592	3291
860.725	3237
860.858	3272
860.99	3112
861.123	3055
861.256	3062
861.388	3180
861.521	3724
861.653	3043
861.786	3001
861.918	2979
862.05	3104
862.183	3089
862.315	3173
862.447	3211
862.58	3165
862.712	2956
862.844	2891
862.976	3039
863.108	2971
863.24	3420
863.372	2883
863.504	3013
863.636	3005
863.768	3074
863.9	3009
864.032	2902
864.164	2941
864.296	3009
864.428	3123
864.559	3085
864.691	3055
864.823	3085
864.954	3070
865.086	3062
865.217	3017
865.349	2963
865.48	3017
865.612	3001
865.743	3165
865.875	3024
866.006	2971
866.137	2982
866.269	2998
866.4	3005
866.531	2956
866.662	2883
866.793	2902
866.924	2944
867.055	3001
867.186	2952
867.317	2906
867.448	2853
867.579	2823
867.71	2857
867.841	2857
867.972	2937
868.103	2933
868.233	2929
868.364	2914
868.495	2914
868.625	3135
868.756	3173
868.886	2971
869.017	3039
869.147	3157
869.278	3184
869.408	3051
869.539	3043
869.669	3150
869.799	3043
869.929	3146
870.06	3131
870.19	3351
870.32	3313
870.45	3283
870.58	3374
870.71	3443
870.84	3477
870.97	3279
871.1	3260
871.23	3526
871.36	3496
871.489	3370
871.619	3397
871.749	3435
871.879	3431
872.008	3542
872.138	3412
872.267	3302
872.397	3233
872.526	3131
872.656	3055
872.785	3116
872.915	3275
873.044	3348
873.173	3253
873.303	3291
873.432	3237
873.561	3253
873.69	3195
873.819	3157
873.948	3211
874.077	3112
874.206	3081
874.335	3108
874.464	3256
874.593	3409
874.722	3253
874.851	3378
874.979	3367
875.108	3367
875.237	3207
875.365	3214
875.494	3169
875.623	3298
875.751	3089
875.88	3131
876.008	3169
876.136	3260
876.265	3382
876.393	3530
876.521	3439
876.65	3401
876.778	3348
876.906	3260
877.034	3188
877.162	3249
877.29	3195
877.418	3291
877.546	3268
877.674	3260
877.802	3272
877.93	3233
878.058	3176
878.185	3127
878.313	3230
878.441	3241
878.568	3058
878.696	3161
878.824	3245
878.951	3294
879.079	3488
879.206	3644
879.333	3458
879.461	3348
879.588	3397
879.715	3519
879.842	3618
879.97	3401
880.097	3180
880.224	3173
880.351	3184
880.478	3237
880.605	3192
880.732	3195
880.859	3473
880.986	3302
881.112	3313
881.239	3237
881.366	3116
881.493	3036
881.619	3070
881.746	3085
881.872	3089
881.999	3100
882.125	3135
882.252	3268
882.378	3298
882.505	3435
882.631	3275
882.757	3161
882.883	3241
883.01	3218
883.136	3165
883.262	3104
883.388	3123
883.514	3370
883.64	3382
883.766	3306
883.892	3180
884.018	3256
884.143	3393
884.269	3507
884.395	3218
884.52	3176
884.646	3173
884.772	3142
884.897	3157
885.023	3245
885.148	3382
885.274	3382
885.399	3374
885.524	3302
885.65	3321
885.775	3367
885.9	3310
886.025	3454
886.15	3374
886.275	3336
886.4	3233
886.525	3329
886.65	3287
886.775	3275
886.9	3519
887.025	3641
887.149	3424
887.274	3249
887.399	3184
887.523	3222
887.648	3222
887.773	3237
887.897	3393
888.021	3405
888.146	3313
888.27	3447
888.395	3553
888.519	3435
888.643	3435
888.767	3443
888.891	3302
889.015	3233
889.139	3302
889.263	3241
889.387	3447
889.511	3511
889.635	3485
889.759	3313
889.883	3306
890.006	3386
890.13	3481
890.254	3256
890.377	3340
890.501	3230
890.624	3184
890.748	3313
890.871	3169
890.995	3104
891.118	3085
891.241	3218
891.364	3241
891.488	3310
891.611	3180
891.734	3294
891.857	3275
891.98	3230
892.103	3378
892.226	3321
892.349	3233
892.471	3150
892.594	3272
892.717	3291
892.839	3272
892.962	3310
893.085	3355
893.207	3302
893.33	3180
893.452	3180
893.575	3367
893.697	3279
893.819	3443
893.941	3576
894.064	3428
894.186	3298
894.308	3268
894.43	3450
894.552	3580
894.674	3477
894.796	3302
894.918	3298
895.04	3264
895.161	3458
895.283	3367
895.405	3321
895.526	3393
895.648	3458
895.769	3416
895.891	3439
896.012	3473
896.134	3439
896.255	3424
896.376	3412
896.498	3401
896.619	3454
896.74	3393
896.861	3439
896.982	3648
897.103	3838
897.224	3580
897.345	3485
897.466	3420
897.587	3492
897.708	3603
897.828	3549
897.949	3473
898.07	3359
898.19	3409
898.311	3568
898.431	3485
898.552	3466
898.672	3557
898.792	3614
898.913	3526
899.033	3469
899.153	3340
899.273	3195
899.393	3313
899.513	3332
899.633	3325
899.753	3363
899.873	3298
899.993	3420
900.113	3378
900.232	3401
900.352	3351
900.472	3249
900.591	3233
900.711	3317
900.83	3241
900.95	3416
901.069	3507
901.189	3355
901.308	3173
901.427	3138
901.546	3211
901.665	3348
901.784	3329
901.904	3226
902.023	3138
902.141	2967
902.26	3001
902.379	3104
902.498	3066
902.617	3062
902.735	3157
902.854	3222
902.973	3207
903.091	3062
903.21	3062
903.328	3180
903.446	3150
903.565	3081
903.683	3203
903.801	3138
903.919	3233
904.038	3291
904.156	3173
904.274	3294
904.392	3253
904.51	3302
904.627	3329
904.745	3447
904.863	3466
904.981	3233
905.098	3184
905.216	3283
905.334	3329
905.451	3298
905.569	3321
905.686	3416
905.803	3458
905.921	3260
906.038	3439
906.155	3351
906.272	3302
906.389	3340
906.506	3245
906.623	3294
906.74	3264
906.857	3184
906.974	3275
907.091	3462
907.208	3572
907.324	3504
907.441	3370
907.557	3260
907.674	3222
907.79	3195
907.907	3310
908.023	3401
908.139	3389
908.256	3336
908.372	3370
908.488	3416
908.604	3264
908.72	3264
908.836	3310
908.952	3272
909.068	3336
909.184	3431
909.3	3389
909.415	3473
909.531	3477
909.647	3294
909.762	3321
909.878	3275
909.993	3363
910.108	3359
910.224	3374
910.339	3431
910.454	3298
910.57	3287
910.685	3230
910.8	3599
910.915	3568
911.03	3424
911.145	3245
911.259	3310
911.374	3283
911.489	3230
911.604	3222
911.718	3093
911.833	3173
911.947	3024
912.062	2982
912.176	3199
912.291	3230
912.405	3188
912.519	3412
912.633	3416
912.748	3351
912.862	3302
912.976	3173
913.09	3093
913.204	3150
913.318	3214
913.431	3317
913.545	3348
913.659	3447
913.772	3340
913.886	3214
914	3195
914.113	3367
914.226	3416
914.34	3382
914.453	3237
914.566	3454
914.68	3298
914.793	3294
914.906	3150
915.019	3093
915.132	3081
915.245	3195
915.358	3203
915.47	3203
915.583	3260
915.696	3268
915.809	3431
915.921	3412
916.034	3253
916.146	3245
916.259	3207
916.371	3359
916.483	3317
916.595	3268
916.708	3359
916.82	3294
916.932	3359
917.044	3325
917.156	3351
917.268	3256
917.38	3306
917.491	3268
917.603	3378
917.715	3477
917.826	3511
917.938	3397
918.049	3253
918.161	3439
918.272	3576
918.384	3523
918.495	3485
918.606	3283
918.717	3298
918.828	3382
918.939	3412
919.05	3272
919.161	3378
919.272	3188
919.383	3279
919.494	3492
919.604	3690
919.715	3462
919.826	3367
919.936	3477
920.047	3584
920.157	3561
920.267	3762
920.378	3614
920.488	3568
920.598	3793
920.708	3994
920.818	3827
920.928	3831
921.038	4032
921.148	4010
921.258	3709
921.368	3675
921.477	3576
921.587	3545
921.697	3450
921.806	3656
921.916	3538
922.025	3313
922.134	3336
922.244	3313
922.353	3409
922.462	3260
922.571	3226
922.68	3123
922.789	3066
922.898	3112
923.007	3089
923.116	3233
923.224	3161
923.333	3169
923.442	3116
923.55	3108
923.659	3119
923.767	3176
923.876	3089
923.984	3230
924.092	3127
924.201	3207
924.309	3226
924.417	3245
924.525	3176
924.633	3233
924.741	4013
924.849	3066
924.956	3260
925.064	3074
925.172	3028
925.279	3085
925.387	3188
925.494	3226
925.602	3351
925.709	3359
925.816	3165
925.924	3287
926.031	3332
926.138	3313
926.245	3321
926.352	3211
926.459	3370
926.566	3462
926.673	3306
926.779	3256
926.886	3245
926.993	3150
927.099	3127
927.206	3093
927.312	3100
927.419	3237
927.525	3188
927.631	3268
927.737	3093
927.843	3108
927.95	3032
928.056	3127
928.162	3180
928.267	3260
928.373	3766
928.479	3306
928.585	3077
928.69	3222
928.796	3245
928.901	3138
929.007	3017
929.112	3176
929.218	3176
929.323	3154
929.428	3135
929.533	3298
929.638	3123
929.743	3138
929.848	3260
929.953	3218
930.058	3176
930.163	2956
930.267	3036
930.372	3154
930.477	3017
930.581	3306
930.685	3207
930.79	3051
930.894	3119
930.998	3123
931.103	3268
931.207	2998
931.311	2952
931.415	2933
931.519	2739
931.623	2819
