Data from test_V78500241_1233.txt Node
Date: Fri Mar 25 16:23:44 CST 2022
User: usil
Spectrometer: V785-0024
Trigger mode: 0
Integration Time (sec): 4.000000E-1
Scans to average: 1
Nonlinearity correction enabled: false
Boxcar width: 0
Storing dark spectrum: false
XAxis mode: Wavelengths
Number of Pixels in Spectrum: 1024
>>>>>Begin Spectral Data<<<<<
801.071	2906
801.214	2956
801.356	2895
801.499	2899
801.641	2834
801.783	2868
801.926	3013
802.068	3005
802.211	2982
802.353	3051
802.496	2944
802.638	3009
802.78	3036
802.923	3081
803.065	3043
803.208	2872
803.35	2925
803.492	2971
803.635	2922
803.777	2800
803.919	2811
804.061	3188
804.204	2937
804.346	2910
804.488	2830
804.63	2963
804.773	2861
804.915	2883
805.057	3047
805.199	2941
805.341	2937
805.483	3017
805.626	2982
805.768	2914
805.91	3089
806.052	3089
806.194	3039
806.336	3222
806.478	2990
806.62	2937
806.762	3036
806.904	3028
807.046	3146
807.188	2944
807.33	2929
807.472	2941
807.614	2895
807.756	2963
807.898	2929
808.04	2883
808.182	2952
808.324	2925
808.465	2902
808.607	2891
808.749	2811
808.891	2842
809.033	2944
809.174	2948
809.316	2906
809.458	2895
809.6	2766
809.741	2758
809.883	2788
810.025	2849
810.166	2842
810.308	2849
810.45	2861
810.591	2792
810.733	2735
810.875	2807
811.016	2800
811.158	2750
811.299	2811
811.441	2929
811.582	2880
811.724	2861
811.865	2796
812.007	2914
812.148	2887
812.29	2838
812.431	2899
812.573	2937
812.714	2956
812.855	3039
812.997	3081
813.138	3108
813.279	2990
813.421	2998
813.562	2956
813.703	2838
813.845	2880
813.986	2777
814.127	2727
814.268	2796
814.41	2845
814.551	2800
814.692	2842
814.833	2823
814.974	2891
815.115	2948
815.256	2815
815.397	2804
815.539	2857
815.68	2781
815.821	2785
815.962	2902
816.103	2906
816.244	2883
816.385	2872
816.526	2963
816.666	2891
816.807	2720
816.948	2887
817.089	2891
817.23	2895
817.371	2758
817.512	2785
817.653	2819
817.793	2796
817.934	2853
818.075	2975
818.216	2952
818.356	3036
818.497	2857
818.638	2811
818.778	2819
818.919	2830
819.06	2739
819.2	2868
819.341	2777
819.481	2766
819.622	2914
819.762	3097
819.903	3055
820.043	2891
820.184	2910
820.324	2853
820.465	3001
820.605	3043
820.746	3028
820.886	2922
821.026	3089
821.167	3169
821.307	3264
821.447	3287
821.588	3218
821.728	3176
821.868	3184
822.008	3074
822.149	3173
822.289	3222
822.429	3100
822.569	3047
822.709	3146
822.849	3020
822.99	3028
823.13	3146
823.27	3188
823.41	3081
823.55	3157
823.69	3173
823.83	3199
823.97	3085
824.11	3001
824.25	2990
824.389	3032
824.529	3100
824.669	3066
824.809	3199
824.949	3241
825.089	3203
825.228	3169
825.368	2971
825.508	2929
825.648	2963
825.787	3024
825.927	2975
826.067	2952
826.206	2952
826.346	3017
826.485	3070
826.625	3104
826.765	3245
826.904	3226
827.044	2994
827.183	2967
827.323	2845
827.462	2998
827.601	2914
827.741	2895
827.88	2952
828.02	2845
828.159	2967
828.298	3024
828.437	3036
828.577	3047
828.716	3211
828.855	3066
828.994	2918
829.134	2895
829.273	2925
829.412	2861
829.551	2853
829.69	2861
829.829	2944
829.968	3157
830.107	3009
830.246	3047
830.385	2891
830.524	2853
830.663	2830
830.802	2727
830.941	2632
831.08	2659
831.219	2735
831.357	2727
831.496	2933
831.635	2724
831.774	2621
831.913	2670
832.051	2545
832.19	2564
832.329	2670
832.467	2545
832.606	2488
832.744	2575
832.883	2545
833.022	2587
833.16	2625
833.299	2670
833.437	2739
833.576	2697
833.714	2716
833.852	2731
833.991	2769
834.129	2804
834.267	2845
834.406	2781
834.544	2853
834.682	2838
834.821	2872
834.959	3081
835.097	2902
835.235	3074
835.373	3013
835.511	3032
835.65	2952
835.788	2963
835.926	2811
836.064	2815
836.202	2800
836.34	3070
836.478	3131
836.615	3024
836.753	3157
836.891	3180
837.029	3161
837.167	3093
837.305	3062
837.443	3024
837.58	2998
837.718	3100
837.856	3043
837.993	3020
838.131	3097
838.269	3089
838.406	3123
838.544	3093
838.681	2895
838.819	2883
838.956	2823
839.094	2819
839.231	2937
839.369	3017
839.506	3401
839.643	3180
839.781	3020
839.918	2914
840.055	3055
840.193	3039
840.33	3043
840.467	3097
840.604	3123
840.742	3382
840.879	3013
841.016	3009
841.153	3097
841.29	3306
841.427	3272
841.564	3275
841.701	3253
841.838	3199
841.975	3184
842.112	3176
842.249	3066
842.385	3028
842.522	3275
842.659	3100
842.796	3047
842.933	3051
843.069	3055
843.206	3039
843.343	3176
843.479	3081
843.616	3142
843.752	2849
843.889	2853
844.025	3097
844.162	2891
844.298	3089
844.435	2933
844.571	2899
844.708	3085
844.844	3176
844.98	3214
845.117	3199
845.253	3020
845.389	2990
845.525	3077
845.661	3104
845.798	2998
845.934	3116
846.07	3032
846.206	3192
846.342	3294
846.478	3237
846.614	3058
846.75	3047
846.886	3005
847.022	3222
847.158	3100
847.294	3188
847.429	3188
847.565	3195
847.701	3488
847.837	3036
847.972	2990
848.108	3203
848.244	3093
848.379	2975
848.515	2944
848.65	2937
848.786	2937
848.921	3001
849.057	3093
849.192	3146
849.328	3062
849.463	3077
849.598	3036
849.734	3005
849.869	2975
850.004	2910
850.14	2948
850.275	2906
850.41	2845
850.545	2857
850.68	2960
850.815	2948
850.95	2956
851.085	3203
851.22	3119
851.355	3017
851.49	2956
851.625	2982
851.76	2990
851.895	2910
852.03	2895
852.165	3017
852.299	3089
852.434	3146
852.569	3142
852.703	3157
852.838	3211
852.973	3359
853.107	3298
853.242	3142
853.376	3100
853.511	2990
853.645	3062
853.78	3192
853.914	3093
854.048	3070
854.183	3108
854.317	3138
854.451	3283
854.585	3116
854.72	3047
854.854	3207
854.988	3062
855.122	3077
855.256	2960
855.39	3085
855.524	3207
855.658	3188
855.792	3123
855.926	3176
856.06	3180
856.194	3253
856.327	3173
856.461	3081
856.595	3051
856.729	3058
856.862	3226
856.996	3165
857.13	3176
857.263	3222
857.397	3241
857.53	3127
857.664	3173
857.797	3226
857.931	3241
858.064	3138
858.197	3195
858.331	3157
858.464	3116
858.597	3009
858.731	3104
858.864	3138
858.997	3077
859.13	3150
859.263	3150
859.396	3237
859.529	3062
859.662	3085
859.795	3077
859.928	3100
860.061	3256
860.194	3249
860.327	3127
860.46	3097
860.592	3226
860.725	3268
860.858	3260
860.99	3093
861.123	3055
861.256	3089
861.388	3203
861.521	3671
861.653	2967
861.786	2982
861.918	3032
862.05	3051
862.183	3131
862.315	3154
862.447	3211
862.58	3039
862.712	2956
862.844	2849
862.976	3028
863.108	2960
863.24	3340
863.372	2891
863.504	2956
863.636	2922
863.768	3036
863.9	2948
864.032	2891
864.164	2937
864.296	3032
864.428	3077
864.559	3085
864.691	3062
864.823	3051
864.954	3055
865.086	3043
865.217	2979
865.349	2918
865.48	2975
865.612	3020
865.743	3131
865.875	2948
866.006	2933
866.137	2986
866.269	2941
866.4	2952
866.531	2937
866.662	2880
866.793	2872
866.924	2902
867.055	2960
867.186	2902
867.317	2876
867.448	2876
867.579	2857
867.71	2845
867.841	2838
867.972	2883
868.103	2895
868.233	2891
868.364	2883
868.495	2876
868.625	3070
868.756	3138
868.886	2986
869.017	2982
869.147	3116
869.278	3146
869.408	3062
869.539	3036
869.669	3081
869.799	3055
869.929	3135
870.06	3089
870.19	3329
870.32	3241
870.45	3306
870.58	3386
870.71	3420
870.84	3473
870.97	3268
871.1	3218
871.23	3519
871.36	3462
871.489	3367
871.619	3439
871.749	3370
871.879	3443
872.008	3443
872.138	3348
872.267	3321
872.397	3157
872.526	3089
872.656	3036
872.785	3093
872.915	3195
873.044	3272
873.173	3211
873.303	3245
873.432	3199
873.561	3253
873.69	3169
873.819	3116
873.948	3161
874.077	3058
874.206	3005
874.335	3074
874.464	3176
874.593	3336
874.722	3253
874.851	3409
874.979	3306
875.108	3344
875.237	3184
875.365	3180
875.494	3138
875.623	3272
875.751	3089
875.88	3104
876.008	3138
876.136	3207
876.265	3374
876.393	3488
876.521	3363
876.65	3386
876.778	3306
876.906	3249
877.034	3180
877.162	3237
877.29	3207
877.418	3241
877.546	3226
877.674	3233
877.802	3241
877.93	3260
878.058	3157
878.185	3131
878.313	3195
878.441	3165
878.568	3032
878.696	3150
878.824	3256
878.951	3313
879.079	3431
879.206	3641
879.333	3443
879.461	3363
879.588	3275
879.715	3492
879.842	3606
879.97	3397
880.097	3192
880.224	3116
880.351	3169
880.478	3199
880.605	3176
880.732	3192
880.859	3473
880.986	3294
881.112	3359
881.239	3188
881.366	3081
881.493	3039
881.619	3005
881.746	3100
881.872	3116
881.999	3093
882.125	3104
882.252	3256
882.378	3279
882.505	3447
882.631	3260
882.757	3142
882.883	3233
883.01	3207
883.136	3142
883.262	3085
883.388	3108
883.514	3287
883.64	3389
883.766	3268
883.892	3184
884.018	3241
884.143	3412
884.269	3530
884.395	3173
884.52	3157
884.646	3176
884.772	3089
884.897	3089
885.023	3214
885.148	3336
885.274	3420
885.399	3355
885.524	3294
885.65	3264
885.775	3332
885.9	3253
886.025	3466
886.15	3378
886.275	3298
886.4	3218
886.525	3294
886.65	3249
886.775	3264
886.9	3526
887.025	3618
887.149	3386
887.274	3268
887.399	3218
887.523	3154
887.648	3142
887.773	3173
887.897	3363
888.021	3393
888.146	3317
888.27	3416
888.395	3500
888.519	3428
888.643	3439
888.767	3416
888.891	3310
889.015	3222
889.139	3321
889.263	3260
889.387	3378
889.511	3488
889.635	3450
889.759	3313
889.883	3336
890.006	3382
890.13	3500
890.254	3245
890.377	3313
890.501	3207
890.624	3169
890.748	3291
890.871	3176
890.995	3112
891.118	3062
891.241	3135
891.364	3249
891.488	3291
891.611	3154
891.734	3195
891.857	3275
891.98	3214
892.103	3340
892.226	3245
892.349	3211
892.471	3142
892.594	3233
892.717	3264
892.839	3253
892.962	3287
893.085	3329
893.207	3272
893.33	3150
893.452	3180
893.575	3363
893.697	3230
893.819	3454
893.941	3454
894.064	3466
894.186	3256
894.308	3272
894.43	3428
894.552	3504
894.674	3485
894.796	3256
894.918	3306
895.04	3272
895.161	3431
895.283	3367
895.405	3256
895.526	3336
895.648	3416
895.769	3409
895.891	3443
896.012	3507
896.134	3443
896.255	3424
896.376	3340
896.498	3344
896.619	3439
896.74	3363
896.861	3412
896.982	3682
897.103	3850
897.224	3606
897.345	3530
897.466	3397
897.587	3477
897.708	3671
897.828	3523
897.949	3420
898.07	3298
898.19	3363
898.311	3576
898.431	3420
898.552	3477
898.672	3568
898.792	3542
898.913	3504
899.033	3405
899.153	3272
899.273	3199
899.393	3256
899.513	3332
899.633	3275
899.753	3329
899.873	3287
899.993	3367
900.113	3340
900.232	3401
900.352	3321
900.472	3268
900.591	3176
900.711	3291
900.83	3245
900.95	3367
901.069	3488
901.189	3355
901.308	3157
901.427	3123
901.546	3184
901.665	3260
901.784	3310
901.904	3192
902.023	3154
902.141	3032
902.26	3017
902.379	3100
902.498	3081
902.617	3039
902.735	3214
902.854	3230
902.973	3226
903.091	3066
903.21	3039
903.328	3150
903.446	3112
903.565	3081
903.683	3192
903.801	3131
903.919	3161
904.038	3302
904.156	3146
904.274	3256
904.392	3249
904.51	3283
904.627	3321
904.745	3466
904.863	3488
904.981	3272
905.098	3169
905.216	3207
905.334	3291
905.451	3306
905.569	3264
905.686	3409
905.803	3420
905.921	3279
906.038	3447
906.155	3351
906.272	3233
906.389	3344
906.506	3195
906.623	3253
906.74	3222
906.857	3192
906.974	3230
907.091	3450
907.208	3545
907.324	3431
907.441	3355
907.557	3211
907.674	3222
907.79	3233
907.907	3260
908.023	3367
908.139	3306
908.256	3329
908.372	3325
908.488	3344
908.604	3222
908.72	3230
908.836	3272
908.952	3256
909.068	3317
909.184	3511
909.3	3367
909.415	3496
909.531	3473
909.647	3264
909.762	3306
909.878	3268
909.993	3336
910.108	3340
910.224	3310
910.339	3367
910.454	3317
910.57	3294
910.685	3272
910.8	3542
910.915	3481
911.03	3458
911.145	3256
911.259	3245
911.374	3310
911.489	3249
911.604	3222
911.718	3112
911.833	3142
911.947	2994
912.062	2975
912.176	3169
912.291	3211
912.405	3241
912.519	3389
912.633	3481
912.748	3340
912.862	3291
912.976	3161
913.09	3047
913.204	3176
913.318	3184
913.431	3310
913.545	3325
913.659	3389
913.772	3355
913.886	3214
914	3176
914.113	3348
914.226	3439
914.34	3363
914.453	3241
914.566	3412
914.68	3222
914.793	3291
914.906	3161
915.019	3108
915.132	3077
915.245	3169
915.358	3180
915.47	3230
915.583	3264
915.696	3275
915.809	3424
915.921	3393
916.034	3218
916.146	3256
916.259	3195
916.371	3332
916.483	3367
916.595	3260
916.708	3355
916.82	3329
916.932	3298
917.044	3332
917.156	3344
917.268	3237
917.38	3313
917.491	3279
917.603	3363
917.715	3424
917.826	3420
917.938	3389
918.049	3249
918.161	3401
918.272	3553
918.384	3599
918.495	3469
918.606	3336
918.717	3283
918.828	3382
918.939	3397
919.05	3275
919.161	3389
919.272	3192
919.383	3233
919.494	3488
919.604	3705
919.715	3496
919.826	3401
919.936	3420
920.047	3568
920.157	3526
920.267	3785
920.378	3603
920.488	3580
920.598	3747
920.708	3960
920.818	3857
920.928	3861
921.038	4044
921.148	3983
921.258	3701
921.368	3637
921.477	3561
921.587	3542
921.697	3412
921.806	3633
921.916	3500
922.025	3332
922.134	3332
922.244	3302
922.353	3401
922.462	3272
922.571	3218
922.68	3055
922.789	3074
922.898	3116
923.007	3131
923.116	3218
923.224	3150
923.333	3192
923.442	3077
923.55	3116
923.659	3142
923.767	3245
923.876	3081
923.984	3241
924.092	3097
924.201	3180
924.309	3192
924.417	3249
924.525	3203
924.633	3199
924.741	4051
924.849	3070
924.956	3264
925.064	3055
925.172	3024
925.279	3108
925.387	3184
925.494	3165
925.602	3321
925.709	3336
925.816	3203
925.924	3275
926.031	3370
926.138	3298
926.245	3363
926.352	3268
926.459	3405
926.566	3447
926.673	3298
926.779	3218
926.886	3256
926.993	3180
927.099	3100
927.206	3085
927.312	3089
927.419	3207
927.525	3233
927.631	3249
927.737	3123
927.843	3108
927.95	3028
928.056	3142
928.162	3138
928.267	3249
928.373	3819
928.479	3264
928.585	3062
928.69	3203
928.796	3260
928.901	3157
929.007	3043
929.112	3218
929.218	3142
929.323	3135
929.428	3131
929.533	3325
929.638	3108
929.743	3116
929.848	3218
929.953	3199
930.058	3119
930.163	2998
930.267	3039
930.372	3176
930.477	3051
930.581	3310
930.685	3184
930.79	3077
930.894	3131
930.998	3108
931.103	3325
931.207	2937
931.311	2948
931.415	2906
931.519	2766
931.623	2804
