Data from test_V78500241_1560.txt Node
Date: Fri Mar 25 16:26:00 CST 2022
User: usil
Spectrometer: V785-0024
Trigger mode: 0
Integration Time (sec): 4.000000E-1
Scans to average: 1
Nonlinearity correction enabled: false
Boxcar width: 0
Storing dark spectrum: false
XAxis mode: Wavelengths
Number of Pixels in Spectrum: 1024
>>>>>Begin Spectral Data<<<<<
801.071	2922
801.214	2967
801.356	2883
801.499	2914
801.641	2876
801.783	2914
801.926	3036
802.068	3024
802.211	3001
802.353	3017
802.496	2933
802.638	3028
802.78	3055
802.923	3077
803.065	3013
803.208	2899
803.35	2963
803.492	2918
803.635	2895
803.777	2746
803.919	2834
804.061	3188
804.204	2914
804.346	2933
804.488	2819
804.63	2994
804.773	2823
804.915	2914
805.057	3058
805.199	2899
805.341	2967
805.483	3032
805.626	2994
805.768	2967
805.91	3089
806.052	3097
806.194	2994
806.336	3207
806.478	3070
806.62	2956
806.762	2944
806.904	3017
807.046	3169
807.188	2998
807.33	2902
807.472	2971
807.614	2918
807.756	2994
807.898	2922
808.04	2872
808.182	2990
808.324	2971
808.465	2864
808.607	2872
808.749	2811
808.891	2868
809.033	2952
809.174	2956
809.316	2883
809.458	2887
809.6	2781
809.741	2777
809.883	2781
810.025	2861
810.166	2849
810.308	2807
810.45	2895
810.591	2781
810.733	2785
810.875	2845
811.016	2777
811.158	2758
811.299	2781
811.441	2925
811.582	2902
811.724	2796
811.865	2842
812.007	2899
812.148	2868
812.29	2849
812.431	2872
812.573	2933
812.714	2937
812.855	3024
812.997	3047
813.138	3097
813.279	2967
813.421	2982
813.562	2948
813.703	2910
813.845	2868
813.986	2766
814.127	2724
814.268	2819
814.41	2826
814.551	2785
814.692	2899
814.833	2830
814.974	2899
815.115	2960
815.256	2853
815.397	2830
815.539	2864
815.68	2811
815.821	2819
815.962	2937
816.103	2944
816.244	2887
816.385	2853
816.526	2944
816.666	2902
816.807	2766
816.948	2868
817.089	2891
817.23	2883
817.371	2792
817.512	2785
817.653	2815
817.793	2819
817.934	2868
818.075	2937
818.216	2971
818.356	2990
818.497	2895
818.638	2777
818.778	2807
818.919	2807
819.06	2773
819.2	2925
819.341	2777
819.481	2807
819.622	2887
819.762	3093
819.903	3051
820.043	2895
820.184	2891
820.324	2853
820.465	3001
820.605	3043
820.746	3020
820.886	2925
821.026	3055
821.167	3154
821.307	3283
821.447	3287
821.588	3249
821.728	3203
821.868	3176
822.008	3047
822.149	3138
822.289	3241
822.429	3093
822.569	3047
822.709	3154
822.849	3009
822.99	3077
823.13	3165
823.27	3195
823.41	3161
823.55	3127
823.69	3146
823.83	3192
823.97	3043
824.11	2990
824.25	3005
824.389	3055
824.529	3093
824.669	3043
824.809	3233
824.949	3260
825.089	3226
825.228	3165
825.368	3005
825.508	2982
825.648	2941
825.787	2994
825.927	3020
826.067	2971
826.206	2937
826.346	3047
826.485	3074
826.625	3104
826.765	3268
826.904	3222
827.044	2998
827.183	2925
827.323	2861
827.462	3001
827.601	2914
827.741	2922
827.88	2914
828.02	2838
828.159	2975
828.298	2994
828.437	3104
828.577	2994
828.716	3256
828.855	3093
828.994	2918
829.134	2842
829.273	2910
829.412	2842
829.551	2842
829.69	2918
829.829	2986
829.968	3127
830.107	2994
830.246	2986
830.385	2925
830.524	2872
830.663	2815
830.802	2750
830.941	2648
831.08	2663
831.219	2781
831.357	2750
831.496	2967
831.635	2705
831.774	2648
831.913	2621
832.051	2507
832.19	2545
832.329	2674
832.467	2537
832.606	2484
832.744	2594
832.883	2560
833.022	2613
833.16	2621
833.299	2689
833.437	2708
833.576	2663
833.714	2720
833.852	2727
833.991	2769
834.129	2853
834.267	2826
834.406	2842
834.544	2853
834.682	2845
834.821	2891
834.959	3066
835.097	2891
835.235	3039
835.373	2990
835.511	3043
835.65	2982
835.788	2979
835.926	2830
836.064	2796
836.202	2883
836.34	3089
836.478	3100
836.615	3051
836.753	3116
836.891	3199
837.029	3169
837.167	3070
837.305	3017
837.443	3028
837.58	2956
837.718	3097
837.856	3085
837.993	3009
838.131	3116
838.269	3093
838.406	3089
838.544	3066
838.681	2960
838.819	2925
838.956	2815
839.094	2823
839.231	2925
839.369	2998
839.506	3344
839.643	3199
839.781	3009
839.918	2933
840.055	3043
840.193	3066
840.33	3070
840.467	3104
840.604	3157
840.742	3405
840.879	3081
841.016	3024
841.153	3100
841.29	3367
841.427	3272
841.564	3275
841.701	3325
841.838	3226
841.975	3180
842.112	3165
842.249	3089
842.385	3043
842.522	3230
842.659	3108
842.796	3055
842.933	3108
843.069	3005
843.206	3028
843.343	3146
843.479	3142
843.616	3119
843.752	2902
843.889	2868
844.025	3058
844.162	2899
844.298	3089
844.435	2944
844.571	2941
844.708	3085
844.844	3180
844.98	3230
845.117	3188
845.253	3020
845.389	3001
845.525	3127
845.661	3104
845.798	3013
845.934	3066
846.07	3058
846.206	3256
846.342	3348
846.478	3241
846.614	3036
846.75	3047
846.886	2998
847.022	3237
847.158	3116
847.294	3214
847.429	3237
847.565	3222
847.701	3485
847.837	3055
847.972	2998
848.108	3146
848.244	3119
848.379	2994
848.515	2948
848.65	2922
848.786	2956
848.921	3001
849.057	3097
849.192	3119
849.328	3085
849.463	3108
849.598	3047
849.734	3024
849.869	2998
850.004	2914
850.14	2948
850.275	2910
850.41	2845
850.545	2811
850.68	2895
850.815	2948
850.95	2944
851.085	3176
851.22	3070
851.355	3020
851.49	2975
851.625	2990
851.76	3009
851.895	2914
852.03	2914
852.165	3024
852.299	3108
852.434	3176
852.569	3135
852.703	3150
852.838	3268
852.973	3344
853.107	3325
853.242	3108
853.376	3108
853.511	2952
853.645	3062
853.78	3214
853.914	3165
854.048	3089
854.183	3066
854.317	3112
854.451	3291
854.585	3142
854.72	3116
854.854	3203
854.988	3028
855.122	3058
855.256	2952
855.39	3116
855.524	3245
855.658	3165
855.792	3104
855.926	3184
856.06	3218
856.194	3256
856.327	3169
856.461	3036
856.595	3051
856.729	3104
856.862	3195
856.996	3199
857.13	3188
857.263	3233
857.397	3275
857.53	3123
857.664	3195
857.797	3245
857.931	3256
858.064	3161
858.197	3203
858.331	3123
858.464	3104
858.597	3013
858.731	3074
858.864	3131
858.997	3039
859.13	3157
859.263	3146
859.396	3192
859.529	3108
859.662	3077
859.795	3043
859.928	3154
860.061	3291
860.194	3287
860.327	3108
860.46	3066
860.592	3272
860.725	3272
860.858	3253
860.99	3093
861.123	3043
861.256	3070
861.388	3161
861.521	3854
861.653	3047
861.786	3001
861.918	3043
862.05	3032
862.183	3058
862.315	3116
862.447	3188
862.58	3108
862.712	2929
862.844	2880
862.976	2982
863.108	3005
863.24	3268
863.372	2887
863.504	2933
863.636	2948
863.768	3032
863.9	3013
864.032	2933
864.164	2902
864.296	3047
864.428	3100
864.559	3085
864.691	3081
864.823	3062
864.954	3043
865.086	3032
865.217	2948
865.349	2918
865.48	2956
865.612	3028
865.743	3108
865.875	3001
866.006	2952
866.137	2979
866.269	2933
866.4	2925
866.531	2910
866.662	2880
866.793	2857
866.924	2880
867.055	3017
867.186	2948
867.317	2880
867.448	2887
867.579	2834
867.71	2849
867.841	2804
867.972	2868
868.103	2922
868.233	2883
868.364	2849
868.495	2914
868.625	3100
868.756	3142
868.886	2975
869.017	3036
869.147	3157
869.278	3131
869.408	3066
869.539	3043
869.669	3112
869.799	3032
869.929	3116
870.06	3116
870.19	3329
870.32	3306
870.45	3291
870.58	3389
870.71	3439
870.84	3420
870.97	3264
871.1	3260
871.23	3473
871.36	3435
871.489	3336
871.619	3397
871.749	3378
871.879	3454
872.008	3481
872.138	3310
872.267	3279
872.397	3116
872.526	3104
872.656	3001
872.785	3112
872.915	3199
873.044	3264
873.173	3207
873.303	3279
873.432	3218
873.561	3207
873.69	3138
873.819	3142
873.948	3233
874.077	3081
874.206	3028
874.335	3116
874.464	3199
874.593	3340
874.722	3249
874.851	3359
874.979	3348
875.108	3310
875.237	3184
875.365	3165
875.494	3146
875.623	3249
875.751	3081
875.88	3108
876.008	3173
876.136	3222
876.265	3405
876.393	3507
876.521	3386
876.65	3386
876.778	3344
876.906	3253
877.034	3214
877.162	3180
877.29	3188
877.418	3241
877.546	3249
877.674	3253
877.802	3256
877.93	3184
878.058	3146
878.185	3146
878.313	3233
878.441	3233
878.568	3066
878.696	3150
878.824	3287
878.951	3294
879.079	3454
879.206	3671
879.333	3443
879.461	3332
879.588	3325
879.715	3454
879.842	3629
879.97	3359
880.097	3165
880.224	3135
880.351	3176
880.478	3211
880.605	3169
880.732	3207
880.859	3473
880.986	3272
881.112	3313
881.239	3180
881.366	3055
881.493	2979
881.619	3039
881.746	3070
881.872	3028
881.999	3081
882.125	3131
882.252	3222
882.378	3291
882.505	3420
882.631	3241
882.757	3142
882.883	3214
883.01	3192
883.136	3161
883.262	3062
883.388	3093
883.514	3325
883.64	3386
883.766	3313
883.892	3173
884.018	3253
884.143	3409
884.269	3523
884.395	3173
884.52	3161
884.646	3150
884.772	3104
884.897	3097
885.023	3188
885.148	3310
885.274	3351
885.399	3340
885.524	3279
885.65	3245
885.775	3332
885.9	3294
886.025	3428
886.15	3332
886.275	3325
886.4	3230
886.525	3279
886.65	3256
886.775	3291
886.9	3492
887.025	3637
887.149	3409
887.274	3291
887.399	3138
887.523	3203
887.648	3195
887.773	3230
887.897	3370
888.021	3412
888.146	3313
888.27	3424
888.395	3530
888.519	3439
888.643	3447
888.767	3500
888.891	3268
889.015	3218
889.139	3321
889.263	3245
889.387	3401
889.511	3523
889.635	3458
889.759	3249
889.883	3294
890.006	3389
890.13	3477
890.254	3283
890.377	3321
890.501	3184
890.624	3180
890.748	3275
890.871	3169
890.995	3116
891.118	3047
891.241	3207
891.364	3264
891.488	3325
891.611	3192
891.734	3226
891.857	3306
891.98	3188
892.103	3291
892.226	3279
892.349	3211
892.471	3154
892.594	3230
892.717	3272
892.839	3241
892.962	3268
893.085	3325
893.207	3317
893.33	3161
893.452	3199
893.575	3351
893.697	3249
893.819	3435
893.941	3504
894.064	3435
894.186	3287
894.308	3233
894.43	3435
894.552	3515
894.674	3428
894.796	3245
894.918	3313
895.04	3279
895.161	3405
895.283	3359
895.405	3275
895.526	3336
895.648	3416
895.769	3420
895.891	3439
896.012	3443
896.134	3450
896.255	3401
896.376	3393
896.498	3306
896.619	3428
896.74	3348
896.861	3409
896.982	3660
897.103	3800
897.224	3580
897.345	3485
897.466	3405
897.587	3523
897.708	3591
897.828	3519
897.949	3409
898.07	3340
898.19	3378
898.311	3637
898.431	3477
898.552	3469
898.672	3614
898.792	3557
898.913	3553
899.033	3420
899.153	3291
899.273	3230
899.393	3302
899.513	3306
899.633	3310
899.753	3367
899.873	3287
899.993	3370
900.113	3298
900.232	3378
900.352	3355
900.472	3272
900.591	3214
900.711	3291
900.83	3241
900.95	3401
901.069	3511
901.189	3329
901.308	3146
901.427	3135
901.546	3161
901.665	3245
901.784	3329
901.904	3188
902.023	3146
902.141	2967
902.26	2998
902.379	3142
902.498	3093
902.617	3032
902.735	3233
902.854	3245
902.973	3184
903.091	3062
903.21	3062
903.328	3127
903.446	3066
903.565	3066
903.683	3195
903.801	3119
903.919	3222
904.038	3264
904.156	3169
904.274	3264
904.392	3237
904.51	3298
904.627	3275
904.745	3481
904.863	3481
904.981	3264
905.098	3150
905.216	3211
905.334	3325
905.451	3294
905.569	3313
905.686	3412
905.803	3435
905.921	3253
906.038	3393
906.155	3359
906.272	3283
906.389	3336
906.506	3241
906.623	3218
906.74	3291
906.857	3135
906.974	3245
907.091	3435
907.208	3545
907.324	3481
907.441	3378
907.557	3245
907.674	3214
907.79	3173
907.907	3272
908.023	3382
908.139	3344
908.256	3310
908.372	3401
908.488	3355
908.604	3233
908.72	3241
908.836	3306
908.952	3253
909.068	3294
909.184	3488
909.3	3401
909.415	3477
909.531	3485
909.647	3256
909.762	3264
909.878	3230
909.993	3351
910.108	3291
910.224	3298
910.339	3401
910.454	3302
910.57	3279
910.685	3214
910.8	3572
910.915	3523
911.03	3439
911.145	3253
911.259	3264
911.374	3351
911.489	3260
911.604	3230
911.718	3127
911.833	3131
911.947	3005
912.062	2971
912.176	3173
912.291	3195
912.405	3203
912.519	3420
912.633	3454
912.748	3351
912.862	3256
912.976	3157
913.09	3047
913.204	3131
913.318	3192
913.431	3340
913.545	3310
913.659	3409
913.772	3340
913.886	3199
914	3173
914.113	3359
914.226	3420
914.34	3340
914.453	3218
914.566	3435
914.68	3241
914.793	3287
914.906	3104
915.019	3131
915.132	3013
915.245	3138
915.358	3192
915.47	3264
915.583	3233
915.696	3283
915.809	3401
915.921	3420
916.034	3241
916.146	3233
916.259	3211
916.371	3382
916.483	3340
916.595	3279
916.708	3374
916.82	3302
916.932	3291
917.044	3336
917.156	3283
917.268	3264
917.38	3306
917.491	3287
917.603	3332
917.715	3412
917.826	3431
917.938	3401
918.049	3253
918.161	3401
918.272	3564
918.384	3511
918.495	3462
918.606	3302
918.717	3275
918.828	3359
918.939	3374
919.05	3275
919.161	3340
919.272	3203
919.383	3253
919.494	3481
919.604	3637
919.715	3515
919.826	3405
919.936	3431
920.047	3587
920.157	3564
920.267	3774
920.378	3568
920.488	3526
920.598	3755
920.708	3987
920.818	3838
920.928	3831
921.038	4040
921.148	3956
921.258	3663
921.368	3622
921.477	3580
921.587	3507
921.697	3485
921.806	3648
921.916	3542
922.025	3363
922.134	3332
922.244	3317
922.353	3401
922.462	3287
922.571	3256
922.68	3123
922.789	3097
922.898	3184
923.007	3116
923.116	3279
923.224	3203
923.333	3211
923.442	3104
923.55	3123
923.659	3142
923.767	3275
923.876	3138
923.984	3283
924.092	3100
924.201	3249
924.309	3256
924.417	3260
924.525	3218
924.633	3237
924.741	4188
924.849	3100
924.956	3302
925.064	3157
925.172	3097
925.279	3154
925.387	3237
925.494	3253
925.602	3382
925.709	3393
925.816	3211
925.924	3298
926.031	3412
926.138	3405
926.245	3412
926.352	3268
926.459	3454
926.566	3530
926.673	3351
926.779	3283
926.886	3302
926.993	3237
927.099	3150
927.206	3207
927.312	3142
927.419	3245
927.525	3245
927.631	3340
927.737	3195
927.843	3161
927.95	3055
928.056	3192
928.162	3237
928.267	3294
928.373	3785
928.479	3370
928.585	3055
928.69	3230
928.796	3321
928.901	3241
929.007	3089
929.112	3306
929.218	3222
929.323	3188
929.428	3165
929.533	3374
929.638	3165
929.743	3188
929.848	3306
929.953	3294
930.058	3161
930.163	3047
930.267	3066
930.372	3260
930.477	3108
930.581	3382
930.685	3218
930.79	3112
930.894	3207
930.998	3131
931.103	3344
931.207	3009
931.311	2986
931.415	2960
931.519	2815
931.623	2864
