Data from test_V78500241_583.txt Node
Date: Fri Mar 25 16:19:14 CST 2022
User: usil
Spectrometer: V785-0024
Trigger mode: 0
Integration Time (sec): 4.000000E-1
Scans to average: 1
Nonlinearity correction enabled: false
Boxcar width: 0
Storing dark spectrum: false
XAxis mode: Wavelengths
Number of Pixels in Spectrum: 1024
>>>>>Begin Spectral Data<<<<<
801.071	2899
801.214	2952
801.356	2838
801.499	2872
801.641	2902
801.783	2906
801.926	3074
802.068	2975
802.211	2986
802.353	2990
802.496	2975
802.638	3005
802.78	3032
802.923	3112
803.065	2956
803.208	2906
803.35	2899
803.492	2925
803.635	2952
803.777	2739
803.919	2857
804.061	3184
804.204	2937
804.346	2906
804.488	2842
804.63	2979
804.773	2845
804.915	2902
805.057	3146
805.199	2906
805.341	2933
805.483	3028
805.626	3001
805.768	2952
805.91	3100
806.052	3104
806.194	2998
806.336	3230
806.478	3024
806.62	2960
806.762	2952
806.904	3066
807.046	3127
807.188	2967
807.33	2868
807.472	2998
807.614	2918
807.756	2979
807.898	2872
808.04	2906
808.182	2975
808.324	2933
808.465	2902
808.607	2899
808.749	2792
808.891	2838
809.033	2994
809.174	2975
809.316	2880
809.458	2918
809.6	2758
809.741	2788
809.883	2758
810.025	2830
810.166	2842
810.308	2811
810.45	2796
810.591	2754
810.733	2769
810.875	2819
811.016	2807
811.158	2769
811.299	2823
811.441	2883
811.582	2845
811.724	2838
811.865	2826
812.007	2868
812.148	2922
812.29	2861
812.431	2861
812.573	2914
812.714	2971
812.855	3028
812.997	3093
813.138	3104
813.279	3017
813.421	2998
813.562	2933
813.703	2864
813.845	2914
813.986	2766
814.127	2739
814.268	2807
814.41	2842
814.551	2785
814.692	2868
814.833	2830
814.974	2861
815.115	2899
815.256	2811
815.397	2807
815.539	2872
815.68	2731
815.821	2773
815.962	2933
816.103	2948
816.244	2887
816.385	2880
816.526	2979
816.666	2941
816.807	2762
816.948	2872
817.089	2922
817.23	2819
817.371	2781
817.512	2804
817.653	2823
817.793	2796
817.934	2899
818.075	2971
818.216	2998
818.356	3009
818.497	2899
818.638	2754
818.778	2807
818.919	2796
819.06	2727
819.2	2861
819.341	2800
819.481	2834
819.622	2914
819.762	3097
819.903	3039
820.043	2933
820.184	2895
820.324	2864
820.465	3013
820.605	3013
820.746	3013
820.886	2925
821.026	3112
821.167	3154
821.307	3214
821.447	3241
821.588	3237
821.728	3173
821.868	3222
822.008	3093
822.149	3169
822.289	3211
822.429	3100
822.569	3047
822.709	3146
822.849	3028
822.99	3070
823.13	3180
823.27	3195
823.41	3058
823.55	3165
823.69	3116
823.83	3146
823.97	3066
824.11	3001
824.25	2994
824.389	3055
824.529	3081
824.669	3070
824.809	3214
824.949	3253
825.089	3184
825.228	3146
825.368	2994
825.508	2941
825.648	2982
825.787	2994
825.927	3013
826.067	2979
826.206	2963
826.346	3005
826.485	3077
826.625	3070
826.765	3283
826.904	3207
827.044	2994
827.183	2948
827.323	2868
827.462	2956
827.601	2906
827.741	2918
827.88	2937
828.02	2868
828.159	2998
828.298	3024
828.437	3093
828.577	3017
828.716	3214
828.855	3089
828.994	2910
829.134	2880
829.273	2925
829.412	2883
829.551	2853
829.69	2876
829.829	2956
829.968	3135
830.107	2998
830.246	3032
830.385	2922
830.524	2887
830.663	2826
830.802	2724
830.941	2682
831.08	2667
831.219	2769
831.357	2739
831.496	2960
831.635	2712
831.774	2663
831.913	2670
832.051	2549
832.19	2579
832.329	2693
832.467	2530
832.606	2476
832.744	2579
832.883	2602
833.022	2579
833.16	2686
833.299	2667
833.437	2697
833.576	2686
833.714	2727
833.852	2716
833.991	2766
834.129	2830
834.267	2807
834.406	2762
834.544	2887
834.682	2899
834.821	2842
834.959	3043
835.097	2876
835.235	3081
835.373	2979
835.511	3028
835.65	2967
835.788	2925
835.926	2830
836.064	2773
836.202	2849
836.34	3074
836.478	3135
836.615	3032
836.753	3112
836.891	3195
837.029	3138
837.167	3097
837.305	3062
837.443	3074
837.58	2979
837.718	3116
837.856	3066
837.993	3032
838.131	3154
838.269	3085
838.406	3055
838.544	3055
838.681	2902
838.819	2906
838.956	2823
839.094	2815
839.231	2868
839.369	3017
839.506	3348
839.643	3207
839.781	3005
839.918	2971
840.055	3039
840.193	3032
840.33	3055
840.467	3116
840.604	3127
840.742	3374
840.879	3055
841.016	3062
841.153	3154
841.29	3348
841.427	3287
841.564	3279
841.701	3321
841.838	3176
841.975	3146
842.112	3180
842.249	3051
842.385	3017
842.522	3245
842.659	3058
842.796	3043
842.933	3112
843.069	3043
843.206	3039
843.343	3142
843.479	3089
843.616	3127
843.752	2899
843.889	2880
844.025	3066
844.162	2883
844.298	3081
844.435	2933
844.571	2876
844.708	3077
844.844	3192
844.98	3230
845.117	3192
845.253	3047
845.389	2982
845.525	3127
845.661	3089
845.798	3005
845.934	3104
846.07	3074
846.206	3203
846.342	3283
846.478	3211
846.614	3119
846.75	3032
846.886	3001
847.022	3241
847.158	3142
847.294	3176
847.429	3230
847.565	3207
847.701	3485
847.837	3009
847.972	3001
848.108	3195
848.244	3112
848.379	2982
848.515	2944
848.65	2891
848.786	2986
848.921	2986
849.057	3108
849.192	3161
849.328	3047
849.463	3085
849.598	3051
849.734	3066
849.869	2918
850.004	2925
850.14	3009
850.275	2895
850.41	2842
850.545	2830
850.68	2918
850.815	2914
850.95	2922
851.085	3199
851.22	3116
851.355	3005
851.49	2963
851.625	3009
851.76	2994
851.895	2929
852.03	2910
852.165	3024
852.299	3074
852.434	3207
852.569	3131
852.703	3154
852.838	3241
852.973	3344
853.107	3313
853.242	3097
853.376	3074
853.511	2990
853.645	3077
853.78	3214
853.914	3116
854.048	3058
854.183	3077
854.317	3142
854.451	3268
854.585	3066
854.72	3081
854.854	3195
854.988	3024
855.122	3074
855.256	2948
855.39	3131
855.524	3264
855.658	3180
855.792	3138
855.926	3192
856.06	3214
856.194	3264
856.327	3138
856.461	3074
856.595	3074
856.729	3085
856.862	3253
856.996	3138
857.13	3154
857.263	3253
857.397	3294
857.53	3131
857.664	3214
857.797	3233
857.931	3260
858.064	3184
858.197	3188
858.331	3135
858.464	3077
858.597	3005
858.731	3116
858.864	3146
858.997	3074
859.13	3157
859.263	3150
859.396	3192
859.529	3051
859.662	3077
859.795	3058
859.928	3138
860.061	3268
860.194	3283
860.327	3142
860.46	3112
860.592	3214
860.725	3237
860.858	3226
860.99	3108
861.123	3081
861.256	3074
861.388	3131
861.521	3705
861.653	3013
861.786	2963
861.918	2986
862.05	3081
862.183	3062
862.315	3135
862.447	3184
862.58	3093
862.712	2952
862.844	2823
862.976	3028
863.108	2986
863.24	3389
863.372	2849
863.504	3017
863.636	2956
863.768	3001
863.9	2956
864.032	2914
864.164	2922
864.296	3009
864.428	3047
864.559	3089
864.691	3066
864.823	3062
864.954	3005
865.086	3009
865.217	2998
865.349	2960
865.48	2994
865.612	3020
865.743	3150
865.875	2937
866.006	2967
866.137	2967
866.269	2963
866.4	2918
866.531	2895
866.662	2906
866.793	2853
866.924	2891
867.055	2971
867.186	2902
867.317	2868
867.448	2807
867.579	2842
867.71	2834
867.841	2834
867.972	2914
868.103	2899
868.233	2883
868.364	2845
868.495	2845
868.625	3066
868.756	3150
868.886	2944
869.017	2990
869.147	3169
869.278	3127
869.408	3024
869.539	3001
869.669	3081
869.799	3062
869.929	3131
870.06	3112
870.19	3310
870.32	3279
870.45	3291
870.58	3344
870.71	3420
870.84	3412
870.97	3253
871.1	3268
871.23	3485
871.36	3420
871.489	3325
871.619	3374
871.749	3397
871.879	3454
872.008	3481
872.138	3348
872.267	3253
872.397	3127
872.526	3085
872.656	2990
872.785	3089
872.915	3195
873.044	3321
873.173	3214
873.303	3230
873.432	3226
873.561	3226
873.69	3150
873.819	3116
873.948	3173
874.077	3157
874.206	3066
874.335	3043
874.464	3222
874.593	3359
874.722	3233
874.851	3351
874.979	3313
875.108	3306
875.237	3169
875.365	3165
875.494	3165
875.623	3211
875.751	3089
875.88	3104
876.008	3150
876.136	3199
876.265	3401
876.393	3500
876.521	3386
876.65	3424
876.778	3332
876.906	3222
877.034	3188
877.162	3241
877.29	3146
877.418	3214
877.546	3211
877.674	3249
877.802	3214
877.93	3214
878.058	3154
878.185	3100
878.313	3192
878.441	3207
878.568	3055
878.696	3161
878.824	3211
878.951	3275
879.079	3473
879.206	3587
879.333	3431
879.461	3317
879.588	3348
879.715	3488
879.842	3599
879.97	3389
880.097	3165
880.224	3104
880.351	3184
880.478	3214
880.605	3127
880.732	3165
880.859	3504
880.986	3310
881.112	3317
881.239	3192
881.366	3093
881.493	3047
881.619	3024
881.746	3036
881.872	3062
881.999	3070
882.125	3154
882.252	3207
882.378	3291
882.505	3401
882.631	3264
882.757	3176
882.883	3230
883.01	3211
883.136	3169
883.262	3089
883.388	3112
883.514	3302
883.64	3370
883.766	3317
883.892	3188
884.018	3245
884.143	3409
884.269	3500
884.395	3218
884.52	3157
884.646	3131
884.772	3119
884.897	3100
885.023	3241
885.148	3340
885.274	3428
885.399	3344
885.524	3256
885.65	3241
885.775	3325
885.9	3241
886.025	3416
886.15	3344
886.275	3321
886.4	3237
886.525	3317
886.65	3294
886.775	3275
886.9	3515
887.025	3595
887.149	3397
887.274	3268
887.399	3165
887.523	3199
887.648	3154
887.773	3211
887.897	3344
888.021	3431
888.146	3291
888.27	3439
888.395	3526
888.519	3447
888.643	3454
888.767	3450
888.891	3287
889.015	3230
889.139	3249
889.263	3241
889.387	3382
889.511	3538
889.635	3439
889.759	3268
889.883	3321
890.006	3416
890.13	3481
890.254	3272
890.377	3321
890.501	3199
890.624	3203
890.748	3279
890.871	3188
890.995	3104
891.118	3017
891.241	3192
891.364	3222
891.488	3329
891.611	3169
891.734	3226
891.857	3294
891.98	3256
892.103	3291
892.226	3256
892.349	3207
892.471	3116
892.594	3176
892.717	3302
892.839	3283
892.962	3249
893.085	3332
893.207	3306
893.33	3165
893.452	3226
893.575	3336
893.697	3260
893.819	3428
893.941	3454
894.064	3447
894.186	3222
894.308	3237
894.43	3397
894.552	3523
894.674	3473
894.796	3214
894.918	3272
895.04	3245
895.161	3420
895.283	3412
895.405	3310
895.526	3340
895.648	3409
895.769	3409
895.891	3485
896.012	3428
896.134	3447
896.255	3367
896.376	3351
896.498	3317
896.619	3435
896.74	3370
896.861	3424
896.982	3686
897.103	3846
897.224	3557
897.345	3511
897.466	3363
897.587	3454
897.708	3603
897.828	3511
897.949	3416
898.07	3321
898.19	3389
898.311	3584
898.431	3466
898.552	3523
898.672	3584
898.792	3561
898.913	3519
899.033	3401
899.153	3306
899.273	3184
899.393	3283
899.513	3325
899.633	3268
899.753	3329
899.873	3283
899.993	3412
900.113	3317
900.232	3416
900.352	3355
900.472	3264
900.591	3203
900.711	3302
900.83	3256
900.95	3378
901.069	3458
901.189	3332
901.308	3226
901.427	3093
901.546	3180
901.665	3272
901.784	3355
901.904	3180
902.023	3150
902.141	3013
902.26	3013
902.379	3131
902.498	3074
902.617	3055
902.735	3169
902.854	3195
902.973	3207
903.091	3055
903.21	3058
903.328	3119
903.446	3081
903.565	3089
903.683	3203
903.801	3150
903.919	3233
904.038	3272
904.156	3203
904.274	3279
904.392	3264
904.51	3313
904.627	3302
904.745	3435
904.863	3492
904.981	3233
905.098	3150
905.216	3211
905.334	3298
905.451	3310
905.569	3272
905.686	3355
905.803	3405
905.921	3294
906.038	3443
906.155	3283
906.272	3294
906.389	3344
906.506	3184
906.623	3249
906.74	3245
906.857	3180
906.974	3249
907.091	3454
907.208	3572
907.324	3443
907.441	3382
907.557	3230
907.674	3241
907.79	3173
907.907	3237
908.023	3351
908.139	3367
908.256	3348
908.372	3355
908.488	3329
908.604	3298
908.72	3245
908.836	3283
908.952	3260
909.068	3325
909.184	3462
909.3	3389
909.415	3492
909.531	3435
909.647	3306
909.762	3287
909.878	3268
909.993	3321
910.108	3370
910.224	3310
910.339	3382
910.454	3306
910.57	3294
910.685	3237
910.8	3614
910.915	3488
911.03	3428
911.145	3287
911.259	3237
911.374	3298
911.489	3237
911.604	3188
911.718	3135
911.833	3123
911.947	3005
912.062	2960
912.176	3142
912.291	3131
912.405	3169
912.519	3397
912.633	3439
912.748	3302
912.862	3222
912.976	3123
913.09	3058
913.204	3093
913.318	3199
913.431	3313
913.545	3313
913.659	3409
913.772	3329
913.886	3173
914	3173
914.113	3355
914.226	3374
914.34	3355
914.453	3184
914.566	3397
914.68	3283
914.793	3279
914.906	3161
915.019	3116
915.132	3074
915.245	3138
915.358	3188
915.47	3230
915.583	3253
915.696	3260
915.809	3397
915.921	3424
916.034	3283
916.146	3272
916.259	3287
916.371	3397
916.483	3382
916.595	3291
916.708	3340
916.82	3351
916.932	3355
917.044	3367
917.156	3363
917.268	3313
917.38	3325
917.491	3321
917.603	3378
917.715	3504
917.826	3420
917.938	3420
918.049	3245
918.161	3443
918.272	3610
918.384	3610
918.495	3500
918.606	3359
918.717	3294
918.828	3424
918.939	3431
919.05	3340
919.161	3424
919.272	3237
919.383	3313
919.494	3526
919.604	3709
919.715	3515
919.826	3477
919.936	3466
920.047	3622
920.157	3576
920.267	3800
920.378	3622
920.488	3599
920.598	3797
920.708	4017
920.818	3869
920.928	3880
921.038	4055
921.148	4025
921.258	3762
921.368	3663
921.477	3587
921.587	3584
921.697	3473
921.806	3633
921.916	3534
922.025	3367
922.134	3389
922.244	3359
922.353	3443
922.462	3306
922.571	3256
922.68	3154
922.789	3108
922.898	3199
923.007	3100
923.116	3245
923.224	3245
923.333	3192
923.442	3161
923.55	3127
923.659	3192
923.767	3233
923.876	3173
923.984	3268
924.092	3154
924.201	3207
924.309	3256
924.417	3325
924.525	3218
924.633	3260
924.741	4044
924.849	3085
924.956	3340
925.064	3112
925.172	3131
925.279	3157
925.387	3241
925.494	3237
925.602	3389
925.709	3355
925.816	3233
925.924	3329
926.031	3401
926.138	3348
926.245	3420
926.352	3310
926.459	3462
926.566	3485
926.673	3340
926.779	3344
926.886	3321
926.993	3184
927.099	3150
927.206	3169
927.312	3157
927.419	3249
927.525	3237
927.631	3298
927.737	3157
927.843	3142
927.95	3062
928.056	3146
928.162	3214
928.267	3294
928.373	3789
928.479	3351
928.585	3097
928.69	3230
928.796	3340
928.901	3226
929.007	3047
929.112	3253
929.218	3249
929.323	3176
929.428	3119
929.533	3317
929.638	3161
929.743	3192
929.848	3272
929.953	3230
930.058	3188
930.163	3058
930.267	3097
930.372	3230
930.477	3066
930.581	3344
930.685	3211
930.79	3051
930.894	3165
930.998	3165
931.103	3329
931.207	2990
931.311	2967
931.415	2967
931.519	2826
931.623	2834
