Data from test_V78500241_2012.txt Node
Date: Fri Mar 25 16:29:08 CST 2022
User: usil
Spectrometer: V785-0024
Trigger mode: 0
Integration Time (sec): 4.000000E-1
Scans to average: 1
Nonlinearity correction enabled: false
Boxcar width: 0
Storing dark spectrum: false
XAxis mode: Wavelengths
Number of Pixels in Spectrum: 1024
>>>>>Begin Spectral Data<<<<<
801.071	2883
801.214	2933
801.356	2887
801.499	2902
801.641	2883
801.783	2933
801.926	3024
802.068	2960
802.211	2994
802.353	3020
802.496	2986
802.638	3013
802.78	3036
802.923	3058
803.065	2982
803.208	2902
803.35	2883
803.492	2925
803.635	2883
803.777	2727
803.919	2823
804.061	3176
804.204	2952
804.346	2887
804.488	2830
804.63	2948
804.773	2861
804.915	2899
805.057	3039
805.199	2941
805.341	2963
805.483	3066
805.626	2975
805.768	2918
805.91	3058
806.052	3108
806.194	3001
806.336	3222
806.478	3009
806.62	2971
806.762	2960
806.904	3047
807.046	3188
807.188	2944
807.33	2902
807.472	2963
807.614	2925
807.756	2994
807.898	2933
808.04	2899
808.182	2956
808.324	2944
808.465	2864
808.607	2899
808.749	2834
808.891	2845
809.033	2960
809.174	2979
809.316	2861
809.458	2902
809.6	2739
809.741	2777
809.883	2792
810.025	2861
810.166	2838
810.308	2845
810.45	2834
810.591	2758
810.733	2781
810.875	2788
811.016	2758
811.158	2727
811.299	2792
811.441	2891
811.582	2887
811.724	2800
811.865	2830
812.007	2895
812.148	2883
812.29	2845
812.431	2872
812.573	2922
812.714	2952
812.855	3051
812.997	3024
813.138	3089
813.279	3017
813.421	2998
813.562	2922
813.703	2857
813.845	2876
813.986	2766
814.127	2712
814.268	2792
814.41	2830
814.551	2804
814.692	2868
814.833	2781
814.974	2887
815.115	2937
815.256	2804
815.397	2811
815.539	2838
815.68	2796
815.821	2792
815.962	2914
816.103	2914
816.244	2872
816.385	2880
816.526	2982
816.666	2902
816.807	2739
816.948	2864
817.089	2929
817.23	2864
817.371	2750
817.512	2792
817.653	2845
817.793	2838
817.934	2838
818.075	2975
818.216	2982
818.356	2944
818.497	2899
818.638	2788
818.778	2819
818.919	2785
819.06	2758
819.2	2838
819.341	2800
819.481	2781
819.622	2937
819.762	3077
819.903	3066
820.043	2906
820.184	2887
820.324	2899
820.465	3017
820.605	3020
820.746	3020
820.886	2937
821.026	3085
821.167	3154
821.307	3256
821.447	3264
821.588	3241
821.728	3226
821.868	3203
822.008	3100
822.149	3173
822.289	3188
822.429	3097
822.569	3066
822.709	3161
822.849	3058
822.99	3097
823.13	3142
823.27	3203
823.41	3097
823.55	3142
823.69	3123
823.83	3203
823.97	3062
824.11	2998
824.25	2971
824.389	3062
824.529	3077
824.669	3104
824.809	3214
824.949	3275
825.089	3169
825.228	3123
825.368	3005
825.508	2960
825.648	2952
825.787	2994
825.927	3017
826.067	2952
826.206	2937
826.346	3047
826.485	3074
826.625	3108
826.765	3211
826.904	3176
827.044	3017
827.183	2918
827.323	2864
827.462	2960
827.601	2883
827.741	2925
827.88	2952
828.02	2826
828.159	2956
828.298	3028
828.437	3108
828.577	3058
828.716	3249
828.855	3062
828.994	2914
829.134	2868
829.273	2902
829.412	2842
829.551	2864
829.69	2895
829.829	2971
829.968	3123
830.107	3009
830.246	2994
830.385	2902
830.524	2872
830.663	2830
830.802	2727
830.941	2655
831.08	2651
831.219	2754
831.357	2746
831.496	2925
831.635	2682
831.774	2617
831.913	2629
832.051	2541
832.19	2571
832.329	2667
832.467	2533
832.606	2465
832.744	2571
832.883	2564
833.022	2575
833.16	2640
833.299	2678
833.437	2689
833.576	2682
833.714	2720
833.852	2731
833.991	2773
834.129	2830
834.267	2819
834.406	2720
834.544	2826
834.682	2864
834.821	2876
834.959	3017
835.097	2895
835.235	3013
835.373	3009
835.511	2986
835.65	2971
835.788	2941
835.926	2811
836.064	2811
836.202	2807
836.34	3055
836.478	3123
836.615	2998
836.753	3123
836.891	3245
837.029	3146
837.167	3127
837.305	3032
837.443	3032
837.58	2979
837.718	3104
837.856	3036
837.993	3020
838.131	3089
838.269	3085
838.406	3085
838.544	3062
838.681	2914
838.819	2861
838.956	2796
839.094	2811
839.231	2906
839.369	3028
839.506	3317
839.643	3203
839.781	2979
839.918	2975
840.055	3070
840.193	3001
840.33	3081
840.467	3089
840.604	3138
840.742	3386
840.879	3062
841.016	3066
841.153	3100
841.29	3329
841.427	3283
841.564	3275
841.701	3332
841.838	3199
841.975	3176
842.112	3188
842.249	3074
842.385	3028
842.522	3230
842.659	3085
842.796	3028
842.933	3097
843.069	3051
843.206	3020
843.343	3150
843.479	3070
843.616	3127
843.752	2880
843.889	2842
844.025	3066
844.162	2849
844.298	3066
844.435	2914
844.571	2914
844.708	3036
844.844	3150
844.98	3245
845.117	3184
845.253	3013
845.389	3005
845.525	3074
845.661	3077
845.798	3017
845.934	3108
846.07	3055
846.206	3173
846.342	3272
846.478	3233
846.614	3097
846.75	3039
846.886	3036
847.022	3253
847.158	3131
847.294	3192
847.429	3264
847.565	3176
847.701	3481
847.837	3013
847.972	2963
848.108	3169
848.244	3119
848.379	2960
848.515	2929
848.65	2925
848.786	2906
848.921	2971
849.057	3112
849.192	3188
849.328	3043
849.463	3074
849.598	3066
849.734	3005
849.869	2975
850.004	2910
850.14	2971
850.275	2853
850.41	2796
850.545	2872
850.68	2902
850.815	2963
850.95	2944
851.085	3188
851.22	3100
851.355	3017
851.49	2956
851.625	2998
851.76	3009
851.895	2918
852.03	2868
852.165	3020
852.299	3108
852.434	3131
852.569	3165
852.703	3180
852.838	3245
852.973	3332
853.107	3317
853.242	3123
853.376	3108
853.511	2982
853.645	3043
853.78	3245
853.914	3127
854.048	3138
854.183	3108
854.317	3154
854.451	3317
854.585	3165
854.72	3104
854.854	3214
854.988	3070
855.122	3116
855.256	3013
855.39	3150
855.524	3275
855.658	3226
855.792	3169
855.926	3195
856.06	3241
856.194	3294
856.327	3154
856.461	3127
856.595	3104
856.729	3112
856.862	3233
856.996	3192
857.13	3237
857.263	3283
857.397	3283
857.53	3188
857.664	3211
857.797	3287
857.931	3313
858.064	3195
858.197	3264
858.331	3173
858.464	3123
858.597	3055
858.731	3161
858.864	3157
858.997	3093
859.13	3154
859.263	3176
859.396	3192
859.529	3116
859.662	3112
859.795	3055
859.928	3154
860.061	3329
860.194	3291
860.327	3192
860.46	3119
860.592	3241
860.725	3329
860.858	3283
860.99	3180
861.123	3058
861.256	3051
861.388	3157
861.521	3854
861.653	3070
861.786	3036
861.918	3055
862.05	3112
862.183	3138
862.315	3184
862.447	3241
862.58	3123
862.712	2990
862.844	2906
862.976	3028
863.108	3032
863.24	3344
863.372	2876
863.504	2986
863.636	3009
863.768	3089
863.9	3047
864.032	2967
864.164	2994
864.296	3020
864.428	3135
864.559	3116
864.691	3131
864.823	3070
864.954	3070
865.086	3058
865.217	3028
865.349	2986
865.48	2986
865.612	3085
865.743	3173
865.875	3001
866.006	2990
866.137	3013
866.269	2967
866.4	2960
866.531	2982
866.662	2910
866.793	2933
866.924	2925
867.055	2998
867.186	2918
867.317	2906
867.448	2838
867.579	2895
867.71	2899
867.841	2849
867.972	2922
868.103	2937
868.233	2914
868.364	2883
868.495	2933
868.625	3097
868.756	3180
868.886	2967
869.017	3024
869.147	3161
869.278	3203
869.408	3081
869.539	3005
869.669	3123
869.799	3051
869.929	3135
870.06	3135
870.19	3321
870.32	3313
870.45	3321
870.58	3401
870.71	3469
870.84	3477
870.97	3332
871.1	3279
871.23	3462
871.36	3523
871.489	3401
871.619	3435
871.749	3409
871.879	3477
872.008	3485
872.138	3340
872.267	3317
872.397	3154
872.526	3123
872.656	3047
872.785	3112
872.915	3291
873.044	3344
873.173	3245
873.303	3294
873.432	3298
873.561	3275
873.69	3184
873.819	3146
873.948	3237
874.077	3138
874.206	3066
874.335	3123
874.464	3249
874.593	3382
874.722	3264
874.851	3397
874.979	3336
875.108	3363
875.237	3226
875.365	3184
875.494	3214
875.623	3272
875.751	3146
875.88	3127
876.008	3245
876.136	3245
876.265	3401
876.393	3526
876.521	3473
876.65	3401
876.778	3344
876.906	3253
877.034	3245
877.162	3222
877.29	3222
877.418	3283
877.546	3264
877.674	3279
877.802	3279
877.93	3237
878.058	3157
878.185	3123
878.313	3207
878.441	3211
878.568	3093
878.696	3165
878.824	3302
878.951	3298
879.079	3481
879.206	3622
879.333	3477
879.461	3336
879.588	3409
879.715	3519
879.842	3652
879.97	3397
880.097	3199
880.224	3161
880.351	3233
880.478	3294
880.605	3264
880.732	3253
880.859	3545
880.986	3340
881.112	3298
881.239	3192
881.366	3138
881.493	3066
881.619	3058
881.746	3100
881.872	3135
881.999	3154
882.125	3165
882.252	3272
882.378	3348
882.505	3439
882.631	3272
882.757	3218
882.883	3237
883.01	3253
883.136	3188
883.262	3119
883.388	3119
883.514	3386
883.64	3401
883.766	3321
883.892	3199
884.018	3253
884.143	3473
884.269	3519
884.395	3188
884.52	3180
884.646	3226
884.772	3108
884.897	3108
885.023	3199
885.148	3340
885.274	3466
885.399	3405
885.524	3310
885.65	3294
885.775	3351
885.9	3332
886.025	3462
886.15	3405
886.275	3294
886.4	3260
886.525	3336
886.65	3306
886.775	3279
886.9	3507
887.025	3633
887.149	3416
887.274	3287
887.399	3199
887.523	3203
887.648	3203
887.773	3253
887.897	3416
888.021	3431
888.146	3329
888.27	3469
888.395	3561
888.519	3469
888.643	3477
888.767	3530
888.891	3344
889.015	3264
889.139	3317
889.263	3272
889.387	3435
889.511	3530
889.635	3485
889.759	3332
889.883	3306
890.006	3401
890.13	3515
890.254	3294
890.377	3409
890.501	3233
890.624	3184
890.748	3306
890.871	3184
890.995	3157
891.118	3108
891.241	3230
891.364	3256
891.488	3325
891.611	3207
891.734	3253
891.857	3340
891.98	3275
892.103	3363
892.226	3298
892.349	3192
892.471	3142
892.594	3253
892.717	3325
892.839	3321
892.962	3340
893.085	3359
893.207	3298
893.33	3169
893.452	3211
893.575	3351
893.697	3275
893.819	3458
893.941	3568
894.064	3515
894.186	3245
894.308	3298
894.43	3477
894.552	3557
894.674	3504
894.796	3291
894.918	3275
895.04	3321
895.161	3416
895.283	3420
895.405	3359
895.526	3336
895.648	3462
895.769	3424
895.891	3507
896.012	3523
896.134	3496
896.255	3439
896.376	3405
896.498	3355
896.619	3454
896.74	3370
896.861	3447
896.982	3717
897.103	3861
897.224	3610
897.345	3519
897.466	3435
897.587	3519
897.708	3625
897.828	3576
897.949	3443
898.07	3325
898.19	3424
898.311	3644
898.431	3458
898.552	3504
898.672	3618
898.792	3584
898.913	3557
899.033	3409
899.153	3275
899.273	3241
899.393	3287
899.513	3332
899.633	3298
899.753	3351
899.873	3332
899.993	3382
900.113	3370
900.232	3405
900.352	3351
900.472	3283
900.591	3226
900.711	3348
900.83	3249
900.95	3443
901.069	3523
901.189	3351
901.308	3184
901.427	3142
901.546	3165
901.665	3306
901.784	3363
901.904	3249
902.023	3207
902.141	3047
902.26	3039
902.379	3150
902.498	3055
902.617	3081
902.735	3214
902.854	3260
902.973	3218
903.091	3089
903.21	3093
903.328	3161
903.446	3127
903.565	3104
903.683	3218
903.801	3169
903.919	3237
904.038	3332
904.156	3188
904.274	3313
904.392	3241
904.51	3306
904.627	3359
904.745	3447
904.863	3519
904.981	3283
905.098	3211
905.216	3214
905.334	3294
905.451	3287
905.569	3317
905.686	3454
905.803	3412
905.921	3279
906.038	3435
906.155	3340
906.272	3279
906.389	3325
906.506	3226
906.623	3253
906.74	3268
906.857	3211
906.974	3245
907.091	3435
907.208	3561
907.324	3519
907.441	3382
907.557	3256
907.674	3249
907.79	3222
907.907	3329
908.023	3435
908.139	3412
908.256	3344
908.372	3382
908.488	3359
908.604	3264
908.72	3237
908.836	3287
908.952	3272
909.068	3332
909.184	3462
909.3	3374
909.415	3519
909.531	3439
909.647	3294
909.762	3298
909.878	3256
909.993	3367
910.108	3367
910.224	3329
910.339	3435
910.454	3329
910.57	3298
910.685	3222
910.8	3614
910.915	3549
911.03	3496
911.145	3283
911.259	3249
911.374	3344
911.489	3298
911.604	3192
911.718	3138
911.833	3146
911.947	3066
912.062	3001
912.176	3192
912.291	3157
912.405	3192
912.519	3439
912.633	3485
912.748	3329
912.862	3306
912.976	3173
913.09	3055
913.204	3127
913.318	3218
913.431	3344
913.545	3321
913.659	3420
913.772	3355
913.886	3222
914	3241
914.113	3386
914.226	3393
914.34	3359
914.453	3218
914.566	3443
914.68	3306
914.793	3344
914.906	3161
915.019	3142
915.132	3100
915.245	3150
915.358	3214
915.47	3233
915.583	3230
915.696	3283
915.809	3389
915.921	3393
916.034	3260
916.146	3287
916.259	3214
916.371	3363
916.483	3374
916.595	3260
916.708	3340
916.82	3363
916.932	3340
917.044	3355
917.156	3367
917.268	3260
917.38	3336
917.491	3279
917.603	3359
917.715	3496
917.826	3443
917.938	3409
918.049	3287
918.161	3473
918.272	3599
918.384	3595
918.495	3481
918.606	3374
918.717	3275
918.828	3397
918.939	3409
919.05	3287
919.161	3363
919.272	3214
919.383	3264
919.494	3519
919.604	3686
919.715	3477
919.826	3435
919.936	3496
920.047	3587
920.157	3538
920.267	3778
920.378	3629
920.488	3595
920.598	3838
920.708	3994
920.818	3838
920.928	3831
921.038	4048
921.148	4006
921.258	3698
921.368	3671
921.477	3606
921.587	3572
921.697	3469
921.806	3625
921.916	3545
922.025	3344
922.134	3409
922.244	3344
922.353	3462
922.462	3294
922.571	3294
922.68	3146
922.789	3066
922.898	3180
923.007	3116
923.116	3237
923.224	3222
923.333	3241
923.442	3116
923.55	3104
923.659	3157
923.767	3291
923.876	3161
923.984	3306
924.092	3188
924.201	3253
924.309	3268
924.417	3298
924.525	3230
924.633	3329
924.741	4242
924.849	3146
924.956	3302
925.064	3138
925.172	3085
925.279	3135
925.387	3199
925.494	3214
925.602	3439
925.709	3359
925.816	3245
925.924	3321
926.031	3397
926.138	3374
926.245	3416
926.352	3272
926.459	3416
926.566	3500
926.673	3363
926.779	3321
926.886	3291
926.993	3173
927.099	3184
927.206	3184
927.312	3154
927.419	3283
927.525	3260
927.631	3287
927.737	3169
927.843	3146
927.95	3085
928.056	3180
928.162	3218
928.267	3283
928.373	3918
928.479	3374
928.585	3119
928.69	3260
928.796	3313
928.901	3214
929.007	3119
929.112	3237
929.218	3226
929.323	3173
929.428	3173
929.533	3348
929.638	3173
929.743	3195
929.848	3313
929.953	3226
930.058	3192
930.163	3036
930.267	3081
930.372	3233
930.477	3100
930.581	3344
930.685	3218
930.79	3119
930.894	3169
930.998	3127
931.103	3298
931.207	3001
931.311	2986
931.415	2982
931.519	2804
931.623	2845
