Data from test_V78500241_559.txt Node
Date: Fri Mar 25 16:19:04 CST 2022
User: usil
Spectrometer: V785-0024
Trigger mode: 0
Integration Time (sec): 4.000000E-1
Scans to average: 1
Nonlinearity correction enabled: false
Boxcar width: 0
Storing dark spectrum: false
XAxis mode: Wavelengths
Number of Pixels in Spectrum: 1024
>>>>>Begin Spectral Data<<<<<
801.071	2914
801.214	2944
801.356	2853
801.499	2899
801.641	2895
801.783	2922
801.926	3028
802.068	2990
802.211	2979
802.353	3043
802.496	2948
802.638	3005
802.78	3017
802.923	3077
803.065	3017
803.208	2861
803.35	2918
803.492	2960
803.635	2914
803.777	2769
803.919	2845
804.061	3192
804.204	2990
804.346	2922
804.488	2861
804.63	2960
804.773	2857
804.915	2902
805.057	3062
805.199	2899
805.341	2948
805.483	3005
805.626	3001
805.768	2963
805.91	3062
806.052	3112
806.194	3055
806.336	3226
806.478	3020
806.62	2933
806.762	2971
806.904	3036
807.046	3154
807.188	2975
807.33	2891
807.472	2971
807.614	2914
807.756	2963
807.898	2902
808.04	2876
808.182	2944
808.324	2979
808.465	2887
808.607	2853
808.749	2773
808.891	2845
809.033	2929
809.174	2979
809.316	2902
809.458	2872
809.6	2762
809.741	2758
809.883	2743
810.025	2849
810.166	2842
810.308	2800
810.45	2853
810.591	2762
810.733	2746
810.875	2826
811.016	2777
811.158	2746
811.299	2788
811.441	2963
811.582	2872
811.724	2830
811.865	2785
812.007	2906
812.148	2845
812.29	2849
812.431	2902
812.573	2925
812.714	2971
812.855	3024
812.997	3032
813.138	3119
813.279	3009
813.421	2944
813.562	2941
813.703	2861
813.845	2906
813.986	2788
814.127	2727
814.268	2781
814.41	2861
814.551	2796
814.692	2891
814.833	2804
814.974	2902
815.115	2998
815.256	2815
815.397	2823
815.539	2883
815.68	2796
815.821	2792
815.962	2960
816.103	2967
816.244	2868
816.385	2849
816.526	2975
816.666	2902
816.807	2769
816.948	2864
817.089	2914
817.23	2842
817.371	2785
817.512	2773
817.653	2823
817.793	2845
817.934	2876
818.075	2963
818.216	2967
818.356	3001
818.497	2887
818.638	2777
818.778	2785
818.919	2800
819.06	2746
819.2	2883
819.341	2804
819.481	2781
819.622	2918
819.762	3070
819.903	3039
820.043	2937
820.184	2902
820.324	2891
820.465	3020
820.605	3028
820.746	3036
820.886	2914
821.026	3047
821.167	3146
821.307	3283
821.447	3279
821.588	3199
821.728	3195
821.868	3230
822.008	3077
822.149	3188
822.289	3214
822.429	3062
822.569	3138
822.709	3157
822.849	3028
822.99	3081
823.13	3154
823.27	3192
823.41	3074
823.55	3165
823.69	3135
823.83	3165
823.97	3112
824.11	3036
824.25	2979
824.389	3081
824.529	3100
824.669	3028
824.809	3192
824.949	3233
825.089	3203
825.228	3169
825.368	3051
825.508	2982
825.648	2994
825.787	3032
825.927	2998
826.067	2944
826.206	2948
826.346	3062
826.485	3043
826.625	3135
826.765	3245
826.904	3218
827.044	3024
827.183	2910
827.323	2861
827.462	2960
827.601	2914
827.741	2937
827.88	2956
828.02	2853
828.159	2967
828.298	3047
828.437	3085
828.577	3058
828.716	3275
828.855	3100
828.994	2906
829.134	2868
829.273	2944
829.412	2834
829.551	2853
829.69	2883
829.829	2990
829.968	3097
830.107	3020
830.246	3009
830.385	2944
830.524	2830
830.663	2815
830.802	2739
830.941	2648
831.08	2621
831.219	2731
831.357	2769
831.496	2956
831.635	2716
831.774	2651
831.913	2682
832.051	2549
832.19	2575
832.329	2693
832.467	2533
832.606	2473
832.744	2568
832.883	2583
833.022	2549
833.16	2648
833.299	2697
833.437	2727
833.576	2682
833.714	2686
833.852	2727
833.991	2735
834.129	2826
834.267	2777
834.406	2788
834.544	2853
834.682	2857
834.821	2880
834.959	3047
835.097	2922
835.235	3070
835.373	2979
835.511	3028
835.65	2941
835.788	2948
835.926	2845
836.064	2804
836.202	2800
836.34	3104
836.478	3150
836.615	3039
836.753	3138
836.891	3192
837.029	3146
837.167	3074
837.305	2994
837.443	3055
837.58	2975
837.718	3135
837.856	3051
837.993	3009
838.131	3123
838.269	3123
838.406	3097
838.544	3135
838.681	2925
838.819	2891
838.956	2834
839.094	2842
839.231	2899
839.369	2990
839.506	3367
839.643	3222
839.781	3028
839.918	2967
840.055	3043
840.193	3036
840.33	3051
840.467	3077
840.604	3161
840.742	3447
840.879	3028
841.016	3074
841.153	3104
841.29	3294
841.427	3287
841.564	3241
841.701	3291
841.838	3211
841.975	3214
842.112	3207
842.249	3028
842.385	3051
842.522	3249
842.659	3070
842.796	3032
842.933	3085
843.069	3028
843.206	3028
843.343	3176
843.479	3093
843.616	3142
843.752	2872
843.889	2853
844.025	3093
844.162	2872
844.298	3077
844.435	2952
844.571	2876
844.708	3100
844.844	3222
844.98	3268
845.117	3180
845.253	3005
845.389	2990
845.525	3074
845.661	3116
845.798	3039
845.934	3070
846.07	3024
846.206	3218
846.342	3310
846.478	3249
846.614	3104
846.75	3070
846.886	3017
847.022	3230
847.158	3093
847.294	3203
847.429	3222
847.565	3203
847.701	3488
847.837	3013
847.972	2971
848.108	3165
848.244	3123
848.379	2956
848.515	2933
848.65	2922
848.786	2952
848.921	2971
849.057	3062
849.192	3142
849.328	3036
849.463	3070
849.598	3039
849.734	3039
849.869	2948
850.004	2929
850.14	2963
850.275	2910
850.41	2834
850.545	2868
850.68	2891
850.815	2944
850.95	2971
851.085	3207
851.22	3100
851.355	3020
851.49	2990
851.625	3020
851.76	2994
851.895	2937
852.03	2918
852.165	3055
852.299	3119
852.434	3161
852.569	3123
852.703	3184
852.838	3241
852.973	3332
853.107	3268
853.242	3138
853.376	3100
853.511	2979
853.645	3055
853.78	3218
853.914	3119
854.048	3112
854.183	3093
854.317	3157
854.451	3287
854.585	3119
854.72	3127
854.854	3180
854.988	3005
855.122	3062
855.256	3005
855.39	3097
855.524	3233
855.658	3222
855.792	3138
855.926	3192
856.06	3226
856.194	3237
856.327	3104
856.461	3104
856.595	3062
856.729	3112
856.862	3211
856.996	3161
857.13	3169
857.263	3214
857.397	3256
857.53	3108
857.664	3188
857.797	3218
857.931	3226
858.064	3192
858.197	3253
858.331	3085
858.464	3104
858.597	2982
858.731	3131
858.864	3112
858.997	3112
859.13	3104
859.263	3188
859.396	3233
859.529	3089
859.662	3081
859.795	3001
859.928	3100
860.061	3283
860.194	3249
860.327	3146
860.46	3077
860.592	3222
860.725	3237
860.858	3233
860.99	3127
861.123	3039
861.256	3043
861.388	3089
861.521	3713
861.653	3024
861.786	3001
861.918	3001
862.05	3024
862.183	3070
862.315	3150
862.447	3207
862.58	3089
862.712	2925
862.844	2880
862.976	3024
863.108	2944
863.24	3416
863.372	2876
863.504	2986
863.636	2910
863.768	3009
863.9	3001
864.032	2910
864.164	2948
864.296	3017
864.428	3077
864.559	3100
864.691	3070
864.823	3062
864.954	3001
865.086	3032
865.217	2967
865.349	2925
865.48	2986
865.612	3032
865.743	3119
865.875	2990
866.006	2956
866.137	2979
866.269	2910
866.4	2937
866.531	2883
866.662	2891
866.793	2868
866.924	2868
867.055	2975
867.186	2948
867.317	2864
867.448	2819
867.579	2857
867.71	2811
867.841	2842
867.972	2868
868.103	2899
868.233	2868
868.364	2868
868.495	2922
868.625	3074
868.756	3180
868.886	2933
869.017	3020
869.147	3150
869.278	3173
869.408	3009
869.539	3017
869.669	3058
869.799	3062
869.929	3138
870.06	3097
870.19	3294
870.32	3313
870.45	3264
870.58	3382
870.71	3447
870.84	3447
870.97	3264
871.1	3264
871.23	3523
871.36	3477
871.489	3302
871.619	3401
871.749	3412
871.879	3412
872.008	3473
872.138	3370
872.267	3211
872.397	3150
872.526	3081
872.656	3020
872.785	3093
872.915	3237
873.044	3302
873.173	3211
873.303	3222
873.432	3218
873.561	3226
873.69	3161
873.819	3119
873.948	3176
874.077	3100
874.206	3036
874.335	3074
874.464	3203
874.593	3340
874.722	3264
874.851	3370
874.979	3329
875.108	3317
875.237	3192
875.365	3161
875.494	3176
875.623	3211
875.751	3093
875.88	3112
876.008	3188
876.136	3211
876.265	3386
876.393	3496
876.521	3435
876.65	3393
876.778	3325
876.906	3249
877.034	3195
877.162	3233
877.29	3199
877.418	3253
877.546	3233
877.674	3233
877.802	3218
877.93	3207
878.058	3093
878.185	3100
878.313	3218
878.441	3180
878.568	3032
878.696	3169
878.824	3226
878.951	3302
879.079	3428
879.206	3614
879.333	3416
879.461	3325
879.588	3325
879.715	3462
879.842	3545
879.97	3344
880.097	3146
880.224	3100
880.351	3142
880.478	3226
880.605	3192
880.732	3180
880.859	3507
880.986	3268
881.112	3329
881.239	3188
881.366	3074
881.493	3001
881.619	2990
881.746	3070
881.872	3062
881.999	3074
882.125	3169
882.252	3226
882.378	3313
882.505	3397
882.631	3306
882.757	3142
882.883	3192
883.01	3165
883.136	3131
883.262	3116
883.388	3093
883.514	3306
883.64	3359
883.766	3298
883.892	3188
884.018	3195
884.143	3374
884.269	3526
884.395	3218
884.52	3131
884.646	3180
884.772	3108
884.897	3036
885.023	3173
885.148	3329
885.274	3370
885.399	3321
885.524	3272
885.65	3233
885.775	3317
885.9	3237
886.025	3420
886.15	3344
886.275	3294
886.4	3264
886.525	3264
886.65	3256
886.775	3287
886.9	3481
887.025	3652
887.149	3393
887.274	3230
887.399	3176
887.523	3222
887.648	3173
887.773	3180
887.897	3389
888.021	3389
888.146	3317
888.27	3443
888.395	3504
888.519	3447
888.643	3424
888.767	3462
888.891	3325
889.015	3241
889.139	3272
889.263	3249
889.387	3370
889.511	3504
889.635	3454
889.759	3256
889.883	3306
890.006	3431
890.13	3466
890.254	3275
890.377	3344
890.501	3195
890.624	3146
890.748	3256
890.871	3146
890.995	3131
891.118	3043
891.241	3211
891.364	3253
891.488	3302
891.611	3199
891.734	3222
891.857	3264
891.98	3226
892.103	3351
892.226	3253
892.349	3207
892.471	3116
892.594	3207
892.717	3268
892.839	3226
892.962	3287
893.085	3317
893.207	3287
893.33	3165
893.452	3253
893.575	3340
893.697	3260
893.819	3450
893.941	3488
894.064	3435
894.186	3233
894.308	3298
894.43	3420
894.552	3500
894.674	3462
894.796	3272
894.918	3325
895.04	3256
895.161	3409
895.283	3367
895.405	3291
895.526	3340
895.648	3416
895.769	3405
895.891	3473
896.012	3450
896.134	3420
896.255	3424
896.376	3351
896.498	3336
896.619	3401
896.74	3344
896.861	3412
896.982	3679
897.103	3854
897.224	3561
897.345	3477
897.466	3416
897.587	3515
897.708	3595
897.828	3526
897.949	3428
898.07	3325
898.19	3401
898.311	3580
898.431	3435
898.552	3485
898.672	3584
898.792	3568
898.913	3485
899.033	3397
899.153	3279
899.273	3199
899.393	3264
899.513	3325
899.633	3317
899.753	3321
899.873	3306
899.993	3370
900.113	3329
900.232	3363
900.352	3344
900.472	3287
900.591	3214
900.711	3256
900.83	3272
900.95	3401
901.069	3450
901.189	3348
901.308	3142
901.427	3112
901.546	3176
901.665	3291
901.784	3325
901.904	3226
902.023	3127
902.141	2979
902.26	2990
902.379	3135
902.498	3058
902.617	3043
902.735	3176
902.854	3279
902.973	3176
903.091	3032
903.21	3074
903.328	3135
903.446	3104
903.565	3089
903.683	3176
903.801	3100
903.919	3199
904.038	3283
904.156	3135
904.274	3272
904.392	3241
904.51	3279
904.627	3298
904.745	3428
904.863	3511
904.981	3214
905.098	3131
905.216	3207
905.334	3264
905.451	3317
905.569	3306
905.686	3389
905.803	3447
905.921	3283
906.038	3351
906.155	3321
906.272	3241
906.389	3310
906.506	3203
906.623	3279
906.74	3264
906.857	3184
906.974	3260
907.091	3420
907.208	3549
907.324	3443
907.441	3382
907.557	3226
907.674	3245
907.79	3188
907.907	3245
908.023	3367
908.139	3351
908.256	3348
908.372	3382
908.488	3336
908.604	3260
908.72	3237
908.836	3317
908.952	3325
909.068	3378
909.184	3488
909.3	3431
909.415	3507
909.531	3492
909.647	3310
909.762	3351
909.878	3298
909.993	3401
910.108	3378
910.224	3340
910.339	3416
910.454	3340
910.57	3321
910.685	3256
910.8	3587
910.915	3538
911.03	3477
911.145	3306
911.259	3302
911.374	3336
911.489	3264
911.604	3268
911.718	3161
911.833	3157
911.947	3112
912.062	3013
912.176	3272
912.291	3218
912.405	3253
912.519	3447
912.633	3507
912.748	3401
912.862	3306
912.976	3195
913.09	3108
913.204	3176
913.318	3256
913.431	3389
913.545	3363
913.659	3454
913.772	3355
913.886	3272
914	3226
914.113	3405
914.226	3466
914.34	3412
914.453	3233
914.566	3473
914.68	3332
914.793	3374
914.906	3218
915.019	3169
915.132	3093
915.245	3233
915.358	3260
915.47	3245
915.583	3256
915.696	3340
915.809	3439
915.921	3462
916.034	3260
916.146	3275
916.259	3233
916.371	3405
916.483	3382
916.595	3325
916.708	3317
916.82	3374
916.932	3306
917.044	3420
917.156	3428
917.268	3317
917.38	3279
917.491	3348
917.603	3420
917.715	3458
917.826	3469
917.938	3401
918.049	3298
918.161	3492
918.272	3599
918.384	3557
918.495	3515
918.606	3409
918.717	3317
918.828	3428
918.939	3492
919.05	3332
919.161	3412
919.272	3184
919.383	3325
919.494	3545
919.604	3682
919.715	3492
919.826	3473
919.936	3466
920.047	3625
920.157	3603
920.267	3808
920.378	3644
920.488	3603
920.598	3778
920.708	3987
920.818	3835
920.928	3876
921.038	4078
921.148	4017
921.258	3740
921.368	3633
921.477	3618
921.587	3603
921.697	3477
921.806	3629
921.916	3511
922.025	3412
922.134	3374
922.244	3382
922.353	3481
922.462	3272
922.571	3256
922.68	3131
922.789	3119
922.898	3180
923.007	3112
923.116	3203
923.224	3188
923.333	3207
923.442	3150
923.55	3058
923.659	3192
923.767	3279
923.876	3180
923.984	3291
924.092	3157
924.201	3226
924.309	3256
924.417	3317
924.525	3222
924.633	3272
924.741	4067
924.849	3093
924.956	3336
925.064	3138
925.172	3089
925.279	3116
925.387	3268
925.494	3272
925.602	3397
925.709	3348
925.816	3218
925.924	3325
926.031	3435
926.138	3370
926.245	3367
926.352	3249
926.459	3454
926.566	3507
926.673	3378
926.779	3272
926.886	3291
926.993	3165
927.099	3154
927.206	3157
927.312	3154
927.419	3233
927.525	3230
927.631	3306
927.737	3165
927.843	3192
927.95	3070
928.056	3154
928.162	3214
928.267	3283
928.373	3816
928.479	3336
928.585	3055
928.69	3275
928.796	3302
928.901	3188
929.007	3081
929.112	3230
929.218	3214
929.323	3169
929.428	3176
929.533	3332
929.638	3123
929.743	3199
929.848	3348
929.953	3222
930.058	3157
930.163	3051
930.267	3089
930.372	3237
930.477	3043
930.581	3348
930.685	3199
930.79	3108
930.894	3173
930.998	3135
931.103	3325
931.207	3017
931.311	2952
931.415	2960
931.519	2823
931.623	2830
