Data from test_V78500241_1742.txt Node
Date: Fri Mar 25 16:27:16 CST 2022
User: usil
Spectrometer: V785-0024
Trigger mode: 0
Integration Time (sec): 4.000000E-1
Scans to average: 1
Nonlinearity correction enabled: false
Boxcar width: 0
Storing dark spectrum: false
XAxis mode: Wavelengths
Number of Pixels in Spectrum: 1024
>>>>>Begin Spectral Data<<<<<
801.071	2948
801.214	2982
801.356	2887
801.499	2918
801.641	2925
801.783	2948
801.926	3097
802.068	2998
802.211	3055
802.353	3066
802.496	2979
802.638	3043
802.78	3097
802.923	3104
803.065	3013
803.208	2967
803.35	2933
803.492	2956
803.635	2952
803.777	2796
803.919	2899
804.061	3192
804.204	2963
804.346	2956
804.488	2864
804.63	3017
804.773	2902
804.915	2925
805.057	3104
805.199	2967
805.341	2990
805.483	3058
805.626	3017
805.768	2971
805.91	3108
806.052	3135
806.194	3077
806.336	3241
806.478	3066
806.62	2982
806.762	2986
806.904	3051
807.046	3131
807.188	3005
807.33	2914
807.472	2967
807.614	2906
807.756	3001
807.898	2925
808.04	2933
808.182	2998
808.324	2956
808.465	2872
808.607	2868
808.749	2830
808.891	2857
809.033	2963
809.174	2986
809.316	2899
809.458	2914
809.6	2773
809.741	2792
809.883	2796
810.025	2880
810.166	2880
810.308	2868
810.45	2876
810.591	2815
810.733	2785
810.875	2834
811.016	2815
811.158	2762
811.299	2796
811.441	2944
811.582	2925
811.724	2807
811.865	2887
812.007	2880
812.148	2933
812.29	2880
812.431	2868
812.573	2967
812.714	2982
812.855	3066
812.997	3043
813.138	3142
813.279	3013
813.421	2967
813.562	2937
813.703	2864
813.845	2876
813.986	2788
814.127	2743
814.268	2853
814.41	2853
814.551	2819
814.692	2895
814.833	2861
814.974	2872
815.115	2933
815.256	2876
815.397	2853
815.539	2853
815.68	2758
815.821	2838
815.962	2979
816.103	2963
816.244	2887
816.385	2853
816.526	2971
816.666	2956
816.807	2766
816.948	2933
817.089	2937
817.23	2845
817.371	2796
817.512	2819
817.653	2872
817.793	2823
817.934	2891
818.075	2994
818.216	3028
818.356	3017
818.497	2902
818.638	2819
818.778	2853
818.919	2819
819.06	2804
819.2	2918
819.341	2811
819.481	2788
819.622	2918
819.762	3119
819.903	3089
820.043	2918
820.184	2891
820.324	2899
820.465	3001
820.605	3032
820.746	3055
820.886	2952
821.026	3116
821.167	3188
821.307	3306
821.447	3275
821.588	3241
821.728	3192
821.868	3222
822.008	3142
822.149	3192
822.289	3222
822.429	3116
822.569	3081
822.709	3184
822.849	3047
822.99	3100
823.13	3180
823.27	3192
823.41	3112
823.55	3127
823.69	3135
823.83	3222
823.97	3085
824.11	3009
824.25	3017
824.389	3089
824.529	3138
824.669	3081
824.809	3256
824.949	3264
825.089	3203
825.228	3169
825.368	2975
825.508	2998
825.648	2944
825.787	3028
825.927	3020
826.067	2971
826.206	2967
826.346	3089
826.485	3058
826.625	3097
826.765	3272
826.904	3207
827.044	2975
827.183	2952
827.323	2876
827.462	3036
827.601	2937
827.741	2944
827.88	2982
828.02	2876
828.159	2971
828.298	3013
828.437	3131
828.577	3047
828.716	3275
828.855	3093
828.994	2914
829.134	2914
829.273	2933
829.412	2819
829.551	2861
829.69	2906
829.829	2998
829.968	3093
830.107	3017
830.246	3047
830.385	2941
830.524	2922
830.663	2815
830.802	2743
830.941	2659
831.08	2689
831.219	2804
831.357	2758
831.496	2963
831.635	2743
831.774	2674
831.913	2674
832.051	2549
832.19	2598
832.329	2667
832.467	2568
832.606	2507
832.744	2594
832.883	2587
833.022	2590
833.16	2689
833.299	2708
833.437	2689
833.576	2727
833.714	2705
833.852	2743
833.991	2785
834.129	2861
834.267	2845
834.406	2796
834.544	2864
834.682	2861
834.821	2906
834.959	3039
835.097	2891
835.235	3070
835.373	3005
835.511	3047
835.65	2960
835.788	2948
835.926	2861
836.064	2819
836.202	2857
836.34	3131
836.478	3157
836.615	2986
836.753	3108
836.891	3188
837.029	3195
837.167	3074
837.305	3089
837.443	3051
837.58	2967
837.718	3142
837.856	3089
837.993	3055
838.131	3085
838.269	3074
838.406	3135
838.544	3062
838.681	2933
838.819	2929
838.956	2849
839.094	2861
839.231	2944
839.369	3009
839.506	3370
839.643	3256
839.781	3024
839.918	2998
840.055	3024
840.193	3032
840.33	3081
840.467	3077
840.604	3146
840.742	3393
840.879	3070
841.016	3028
841.153	3138
841.29	3298
841.427	3310
841.564	3249
841.701	3302
841.838	3233
841.975	3184
842.112	3222
842.249	3077
842.385	3013
842.522	3291
842.659	3123
842.796	3047
842.933	3116
843.069	3028
843.206	3009
843.343	3218
843.479	3100
843.616	3142
843.752	2880
843.889	2876
844.025	3100
844.162	2868
844.298	3036
844.435	2994
844.571	2925
844.708	3051
844.844	3176
844.98	3283
845.117	3176
845.253	3097
845.389	3024
845.525	3104
845.661	3085
845.798	2982
845.934	3119
846.07	3043
846.206	3214
846.342	3325
846.478	3226
846.614	3116
846.75	3051
846.886	3074
847.022	3226
847.158	3146
847.294	3226
847.429	3233
847.565	3226
847.701	3466
847.837	3074
847.972	3013
848.108	3157
848.244	3150
848.379	2979
848.515	2944
848.65	2918
848.786	2971
848.921	3017
849.057	3123
849.192	3138
849.328	3043
849.463	3097
849.598	3036
849.734	3055
849.869	2963
850.004	2914
850.14	3001
850.275	2906
850.41	2838
850.545	2876
850.68	2948
850.815	2960
850.95	2937
851.085	3207
851.22	3104
851.355	3013
851.49	2975
851.625	3001
851.76	2994
851.895	2941
852.03	2937
852.165	3028
852.299	3112
852.434	3161
852.569	3112
852.703	3184
852.838	3253
852.973	3367
853.107	3321
853.242	3169
853.376	3108
853.511	2986
853.645	3055
853.78	3157
853.914	3131
854.048	3108
854.183	3070
854.317	3138
854.451	3287
854.585	3100
854.72	3036
854.854	3211
854.988	3036
855.122	3074
855.256	2948
855.39	3104
855.524	3233
855.658	3226
855.792	3169
855.926	3165
856.06	3192
856.194	3237
856.327	3131
856.461	3074
856.595	3062
856.729	3077
856.862	3207
856.996	3165
857.13	3157
857.263	3264
857.397	3260
857.53	3112
857.664	3184
857.797	3272
857.931	3241
858.064	3135
858.197	3214
858.331	3142
858.464	3077
858.597	3020
858.731	3108
858.864	3108
858.997	3081
859.13	3165
859.263	3169
859.396	3214
859.529	3127
859.662	3097
859.795	3039
859.928	3104
860.061	3272
860.194	3256
860.327	3123
860.46	3043
860.592	3222
860.725	3230
860.858	3249
860.99	3108
861.123	3074
861.256	3066
861.388	3127
861.521	3983
861.653	3017
861.786	3009
861.918	3009
862.05	3024
862.183	3112
862.315	3161
862.447	3214
862.58	3116
862.712	2963
862.844	2906
862.976	3039
863.108	2994
863.24	3336
863.372	2868
863.504	2960
863.636	2944
863.768	3043
863.9	2990
864.032	2906
864.164	2925
864.296	3032
864.428	3081
864.559	3104
864.691	3070
864.823	3039
864.954	3005
865.086	3032
865.217	2960
865.349	2948
865.48	2979
865.612	2994
865.743	3195
865.875	2998
866.006	2948
866.137	2990
866.269	2956
866.4	2952
866.531	2887
866.662	2887
866.793	2933
866.924	2868
867.055	2971
867.186	2933
867.317	2899
867.448	2819
867.579	2815
867.71	2853
867.841	2823
867.972	2868
868.103	2864
868.233	2925
868.364	2872
868.495	2895
868.625	3055
868.756	3173
868.886	2975
869.017	3001
869.147	3207
869.278	3116
869.408	3036
869.539	3013
869.669	3085
869.799	3028
869.929	3161
870.06	3100
870.19	3355
870.32	3279
870.45	3298
870.58	3389
870.71	3420
870.84	3454
870.97	3237
871.1	3253
871.23	3473
871.36	3450
871.489	3363
871.619	3359
871.749	3435
871.879	3428
872.008	3466
872.138	3336
872.267	3294
872.397	3176
872.526	3097
872.656	2982
872.785	3077
872.915	3249
873.044	3287
873.173	3214
873.303	3245
873.432	3241
873.561	3241
873.69	3131
873.819	3150
873.948	3222
874.077	3097
874.206	2994
874.335	3085
874.464	3203
874.593	3313
874.722	3256
874.851	3389
874.979	3378
875.108	3310
875.237	3218
875.365	3157
875.494	3150
875.623	3222
875.751	3097
875.88	3089
876.008	3135
876.136	3245
876.265	3355
876.393	3504
876.521	3397
876.65	3386
876.778	3325
876.906	3226
877.034	3195
877.162	3233
877.29	3176
877.418	3249
877.546	3272
877.674	3233
877.802	3249
877.93	3218
878.058	3138
878.185	3131
878.313	3192
878.441	3195
878.568	3074
878.696	3112
878.824	3249
878.951	3283
879.079	3409
879.206	3633
879.333	3447
879.461	3321
879.588	3351
879.715	3526
879.842	3576
879.97	3367
880.097	3165
880.224	3135
880.351	3195
880.478	3199
880.605	3173
880.732	3154
880.859	3485
880.986	3302
881.112	3264
881.239	3203
881.366	3066
881.493	3001
881.619	3020
881.746	3055
881.872	3104
881.999	3112
882.125	3161
882.252	3233
882.378	3291
882.505	3416
882.631	3294
882.757	3138
882.883	3199
883.01	3222
883.136	3119
883.262	3074
883.388	3108
883.514	3317
883.64	3355
883.766	3325
883.892	3161
884.018	3199
884.143	3435
884.269	3504
884.395	3199
884.52	3142
884.646	3165
884.772	3150
884.897	3116
885.023	3195
885.148	3325
885.274	3416
885.399	3359
885.524	3313
885.65	3268
885.775	3310
885.9	3272
886.025	3431
886.15	3367
886.275	3291
886.4	3233
886.525	3317
886.65	3306
886.775	3294
886.9	3469
887.025	3580
887.149	3447
887.274	3260
887.399	3142
887.523	3207
887.648	3169
887.773	3214
887.897	3363
888.021	3405
888.146	3291
888.27	3443
888.395	3580
888.519	3450
888.643	3500
888.767	3458
888.891	3336
889.015	3218
889.139	3241
889.263	3253
889.387	3428
889.511	3511
889.635	3447
889.759	3283
889.883	3298
890.006	3359
890.13	3500
890.254	3272
890.377	3355
890.501	3176
890.624	3180
890.748	3287
890.871	3184
890.995	3108
891.118	3032
891.241	3192
891.364	3249
891.488	3317
891.611	3161
891.734	3230
891.857	3302
891.98	3207
892.103	3313
892.226	3275
892.349	3180
892.471	3081
892.594	3241
892.717	3287
892.839	3298
892.962	3298
893.085	3355
893.207	3268
893.33	3146
893.452	3214
893.575	3302
893.697	3264
893.819	3504
893.941	3477
894.064	3409
894.186	3272
894.308	3268
894.43	3420
894.552	3519
894.674	3405
894.796	3253
894.918	3321
895.04	3256
895.161	3473
895.283	3355
895.405	3298
895.526	3378
895.648	3420
895.769	3443
895.891	3477
896.012	3454
896.134	3469
896.255	3397
896.376	3412
896.498	3348
896.619	3397
896.74	3317
896.861	3397
896.982	3705
897.103	3896
897.224	3534
897.345	3500
897.466	3416
897.587	3454
897.708	3629
897.828	3530
897.949	3424
898.07	3317
898.19	3435
898.311	3599
898.431	3447
898.552	3542
898.672	3606
898.792	3553
898.913	3511
899.033	3428
899.153	3313
899.273	3222
899.393	3313
899.513	3268
899.633	3306
899.753	3363
899.873	3294
899.993	3355
900.113	3348
900.232	3367
900.352	3329
900.472	3306
900.591	3226
900.711	3268
900.83	3222
900.95	3393
901.069	3507
901.189	3325
901.308	3165
901.427	3146
901.546	3176
901.665	3283
901.784	3336
901.904	3184
902.023	3154
902.141	3001
902.26	2952
902.379	3154
902.498	3051
902.617	3028
902.735	3199
902.854	3249
902.973	3150
903.091	3081
903.21	3043
903.328	3131
903.446	3112
903.565	3081
903.683	3180
903.801	3127
903.919	3230
904.038	3268
904.156	3192
904.274	3272
904.392	3207
904.51	3275
904.627	3317
904.745	3454
904.863	3500
904.981	3294
905.098	3184
905.216	3264
905.334	3317
905.451	3294
905.569	3313
905.686	3439
905.803	3435
905.921	3283
906.038	3416
906.155	3344
906.272	3294
906.389	3363
906.506	3241
906.623	3279
906.74	3283
906.857	3207
906.974	3275
907.091	3431
907.208	3576
907.324	3439
907.441	3397
907.557	3226
907.674	3222
907.79	3184
907.907	3302
908.023	3401
908.139	3401
908.256	3329
908.372	3378
908.488	3359
908.604	3253
908.72	3188
908.836	3291
908.952	3275
909.068	3351
909.184	3443
909.3	3409
909.415	3485
909.531	3469
909.647	3287
909.762	3310
909.878	3237
909.993	3409
910.108	3351
910.224	3306
910.339	3405
910.454	3336
910.57	3291
910.685	3226
910.8	3564
910.915	3568
911.03	3443
911.145	3272
911.259	3279
911.374	3313
911.489	3264
911.604	3264
911.718	3097
911.833	3135
911.947	3028
912.062	2944
912.176	3150
912.291	3199
912.405	3237
912.519	3397
912.633	3469
912.748	3374
912.862	3256
912.976	3138
913.09	3024
913.204	3112
913.318	3218
913.431	3340
913.545	3310
913.659	3424
913.772	3313
913.886	3226
914	3176
914.113	3344
914.226	3409
914.34	3389
914.453	3211
914.566	3435
914.68	3313
914.793	3317
914.906	3116
915.019	3112
915.132	3032
915.245	3214
915.358	3188
915.47	3188
915.583	3264
915.696	3306
915.809	3439
915.921	3443
916.034	3241
916.146	3283
916.259	3211
916.371	3401
916.483	3378
916.595	3283
916.708	3332
916.82	3367
916.932	3306
917.044	3367
917.156	3359
917.268	3268
917.38	3291
917.491	3272
917.603	3332
917.715	3454
917.826	3469
917.938	3348
918.049	3264
918.161	3431
918.272	3545
918.384	3572
918.495	3492
918.606	3332
918.717	3306
918.828	3348
918.939	3412
919.05	3325
919.161	3317
919.272	3207
919.383	3279
919.494	3515
919.604	3694
919.715	3496
919.826	3424
919.936	3492
920.047	3599
920.157	3542
920.267	3774
920.378	3549
920.488	3614
920.598	3751
920.708	3960
920.818	3797
920.928	3831
921.038	4017
921.148	4006
921.258	3671
921.368	3648
921.477	3561
921.587	3496
921.697	3447
921.806	3610
921.916	3504
922.025	3298
922.134	3340
922.244	3325
922.353	3447
922.462	3264
922.571	3245
922.68	3093
922.789	3081
922.898	3135
923.007	3081
923.116	3211
923.224	3165
923.333	3154
923.442	3089
923.55	3066
923.659	3131
923.767	3245
923.876	3089
923.984	3214
924.092	3093
924.201	3203
924.309	3188
924.417	3268
924.525	3146
924.633	3218
924.741	3987
924.849	2986
924.956	3275
925.064	3119
925.172	3043
925.279	3077
925.387	3233
925.494	3237
925.602	3344
925.709	3329
925.816	3165
925.924	3310
926.031	3374
926.138	3321
926.245	3363
926.352	3237
926.459	3370
926.566	3439
926.673	3348
926.779	3256
926.886	3260
926.993	3150
927.099	3157
927.206	3127
927.312	3108
927.419	3207
927.525	3176
927.631	3279
927.737	3097
927.843	3146
927.95	2998
928.056	3100
928.162	3203
928.267	3268
928.373	3899
928.479	3298
928.585	3070
928.69	3188
928.796	3268
928.901	3211
929.007	3085
929.112	3218
929.218	3165
929.323	3207
929.428	3142
929.533	3294
929.638	3150
929.743	3116
929.848	3233
929.953	3233
930.058	3154
930.163	3013
930.267	3047
930.372	3203
930.477	3032
930.581	3348
930.685	3203
930.79	3036
930.894	3154
930.998	3116
931.103	3275
931.207	3017
931.311	2944
931.415	2960
931.519	2766
931.623	2811
