Data from test_V78500241_785.txt Node
Date: Fri Mar 25 16:20:38 CST 2022
User: usil
Spectrometer: V785-0024
Trigger mode: 0
Integration Time (sec): 4.000000E-1
Scans to average: 1
Nonlinearity correction enabled: false
Boxcar width: 0
Storing dark spectrum: false
XAxis mode: Wavelengths
Number of Pixels in Spectrum: 1024
>>>>>Begin Spectral Data<<<<<
801.071	2899
801.214	2933
801.356	2853
801.499	2895
801.641	2857
801.783	2918
801.926	3058
802.068	2963
802.211	2967
802.353	3043
802.496	2922
802.638	3005
802.78	3024
802.923	3062
803.065	2994
803.208	2895
803.35	2922
803.492	2906
803.635	2918
803.777	2750
803.919	2845
804.061	3195
804.204	2918
804.346	2910
804.488	2830
804.63	2998
804.773	2883
804.915	2895
805.057	3108
805.199	2929
805.341	2914
805.483	3005
805.626	3020
805.768	2944
805.91	3077
806.052	3142
806.194	3055
806.336	3203
806.478	3032
806.62	2941
806.762	2979
806.904	3070
807.046	3165
807.188	2986
807.33	2880
807.472	3005
807.614	2925
807.756	2982
807.898	2891
808.04	2910
808.182	2975
808.324	2933
808.465	2853
808.607	2937
808.749	2792
808.891	2845
809.033	2944
809.174	2967
809.316	2910
809.458	2864
809.6	2758
809.741	2758
809.883	2788
810.025	2842
810.166	2853
810.308	2857
810.45	2838
810.591	2804
810.733	2727
810.875	2823
811.016	2777
811.158	2746
811.299	2781
811.441	2902
811.582	2895
811.724	2842
811.865	2861
812.007	2891
812.148	2834
812.29	2830
812.431	2922
812.573	2948
812.714	2963
812.855	3051
812.997	3001
813.138	3123
813.279	3009
813.421	2986
813.562	2960
813.703	2842
813.845	2868
813.986	2788
814.127	2701
814.268	2842
814.41	2845
814.551	2800
814.692	2853
814.833	2830
814.974	2902
815.115	2944
815.256	2807
815.397	2769
815.539	2853
815.68	2762
815.821	2804
815.962	2941
816.103	2925
816.244	2853
816.385	2872
816.526	2937
816.666	2887
816.807	2720
816.948	2902
817.089	2902
817.23	2887
817.371	2800
817.512	2811
817.653	2857
817.793	2807
817.934	2880
818.075	2948
818.216	2986
818.356	3036
818.497	2895
818.638	2773
818.778	2800
818.919	2777
819.06	2785
819.2	2910
819.341	2792
819.481	2800
819.622	2937
819.762	3093
819.903	3032
820.043	2922
820.184	2925
820.324	2880
820.465	3036
820.605	3013
820.746	3024
820.886	2948
821.026	3097
821.167	3112
821.307	3249
821.447	3291
821.588	3272
821.728	3249
821.868	3173
822.008	3055
822.149	3146
822.289	3230
822.429	3074
822.569	3066
822.709	3195
822.849	3036
822.99	3051
823.13	3135
823.27	3203
823.41	3112
823.55	3127
823.69	3161
823.83	3207
823.97	3093
824.11	2979
824.25	3024
824.389	3043
824.529	3112
824.669	3104
824.809	3146
824.949	3249
825.089	3199
825.228	3138
825.368	3043
825.508	2975
825.648	2948
825.787	2979
825.927	3028
826.067	2967
826.206	2979
826.346	3062
826.485	3058
826.625	3127
826.765	3245
826.904	3203
827.044	2990
827.183	2944
827.323	2880
827.462	3005
827.601	2922
827.741	2925
827.88	2979
828.02	2853
828.159	2994
828.298	3039
828.437	3070
828.577	3020
828.716	3253
828.855	3089
828.994	2899
829.134	2861
829.273	2929
829.412	2849
829.551	2849
829.69	2887
829.829	2967
829.968	3135
830.107	2986
830.246	3043
830.385	2925
830.524	2891
830.663	2807
830.802	2693
830.941	2636
831.08	2629
831.219	2724
831.357	2746
831.496	2944
831.635	2712
831.774	2632
831.913	2629
832.051	2518
832.19	2587
832.329	2663
832.467	2579
832.606	2476
832.744	2575
832.883	2579
833.022	2549
833.16	2667
833.299	2678
833.437	2720
833.576	2686
833.714	2720
833.852	2701
833.991	2735
834.129	2861
834.267	2838
834.406	2788
834.544	2849
834.682	2842
834.821	2868
834.959	3058
835.097	2922
835.235	3043
835.373	2982
835.511	3047
835.65	2937
835.788	2918
835.926	2857
836.064	2834
836.202	2857
836.34	3093
836.478	3180
836.615	3039
836.753	3142
836.891	3226
837.029	3207
837.167	3119
837.305	3047
837.443	3093
837.58	2960
837.718	3100
837.856	3036
837.993	3036
838.131	3131
838.269	3085
838.406	3058
838.544	3062
838.681	2902
838.819	2906
838.956	2819
839.094	2830
839.231	2876
839.369	3043
839.506	3393
839.643	3218
839.781	3024
839.918	2975
840.055	3051
840.193	3074
840.33	3043
840.467	3108
840.604	3116
840.742	3359
840.879	3017
841.016	3047
841.153	3077
841.29	3363
841.427	3291
841.564	3249
841.701	3283
841.838	3218
841.975	3214
842.112	3226
842.249	3104
842.385	3051
842.522	3268
842.659	3074
842.796	3055
842.933	3119
843.069	3024
843.206	3055
843.343	3146
843.479	3093
843.616	3157
843.752	2910
843.889	2868
844.025	3081
844.162	2857
844.298	3039
844.435	2937
844.571	2918
844.708	3074
844.844	3173
844.98	3203
845.117	3146
845.253	3020
845.389	3001
845.525	3066
845.661	3112
845.798	3013
845.934	3077
846.07	3058
846.206	3199
846.342	3291
846.478	3211
846.614	3077
846.75	3043
846.886	3013
847.022	3237
847.158	3093
847.294	3180
847.429	3214
847.565	3157
847.701	3435
847.837	3024
847.972	2982
848.108	3154
848.244	3108
848.379	3005
848.515	2956
848.65	2941
848.786	2971
848.921	2982
849.057	3085
849.192	3173
849.328	3093
849.463	3123
849.598	3028
849.734	3001
849.869	2975
850.004	2925
850.14	2971
850.275	2891
850.41	2792
850.545	2845
850.68	2941
850.815	2956
850.95	2956
851.085	3184
851.22	3093
851.355	3028
851.49	2990
851.625	2979
851.76	3013
851.895	2910
852.03	2868
852.165	3039
852.299	3112
852.434	3195
852.569	3119
852.703	3157
852.838	3222
852.973	3329
853.107	3317
853.242	3169
853.376	3058
853.511	2963
853.645	3024
853.78	3203
853.914	3081
854.048	3100
854.183	3112
854.317	3116
854.451	3298
854.585	3150
854.72	3097
854.854	3188
854.988	3066
855.122	3074
855.256	2967
855.39	3123
855.524	3241
855.658	3180
855.792	3169
855.926	3199
856.06	3188
856.194	3260
856.327	3138
856.461	3039
856.595	3043
856.729	3062
856.862	3237
856.996	3123
857.13	3192
857.263	3207
857.397	3226
857.53	3123
857.664	3180
857.797	3218
857.931	3253
858.064	3154
858.197	3222
858.331	3108
858.464	3074
858.597	3005
858.731	3108
858.864	3146
858.997	3024
859.13	3123
859.263	3176
859.396	3214
859.529	3074
859.662	3039
859.795	2998
859.928	3112
860.061	3268
860.194	3291
860.327	3112
860.46	3062
860.592	3222
860.725	3233
860.858	3283
860.99	3104
861.123	3020
861.256	3028
861.388	3104
861.521	3873
861.653	3005
861.786	2979
861.918	2956
862.05	3081
862.183	3081
862.315	3169
862.447	3192
862.58	3036
862.712	2960
862.844	2868
862.976	3032
863.108	3028
863.24	3382
863.372	2853
863.504	2937
863.636	2986
863.768	3001
863.9	2979
864.032	2910
864.164	2933
864.296	2967
864.428	3058
864.559	3089
864.691	3055
864.823	3066
864.954	3036
865.086	3055
865.217	2952
865.349	2979
865.48	2971
865.612	2963
865.743	3173
865.875	3013
866.006	2944
866.137	2971
866.269	2956
866.4	2872
866.531	2922
866.662	2880
866.793	2887
866.924	2910
867.055	2963
867.186	2925
867.317	2883
867.448	2823
867.579	2864
867.71	2857
867.841	2804
867.972	2925
868.103	2906
868.233	2891
868.364	2853
868.495	2887
868.625	3074
868.756	3173
868.886	3001
869.017	3036
869.147	3154
869.278	3131
869.408	3070
869.539	3013
869.669	3093
869.799	3077
869.929	3104
870.06	3112
870.19	3321
870.32	3260
870.45	3287
870.58	3420
870.71	3443
870.84	3409
870.97	3275
871.1	3199
871.23	3462
871.36	3473
871.489	3344
871.619	3428
871.749	3351
871.879	3412
872.008	3492
872.138	3378
872.267	3283
872.397	3119
872.526	3077
872.656	2994
872.785	3112
872.915	3184
873.044	3279
873.173	3192
873.303	3245
873.432	3214
873.561	3214
873.69	3089
873.819	3100
873.948	3173
874.077	3070
874.206	3036
874.335	3081
874.464	3203
874.593	3321
874.722	3272
874.851	3412
874.979	3370
875.108	3294
875.237	3138
875.365	3131
875.494	3142
875.623	3268
875.751	3074
875.88	3112
876.008	3142
876.136	3226
876.265	3405
876.393	3500
876.521	3397
876.65	3382
876.778	3355
876.906	3237
877.034	3188
877.162	3237
877.29	3180
877.418	3241
877.546	3237
877.674	3214
877.802	3249
877.93	3192
878.058	3146
878.185	3135
878.313	3173
878.441	3237
878.568	3051
878.696	3142
878.824	3260
878.951	3287
879.079	3439
879.206	3614
879.333	3447
879.461	3329
879.588	3367
879.715	3507
879.842	3580
879.97	3359
880.097	3142
880.224	3119
880.351	3188
880.478	3207
880.605	3161
880.732	3192
880.859	3477
880.986	3317
881.112	3340
881.239	3233
881.366	3093
881.493	3017
881.619	3055
881.746	3039
881.872	3055
881.999	3089
882.125	3119
882.252	3256
882.378	3287
882.505	3447
882.631	3283
882.757	3169
882.883	3199
883.01	3222
883.136	3138
883.262	3077
883.388	3093
883.514	3287
883.64	3374
883.766	3222
883.892	3173
884.018	3184
884.143	3382
884.269	3526
884.395	3230
884.52	3154
884.646	3176
884.772	3085
884.897	3074
885.023	3180
885.148	3329
885.274	3409
885.399	3359
885.524	3291
885.65	3260
885.775	3329
885.9	3306
886.025	3428
886.15	3336
886.275	3283
886.4	3245
886.525	3291
886.65	3245
886.775	3283
886.9	3492
887.025	3595
887.149	3409
887.274	3283
887.399	3138
887.523	3256
887.648	3188
887.773	3184
887.897	3332
888.021	3439
888.146	3313
888.27	3454
888.395	3568
888.519	3424
888.643	3416
888.767	3477
888.891	3279
889.015	3313
889.139	3241
889.263	3245
889.387	3382
889.511	3485
889.635	3428
889.759	3306
889.883	3279
890.006	3397
890.13	3462
890.254	3256
890.377	3336
890.501	3184
890.624	3165
890.748	3275
890.871	3161
890.995	3119
891.118	3036
891.241	3176
891.364	3214
891.488	3321
891.611	3173
891.734	3184
891.857	3268
891.98	3253
892.103	3256
892.226	3249
892.349	3192
892.471	3093
892.594	3233
892.717	3287
892.839	3245
892.962	3279
893.085	3359
893.207	3302
893.33	3173
893.452	3199
893.575	3298
893.697	3230
893.819	3431
893.941	3500
894.064	3435
894.186	3256
894.308	3275
894.43	3424
894.552	3523
894.674	3454
894.796	3287
894.918	3325
895.04	3279
895.161	3439
895.283	3405
895.405	3298
895.526	3374
895.648	3424
895.769	3389
895.891	3428
896.012	3469
896.134	3424
896.255	3412
896.376	3355
896.498	3336
896.619	3401
896.74	3344
896.861	3389
896.982	3637
897.103	3812
897.224	3603
897.345	3507
897.466	3428
897.587	3473
897.708	3622
897.828	3549
897.949	3416
898.07	3298
898.19	3359
898.311	3606
898.431	3481
898.552	3492
898.672	3606
898.792	3545
898.913	3523
899.033	3416
899.153	3287
899.273	3230
899.393	3291
899.513	3306
899.633	3317
899.753	3355
899.873	3306
899.993	3355
900.113	3298
900.232	3389
900.352	3344
900.472	3272
900.591	3180
900.711	3294
900.83	3245
900.95	3405
901.069	3526
901.189	3336
901.308	3192
901.427	3127
901.546	3176
901.665	3275
901.784	3336
901.904	3176
902.023	3138
902.141	3028
902.26	3009
902.379	3127
902.498	3077
902.617	3036
902.735	3195
902.854	3195
902.973	3195
903.091	3051
903.21	3062
903.328	3154
903.446	3074
903.565	3123
903.683	3165
903.801	3135
903.919	3245
904.038	3302
904.156	3154
904.274	3291
904.392	3226
904.51	3272
904.627	3310
904.745	3454
904.863	3477
904.981	3272
905.098	3161
905.216	3237
905.334	3298
905.451	3291
905.569	3275
905.686	3428
905.803	3443
905.921	3253
906.038	3443
906.155	3317
906.272	3283
906.389	3332
906.506	3214
906.623	3237
906.74	3245
906.857	3154
906.974	3260
907.091	3443
907.208	3542
907.324	3481
907.441	3374
907.557	3203
907.674	3169
907.79	3222
907.907	3310
908.023	3363
908.139	3378
908.256	3302
908.372	3348
908.488	3332
908.604	3230
908.72	3199
908.836	3249
908.952	3230
909.068	3344
909.184	3466
909.3	3401
909.415	3447
909.531	3477
909.647	3249
909.762	3279
909.878	3256
909.993	3351
910.108	3344
910.224	3336
910.339	3389
910.454	3287
910.57	3249
910.685	3199
910.8	3591
910.915	3557
911.03	3435
911.145	3279
911.259	3192
911.374	3302
911.489	3218
911.604	3199
911.718	3104
911.833	3142
911.947	3009
912.062	2952
912.176	3176
912.291	3142
912.405	3180
912.519	3428
912.633	3447
912.748	3355
912.862	3256
912.976	3176
913.09	3055
913.204	3135
913.318	3180
913.431	3351
913.545	3340
913.659	3393
913.772	3294
913.886	3222
914	3173
914.113	3363
914.226	3412
914.34	3351
914.453	3199
914.566	3409
914.68	3226
914.793	3294
914.906	3131
915.019	3127
915.132	3077
915.245	3199
915.358	3192
915.47	3256
915.583	3245
915.696	3298
915.809	3389
915.921	3397
916.034	3291
916.146	3253
916.259	3226
916.371	3397
916.483	3382
916.595	3325
916.708	3317
916.82	3302
916.932	3363
917.044	3351
917.156	3386
917.268	3264
917.38	3325
917.491	3340
917.603	3374
917.715	3466
917.826	3504
917.938	3420
918.049	3283
918.161	3485
918.272	3599
918.384	3629
918.495	3530
918.606	3405
918.717	3348
918.828	3401
918.939	3428
919.05	3313
919.161	3374
919.272	3222
919.383	3321
919.494	3500
919.604	3709
919.715	3523
919.826	3466
919.936	3504
920.047	3625
920.157	3603
920.267	3876
920.378	3679
920.488	3580
920.598	3812
920.708	3991
920.818	3842
920.928	3842
921.038	4048
921.148	4025
921.258	3778
921.368	3641
921.477	3606
921.587	3564
921.697	3519
921.806	3667
921.916	3545
922.025	3386
922.134	3355
922.244	3336
922.353	3458
922.462	3313
922.571	3233
922.68	3127
922.789	3104
922.898	3226
923.007	3161
923.116	3226
923.224	3230
923.333	3207
923.442	3127
923.55	3150
923.659	3184
923.767	3264
923.876	3142
923.984	3283
924.092	3154
924.201	3241
924.309	3283
924.417	3306
924.525	3180
924.633	3268
924.741	4207
924.849	3055
924.956	3310
925.064	3142
925.172	3047
925.279	3123
925.387	3211
925.494	3237
925.602	3351
925.709	3389
925.816	3256
925.924	3332
926.031	3405
926.138	3416
926.245	3367
926.352	3313
926.459	3424
926.566	3507
926.673	3374
926.779	3294
926.886	3264
926.993	3180
927.099	3169
927.206	3116
927.312	3138
927.419	3287
927.525	3241
927.631	3298
927.737	3195
927.843	3161
927.95	3077
928.056	3154
928.162	3214
928.267	3283
928.373	3759
928.479	3355
928.585	3089
928.69	3222
928.796	3321
928.901	3218
929.007	3043
929.112	3230
929.218	3214
929.323	3222
929.428	3203
929.533	3363
929.638	3150
929.743	3192
929.848	3310
929.953	3230
930.058	3180
930.163	3036
930.267	3074
930.372	3203
930.477	3058
930.581	3363
930.685	3211
930.79	3085
930.894	3154
930.998	3157
931.103	3313
931.207	3005
931.311	2986
931.415	2925
931.519	2804
931.623	2834
