Data from test_V78500241_651.txt Node
Date: Fri Mar 25 16:19:42 CST 2022
User: usil
Spectrometer: V785-0024
Trigger mode: 0
Integration Time (sec): 4.000000E-1
Scans to average: 1
Nonlinearity correction enabled: false
Boxcar width: 0
Storing dark spectrum: false
XAxis mode: Wavelengths
Number of Pixels in Spectrum: 1024
>>>>>Begin Spectral Data<<<<<
801.071	2891
801.214	2941
801.356	2891
801.499	2918
801.641	2849
801.783	2941
801.926	3058
802.068	2963
802.211	2941
802.353	2994
802.496	2933
802.638	2994
802.78	3032
802.923	3074
803.065	3013
803.208	2933
803.35	2922
803.492	2933
803.635	2929
803.777	2773
803.919	2872
804.061	3226
804.204	2925
804.346	2891
804.488	2838
804.63	2990
804.773	2891
804.915	2967
805.057	3085
805.199	2906
805.341	2948
805.483	3039
805.626	3001
805.768	2990
805.91	3066
806.052	3146
806.194	3058
806.336	3245
806.478	3043
806.62	2967
806.762	2944
806.904	3055
807.046	3146
807.188	3009
807.33	2883
807.472	2967
807.614	2906
807.756	2982
807.898	2925
808.04	2864
808.182	2975
808.324	2941
808.465	2883
808.607	2872
808.749	2804
808.891	2849
809.033	2967
809.174	2937
809.316	2868
809.458	2883
809.6	2762
809.741	2785
809.883	2773
810.025	2853
810.166	2872
810.308	2861
810.45	2880
810.591	2781
810.733	2754
810.875	2826
811.016	2769
811.158	2739
811.299	2834
811.441	2941
811.582	2880
811.724	2849
811.865	2834
812.007	2906
812.148	2876
812.29	2872
812.431	2902
812.573	2918
812.714	2967
812.855	3047
812.997	3081
813.138	3135
813.279	3013
813.421	2960
813.562	2967
813.703	2880
813.845	2902
813.986	2769
814.127	2743
814.268	2838
814.41	2834
814.551	2815
814.692	2880
814.833	2811
814.974	2887
815.115	2925
815.256	2819
815.397	2815
815.539	2838
815.68	2769
815.821	2781
815.962	2914
816.103	2941
816.244	2834
816.385	2849
816.526	2971
816.666	2929
816.807	2788
816.948	2861
817.089	2937
817.23	2883
817.371	2826
817.512	2792
817.653	2872
817.793	2785
817.934	2880
818.075	2937
818.216	2986
818.356	3001
818.497	2876
818.638	2804
818.778	2826
818.919	2804
819.06	2769
819.2	2914
819.341	2811
819.481	2823
819.622	2948
819.762	3108
819.903	3051
820.043	2937
820.184	2868
820.324	2918
820.465	3032
820.605	3009
820.746	3020
820.886	2925
821.026	3119
821.167	3116
821.307	3233
821.447	3287
821.588	3256
821.728	3233
821.868	3173
822.008	3047
822.149	3192
822.289	3241
822.429	3108
822.569	3066
822.709	3199
822.849	2994
822.99	3070
823.13	3173
823.27	3237
823.41	3093
823.55	3146
823.69	3138
823.83	3173
823.97	3089
824.11	2952
824.25	3013
824.389	3066
824.529	3077
824.669	3074
824.809	3211
824.949	3272
825.089	3165
825.228	3135
825.368	3009
825.508	2960
825.648	2963
825.787	3028
825.927	3001
826.067	2941
826.206	2967
826.346	3028
826.485	3081
826.625	3100
826.765	3199
826.904	3218
827.044	2975
827.183	2937
827.323	2845
827.462	2944
827.601	2918
827.741	2960
827.88	2979
828.02	2842
828.159	2948
828.298	3028
828.437	3123
828.577	3089
828.716	3241
828.855	3089
828.994	2902
829.134	2861
829.273	2925
829.412	2899
829.551	2842
829.69	2853
829.829	2990
829.968	3108
830.107	3032
830.246	3017
830.385	2902
830.524	2861
830.663	2845
830.802	2727
830.941	2667
831.08	2648
831.219	2743
831.357	2762
831.496	2937
831.635	2708
831.774	2663
831.913	2648
832.051	2545
832.19	2579
832.329	2670
832.467	2537
832.606	2461
832.744	2602
832.883	2587
833.022	2579
833.16	2636
833.299	2686
833.437	2678
833.576	2708
833.714	2720
833.852	2727
833.991	2743
834.129	2830
834.267	2849
834.406	2769
834.544	2872
834.682	2849
834.821	2910
834.959	3066
835.097	2895
835.235	3062
835.373	2967
835.511	3058
835.65	2956
835.788	2941
835.926	2807
836.064	2804
836.202	2826
836.34	3062
836.478	3127
836.615	3028
836.753	3116
836.891	3207
837.029	3161
837.167	3085
837.305	3058
837.443	3028
837.58	2986
837.718	3150
837.856	3085
837.993	2994
838.131	3100
838.269	3093
838.406	3047
838.544	3074
838.681	2922
838.819	2887
838.956	2800
839.094	2864
839.231	2918
839.369	3074
839.506	3367
839.643	3237
839.781	3051
839.918	2933
840.055	3017
840.193	3032
840.33	3062
840.467	3074
840.604	3161
840.742	3393
840.879	3043
841.016	2994
841.153	3127
841.29	3325
841.427	3298
841.564	3241
841.701	3294
841.838	3173
841.975	3195
842.112	3195
842.249	3047
842.385	2982
842.522	3237
842.659	3104
842.796	3001
842.933	3093
843.069	3039
843.206	3005
843.343	3173
843.479	3108
843.616	3123
843.752	2906
843.889	2864
844.025	3051
844.162	2887
844.298	3051
844.435	2990
844.571	2918
844.708	3047
844.844	3180
844.98	3230
845.117	3138
845.253	3047
845.389	3017
845.525	3116
845.661	3081
845.798	3020
845.934	3104
846.07	3017
846.206	3192
846.342	3329
846.478	3256
846.614	3081
846.75	3028
846.886	2994
847.022	3222
847.158	3154
847.294	3161
847.429	3230
847.565	3203
847.701	3481
847.837	3036
847.972	3005
848.108	3131
848.244	3161
848.379	2998
848.515	2963
848.65	2929
848.786	2925
848.921	3017
849.057	3131
849.192	3138
849.328	3097
849.463	3108
849.598	3081
849.734	3058
849.869	2967
850.004	2902
850.14	2971
850.275	2925
850.41	2838
850.545	2868
850.68	2925
850.815	2948
850.95	2910
851.085	3195
851.22	3104
851.355	3039
851.49	2948
851.625	2979
851.76	3017
851.895	2956
852.03	2910
852.165	3032
852.299	3077
852.434	3176
852.569	3184
852.703	3192
852.838	3245
852.973	3321
853.107	3313
853.242	3138
853.376	3074
853.511	2948
853.645	3043
853.78	3203
853.914	3097
854.048	3089
854.183	3097
854.317	3169
854.451	3306
854.585	3116
854.72	3104
854.854	3188
854.988	3055
855.122	3093
855.256	2952
855.39	3108
855.524	3157
855.658	3150
855.792	3157
855.926	3176
856.06	3173
856.194	3241
856.327	3173
856.461	3085
856.595	3116
856.729	3112
856.862	3230
856.996	3154
857.13	3203
857.263	3237
857.397	3241
857.53	3097
857.664	3169
857.797	3161
857.931	3245
858.064	3157
858.197	3214
858.331	3127
858.464	3097
858.597	3024
858.731	3112
858.864	3138
858.997	3108
859.13	3135
859.263	3169
859.396	3161
859.529	3039
859.662	3051
859.795	3043
859.928	3154
860.061	3287
860.194	3291
860.327	3146
860.46	3062
860.592	3253
860.725	3233
860.858	3245
860.99	3138
861.123	3047
861.256	3047
861.388	3142
861.521	3808
861.653	2994
861.786	2941
861.918	2975
862.05	3043
862.183	3055
862.315	3119
862.447	3180
862.58	3108
862.712	2963
862.844	2842
862.976	3028
863.108	2975
863.24	3416
863.372	2868
863.504	2975
863.636	2944
863.768	3036
863.9	2971
864.032	2914
864.164	2941
864.296	3017
864.428	3077
864.559	3097
864.691	3062
864.823	3081
864.954	3028
865.086	3036
865.217	2979
865.349	2937
865.48	2982
865.612	2967
865.743	3112
865.875	2994
866.006	2925
866.137	2944
866.269	2971
866.4	2872
866.531	2899
866.662	2918
866.793	2864
866.924	2910
867.055	2963
867.186	2948
867.317	2899
867.448	2845
867.579	2845
867.71	2849
867.841	2800
867.972	2887
868.103	2857
868.233	2880
868.364	2880
868.495	2918
868.625	3047
868.756	3169
868.886	2986
869.017	3001
869.147	3112
869.278	3157
869.408	3047
869.539	2998
869.669	3070
869.799	3024
869.929	3123
870.06	3119
870.19	3344
870.32	3279
870.45	3298
870.58	3348
870.71	3469
870.84	3462
870.97	3302
871.1	3222
871.23	3481
871.36	3466
871.489	3363
871.619	3409
871.749	3393
871.879	3412
872.008	3416
872.138	3313
872.267	3264
872.397	3112
872.526	3104
872.656	2986
872.785	3100
872.915	3264
873.044	3294
873.173	3230
873.303	3253
873.432	3214
873.561	3203
873.69	3165
873.819	3081
873.948	3188
874.077	3074
874.206	3043
874.335	3097
874.464	3195
874.593	3325
874.722	3245
874.851	3374
874.979	3325
875.108	3279
875.237	3214
875.365	3169
875.494	3195
875.623	3256
875.751	3043
875.88	3104
876.008	3203
876.136	3203
876.265	3355
876.393	3492
876.521	3439
876.65	3378
876.778	3298
876.906	3237
877.034	3203
877.162	3222
877.29	3192
877.418	3241
877.546	3249
877.674	3226
877.802	3214
877.93	3203
878.058	3135
878.185	3085
878.313	3161
878.441	3218
878.568	3066
878.696	3119
878.824	3249
878.951	3302
879.079	3469
879.206	3603
879.333	3409
879.461	3302
879.588	3329
879.715	3496
879.842	3572
879.97	3363
880.097	3154
880.224	3169
880.351	3203
880.478	3256
880.605	3207
880.732	3195
880.859	3462
880.986	3332
881.112	3351
881.239	3199
881.366	3089
881.493	3020
881.619	3039
881.746	3062
881.872	3081
881.999	3112
882.125	3176
882.252	3249
882.378	3283
882.505	3439
882.631	3313
882.757	3138
882.883	3203
883.01	3253
883.136	3176
883.262	3077
883.388	3097
883.514	3268
883.64	3351
883.766	3294
883.892	3199
884.018	3222
884.143	3447
884.269	3557
884.395	3207
884.52	3180
884.646	3180
884.772	3135
884.897	3104
885.023	3203
885.148	3336
885.274	3389
885.399	3363
885.524	3283
885.65	3256
885.775	3313
885.9	3256
886.025	3405
886.15	3355
886.275	3291
886.4	3192
886.525	3268
886.65	3214
886.775	3275
886.9	3481
887.025	3641
887.149	3370
887.274	3268
887.399	3173
887.523	3188
887.648	3161
887.773	3203
887.897	3344
888.021	3397
888.146	3294
888.27	3431
888.395	3561
888.519	3420
888.643	3458
888.767	3462
888.891	3306
889.015	3272
889.139	3310
889.263	3226
889.387	3370
889.511	3447
889.635	3450
889.759	3275
889.883	3294
890.006	3367
890.13	3504
890.254	3256
890.377	3321
890.501	3214
890.624	3192
890.748	3302
890.871	3157
890.995	3112
891.118	3051
891.241	3165
891.364	3245
891.488	3332
891.611	3169
891.734	3207
891.857	3253
891.98	3226
892.103	3344
892.226	3287
892.349	3195
892.471	3074
892.594	3226
892.717	3272
892.839	3260
892.962	3260
893.085	3332
893.207	3306
893.33	3169
893.452	3180
893.575	3351
893.697	3253
893.819	3447
893.941	3507
894.064	3443
894.186	3256
894.308	3230
894.43	3439
894.552	3545
894.674	3458
894.796	3260
894.918	3302
895.04	3306
895.161	3458
895.283	3382
895.405	3313
895.526	3386
895.648	3435
895.769	3454
895.891	3492
896.012	3450
896.134	3443
896.255	3416
896.376	3382
896.498	3336
896.619	3435
896.74	3382
896.861	3397
896.982	3652
897.103	3861
897.224	3576
897.345	3511
897.466	3443
897.587	3481
897.708	3622
897.828	3511
897.949	3428
898.07	3310
898.19	3424
898.311	3633
898.431	3473
898.552	3485
898.672	3614
898.792	3553
898.913	3519
899.033	3416
899.153	3302
899.273	3226
899.393	3241
899.513	3310
899.633	3302
899.753	3310
899.873	3302
899.993	3401
900.113	3367
900.232	3370
900.352	3321
900.472	3264
900.591	3230
900.711	3298
900.83	3211
900.95	3458
901.069	3477
901.189	3329
901.308	3184
901.427	3150
901.546	3207
901.665	3275
901.784	3340
901.904	3245
902.023	3150
902.141	2994
902.26	2986
902.379	3089
902.498	3085
902.617	3028
902.735	3188
902.854	3245
902.973	3199
903.091	3058
903.21	3070
903.328	3123
903.446	3131
903.565	3093
903.683	3214
903.801	3131
903.919	3233
904.038	3245
904.156	3142
904.274	3272
904.392	3249
904.51	3279
904.627	3340
904.745	3412
904.863	3481
904.981	3211
905.098	3173
905.216	3218
905.334	3268
905.451	3260
905.569	3321
905.686	3431
905.803	3435
905.921	3283
906.038	3439
906.155	3313
906.272	3256
906.389	3298
906.506	3188
906.623	3260
906.74	3253
906.857	3199
906.974	3245
907.091	3428
907.208	3561
907.324	3473
907.441	3367
907.557	3192
907.674	3253
907.79	3203
907.907	3237
908.023	3378
908.139	3344
908.256	3302
908.372	3389
908.488	3374
908.604	3268
908.72	3218
908.836	3253
908.952	3275
909.068	3317
909.184	3492
909.3	3374
909.415	3515
909.531	3488
909.647	3279
909.762	3287
909.878	3230
909.993	3348
910.108	3317
910.224	3348
910.339	3420
910.454	3344
910.57	3256
910.685	3222
910.8	3625
910.915	3519
911.03	3424
911.145	3264
911.259	3287
911.374	3302
911.489	3241
911.604	3188
911.718	3146
911.833	3135
911.947	3009
912.062	2941
912.176	3173
912.291	3161
912.405	3214
912.519	3420
912.633	3409
912.748	3291
912.862	3241
912.976	3142
913.09	3062
913.204	3135
913.318	3226
913.431	3351
913.545	3329
913.659	3397
913.772	3321
913.886	3214
914	3211
914.113	3348
914.226	3412
914.34	3370
914.453	3176
914.566	3378
914.68	3275
914.793	3332
914.906	3135
915.019	3142
915.132	3070
915.245	3157
915.358	3207
915.47	3222
915.583	3268
915.696	3241
915.809	3431
915.921	3340
916.034	3211
916.146	3249
916.259	3226
916.371	3386
916.483	3382
916.595	3241
916.708	3359
916.82	3367
916.932	3340
917.044	3382
917.156	3336
917.268	3241
917.38	3237
917.491	3291
917.603	3378
917.715	3447
917.826	3458
917.938	3363
918.049	3283
918.161	3469
918.272	3557
918.384	3580
918.495	3515
918.606	3321
918.717	3249
918.828	3329
918.939	3409
919.05	3302
919.161	3393
919.272	3165
919.383	3310
919.494	3496
919.604	3717
919.715	3481
919.826	3409
919.936	3488
920.047	3599
920.157	3530
920.267	3755
920.378	3606
920.488	3507
920.598	3823
920.708	3953
920.818	3854
920.928	3850
921.038	4010
921.148	3983
921.258	3694
921.368	3629
921.477	3580
921.587	3549
921.697	3454
921.806	3622
921.916	3511
922.025	3329
922.134	3374
922.244	3306
922.353	3409
922.462	3253
922.571	3192
922.68	3089
922.789	3074
922.898	3157
923.007	3108
923.116	3226
923.224	3176
923.333	3157
923.442	3085
923.55	3104
923.659	3100
923.767	3192
923.876	3119
923.984	3218
924.092	3100
924.201	3157
924.309	3230
924.417	3237
924.525	3184
924.633	3230
924.741	3983
924.849	3058
924.956	3253
925.064	3100
925.172	3047
925.279	3138
925.387	3233
925.494	3199
925.602	3367
925.709	3302
925.816	3233
925.924	3272
926.031	3386
926.138	3279
926.245	3336
926.352	3199
926.459	3409
926.566	3420
926.673	3336
926.779	3233
926.886	3241
926.993	3154
927.099	3119
927.206	3070
927.312	3081
927.419	3211
927.525	3180
927.631	3272
927.737	3135
927.843	3131
927.95	3020
928.056	3116
928.162	3169
928.267	3253
928.373	3755
928.479	3325
928.585	3028
928.69	3237
928.796	3302
928.901	3161
929.007	3032
929.112	3199
929.218	3192
929.323	3123
929.428	3157
929.533	3317
929.638	3093
929.743	3169
929.848	3222
929.953	3195
930.058	3116
930.163	3055
930.267	3043
930.372	3214
930.477	3032
930.581	3283
930.685	3184
930.79	3028
930.894	3127
930.998	3127
931.103	3264
931.207	2967
931.311	2952
931.415	2929
931.519	2777
931.623	2830
