Data from test_V78500241_1185.txt Node
Date: Fri Mar 25 16:23:24 CST 2022
User: usil
Spectrometer: V785-0024
Trigger mode: 0
Integration Time (sec): 4.000000E-1
Scans to average: 1
Nonlinearity correction enabled: false
Boxcar width: 0
Storing dark spectrum: false
XAxis mode: Wavelengths
Number of Pixels in Spectrum: 1024
>>>>>Begin Spectral Data<<<<<
801.071	2891
801.214	2937
801.356	2883
801.499	2944
801.641	2861
801.783	2933
801.926	3017
802.068	2967
802.211	2963
802.353	3032
802.496	2960
802.638	2982
802.78	2994
802.923	3112
803.065	2975
803.208	2902
803.35	2914
803.492	2922
803.635	2902
803.777	2754
803.919	2883
804.061	3135
804.204	2906
804.346	2887
804.488	2834
804.63	2975
804.773	2857
804.915	2883
805.057	3043
805.199	2929
805.341	2956
805.483	3020
805.626	3001
805.768	2895
805.91	3058
806.052	3081
806.194	3043
806.336	3245
806.478	3024
806.62	2948
806.762	2967
806.904	3062
807.046	3142
807.188	2967
807.33	2937
807.472	2979
807.614	2918
807.756	2986
807.898	2925
808.04	2906
808.182	2933
808.324	2925
808.465	2883
808.607	2876
808.749	2792
808.891	2864
809.033	2918
809.174	2982
809.316	2857
809.458	2876
809.6	2743
809.741	2796
809.883	2754
810.025	2838
810.166	2853
810.308	2864
810.45	2830
810.591	2796
810.733	2781
810.875	2842
811.016	2811
811.158	2762
811.299	2823
811.441	2883
811.582	2883
811.724	2823
811.865	2826
812.007	2880
812.148	2853
812.29	2838
812.431	2895
812.573	2918
812.714	2948
812.855	3043
812.997	3036
813.138	3146
813.279	2979
813.421	2971
813.562	2910
813.703	2872
813.845	2864
813.986	2754
814.127	2716
814.268	2796
814.41	2819
814.551	2815
814.692	2872
814.833	2804
814.974	2891
815.115	2971
815.256	2845
815.397	2811
815.539	2883
815.68	2830
815.821	2785
815.962	2918
816.103	2941
816.244	2834
816.385	2842
816.526	2956
816.666	2902
816.807	2781
816.948	2914
817.089	2891
817.23	2834
817.371	2766
817.512	2800
817.653	2830
817.793	2830
817.934	2872
818.075	2948
818.216	2956
818.356	3058
818.497	2876
818.638	2807
818.778	2800
818.919	2796
819.06	2731
819.2	2899
819.341	2777
819.481	2777
819.622	2906
819.762	3112
819.903	3036
820.043	2937
820.184	2914
820.324	2880
820.465	2986
820.605	2998
820.746	3032
820.886	2895
821.026	3089
821.167	3146
821.307	3230
821.447	3302
821.588	3241
821.728	3184
821.868	3203
822.008	3032
822.149	3161
822.289	3207
822.429	3085
822.569	3070
822.709	3142
822.849	3055
822.99	3085
823.13	3176
823.27	3180
823.41	3100
823.55	3150
823.69	3138
823.83	3207
823.97	3074
824.11	2982
824.25	2994
824.389	3066
824.529	3104
824.669	3066
824.809	3173
824.949	3249
825.089	3218
825.228	3142
825.368	3001
825.508	2975
825.648	2956
825.787	2975
825.927	3005
826.067	2941
826.206	2944
826.346	3013
826.485	3024
826.625	3119
826.765	3256
826.904	3207
827.044	2998
827.183	2922
827.323	2838
827.462	2960
827.601	2902
827.741	2891
827.88	2941
828.02	2823
828.159	2952
828.298	3001
828.437	3127
828.577	2982
828.716	3241
828.855	3051
828.994	2925
829.134	2823
829.273	2937
829.412	2834
829.551	2826
829.69	2876
829.829	2952
829.968	3154
830.107	3024
830.246	3017
830.385	2925
830.524	2887
830.663	2853
830.802	2697
830.941	2648
831.08	2632
831.219	2754
831.357	2746
831.496	2910
831.635	2670
831.774	2629
831.913	2667
832.051	2526
832.19	2590
832.329	2670
832.467	2545
832.606	2484
832.744	2568
832.883	2575
833.022	2564
833.16	2659
833.299	2655
833.437	2682
833.576	2712
833.714	2697
833.852	2720
833.991	2739
834.129	2777
834.267	2815
834.406	2769
834.544	2853
834.682	2830
834.821	2826
834.959	3036
835.097	2910
835.235	3036
835.373	2990
835.511	3043
835.65	2929
835.788	2971
835.926	2792
836.064	2838
836.202	2815
836.34	3055
836.478	3127
836.615	3017
836.753	3135
836.891	3226
837.029	3135
837.167	3070
837.305	3047
837.443	3051
837.58	2925
837.718	3108
837.856	3077
837.993	3028
838.131	3093
838.269	3108
838.406	3108
838.544	3058
838.681	2944
838.819	2922
838.956	2777
839.094	2777
839.231	2895
839.369	2986
839.506	3313
839.643	3195
839.781	3043
839.918	2948
840.055	3043
840.193	3028
840.33	3024
840.467	3108
840.604	3077
840.742	3389
840.879	3047
841.016	3036
841.153	3104
841.29	3321
841.427	3275
841.564	3253
841.701	3298
841.838	3237
841.975	3207
842.112	3176
842.249	3062
842.385	2990
842.522	3241
842.659	3062
842.796	3058
842.933	3104
843.069	3036
843.206	3032
843.343	3188
843.479	3066
843.616	3104
843.752	2910
843.889	2838
844.025	3070
844.162	2880
844.298	3051
844.435	2941
844.571	2868
844.708	3032
844.844	3142
844.98	3199
845.117	3218
845.253	3036
845.389	3028
845.525	3055
845.661	3097
845.798	3009
845.934	3085
846.07	3036
846.206	3188
846.342	3287
846.478	3154
846.614	3058
846.75	3036
846.886	2979
847.022	3214
847.158	3100
847.294	3180
847.429	3207
847.565	3173
847.701	3431
847.837	2990
847.972	2998
848.108	3070
848.244	3150
848.379	2986
848.515	2922
848.65	2895
848.786	2971
848.921	3028
849.057	3036
849.192	3116
849.328	3051
849.463	3093
849.598	2986
849.734	3017
849.869	2944
850.004	2918
850.14	2941
850.275	2918
850.41	2838
850.545	2872
850.68	2902
850.815	2922
850.95	2944
851.085	3154
851.22	3104
851.355	2994
851.49	2971
851.625	2960
851.76	2960
851.895	2864
852.03	2853
852.165	2990
852.299	3131
852.434	3169
852.569	3150
852.703	3165
852.838	3226
852.973	3313
853.107	3287
853.242	3142
853.376	3074
853.511	2971
853.645	3005
853.78	3207
853.914	3089
854.048	3077
854.183	3074
854.317	3135
854.451	3313
854.585	3135
854.72	3066
854.854	3218
854.988	3062
855.122	3097
855.256	2937
855.39	3138
855.524	3249
855.658	3203
855.792	3173
855.926	3241
856.06	3195
856.194	3256
856.327	3161
856.461	3093
856.595	3097
856.729	3127
856.862	3256
856.996	3176
857.13	3218
857.263	3222
857.397	3310
857.53	3150
857.664	3184
857.797	3245
857.931	3256
858.064	3203
858.197	3211
858.331	3123
858.464	3146
858.597	3013
858.731	3135
858.864	3184
858.997	3089
859.13	3203
859.263	3195
859.396	3230
859.529	3119
859.662	3097
859.795	3081
859.928	3176
860.061	3313
860.194	3294
860.327	3222
860.46	3161
860.592	3279
860.725	3275
860.858	3298
860.99	3127
861.123	3116
861.256	3119
861.388	3161
861.521	3701
861.653	3070
861.786	3017
861.918	3051
862.05	3104
862.183	3157
862.315	3188
862.447	3241
862.58	3146
862.712	2960
862.844	2960
862.976	3043
863.108	3051
863.24	3382
863.372	2941
863.504	3009
863.636	3020
863.768	3066
863.9	3024
864.032	2948
864.164	2922
864.296	3058
864.428	3138
864.559	3142
864.691	3097
864.823	3070
864.954	3108
865.086	3081
865.217	3013
865.349	2979
865.48	3009
865.612	3058
865.743	3207
865.875	2986
866.006	2986
866.137	3039
866.269	2967
866.4	2963
866.531	2948
866.662	2918
866.793	2918
866.924	2922
867.055	2998
867.186	2982
867.317	2929
867.448	2853
867.579	2883
867.71	2864
867.841	2834
867.972	2952
868.103	2899
868.233	2895
868.364	2902
868.495	2891
868.625	3097
868.756	3173
868.886	2986
869.017	3036
869.147	3173
869.278	3230
869.408	3058
869.539	3055
869.669	3119
869.799	3032
869.929	3150
870.06	3146
870.19	3321
870.32	3340
870.45	3332
870.58	3374
870.71	3496
870.84	3450
870.97	3344
871.1	3226
871.23	3481
871.36	3492
871.489	3370
871.619	3420
871.749	3454
871.879	3447
872.008	3504
872.138	3412
872.267	3313
872.397	3146
872.526	3112
872.656	3009
872.785	3097
872.915	3275
873.044	3355
873.173	3241
873.303	3279
873.432	3298
873.561	3249
873.69	3161
873.819	3207
873.948	3192
874.077	3146
874.206	3055
874.335	3138
874.464	3226
874.593	3332
874.722	3279
874.851	3393
874.979	3397
875.108	3348
875.237	3230
875.365	3230
875.494	3180
875.623	3272
875.751	3108
875.88	3135
876.008	3249
876.136	3241
876.265	3420
876.393	3526
876.521	3412
876.65	3393
876.778	3351
876.906	3260
877.034	3253
877.162	3268
877.29	3188
877.418	3275
877.546	3237
877.674	3294
877.802	3264
877.93	3260
878.058	3180
878.185	3131
878.313	3241
878.441	3214
878.568	3131
878.696	3192
878.824	3272
878.951	3344
879.079	3485
879.206	3633
879.333	3443
879.461	3393
879.588	3382
879.715	3469
879.842	3625
879.97	3370
880.097	3188
880.224	3188
880.351	3188
880.478	3268
880.605	3233
880.732	3188
880.859	3511
880.986	3336
881.112	3378
881.239	3226
881.366	3142
881.493	3055
881.619	3093
881.746	3108
881.872	3089
881.999	3081
882.125	3157
882.252	3291
882.378	3329
882.505	3496
882.631	3306
882.757	3180
882.883	3256
883.01	3260
883.136	3199
883.262	3135
883.388	3154
883.514	3351
883.64	3374
883.766	3329
883.892	3264
884.018	3249
884.143	3439
884.269	3591
884.395	3260
884.52	3176
884.646	3237
884.772	3161
884.897	3104
885.023	3241
885.148	3370
885.274	3447
885.399	3409
885.524	3325
885.65	3287
885.775	3332
885.9	3283
886.025	3416
886.15	3355
886.275	3317
886.4	3264
886.525	3302
886.65	3298
886.775	3317
886.9	3450
887.025	3633
887.149	3439
887.274	3260
887.399	3173
887.523	3249
887.648	3195
887.773	3230
887.897	3363
888.021	3405
888.146	3332
888.27	3454
888.395	3542
888.519	3412
888.643	3458
888.767	3469
888.891	3336
889.015	3268
889.139	3310
889.263	3268
889.387	3420
889.511	3534
889.635	3473
889.759	3317
889.883	3302
890.006	3363
890.13	3500
890.254	3298
890.377	3370
890.501	3207
890.624	3203
890.748	3370
890.871	3195
890.995	3123
891.118	3116
891.241	3199
891.364	3260
891.488	3325
891.611	3188
891.734	3264
891.857	3317
891.98	3287
892.103	3370
892.226	3321
892.349	3203
892.471	3112
892.594	3287
892.717	3321
892.839	3298
892.962	3332
893.085	3367
893.207	3332
893.33	3127
893.452	3230
893.575	3374
893.697	3256
893.819	3492
893.941	3488
894.064	3500
894.186	3283
894.308	3291
894.43	3443
894.552	3599
894.674	3481
894.796	3306
894.918	3370
895.04	3336
895.161	3447
895.283	3405
895.405	3332
895.526	3374
895.648	3431
895.769	3439
895.891	3469
896.012	3481
896.134	3469
896.255	3405
896.376	3393
896.498	3336
896.619	3454
896.74	3355
896.861	3401
896.982	3709
897.103	3903
897.224	3637
897.345	3542
897.466	3458
897.587	3504
897.708	3603
897.828	3519
897.949	3481
898.07	3329
898.19	3431
898.311	3671
898.431	3454
898.552	3557
898.672	3629
898.792	3599
898.913	3542
899.033	3435
899.153	3306
899.273	3241
899.393	3272
899.513	3313
899.633	3344
899.753	3332
899.873	3302
899.993	3393
900.113	3370
900.232	3393
900.352	3367
900.472	3313
900.591	3230
900.711	3325
900.83	3260
900.95	3431
901.069	3496
901.189	3378
901.308	3180
901.427	3135
901.546	3230
901.665	3302
901.784	3374
901.904	3237
902.023	3161
902.141	3001
902.26	3013
902.379	3131
902.498	3097
902.617	3097
902.735	3226
902.854	3256
902.973	3192
903.091	3070
903.21	3116
903.328	3150
903.446	3138
903.565	3127
903.683	3249
903.801	3146
903.919	3264
904.038	3283
904.156	3180
904.274	3310
904.392	3245
904.51	3287
904.627	3344
904.745	3477
904.863	3492
904.981	3249
905.098	3195
905.216	3256
905.334	3329
905.451	3279
905.569	3325
905.686	3477
905.803	3477
905.921	3302
906.038	3454
906.155	3370
906.272	3283
906.389	3351
906.506	3199
906.623	3241
906.74	3287
906.857	3184
906.974	3279
907.091	3439
907.208	3595
907.324	3492
907.441	3401
907.557	3226
907.674	3237
907.79	3264
907.907	3313
908.023	3409
908.139	3378
908.256	3313
908.372	3389
908.488	3351
908.604	3279
908.72	3211
908.836	3291
908.952	3325
909.068	3359
909.184	3496
909.3	3405
909.415	3469
909.531	3481
909.647	3329
909.762	3336
909.878	3272
909.993	3374
910.108	3351
910.224	3382
910.339	3416
910.454	3306
910.57	3310
910.685	3237
910.8	3599
910.915	3500
911.03	3409
911.145	3272
911.259	3287
911.374	3317
911.489	3233
911.604	3199
911.718	3138
911.833	3192
911.947	3081
912.062	3013
912.176	3214
912.291	3245
912.405	3237
912.519	3412
912.633	3466
912.748	3325
912.862	3298
912.976	3150
913.09	3081
913.204	3135
913.318	3233
913.431	3336
913.545	3355
913.659	3416
913.772	3325
913.886	3260
914	3218
914.113	3340
914.226	3435
914.34	3363
914.453	3264
914.566	3389
914.68	3317
914.793	3336
914.906	3169
915.019	3104
915.132	3043
915.245	3157
915.358	3226
915.47	3268
915.583	3275
915.696	3256
915.809	3409
915.921	3431
916.034	3245
916.146	3302
916.259	3241
916.371	3370
916.483	3386
916.595	3287
916.708	3382
916.82	3321
916.932	3329
917.044	3329
917.156	3382
917.268	3249
917.38	3298
917.491	3336
917.603	3367
917.715	3469
917.826	3481
917.938	3386
918.049	3306
918.161	3458
918.272	3584
918.384	3564
918.495	3485
918.606	3325
918.717	3283
918.828	3443
918.939	3435
919.05	3310
919.161	3344
919.272	3176
919.383	3283
919.494	3526
919.604	3698
919.715	3469
919.826	3409
919.936	3431
920.047	3599
920.157	3519
920.267	3778
920.378	3633
920.488	3534
920.598	3827
920.708	3968
920.818	3816
920.928	3854
921.038	4013
921.148	4006
921.258	3720
921.368	3618
921.477	3641
921.587	3492
921.697	3431
921.806	3610
921.916	3496
922.025	3401
922.134	3393
922.244	3313
922.353	3454
922.462	3291
922.571	3245
922.68	3104
922.789	3108
922.898	3161
923.007	3100
923.116	3241
923.224	3214
923.333	3188
923.442	3104
923.55	3119
923.659	3169
923.767	3302
923.876	3157
923.984	3268
924.092	3154
924.201	3214
924.309	3253
924.417	3253
924.525	3199
924.633	3272
924.741	4074
924.849	3097
924.956	3287
925.064	3104
925.172	3089
925.279	3116
925.387	3256
925.494	3222
925.602	3389
925.709	3382
925.816	3245
925.924	3321
926.031	3409
926.138	3325
926.245	3416
926.352	3310
926.459	3428
926.566	3507
926.673	3370
926.779	3336
926.886	3256
926.993	3165
927.099	3192
927.206	3123
927.312	3180
927.419	3249
927.525	3260
927.631	3336
927.737	3184
927.843	3169
927.95	3043
928.056	3138
928.162	3211
928.267	3279
928.373	3926
928.479	3382
928.585	3146
928.69	3203
928.796	3310
928.901	3226
929.007	3085
929.112	3272
929.218	3218
929.323	3176
929.428	3203
929.533	3367
929.638	3131
929.743	3230
929.848	3287
929.953	3218
930.058	3184
930.163	3036
930.267	3093
930.372	3241
930.477	3116
930.581	3348
930.685	3203
930.79	3070
930.894	3173
930.998	3085
931.103	3325
931.207	2986
931.311	2975
931.415	2944
931.519	2807
931.623	2857
