Data from test_V78500241_2038.txt Node
Date: Fri Mar 25 16:29:19 CST 2022
User: usil
Spectrometer: V785-0024
Trigger mode: 0
Integration Time (sec): 4.000000E-1
Scans to average: 1
Nonlinearity correction enabled: false
Boxcar width: 0
Storing dark spectrum: false
XAxis mode: Wavelengths
Number of Pixels in Spectrum: 1024
>>>>>Begin Spectral Data<<<<<
801.071	2925
801.214	2944
801.356	2845
801.499	2891
801.641	2906
801.783	2887
801.926	3055
802.068	2963
802.211	2990
802.353	3009
802.496	3001
802.638	3009
802.78	3013
802.923	3085
803.065	3009
803.208	2849
803.35	2910
803.492	2933
803.635	2887
803.777	2731
803.919	2857
804.061	3199
804.204	2922
804.346	2918
804.488	2823
804.63	2994
804.773	2849
804.915	2906
805.057	3077
805.199	2929
805.341	2952
805.483	3070
805.626	3028
805.768	2963
805.91	3093
806.052	3066
806.194	3104
806.336	3233
806.478	3028
806.62	2963
806.762	2990
806.904	3039
807.046	3180
807.188	3028
807.33	2948
807.472	2998
807.614	2902
807.756	3009
807.898	2971
808.04	2902
808.182	3013
808.324	2971
808.465	2887
808.607	2899
808.749	2830
808.891	2876
809.033	3032
809.174	3017
809.316	2910
809.458	2929
809.6	2792
809.741	2819
809.883	2788
810.025	2918
810.166	2895
810.308	2887
810.45	2906
810.591	2842
810.733	2849
810.875	2853
811.016	2815
811.158	2815
811.299	2891
811.441	2952
811.582	2948
811.724	2826
811.865	2891
812.007	2944
812.148	2925
812.29	2876
812.431	2960
812.573	2979
812.714	2960
812.855	3077
812.997	3070
813.138	3127
813.279	3043
813.421	3036
813.562	3001
813.703	2910
813.845	2918
813.986	2811
814.127	2769
814.268	2842
814.41	2849
814.551	2853
814.692	2910
814.833	2868
814.974	2906
815.115	3009
815.256	2883
815.397	2861
815.539	2895
815.68	2823
815.821	2826
815.962	2937
816.103	2979
816.244	2922
816.385	2902
816.526	3028
816.666	2922
816.807	2796
816.948	2929
817.089	2929
817.23	2918
817.371	2830
817.512	2842
817.653	2918
817.793	2842
817.934	2910
818.075	3001
818.216	3036
818.356	3051
818.497	2914
818.638	2838
818.778	2845
818.919	2842
819.06	2811
819.2	2899
819.341	2834
819.481	2838
819.622	2963
819.762	3108
819.903	3058
820.043	2975
820.184	2925
820.324	2937
820.465	3032
820.605	3112
820.746	3043
820.886	2982
821.026	3138
821.167	3180
821.307	3302
821.447	3294
821.588	3245
821.728	3214
821.868	3245
822.008	3077
822.149	3203
822.289	3260
822.429	3165
822.569	3077
822.709	3211
822.849	3058
822.99	3116
823.13	3199
823.27	3195
823.41	3154
823.55	3214
823.69	3184
823.83	3207
823.97	3157
824.11	3047
824.25	3024
824.389	3100
824.529	3085
824.669	3093
824.809	3184
824.949	3233
825.089	3253
825.228	3199
825.368	3062
825.508	3024
825.648	2986
825.787	3055
825.927	3051
826.067	2975
826.206	2979
826.346	3036
826.485	3047
826.625	3150
826.765	3275
826.904	3260
827.044	3013
827.183	2933
827.323	2853
827.462	2982
827.601	2975
827.741	2937
827.88	2979
828.02	2853
828.159	2956
828.298	3055
828.437	3108
828.577	3070
828.716	3287
828.855	3119
828.994	2925
829.134	2899
829.273	2960
829.412	2887
829.551	2880
829.69	2887
829.829	3017
829.968	3135
830.107	3039
830.246	3055
830.385	2956
830.524	2864
830.663	2853
830.802	2781
830.941	2674
831.08	2667
831.219	2777
831.357	2777
831.496	2979
831.635	2735
831.774	2674
831.913	2678
832.051	2545
832.19	2602
832.329	2701
832.467	2598
832.606	2465
832.744	2629
832.883	2606
833.022	2625
833.16	2701
833.299	2701
833.437	2735
833.576	2701
833.714	2712
833.852	2727
833.991	2769
834.129	2857
834.267	2876
834.406	2853
834.544	2914
834.682	2906
834.821	2910
834.959	3062
835.097	2925
835.235	3070
835.373	3028
835.511	3009
835.65	2941
835.788	2994
835.926	2826
836.064	2815
836.202	2849
836.34	3119
836.478	3161
836.615	3104
836.753	3169
836.891	3230
837.029	3180
837.167	3093
837.305	3085
837.443	3089
837.58	2952
837.718	3142
837.856	3070
837.993	3028
838.131	3142
838.269	3097
838.406	3100
838.544	3104
838.681	2967
838.819	2910
838.956	2864
839.094	2849
839.231	2933
839.369	3005
839.506	3462
839.643	3230
839.781	3013
839.918	3028
840.055	3051
840.193	3028
840.33	3093
840.467	3123
840.604	3119
840.742	3393
840.879	3097
841.016	3024
841.153	3119
841.29	3310
841.427	3340
841.564	3279
841.701	3355
841.838	3249
841.975	3214
842.112	3253
842.249	3100
842.385	3047
842.522	3291
842.659	3131
842.796	3089
842.933	3108
843.069	3074
843.206	3043
843.343	3214
843.479	3131
843.616	3135
843.752	2910
843.889	2895
844.025	3100
844.162	2891
844.298	3074
844.435	2963
844.571	2910
844.708	3089
844.844	3176
844.98	3268
845.117	3203
845.253	3074
845.389	3043
845.525	3138
845.661	3127
845.798	3028
845.934	3097
846.07	3062
846.206	3268
846.342	3355
846.478	3226
846.614	3077
846.75	3039
846.886	3093
847.022	3218
847.158	3123
847.294	3226
847.429	3253
847.565	3230
847.701	3473
847.837	3047
847.972	3047
848.108	3169
848.244	3207
848.379	2979
848.515	2937
848.65	2960
848.786	2971
848.921	3009
849.057	3119
849.192	3157
849.328	3112
849.463	3119
849.598	3108
849.734	3047
849.869	2982
850.004	2963
850.14	2979
850.275	2941
850.41	2845
850.545	2857
850.68	2941
850.815	2956
850.95	3005
851.085	3203
851.22	3150
851.355	3043
851.49	2998
851.625	3013
851.76	3024
851.895	2963
852.03	2952
852.165	3047
852.299	3097
852.434	3176
852.569	3180
852.703	3188
852.838	3237
852.973	3355
853.107	3363
853.242	3142
853.376	3135
853.511	2948
853.645	3047
853.78	3249
853.914	3108
854.048	3062
854.183	3100
854.317	3157
854.451	3317
854.585	3146
854.72	3108
854.854	3237
854.988	3066
855.122	3055
855.256	2990
855.39	3123
855.524	3199
855.658	3176
855.792	3146
855.926	3199
856.06	3211
856.194	3268
856.327	3173
856.461	3089
856.595	3100
856.729	3074
856.862	3199
856.996	3173
857.13	3199
857.263	3245
857.397	3279
857.53	3127
857.664	3165
857.797	3264
857.931	3256
858.064	3188
858.197	3256
858.331	3142
858.464	3104
858.597	2994
858.731	3119
858.864	3131
858.997	3116
859.13	3180
859.263	3184
859.396	3218
859.529	3100
859.662	3093
859.795	3074
859.928	3154
860.061	3272
860.194	3294
860.327	3150
860.46	3081
860.592	3222
860.725	3256
860.858	3260
860.99	3119
861.123	3066
861.256	3039
861.388	3150
861.521	3819
861.653	3051
861.786	2975
861.918	3013
862.05	3062
862.183	3085
862.315	3142
862.447	3211
862.58	3097
862.712	2967
862.844	2861
862.976	3017
863.108	3009
863.24	3332
863.372	2842
863.504	2994
863.636	2948
863.768	3070
863.9	2998
864.032	2925
864.164	2956
864.296	3020
864.428	3097
864.559	3108
864.691	3055
864.823	3085
864.954	3047
865.086	3055
865.217	3020
865.349	2971
865.48	2994
865.612	3036
865.743	3146
865.875	2990
866.006	2975
866.137	2979
866.269	2975
866.4	2944
866.531	2918
866.662	2937
866.793	2876
866.924	2941
867.055	2941
867.186	2902
867.317	2906
867.448	2834
867.579	2834
867.71	2883
867.841	2819
867.972	2910
868.103	2899
868.233	2887
868.364	2899
868.495	2925
868.625	3093
868.756	3192
868.886	2960
869.017	3051
869.147	3188
869.278	3112
869.408	3039
869.539	3020
869.669	3119
869.799	3051
869.929	3142
870.06	3131
870.19	3332
870.32	3279
870.45	3291
870.58	3348
870.71	3439
870.84	3462
870.97	3306
871.1	3241
871.23	3469
871.36	3462
871.489	3340
871.619	3424
871.749	3424
871.879	3439
872.008	3481
872.138	3367
872.267	3302
872.397	3142
872.526	3127
872.656	3028
872.785	3119
872.915	3195
873.044	3325
873.173	3195
873.303	3233
873.432	3207
873.561	3279
873.69	3165
873.819	3127
873.948	3211
874.077	3097
874.206	3074
874.335	3070
874.464	3195
874.593	3359
874.722	3256
874.851	3363
874.979	3359
875.108	3363
875.237	3173
875.365	3226
875.494	3207
875.623	3264
875.751	3058
875.88	3150
876.008	3211
876.136	3203
876.265	3351
876.393	3523
876.521	3397
876.65	3378
876.778	3340
876.906	3249
877.034	3195
877.162	3222
877.29	3195
877.418	3237
877.546	3264
877.674	3264
877.802	3241
877.93	3230
878.058	3119
878.185	3089
878.313	3211
878.441	3230
878.568	3119
878.696	3161
878.824	3237
878.951	3275
879.079	3454
879.206	3614
879.333	3409
879.461	3340
879.588	3340
879.715	3473
879.842	3622
879.97	3386
880.097	3157
880.224	3142
880.351	3188
880.478	3237
880.605	3226
880.732	3199
880.859	3473
880.986	3294
881.112	3313
881.239	3218
881.366	3093
881.493	3039
881.619	3013
881.746	3093
881.872	3100
881.999	3116
882.125	3150
882.252	3260
882.378	3321
882.505	3389
882.631	3302
882.757	3173
882.883	3237
883.01	3214
883.136	3188
883.262	3097
883.388	3089
883.514	3291
883.64	3351
883.766	3287
883.892	3207
884.018	3226
884.143	3428
884.269	3549
884.395	3214
884.52	3176
884.646	3199
884.772	3116
884.897	3119
885.023	3214
885.148	3351
885.274	3435
885.399	3363
885.524	3294
885.65	3245
885.775	3355
885.9	3268
886.025	3439
886.15	3378
886.275	3302
886.4	3207
886.525	3298
886.65	3298
886.775	3272
886.9	3504
887.025	3614
887.149	3412
887.274	3264
887.399	3161
887.523	3222
887.648	3188
887.773	3188
887.897	3359
888.021	3412
888.146	3260
888.27	3412
888.395	3526
888.519	3412
888.643	3515
888.767	3431
888.891	3294
889.015	3291
889.139	3344
889.263	3275
889.387	3401
889.511	3530
889.635	3447
889.759	3321
889.883	3272
890.006	3363
890.13	3454
890.254	3260
890.377	3332
890.501	3203
890.624	3207
890.748	3298
890.871	3161
890.995	3112
891.118	3119
891.241	3241
891.364	3256
891.488	3313
891.611	3119
891.734	3226
891.857	3287
891.98	3226
892.103	3336
892.226	3294
892.349	3214
892.471	3100
892.594	3241
892.717	3275
892.839	3230
892.962	3291
893.085	3348
893.207	3272
893.33	3165
893.452	3203
893.575	3355
893.697	3298
893.819	3481
893.941	3492
894.064	3435
894.186	3260
894.308	3287
894.43	3458
894.552	3557
894.674	3477
894.796	3310
894.918	3302
895.04	3275
895.161	3397
895.283	3389
895.405	3291
895.526	3367
895.648	3412
895.769	3409
895.891	3469
896.012	3477
896.134	3469
896.255	3401
896.376	3389
896.498	3325
896.619	3428
896.74	3325
896.861	3389
896.982	3671
897.103	3846
897.224	3542
897.345	3504
897.466	3412
897.587	3515
897.708	3618
897.828	3549
897.949	3424
898.07	3355
898.19	3370
898.311	3599
898.431	3439
898.552	3511
898.672	3587
898.792	3584
898.913	3534
899.033	3412
899.153	3268
899.273	3222
899.393	3268
899.513	3306
899.633	3306
899.753	3359
899.873	3283
899.993	3348
900.113	3275
900.232	3401
900.352	3340
900.472	3287
900.591	3211
900.711	3291
900.83	3245
900.95	3428
901.069	3504
901.189	3359
901.308	3192
901.427	3131
901.546	3146
901.665	3264
901.784	3298
901.904	3233
902.023	3131
902.141	3024
902.26	2998
902.379	3173
902.498	3093
902.617	3017
902.735	3211
902.854	3264
902.973	3192
903.091	3028
903.21	3104
903.328	3154
903.446	3085
903.565	3085
903.683	3222
903.801	3116
903.919	3230
904.038	3298
904.156	3184
904.274	3313
904.392	3245
904.51	3294
904.627	3363
904.745	3488
904.863	3450
904.981	3256
905.098	3176
905.216	3264
905.334	3298
905.451	3291
905.569	3310
905.686	3431
905.803	3447
905.921	3264
906.038	3412
906.155	3355
906.272	3272
906.389	3313
906.506	3207
906.623	3249
906.74	3268
906.857	3230
906.974	3264
907.091	3428
907.208	3549
907.324	3488
907.441	3420
907.557	3268
907.674	3245
907.79	3195
907.907	3260
908.023	3370
908.139	3332
908.256	3302
908.372	3382
908.488	3351
908.604	3245
908.72	3253
908.836	3279
908.952	3298
909.068	3355
909.184	3443
909.3	3348
909.415	3500
909.531	3447
909.647	3264
909.762	3272
909.878	3279
909.993	3348
910.108	3344
910.224	3325
910.339	3359
910.454	3306
910.57	3287
910.685	3222
910.8	3625
910.915	3568
911.03	3439
911.145	3249
911.259	3260
911.374	3291
911.489	3253
911.604	3241
911.718	3154
911.833	3150
911.947	3062
912.062	2982
912.176	3135
912.291	3214
912.405	3214
912.519	3428
912.633	3485
912.748	3378
912.862	3245
912.976	3169
913.09	3047
913.204	3104
913.318	3192
913.431	3325
913.545	3332
913.659	3374
913.772	3317
913.886	3218
914	3180
914.113	3389
914.226	3409
914.34	3359
914.453	3241
914.566	3389
914.68	3268
914.793	3317
914.906	3135
915.019	3150
915.132	3085
915.245	3176
915.358	3241
915.47	3218
915.583	3283
915.696	3294
915.809	3393
915.921	3412
916.034	3249
916.146	3253
916.259	3203
916.371	3359
916.483	3355
916.595	3268
916.708	3344
916.82	3313
916.932	3332
917.044	3340
917.156	3351
917.268	3291
917.38	3291
917.491	3253
917.603	3397
917.715	3485
917.826	3485
917.938	3344
918.049	3264
918.161	3431
918.272	3542
918.384	3553
918.495	3488
918.606	3313
918.717	3249
918.828	3359
918.939	3416
919.05	3275
919.161	3363
919.272	3173
919.383	3241
919.494	3492
919.604	3652
919.715	3504
919.826	3428
919.936	3435
920.047	3564
920.157	3568
920.267	3743
920.378	3603
920.488	3603
920.598	3827
920.708	3941
920.818	3812
920.928	3835
921.038	4025
921.148	3960
921.258	3686
921.368	3587
921.477	3545
921.587	3545
921.697	3450
921.806	3644
921.916	3519
922.025	3344
922.134	3340
922.244	3325
922.353	3443
922.462	3302
922.571	3173
922.68	3070
922.789	3077
922.898	3150
923.007	3093
923.116	3199
923.224	3161
923.333	3169
923.442	3085
923.55	3085
923.659	3150
923.767	3249
923.876	3116
923.984	3283
924.092	3108
924.201	3199
924.309	3226
924.417	3241
924.525	3180
924.633	3268
924.741	4207
924.849	3077
924.956	3275
925.064	3085
925.172	3043
925.279	3085
925.387	3154
925.494	3195
925.602	3367
925.709	3302
925.816	3188
925.924	3283
926.031	3416
926.138	3344
926.245	3344
926.352	3264
926.459	3378
926.566	3496
926.673	3287
926.779	3230
926.886	3230
926.993	3165
927.099	3116
927.206	3108
927.312	3104
927.419	3253
927.525	3169
927.631	3268
927.737	3135
927.843	3135
927.95	3001
928.056	3123
928.162	3135
928.267	3241
928.373	3865
928.479	3302
928.585	3043
928.69	3207
928.796	3256
928.901	3192
929.007	3058
929.112	3176
929.218	3154
929.323	3146
929.428	3165
929.533	3313
929.638	3131
929.743	3146
929.848	3260
929.953	3233
930.058	3108
930.163	3005
930.267	3032
930.372	3161
930.477	3070
930.581	3302
930.685	3165
930.79	3039
930.894	3123
930.998	3097
931.103	3279
931.207	2944
931.311	2944
931.415	2960
931.519	2785
931.623	2819
