Data from test_V78500241_1088.txt Node
Date: Fri Mar 25 16:22:44 CST 2022
User: usil
Spectrometer: V785-0024
Trigger mode: 0
Integration Time (sec): 4.000000E-1
Scans to average: 1
Nonlinearity correction enabled: false
Boxcar width: 0
Storing dark spectrum: false
XAxis mode: Wavelengths
Number of Pixels in Spectrum: 1024
>>>>>Begin Spectral Data<<<<<
801.071	2952
801.214	2971
801.356	2910
801.499	2937
801.641	2891
801.783	2925
801.926	3104
802.068	3055
802.211	3066
802.353	3077
802.496	3017
802.638	3112
802.78	3077
802.923	3112
803.065	3062
803.208	2956
803.35	2990
803.492	2971
803.635	2971
803.777	2792
803.919	2883
804.061	3218
804.204	2986
804.346	2922
804.488	2876
804.63	3001
804.773	2933
804.915	2967
805.057	3093
805.199	2941
805.341	2986
805.483	3066
805.626	3047
805.768	3001
805.91	3104
806.052	3157
806.194	3077
806.336	3283
806.478	3043
806.62	2925
806.762	3020
806.904	3093
807.046	3211
807.188	3047
807.33	2948
807.472	3013
807.614	2929
807.756	2994
807.898	2990
808.04	2918
808.182	3013
808.324	2990
808.465	2922
808.607	2944
808.749	2853
808.891	2845
809.033	3020
809.174	3009
809.316	2906
809.458	2941
809.6	2796
809.741	2788
809.883	2807
810.025	2864
810.166	2853
810.308	2868
810.45	2872
810.591	2842
810.733	2834
810.875	2857
811.016	2804
811.158	2788
811.299	2834
811.441	2982
811.582	2971
811.724	2876
811.865	2883
812.007	2952
812.148	2922
812.29	2861
812.431	2941
812.573	2960
812.714	3017
812.855	3070
812.997	3077
813.138	3116
813.279	3024
813.421	3024
813.562	2986
813.703	2933
813.845	2933
813.986	2788
814.127	2769
814.268	2845
814.41	2876
814.551	2849
814.692	2891
814.833	2823
814.974	2937
815.115	2971
815.256	2868
815.397	2834
815.539	2910
815.68	2864
815.821	2830
815.962	2960
816.103	3001
816.244	2883
816.385	2906
816.526	3024
816.666	2941
816.807	2766
816.948	2933
817.089	2910
817.23	2887
817.371	2819
817.512	2853
817.653	2864
817.793	2842
817.934	2906
818.075	2982
818.216	3024
818.356	3036
818.497	2922
818.638	2811
818.778	2845
818.919	2842
819.06	2781
819.2	2899
819.341	2842
819.481	2815
819.622	2944
819.762	3123
819.903	3104
820.043	2948
820.184	2914
820.324	2929
820.465	3081
820.605	3051
820.746	3055
820.886	2971
821.026	3116
821.167	3165
821.307	3283
821.447	3298
821.588	3294
821.728	3245
821.868	3195
822.008	3123
822.149	3203
822.289	3253
822.429	3138
822.569	3135
822.709	3188
822.849	3062
822.99	3112
823.13	3199
823.27	3192
823.41	3127
823.55	3207
823.69	3188
823.83	3203
823.97	3154
824.11	3017
824.25	2998
824.389	3097
824.529	3108
824.669	3089
824.809	3241
824.949	3294
825.089	3195
825.228	3180
825.368	3043
825.508	2998
825.648	3028
825.787	3028
825.927	3074
826.067	3009
826.206	2990
826.346	3077
826.485	3093
826.625	3112
826.765	3310
826.904	3218
827.044	3036
827.183	2979
827.323	2891
827.462	3039
827.601	2941
827.741	2952
827.88	2971
828.02	2864
828.159	3024
828.298	3055
828.437	3112
828.577	3051
828.716	3268
828.855	3058
828.994	2956
829.134	2914
829.273	2960
829.412	2891
829.551	2918
829.69	2902
829.829	3020
829.968	3165
830.107	3051
830.246	3055
830.385	2952
830.524	2910
830.663	2853
830.802	2762
830.941	2670
831.08	2670
831.219	2769
831.357	2769
831.496	3001
831.635	2697
831.774	2693
831.913	2629
832.051	2594
832.19	2621
832.329	2720
832.467	2575
832.606	2492
832.744	2602
832.883	2579
833.022	2602
833.16	2632
833.299	2727
833.437	2712
833.576	2716
833.714	2754
833.852	2743
833.991	2796
834.129	2830
834.267	2853
834.406	2807
834.544	2876
834.682	2902
834.821	2842
834.959	3058
835.097	2906
835.235	3085
835.373	3009
835.511	3043
835.65	2967
835.788	2975
835.926	2849
836.064	2834
836.202	2830
836.34	3108
836.478	3180
836.615	3066
836.753	3127
836.891	3226
837.029	3188
837.167	3138
837.305	3100
837.443	3047
837.58	2975
837.718	3150
837.856	3085
837.993	3062
838.131	3138
838.269	3081
838.406	3119
838.544	3085
838.681	2971
838.819	2937
838.956	2815
839.094	2845
839.231	2937
839.369	3051
839.506	3386
839.643	3230
839.781	3013
839.918	2998
840.055	3039
840.193	3055
840.33	3051
840.467	3123
840.604	3176
840.742	3409
840.879	3070
841.016	3104
841.153	3146
841.29	3370
841.427	3336
841.564	3256
841.701	3313
841.838	3230
841.975	3169
842.112	3211
842.249	3085
842.385	3108
842.522	3253
842.659	3127
842.796	3070
842.933	3108
843.069	3051
843.206	3093
843.343	3173
843.479	3127
843.616	3135
843.752	2891
843.889	2895
844.025	3081
844.162	2914
844.298	3070
844.435	2963
844.571	2960
844.708	3119
844.844	3237
844.98	3268
845.117	3214
845.253	3051
845.389	3028
845.525	3104
845.661	3127
845.798	3017
845.934	3161
846.07	3047
846.206	3226
846.342	3374
846.478	3256
846.614	3058
846.75	3070
846.886	3020
847.022	3237
847.158	3161
847.294	3222
847.429	3260
847.565	3218
847.701	3485
847.837	3070
847.972	3001
848.108	3165
848.244	3146
848.379	3005
848.515	2960
848.65	2963
848.786	2971
848.921	3036
849.057	3135
849.192	3146
849.328	3077
849.463	3093
849.598	3085
849.734	3032
849.869	2982
850.004	2941
850.14	3024
850.275	2922
850.41	2872
850.545	2910
850.68	2902
850.815	2967
850.95	2986
851.085	3192
851.22	3104
851.355	3043
851.49	3020
851.625	3028
851.76	3020
851.895	2952
852.03	2925
852.165	3077
852.299	3081
852.434	3207
852.569	3116
852.703	3188
852.838	3249
852.973	3332
853.107	3367
853.242	3169
853.376	3093
853.511	3005
853.645	3047
853.78	3230
853.914	3123
854.048	3108
854.183	3135
854.317	3161
854.451	3317
854.585	3127
854.72	3116
854.854	3211
854.988	3081
855.122	3100
855.256	2982
855.39	3116
855.524	3233
855.658	3176
855.792	3154
855.926	3176
856.06	3241
856.194	3233
856.327	3176
856.461	3081
856.595	3097
856.729	3093
856.862	3218
856.996	3199
857.13	3169
857.263	3256
857.397	3291
857.53	3100
857.664	3207
857.797	3241
857.931	3264
858.064	3173
858.197	3241
858.331	3135
858.464	3097
858.597	2982
858.731	3127
858.864	3123
858.997	3093
859.13	3169
859.263	3184
859.396	3256
859.529	3097
859.662	3116
859.795	3077
859.928	3123
860.061	3306
860.194	3272
860.327	3119
860.46	3104
860.592	3264
860.725	3230
860.858	3313
860.99	3108
861.123	3036
861.256	3074
861.388	3131
861.521	3838
861.653	3043
861.786	3032
861.918	2982
862.05	3047
862.183	3081
862.315	3169
862.447	3207
862.58	3097
862.712	2982
862.844	2891
862.976	3043
863.108	2998
863.24	3397
863.372	2876
863.504	2982
863.636	2933
863.768	3070
863.9	2994
864.032	2929
864.164	2933
864.296	3020
864.428	3077
864.559	3116
864.691	3051
864.823	3058
864.954	3077
865.086	3058
865.217	3039
865.349	2960
865.48	2998
865.612	3032
865.743	3142
865.875	2994
866.006	2929
866.137	2994
866.269	2986
866.4	2914
866.531	2910
866.662	2887
866.793	2895
866.924	2929
867.055	2998
867.186	2952
867.317	2880
867.448	2823
867.579	2849
867.71	2861
867.841	2796
867.972	2956
868.103	2914
868.233	2899
868.364	2883
868.495	2876
868.625	3085
868.756	3195
868.886	2963
869.017	3020
869.147	3169
869.278	3131
869.408	3032
869.539	3009
869.669	3093
869.799	3020
869.929	3135
870.06	3135
870.19	3332
870.32	3253
870.45	3283
870.58	3386
870.71	3473
870.84	3454
870.97	3294
871.1	3237
871.23	3485
871.36	3424
871.489	3397
871.619	3370
871.749	3439
871.879	3443
872.008	3488
872.138	3363
872.267	3294
872.397	3135
872.526	3116
872.656	3009
872.785	3081
872.915	3226
873.044	3313
873.173	3241
873.303	3279
873.432	3249
873.561	3226
873.69	3173
873.819	3161
873.948	3169
874.077	3112
874.206	3085
874.335	3108
874.464	3207
874.593	3344
874.722	3230
874.851	3428
874.979	3355
875.108	3344
875.237	3192
875.365	3146
875.494	3131
875.623	3279
875.751	3100
875.88	3123
876.008	3218
876.136	3195
876.265	3386
876.393	3488
876.521	3431
876.65	3401
876.778	3340
876.906	3249
877.034	3184
877.162	3211
877.29	3192
877.418	3268
877.546	3253
877.674	3256
877.802	3211
877.93	3188
878.058	3119
878.185	3108
878.313	3169
878.441	3214
878.568	3036
878.696	3188
878.824	3233
878.951	3264
879.079	3424
879.206	3637
879.333	3424
879.461	3344
879.588	3348
879.715	3481
879.842	3587
879.97	3386
880.097	3199
880.224	3146
880.351	3165
880.478	3241
880.605	3169
880.732	3180
880.859	3454
880.986	3268
881.112	3329
881.239	3241
881.366	3108
881.493	3039
881.619	3017
881.746	3093
881.872	3085
881.999	3077
882.125	3188
882.252	3230
882.378	3275
882.505	3469
882.631	3264
882.757	3157
882.883	3233
883.01	3207
883.136	3165
883.262	3085
883.388	3100
883.514	3336
883.64	3325
883.766	3264
883.892	3199
884.018	3230
884.143	3443
884.269	3576
884.395	3199
884.52	3184
884.646	3192
884.772	3173
884.897	3108
885.023	3192
885.148	3317
885.274	3431
885.399	3389
885.524	3294
885.65	3264
885.775	3351
885.9	3249
886.025	3428
886.15	3382
886.275	3306
886.4	3253
886.525	3294
886.65	3237
886.775	3275
886.9	3507
887.025	3652
887.149	3401
887.274	3253
887.399	3199
887.523	3233
887.648	3157
887.773	3207
887.897	3378
888.021	3405
888.146	3294
888.27	3412
888.395	3549
888.519	3435
888.643	3431
888.767	3454
888.891	3313
889.015	3230
889.139	3302
889.263	3264
889.387	3405
889.511	3530
889.635	3469
889.759	3279
889.883	3306
890.006	3409
890.13	3488
890.254	3249
890.377	3332
890.501	3226
890.624	3207
890.748	3310
890.871	3192
890.995	3085
891.118	3081
891.241	3180
891.364	3222
891.488	3291
891.611	3169
891.734	3173
891.857	3279
891.98	3230
892.103	3336
892.226	3275
892.349	3237
892.471	3135
892.594	3272
892.717	3313
892.839	3294
892.962	3294
893.085	3401
893.207	3321
893.33	3173
893.452	3192
893.575	3363
893.697	3245
893.819	3443
893.941	3473
894.064	3462
894.186	3253
894.308	3298
894.43	3412
894.552	3507
894.674	3462
894.796	3291
894.918	3325
895.04	3313
895.161	3405
895.283	3389
895.405	3298
895.526	3389
895.648	3462
895.769	3367
895.891	3466
896.012	3443
896.134	3435
896.255	3401
896.376	3378
896.498	3378
896.619	3424
896.74	3378
896.861	3428
896.982	3671
897.103	3797
897.224	3606
897.345	3481
897.466	3435
897.587	3447
897.708	3603
897.828	3564
897.949	3416
898.07	3313
898.19	3359
898.311	3603
898.431	3450
898.552	3507
898.672	3572
898.792	3584
898.913	3549
899.033	3378
899.153	3287
899.273	3214
899.393	3264
899.513	3329
899.633	3313
899.753	3329
899.873	3351
899.993	3370
900.113	3344
900.232	3348
900.352	3336
900.472	3253
900.591	3199
900.711	3294
900.83	3249
900.95	3386
901.069	3477
901.189	3332
901.308	3165
901.427	3108
901.546	3142
901.665	3302
901.784	3306
901.904	3184
902.023	3142
902.141	2979
902.26	2982
902.379	3142
902.498	3093
902.617	3047
902.735	3211
902.854	3233
902.973	3192
903.091	3017
903.21	3055
903.328	3127
903.446	3093
903.565	3089
903.683	3161
903.801	3154
903.919	3218
904.038	3272
904.156	3150
904.274	3313
904.392	3294
904.51	3237
904.627	3294
904.745	3450
904.863	3507
904.981	3291
905.098	3135
905.216	3230
905.334	3298
905.451	3256
905.569	3283
905.686	3386
905.803	3450
905.921	3275
906.038	3420
906.155	3351
906.272	3298
906.389	3348
906.506	3199
906.623	3237
906.74	3287
906.857	3199
906.974	3272
907.091	3412
907.208	3564
907.324	3439
907.441	3367
907.557	3230
907.674	3237
907.79	3195
907.907	3256
908.023	3370
908.139	3370
908.256	3351
908.372	3348
908.488	3351
908.604	3260
908.72	3253
908.836	3268
908.952	3253
909.068	3329
909.184	3462
909.3	3389
909.415	3511
909.531	3488
909.647	3264
909.762	3336
909.878	3260
909.993	3321
910.108	3294
910.224	3279
910.339	3393
910.454	3329
910.57	3249
910.685	3275
910.8	3618
910.915	3561
911.03	3439
911.145	3226
911.259	3253
911.374	3313
911.489	3260
911.604	3226
911.718	3180
911.833	3165
911.947	3028
912.062	3051
912.176	3161
912.291	3195
912.405	3203
912.519	3424
912.633	3462
912.748	3310
912.862	3283
912.976	3218
913.09	3062
913.204	3138
913.318	3188
913.431	3313
913.545	3348
913.659	3401
913.772	3306
913.886	3207
914	3207
914.113	3348
914.226	3401
914.34	3382
914.453	3199
914.566	3450
914.68	3272
914.793	3306
914.906	3100
915.019	3093
915.132	3051
915.245	3154
915.358	3142
915.47	3222
915.583	3272
915.696	3294
915.809	3397
915.921	3439
916.034	3241
916.146	3211
916.259	3211
916.371	3393
916.483	3386
916.595	3245
916.708	3340
916.82	3336
916.932	3355
917.044	3283
917.156	3344
917.268	3249
917.38	3268
917.491	3294
917.603	3378
917.715	3405
917.826	3435
917.938	3378
918.049	3253
918.161	3412
918.272	3553
918.384	3553
918.495	3504
918.606	3329
918.717	3275
918.828	3428
918.939	3416
919.05	3306
919.161	3336
919.272	3176
919.383	3256
919.494	3477
919.604	3644
919.715	3466
919.826	3416
919.936	3466
920.047	3584
920.157	3545
920.267	3789
920.378	3629
920.488	3557
920.598	3785
920.708	3926
920.818	3827
920.928	3846
921.038	3991
921.148	4013
921.258	3690
921.368	3671
921.477	3595
921.587	3496
921.697	3462
921.806	3633
921.916	3549
922.025	3329
922.134	3370
922.244	3279
922.353	3405
922.462	3245
922.571	3237
922.68	3108
922.789	3089
922.898	3157
923.007	3085
923.116	3199
923.224	3173
923.333	3176
923.442	3104
923.55	3093
923.659	3146
923.767	3218
923.876	3127
923.984	3184
924.092	3089
924.201	3195
924.309	3199
924.417	3260
924.525	3192
924.633	3203
924.741	3972
924.849	3036
924.956	3222
925.064	3123
925.172	3036
925.279	3070
925.387	3176
925.494	3222
925.602	3397
925.709	3272
925.816	3184
925.924	3279
926.031	3344
926.138	3298
926.245	3363
926.352	3245
926.459	3393
926.566	3439
926.673	3306
926.779	3260
926.886	3211
926.993	3112
927.099	3104
927.206	3100
927.312	3089
927.419	3275
927.525	3199
927.631	3268
927.737	3116
927.843	3108
927.95	3013
928.056	3112
928.162	3173
928.267	3214
928.373	3876
928.479	3279
928.585	3039
928.69	3226
928.796	3237
928.901	3169
929.007	3024
929.112	3218
929.218	3154
929.323	3146
929.428	3138
929.533	3317
929.638	3138
929.743	3127
929.848	3230
929.953	3176
930.058	3142
930.163	2979
930.267	3028
930.372	3203
930.477	3047
930.581	3313
930.685	3180
930.79	3058
930.894	3108
930.998	3089
931.103	3310
931.207	2952
931.311	2914
931.415	2883
931.519	2769
931.623	2800
