Data from test_V78500241_1530.txt Node
Date: Fri Mar 25 16:25:48 CST 2022
User: usil
Spectrometer: V785-0024
Trigger mode: 0
Integration Time (sec): 4.000000E-1
Scans to average: 1
Nonlinearity correction enabled: false
Boxcar width: 0
Storing dark spectrum: false
XAxis mode: Wavelengths
Number of Pixels in Spectrum: 1024
>>>>>Begin Spectral Data<<<<<
801.071	2906
801.214	2902
801.356	2872
801.499	2868
801.641	2883
801.783	2918
801.926	3009
802.068	2952
802.211	2979
802.353	3028
802.496	3005
802.638	3020
802.78	3028
802.923	3055
803.065	3032
803.208	2883
803.35	2941
803.492	2925
803.635	2891
803.777	2754
803.919	2876
804.061	3203
804.204	2944
804.346	2887
804.488	2857
804.63	2967
804.773	2861
804.915	2899
805.057	3039
805.199	2929
805.341	2986
805.483	3017
805.626	2982
805.768	2952
805.91	3089
806.052	3093
806.194	3020
806.336	3264
806.478	3043
806.62	2929
806.762	2990
806.904	3028
807.046	3154
807.188	3017
807.33	2906
807.472	3005
807.614	2876
807.756	2975
807.898	2937
808.04	2899
808.182	2944
808.324	2937
808.465	2880
808.607	2853
808.749	2781
808.891	2857
809.033	2986
809.174	2975
809.316	2880
809.458	2868
809.6	2785
809.741	2750
809.883	2773
810.025	2849
810.166	2872
810.308	2811
810.45	2880
810.591	2785
810.733	2769
810.875	2826
811.016	2811
811.158	2746
811.299	2796
811.441	2933
811.582	2906
811.724	2834
811.865	2811
812.007	2895
812.148	2849
812.29	2838
812.431	2899
812.573	2910
812.714	2952
812.855	3047
812.997	3051
813.138	3135
813.279	3005
813.421	2975
813.562	2960
813.703	2830
813.845	2891
813.986	2796
814.127	2735
814.268	2819
814.41	2838
814.551	2823
814.692	2842
814.833	2800
814.974	2887
815.115	2925
815.256	2819
815.397	2845
815.539	2876
815.68	2800
815.821	2815
815.962	2971
816.103	2922
816.244	2845
816.385	2838
816.526	2952
816.666	2933
816.807	2762
816.948	2887
817.089	2902
817.23	2815
817.371	2758
817.512	2792
817.653	2830
817.793	2815
817.934	2906
818.075	2963
818.216	2960
818.356	3024
818.497	2906
818.638	2788
818.778	2857
818.919	2804
819.06	2724
819.2	2849
819.341	2792
819.481	2826
819.622	2933
819.762	3127
819.903	3062
820.043	2895
820.184	2872
820.324	2891
820.465	2998
820.605	3017
820.746	3017
820.886	2906
821.026	3116
821.167	3157
821.307	3230
821.447	3253
821.588	3218
821.728	3230
821.868	3176
822.008	3032
822.149	3199
822.289	3233
822.429	3100
822.569	3077
822.709	3169
822.849	3001
822.99	3047
823.13	3150
823.27	3203
823.41	3097
823.55	3146
823.69	3165
823.83	3184
823.97	3066
824.11	3009
824.25	3009
824.389	3020
824.529	3116
824.669	3058
824.809	3173
824.949	3214
825.089	3188
825.228	3169
825.368	2998
825.508	2956
825.648	2941
825.787	3032
825.927	2998
826.067	2979
826.206	2967
826.346	3055
826.485	3077
826.625	3112
826.765	3253
826.904	3211
827.044	3039
827.183	2929
827.323	2857
827.462	2967
827.601	2864
827.741	2922
827.88	2956
828.02	2864
828.159	2975
828.298	3017
828.437	3077
828.577	3036
828.716	3230
828.855	3077
828.994	2914
829.134	2883
829.273	2929
829.412	2834
829.551	2842
829.69	2891
829.829	2979
829.968	3104
830.107	3032
830.246	3020
830.385	2925
830.524	2876
830.663	2811
830.802	2720
830.941	2651
831.08	2617
831.219	2750
831.357	2762
831.496	2933
831.635	2708
831.774	2625
831.913	2621
832.051	2575
832.19	2568
832.329	2689
832.467	2526
832.606	2480
832.744	2610
832.883	2579
833.022	2621
833.16	2629
833.299	2686
833.437	2674
833.576	2697
833.714	2720
833.852	2670
833.991	2807
834.129	2845
834.267	2815
834.406	2785
834.544	2849
834.682	2861
834.821	2868
834.959	3058
835.097	2906
835.235	3055
835.373	2990
835.511	3024
835.65	2937
835.788	2941
835.926	2804
836.064	2815
836.202	2891
836.34	3081
836.478	3138
836.615	3028
836.753	3142
836.891	3207
837.029	3116
837.167	3108
837.305	3070
837.443	3043
837.58	2963
837.718	3100
837.856	3020
837.993	3058
838.131	3108
838.269	3135
838.406	3081
838.544	3116
838.681	2944
838.819	2918
838.956	2861
839.094	2845
839.231	2914
839.369	2994
839.506	3355
839.643	3180
839.781	3039
839.918	2979
840.055	3032
840.193	3077
840.33	3062
840.467	3108
840.604	3173
840.742	3416
840.879	3070
841.016	3024
841.153	3085
841.29	3325
841.427	3306
841.564	3302
841.701	3298
841.838	3241
841.975	3138
842.112	3230
842.249	3043
842.385	3043
842.522	3226
842.659	3108
842.796	3051
842.933	3085
843.069	3028
843.206	3032
843.343	3184
843.479	3081
843.616	3104
843.752	2887
843.889	2849
844.025	3062
844.162	2876
844.298	3081
844.435	2922
844.571	2929
844.708	3108
844.844	3165
844.98	3192
845.117	3214
845.253	3077
845.389	3005
845.525	3085
845.661	3116
845.798	3017
845.934	3074
846.07	3055
846.206	3214
846.342	3325
846.478	3233
846.614	3100
846.75	3055
846.886	3055
847.022	3214
847.158	3112
847.294	3173
847.429	3218
847.565	3203
847.701	3462
847.837	3009
847.972	3009
848.108	3176
848.244	3116
848.379	2998
848.515	2918
848.65	2933
848.786	2971
848.921	3009
849.057	3104
849.192	3146
849.328	3055
849.463	3070
849.598	3036
849.734	3047
849.869	2990
850.004	2902
850.14	2975
850.275	2887
850.41	2800
850.545	2864
850.68	2914
850.815	2941
850.95	2944
851.085	3237
851.22	3089
851.355	3055
851.49	2963
851.625	3017
851.76	3001
851.895	2902
852.03	2918
852.165	3001
852.299	3123
852.434	3173
852.569	3119
852.703	3161
852.838	3218
852.973	3332
853.107	3302
853.242	3161
853.376	3070
853.511	2982
853.645	3055
853.78	3218
853.914	3100
854.048	3097
854.183	3074
854.317	3173
854.451	3256
854.585	3142
854.72	3081
854.854	3184
854.988	2971
855.122	3104
855.256	2990
855.39	3093
855.524	3264
855.658	3203
855.792	3108
855.926	3169
856.06	3199
856.194	3279
856.327	3112
856.461	3085
856.595	3081
856.729	3089
856.862	3184
856.996	3135
857.13	3188
857.263	3218
857.397	3283
857.53	3108
857.664	3192
857.797	3214
857.931	3226
858.064	3173
858.197	3207
858.331	3093
858.464	3085
858.597	3017
858.731	3135
858.864	3100
858.997	3058
859.13	3146
859.263	3131
859.396	3173
859.529	3081
859.662	3081
859.795	3039
859.928	3131
860.061	3230
860.194	3260
860.327	3131
860.46	3112
860.592	3203
860.725	3218
860.858	3218
860.99	3112
861.123	3062
861.256	3058
861.388	3131
861.521	3888
861.653	3009
861.786	2948
861.918	2986
862.05	3036
862.183	3104
862.315	3154
862.447	3192
862.58	3081
862.712	2944
862.844	2891
862.976	3020
863.108	3005
863.24	3275
863.372	2864
863.504	2960
863.636	2979
863.768	3005
863.9	2956
864.032	2880
864.164	2895
864.296	3028
864.428	3081
864.559	3112
864.691	3089
864.823	3074
864.954	3024
865.086	3039
865.217	2994
865.349	2960
865.48	2937
865.612	2960
865.743	3142
865.875	3017
866.006	2914
866.137	2967
866.269	2941
866.4	2914
866.531	2933
866.662	2868
866.793	2906
866.924	2906
867.055	2971
867.186	2918
867.317	2876
867.448	2838
867.579	2815
867.71	2815
867.841	2819
867.972	2922
868.103	2902
868.233	2887
868.364	2842
868.495	2925
868.625	3100
868.756	3165
868.886	2971
869.017	2994
869.147	3173
869.278	3184
869.408	3062
869.539	3058
869.669	3108
869.799	3017
869.929	3135
870.06	3089
870.19	3287
870.32	3313
870.45	3249
870.58	3389
870.71	3409
870.84	3469
870.97	3264
871.1	3207
871.23	3488
871.36	3466
871.489	3370
871.619	3393
871.749	3431
871.879	3439
872.008	3519
872.138	3386
872.267	3268
872.397	3154
872.526	3100
872.656	3013
872.785	3119
872.915	3249
873.044	3302
873.173	3199
873.303	3275
873.432	3218
873.561	3237
873.69	3169
873.819	3138
873.948	3184
874.077	3093
874.206	3024
874.335	3066
874.464	3222
874.593	3370
874.722	3245
874.851	3389
874.979	3340
875.108	3302
875.237	3192
875.365	3188
875.494	3157
875.623	3245
875.751	3066
875.88	3116
876.008	3184
876.136	3203
876.265	3382
876.393	3526
876.521	3454
876.65	3374
876.778	3336
876.906	3233
877.034	3161
877.162	3195
877.29	3157
877.418	3237
877.546	3249
877.674	3256
877.802	3230
877.93	3237
878.058	3138
878.185	3127
878.313	3188
878.441	3176
878.568	3085
878.696	3108
878.824	3237
878.951	3245
879.079	3488
879.206	3633
879.333	3473
879.461	3348
879.588	3359
879.715	3481
879.842	3622
879.97	3359
880.097	3173
880.224	3138
880.351	3207
880.478	3222
880.605	3207
880.732	3218
880.859	3534
880.986	3336
881.112	3325
881.239	3203
881.366	3108
881.493	3051
881.619	2986
881.746	3081
881.872	3077
881.999	3066
882.125	3146
882.252	3211
882.378	3302
882.505	3420
882.631	3245
882.757	3146
882.883	3195
883.01	3226
883.136	3138
883.262	3077
883.388	3108
883.514	3291
883.64	3336
883.766	3283
883.892	3169
884.018	3264
884.143	3405
884.269	3504
884.395	3180
884.52	3176
884.646	3211
884.772	3135
884.897	3093
885.023	3245
885.148	3348
885.274	3439
885.399	3348
885.524	3260
885.65	3233
885.775	3317
885.9	3294
886.025	3420
886.15	3382
886.275	3310
886.4	3195
886.525	3291
886.65	3260
886.775	3268
886.9	3504
887.025	3633
887.149	3374
887.274	3207
887.399	3199
887.523	3245
887.648	3184
887.773	3214
887.897	3329
888.021	3416
888.146	3294
888.27	3439
888.395	3542
888.519	3447
888.643	3454
888.767	3458
888.891	3275
889.015	3222
889.139	3237
889.263	3226
889.387	3370
889.511	3443
889.635	3458
889.759	3336
889.883	3294
890.006	3378
890.13	3481
890.254	3306
890.377	3367
890.501	3249
890.624	3154
890.748	3310
890.871	3165
890.995	3089
891.118	3039
891.241	3222
891.364	3192
891.488	3279
891.611	3165
891.734	3230
891.857	3253
891.98	3211
892.103	3332
892.226	3268
892.349	3188
892.471	3074
892.594	3237
892.717	3230
892.839	3272
892.962	3332
893.085	3340
893.207	3310
893.33	3165
893.452	3173
893.575	3321
893.697	3233
893.819	3447
893.941	3580
894.064	3431
894.186	3245
894.308	3237
894.43	3439
894.552	3561
894.674	3477
894.796	3283
894.918	3279
895.04	3291
895.161	3386
895.283	3405
895.405	3287
895.526	3378
895.648	3397
895.769	3435
895.891	3428
896.012	3496
896.134	3439
896.255	3420
896.376	3382
896.498	3351
896.619	3428
896.74	3359
896.861	3393
896.982	3679
897.103	3857
897.224	3641
897.345	3496
897.466	3412
897.587	3538
897.708	3641
897.828	3553
897.949	3458
898.07	3317
898.19	3416
898.311	3584
898.431	3412
898.552	3469
898.672	3576
898.792	3568
898.913	3481
899.033	3405
899.153	3264
899.273	3211
899.393	3298
899.513	3332
899.633	3279
899.753	3298
899.873	3310
899.993	3370
900.113	3344
900.232	3405
900.352	3336
900.472	3306
900.591	3188
900.711	3268
900.83	3253
900.95	3405
901.069	3504
901.189	3363
901.308	3161
901.427	3127
901.546	3211
901.665	3302
901.784	3321
901.904	3203
902.023	3123
902.141	3024
902.26	2956
902.379	3146
902.498	3077
902.617	3062
902.735	3230
902.854	3214
902.973	3188
903.091	3009
903.21	3051
903.328	3081
903.446	3112
903.565	3104
903.683	3195
903.801	3116
903.919	3222
904.038	3264
904.156	3173
904.274	3256
904.392	3256
904.51	3291
904.627	3329
904.745	3454
904.863	3496
904.981	3287
905.098	3199
905.216	3199
905.334	3275
905.451	3306
905.569	3306
905.686	3374
905.803	3424
905.921	3287
906.038	3416
906.155	3378
906.272	3275
906.389	3321
906.506	3222
906.623	3272
906.74	3283
906.857	3199
906.974	3245
907.091	3389
907.208	3580
907.324	3481
907.441	3359
907.557	3230
907.674	3237
907.79	3230
907.907	3298
908.023	3382
908.139	3348
908.256	3359
908.372	3325
908.488	3348
908.604	3294
908.72	3249
908.836	3283
908.952	3294
909.068	3367
909.184	3492
909.3	3348
909.415	3496
909.531	3507
909.647	3264
909.762	3306
909.878	3260
909.993	3348
910.108	3344
910.224	3351
910.339	3389
910.454	3310
910.57	3287
910.685	3241
910.8	3606
910.915	3515
911.03	3416
911.145	3275
911.259	3260
911.374	3298
911.489	3268
911.604	3195
911.718	3123
911.833	3154
911.947	3020
912.062	2967
912.176	3150
912.291	3237
912.405	3222
912.519	3439
912.633	3504
912.748	3348
912.862	3260
912.976	3123
913.09	3024
913.204	3142
913.318	3222
913.431	3344
913.545	3317
913.659	3435
913.772	3344
913.886	3211
914	3207
914.113	3359
914.226	3397
914.34	3382
914.453	3188
914.566	3409
914.68	3291
914.793	3313
914.906	3142
915.019	3135
915.132	3051
915.245	3165
915.358	3199
915.47	3233
915.583	3283
915.696	3291
915.809	3409
915.921	3412
916.034	3260
916.146	3321
916.259	3241
916.371	3382
916.483	3317
916.595	3249
916.708	3351
916.82	3351
916.932	3291
917.044	3363
917.156	3313
917.268	3226
917.38	3275
917.491	3279
917.603	3374
917.715	3473
917.826	3488
917.938	3374
918.049	3287
918.161	3412
918.272	3599
918.384	3572
918.495	3443
918.606	3325
918.717	3275
918.828	3412
918.939	3412
919.05	3329
919.161	3374
919.272	3199
919.383	3287
919.494	3500
919.604	3671
919.715	3500
919.826	3401
919.936	3424
920.047	3606
920.157	3526
920.267	3762
920.378	3584
920.488	3587
920.598	3740
920.708	3960
920.818	3869
920.928	3846
921.038	4067
921.148	4006
921.258	3724
921.368	3637
921.477	3542
921.587	3534
921.697	3435
921.806	3591
921.916	3515
922.025	3351
922.134	3336
922.244	3298
922.353	3458
922.462	3253
922.571	3249
922.68	3100
922.789	3066
922.898	3131
923.007	3112
923.116	3211
923.224	3154
923.333	3188
923.442	3100
923.55	3074
923.659	3131
923.767	3230
923.876	3108
923.984	3245
924.092	3093
924.201	3169
924.309	3192
924.417	3279
924.525	3165
924.633	3268
924.741	4185
924.849	3062
924.956	3222
925.064	3085
925.172	3043
925.279	3066
925.387	3176
925.494	3203
925.602	3302
925.709	3329
925.816	3176
925.924	3272
926.031	3340
926.138	3298
926.245	3363
926.352	3237
926.459	3428
926.566	3462
926.673	3302
926.779	3233
926.886	3226
926.993	3169
927.099	3123
927.206	3119
927.312	3112
927.419	3237
927.525	3195
927.631	3302
927.737	3108
927.843	3097
927.95	3020
928.056	3135
928.162	3180
928.267	3268
928.373	3751
928.479	3294
928.585	3051
928.69	3195
928.796	3260
928.901	3157
929.007	3028
929.112	3184
929.218	3176
929.323	3173
929.428	3176
929.533	3321
929.638	3116
929.743	3146
929.848	3214
929.953	3192
930.058	3165
930.163	2960
930.267	3017
930.372	3192
930.477	3047
930.581	3291
930.685	3184
930.79	3039
930.894	3097
930.998	3085
931.103	3264
931.207	2963
931.311	2929
931.415	2891
931.519	2739
931.623	2807
