Data from test_V78500241_409.txt Node
Date: Fri Mar 25 16:18:02 CST 2022
User: usil
Spectrometer: V785-0024
Trigger mode: 0
Integration Time (sec): 4.000000E-1
Scans to average: 1
Nonlinearity correction enabled: false
Boxcar width: 0
Storing dark spectrum: false
XAxis mode: Wavelengths
Number of Pixels in Spectrum: 1024
>>>>>Begin Spectral Data<<<<<
801.071	2883
801.214	2937
801.356	2845
801.499	2864
801.641	2872
801.783	2902
801.926	3020
802.068	2963
802.211	3024
802.353	3013
802.496	2952
802.638	2998
802.78	3058
802.923	3062
803.065	2994
803.208	2876
803.35	2899
803.492	2941
803.635	2929
803.777	2716
803.919	2845
804.061	3188
804.204	2937
804.346	2895
804.488	2849
804.63	2994
804.773	2876
804.915	2918
805.057	3062
805.199	2902
805.341	3001
805.483	3051
805.626	2990
805.768	2948
805.91	3055
806.052	3093
806.194	3032
806.336	3214
806.478	2998
806.62	2937
806.762	2963
806.904	3051
807.046	3154
807.188	2990
807.33	2918
807.472	2990
807.614	2887
807.756	2948
807.898	2952
808.04	2834
808.182	2952
808.324	2948
808.465	2872
808.607	2853
808.749	2800
808.891	2857
809.033	2956
809.174	2956
809.316	2891
809.458	2887
809.6	2754
809.741	2762
809.883	2781
810.025	2849
810.166	2872
810.308	2819
810.45	2857
810.591	2788
810.733	2769
810.875	2815
811.016	2777
811.158	2754
811.299	2804
811.441	2925
811.582	2910
811.724	2796
811.865	2838
812.007	2883
812.148	2883
812.29	2887
812.431	2853
812.573	2937
812.714	2998
812.855	3039
812.997	3036
813.138	3108
813.279	3024
813.421	2944
813.562	2971
813.703	2910
813.845	2876
813.986	2773
814.127	2731
814.268	2796
814.41	2815
814.551	2788
814.692	2868
814.833	2834
814.974	2906
815.115	2910
815.256	2826
815.397	2811
815.539	2849
815.68	2788
815.821	2788
815.962	2918
816.103	2986
816.244	2861
816.385	2876
816.526	2960
816.666	2899
816.807	2739
816.948	2880
817.089	2899
817.23	2823
817.371	2781
817.512	2815
817.653	2815
817.793	2819
817.934	2918
818.075	2941
818.216	3005
818.356	3005
818.497	2880
818.638	2754
818.778	2785
818.919	2815
819.06	2735
819.2	2899
819.341	2796
819.481	2819
819.622	2952
819.762	3116
819.903	3017
820.043	2899
820.184	2880
820.324	2880
820.465	3024
820.605	3005
820.746	3047
820.886	2941
821.026	3085
821.167	3142
821.307	3214
821.447	3264
821.588	3249
821.728	3203
821.868	3199
822.008	3108
822.149	3199
822.289	3230
822.429	3062
822.569	3100
822.709	3146
822.849	3024
822.99	3028
823.13	3157
823.27	3203
823.41	3108
823.55	3169
823.69	3165
823.83	3165
823.97	3074
824.11	2998
824.25	2963
824.389	3047
824.529	3085
824.669	3074
824.809	3207
824.949	3294
825.089	3207
825.228	3184
825.368	2994
825.508	2967
825.648	2952
825.787	3001
825.927	3017
826.067	2948
826.206	2941
826.346	3020
826.485	3066
826.625	3123
826.765	3237
826.904	3195
827.044	2967
827.183	2956
827.323	2853
827.462	3009
827.601	2914
827.741	2910
827.88	2937
828.02	2857
828.159	2937
828.298	3047
828.437	3116
828.577	3020
828.716	3241
828.855	3058
828.994	2861
829.134	2906
829.273	2914
829.412	2883
829.551	2823
829.69	2857
829.829	2998
829.968	3108
830.107	2982
830.246	3028
830.385	2933
830.524	2872
830.663	2815
830.802	2762
830.941	2636
831.08	2659
831.219	2716
831.357	2754
831.496	2952
831.635	2750
831.774	2632
831.913	2644
832.051	2533
832.19	2594
832.329	2651
832.467	2514
832.606	2480
832.744	2552
832.883	2571
833.022	2594
833.16	2663
833.299	2705
833.437	2655
833.576	2693
833.714	2708
833.852	2712
833.991	2769
834.129	2826
834.267	2823
834.406	2781
834.544	2849
834.682	2861
834.821	2857
834.959	3058
835.097	2914
835.235	3036
835.373	2986
835.511	3032
835.65	2960
835.788	2967
835.926	2838
836.064	2845
836.202	2868
836.34	3097
836.478	3108
836.615	3028
836.753	3116
836.891	3180
837.029	3142
837.167	3097
837.305	3043
837.443	3017
837.58	2960
837.718	3123
837.856	3097
837.993	3043
838.131	3097
838.269	3108
838.406	3077
838.544	3066
838.681	2952
838.819	2887
838.956	2792
839.094	2788
839.231	2891
839.369	3005
839.506	3378
839.643	3157
839.781	2998
839.918	2960
840.055	3017
840.193	3001
840.33	3028
840.467	3097
840.604	3154
840.742	3405
840.879	3036
841.016	3043
841.153	3127
841.29	3325
841.427	3272
841.564	3260
841.701	3298
841.838	3188
841.975	3154
842.112	3203
842.249	3074
842.385	2990
842.522	3226
842.659	3089
842.796	3051
842.933	3100
843.069	3013
843.206	2982
843.343	3184
843.479	3081
843.616	3142
843.752	2876
843.889	2861
844.025	3081
844.162	2849
844.298	3055
844.435	2982
844.571	2929
844.708	3089
844.844	3207
844.98	3241
845.117	3157
845.253	3036
845.389	3013
845.525	3104
845.661	3119
845.798	2979
845.934	3085
846.07	3089
846.206	3203
846.342	3275
846.478	3214
846.614	3047
846.75	3062
846.886	3009
847.022	3245
847.158	3138
847.294	3154
847.429	3218
847.565	3222
847.701	3466
847.837	3039
847.972	2994
848.108	3142
848.244	3116
848.379	2986
848.515	2918
848.65	2933
848.786	2941
848.921	3020
849.057	3097
849.192	3150
849.328	3043
849.463	3097
849.598	3039
849.734	3047
849.869	2994
850.004	2922
850.14	2967
850.275	2918
850.41	2823
850.545	2868
850.68	2929
850.815	2944
850.95	2982
851.085	3157
851.22	3062
851.355	2963
851.49	2960
851.625	2967
851.76	3013
851.895	2937
852.03	2899
852.165	2998
852.299	3081
852.434	3199
852.569	3138
852.703	3138
852.838	3218
852.973	3359
853.107	3283
853.242	3127
853.376	3097
853.511	2979
853.645	3036
853.78	3230
853.914	3135
854.048	3108
854.183	3089
854.317	3150
854.451	3275
854.585	3161
854.72	3066
854.854	3173
854.988	3028
855.122	3100
855.256	2975
855.39	3070
855.524	3233
855.658	3138
855.792	3150
855.926	3169
856.06	3192
856.194	3256
856.327	3131
856.461	3062
856.595	3055
856.729	3074
856.862	3218
856.996	3112
857.13	3165
857.263	3245
857.397	3268
857.53	3093
857.664	3173
857.797	3287
857.931	3237
858.064	3154
858.197	3192
858.331	3131
858.464	3062
858.597	2979
858.731	3093
858.864	3112
858.997	3089
859.13	3142
859.263	3180
859.396	3207
859.529	3093
859.662	3070
859.795	3039
859.928	3131
860.061	3230
860.194	3272
860.327	3161
860.46	3039
860.592	3233
860.725	3230
860.858	3245
860.99	3100
861.123	3017
861.256	3024
861.388	3116
861.521	3831
861.653	3017
861.786	2994
861.918	3001
862.05	3051
862.183	3097
862.315	3176
862.447	3146
862.58	3074
862.712	2914
862.844	2857
862.976	2986
863.108	2975
863.24	3405
863.372	2861
863.504	2948
863.636	2975
863.768	3028
863.9	2944
864.032	2910
864.164	2948
864.296	2975
864.428	3077
864.559	3108
864.691	3077
864.823	3070
864.954	3058
865.086	3005
865.217	2937
865.349	2914
865.48	2982
865.612	3024
865.743	3150
865.875	2990
866.006	2933
866.137	2937
866.269	2933
866.4	2899
866.531	2918
866.662	2883
866.793	2887
866.924	2906
867.055	2956
867.186	2910
867.317	2838
867.448	2830
867.579	2826
867.71	2834
867.841	2788
867.972	2876
868.103	2906
868.233	2864
868.364	2849
868.495	2899
868.625	3066
868.756	3142
868.886	2948
869.017	3005
869.147	3127
869.278	3169
869.408	3036
869.539	2994
869.669	3074
869.799	2994
869.929	3100
870.06	3138
870.19	3325
870.32	3279
870.45	3291
870.58	3370
870.71	3401
870.84	3416
870.97	3268
871.1	3230
871.23	3450
871.36	3431
871.489	3351
871.619	3367
871.749	3382
871.879	3431
872.008	3488
872.138	3302
872.267	3241
872.397	3104
872.526	3058
872.656	2979
872.785	3100
872.915	3241
873.044	3298
873.173	3211
873.303	3256
873.432	3203
873.561	3207
873.69	3180
873.819	3157
873.948	3199
874.077	3066
874.206	3032
874.335	3043
874.464	3203
874.593	3332
874.722	3230
874.851	3374
874.979	3329
875.108	3321
875.237	3192
875.365	3154
875.494	3135
875.623	3211
875.751	3070
875.88	3123
876.008	3138
876.136	3195
876.265	3332
876.393	3477
876.521	3416
876.65	3355
876.778	3291
876.906	3256
877.034	3211
877.162	3218
877.29	3146
877.418	3264
877.546	3237
877.674	3245
877.802	3237
877.93	3173
878.058	3127
878.185	3043
878.313	3180
878.441	3195
878.568	3100
878.696	3146
878.824	3260
878.951	3306
879.079	3416
879.206	3675
879.333	3466
879.461	3332
879.588	3367
879.715	3492
879.842	3618
879.97	3469
880.097	3184
880.224	3108
880.351	3241
880.478	3249
880.605	3222
880.732	3203
880.859	3530
880.986	3344
881.112	3332
881.239	3237
881.366	3135
881.493	3089
881.619	3051
881.746	3093
881.872	3116
881.999	3123
882.125	3203
882.252	3237
882.378	3355
882.505	3428
882.631	3340
882.757	3214
882.883	3245
883.01	3275
883.136	3199
883.262	3112
883.388	3138
883.514	3355
883.64	3420
883.766	3310
883.892	3214
884.018	3283
884.143	3443
884.269	3595
884.395	3253
884.52	3207
884.646	3218
884.772	3154
884.897	3150
885.023	3230
885.148	3363
885.274	3443
885.399	3431
885.524	3325
885.65	3359
885.775	3359
885.9	3317
886.025	3462
886.15	3386
886.275	3363
886.4	3245
886.525	3359
886.65	3302
886.775	3374
886.9	3564
887.025	3663
887.149	3439
887.274	3351
887.399	3195
887.523	3214
887.648	3214
887.773	3214
887.897	3416
888.021	3443
888.146	3344
888.27	3469
888.395	3534
888.519	3439
888.643	3469
888.767	3488
888.891	3367
889.015	3272
889.139	3310
889.263	3260
889.387	3469
889.511	3564
889.635	3504
889.759	3306
889.883	3310
890.006	3443
890.13	3523
890.254	3264
890.377	3367
890.501	3237
890.624	3207
890.748	3291
890.871	3253
890.995	3146
891.118	3104
891.241	3222
891.364	3260
891.488	3332
891.611	3157
891.734	3245
891.857	3302
891.98	3279
892.103	3409
892.226	3291
892.349	3249
892.471	3138
892.594	3294
892.717	3302
892.839	3310
892.962	3321
893.085	3409
893.207	3344
893.33	3211
893.452	3230
893.575	3367
893.697	3287
893.819	3481
893.941	3542
894.064	3496
894.186	3283
894.308	3294
894.43	3485
894.552	3568
894.674	3469
894.796	3313
894.918	3348
895.04	3332
895.161	3477
895.283	3416
895.405	3363
895.526	3416
895.648	3435
895.769	3431
895.891	3477
896.012	3545
896.134	3454
896.255	3420
896.376	3428
896.498	3359
896.619	3439
896.74	3378
896.861	3450
896.982	3705
897.103	3896
897.224	3622
897.345	3549
897.466	3439
897.587	3496
897.708	3637
897.828	3568
897.949	3462
898.07	3370
898.19	3431
898.311	3633
898.431	3447
898.552	3538
898.672	3648
898.792	3591
898.913	3538
899.033	3397
899.153	3313
899.273	3264
899.393	3279
899.513	3363
899.633	3348
899.753	3367
899.873	3359
899.993	3416
900.113	3363
900.232	3450
900.352	3389
900.472	3344
900.591	3237
900.711	3336
900.83	3253
900.95	3462
901.069	3534
901.189	3370
901.308	3211
901.427	3173
901.546	3245
901.665	3306
901.784	3351
901.904	3214
902.023	3199
902.141	3032
902.26	3017
902.379	3184
902.498	3085
902.617	3116
902.735	3241
902.854	3268
902.973	3272
903.091	3062
903.21	3089
903.328	3154
903.446	3150
903.565	3131
903.683	3256
903.801	3161
903.919	3256
904.038	3329
904.156	3203
904.274	3279
904.392	3275
904.51	3313
904.627	3363
904.745	3466
904.863	3515
904.981	3291
905.098	3184
905.216	3253
905.334	3325
905.451	3355
905.569	3325
905.686	3469
905.803	3431
905.921	3317
906.038	3389
906.155	3401
906.272	3298
906.389	3401
906.506	3260
906.623	3310
906.74	3306
906.857	3256
906.974	3260
907.091	3462
907.208	3576
907.324	3515
907.441	3428
907.557	3294
907.674	3249
907.79	3222
907.907	3306
908.023	3405
908.139	3424
908.256	3351
908.372	3401
908.488	3355
908.604	3283
908.72	3249
908.836	3329
908.952	3325
909.068	3348
909.184	3538
909.3	3447
909.415	3542
909.531	3485
909.647	3291
909.762	3298
909.878	3279
909.993	3389
910.108	3386
910.224	3321
910.339	3462
910.454	3374
910.57	3256
910.685	3249
910.8	3648
910.915	3534
911.03	3458
911.145	3336
911.259	3313
911.374	3336
911.489	3298
911.604	3253
911.718	3169
911.833	3184
911.947	3051
912.062	2979
912.176	3218
912.291	3214
912.405	3218
912.519	3492
912.633	3488
912.748	3367
912.862	3317
912.976	3203
913.09	3100
913.204	3192
913.318	3222
913.431	3386
913.545	3344
913.659	3405
913.772	3336
913.886	3230
914	3233
914.113	3416
914.226	3416
914.34	3332
914.453	3268
914.566	3428
914.68	3313
914.793	3313
914.906	3142
915.019	3104
915.132	3127
915.245	3203
915.358	3249
915.47	3241
915.583	3272
915.696	3310
915.809	3424
915.921	3481
916.034	3264
916.146	3253
916.259	3237
916.371	3401
916.483	3378
916.595	3268
916.708	3359
916.82	3363
916.932	3382
917.044	3389
917.156	3344
917.268	3306
917.38	3329
917.491	3306
917.603	3393
917.715	3485
917.826	3458
917.938	3443
918.049	3313
918.161	3458
918.272	3606
918.384	3561
918.495	3519
918.606	3363
918.717	3310
918.828	3397
918.939	3416
919.05	3313
919.161	3386
919.272	3184
919.383	3313
919.494	3526
919.604	3679
919.715	3496
919.826	3439
919.936	3469
920.047	3591
920.157	3580
920.267	3781
920.378	3618
920.488	3591
920.598	3808
920.708	4025
920.818	3876
920.928	3842
921.038	4063
921.148	4025
921.258	3705
921.368	3679
921.477	3606
921.587	3568
921.697	3504
921.806	3622
921.916	3523
922.025	3370
922.134	3367
922.244	3359
922.353	3412
922.462	3302
922.571	3222
922.68	3131
922.789	3123
922.898	3127
923.007	3108
923.116	3245
923.224	3173
923.333	3199
923.442	3108
923.55	3127
923.659	3169
923.767	3230
923.876	3116
923.984	3264
924.092	3119
924.201	3226
924.309	3222
924.417	3256
924.525	3195
924.633	3260
924.741	4211
924.849	3081
924.956	3287
925.064	3116
925.172	3081
925.279	3104
925.387	3207
925.494	3214
925.602	3355
925.709	3382
925.816	3184
925.924	3264
926.031	3416
926.138	3332
926.245	3367
926.352	3253
926.459	3462
926.566	3477
926.673	3348
926.779	3256
926.886	3275
926.993	3184
927.099	3142
927.206	3138
927.312	3100
927.419	3279
927.525	3222
927.631	3291
927.737	3154
927.843	3138
927.95	3070
928.056	3192
928.162	3195
928.267	3256
928.373	3915
928.479	3332
928.585	3077
928.69	3195
928.796	3283
928.901	3154
929.007	3051
929.112	3237
929.218	3192
929.323	3169
929.428	3203
929.533	3329
929.638	3142
929.743	3176
929.848	3272
929.953	3222
930.058	3146
930.163	3036
930.267	3028
930.372	3214
930.477	3039
930.581	3310
930.685	3207
930.79	3081
930.894	3116
930.998	3108
931.103	3306
931.207	2922
931.311	2956
931.415	2929
931.519	2811
931.623	2849
