Data from test_V78500241_1059.txt Node
Date: Fri Mar 25 16:22:32 CST 2022
User: usil
Spectrometer: V785-0024
Trigger mode: 0
Integration Time (sec): 4.000000E-1
Scans to average: 1
Nonlinearity correction enabled: false
Boxcar width: 0
Storing dark spectrum: false
XAxis mode: Wavelengths
Number of Pixels in Spectrum: 1024
>>>>>Begin Spectral Data<<<<<
801.071	2910
801.214	2925
801.356	2880
801.499	2891
801.641	2876
801.783	2952
801.926	3005
802.068	2971
802.211	2982
802.353	3043
802.496	2960
802.638	3009
802.78	3055
802.923	3051
803.065	2994
803.208	2864
803.35	2952
803.492	2960
803.635	2899
803.777	2746
803.919	2880
804.061	3184
804.204	2933
804.346	2922
804.488	2815
804.63	2979
804.773	2842
804.915	2910
805.057	3055
805.199	2906
805.341	2956
805.483	3062
805.626	2979
805.768	2963
805.91	3089
806.052	3081
806.194	3013
806.336	3249
806.478	3024
806.62	2929
806.762	2975
806.904	3112
807.046	3146
807.188	2998
807.33	2906
807.472	2994
807.614	2925
807.756	2990
807.898	2914
808.04	2899
808.182	2971
808.324	2929
808.465	2891
808.607	2842
808.749	2819
808.891	2861
809.033	2960
809.174	2986
809.316	2883
809.458	2891
809.6	2781
809.741	2766
809.883	2781
810.025	2864
810.166	2826
810.308	2800
810.45	2826
810.591	2773
810.733	2762
810.875	2800
811.016	2766
811.158	2769
811.299	2792
811.441	2944
811.582	2906
811.724	2834
811.865	2845
812.007	2895
812.148	2902
812.29	2819
812.431	2864
812.573	2899
812.714	2975
812.855	3005
812.997	3062
813.138	3119
813.279	2982
813.421	2975
813.562	2937
813.703	2883
813.845	2887
813.986	2792
814.127	2727
814.268	2876
814.41	2800
814.551	2830
814.692	2929
814.833	2815
814.974	2891
815.115	2963
815.256	2842
815.397	2823
815.539	2880
815.68	2762
815.821	2811
815.962	2925
816.103	2922
816.244	2880
816.385	2823
816.526	2975
816.666	2952
816.807	2731
816.948	2887
817.089	2929
817.23	2883
817.371	2773
817.512	2788
817.653	2842
817.793	2838
817.934	2887
818.075	2956
818.216	2971
818.356	3005
818.497	2872
818.638	2800
818.778	2800
818.919	2788
819.06	2758
819.2	2918
819.341	2807
819.481	2826
819.622	2910
819.762	3112
819.903	3100
820.043	2918
820.184	2906
820.324	2944
820.465	3005
820.605	3017
820.746	3028
820.886	2914
821.026	3097
821.167	3142
821.307	3275
821.447	3275
821.588	3233
821.728	3218
821.868	3184
822.008	3028
822.149	3165
822.289	3218
822.429	3055
822.569	3104
822.709	3192
822.849	3001
822.99	3066
823.13	3146
823.27	3180
823.41	3077
823.55	3142
823.69	3169
823.83	3180
823.97	3108
824.11	3032
824.25	2994
824.389	3047
824.529	3104
824.669	3104
824.809	3180
824.949	3264
825.089	3199
825.228	3188
825.368	3036
825.508	2918
825.648	2960
825.787	3017
825.927	2979
826.067	2963
826.206	2952
826.346	3055
826.485	3058
826.625	3116
826.765	3264
826.904	3203
827.044	2952
827.183	2933
827.323	2868
827.462	2967
827.601	2925
827.741	2948
827.88	2956
828.02	2861
828.159	3009
828.298	3017
828.437	3112
828.577	2998
828.716	3218
828.855	3093
828.994	2895
829.134	2861
829.273	2933
829.412	2887
829.551	2864
829.69	2918
829.829	3013
829.968	3123
830.107	3032
830.246	3009
830.385	2906
830.524	2880
830.663	2766
830.802	2739
830.941	2583
831.08	2659
831.219	2754
831.357	2708
831.496	2933
831.635	2724
831.774	2640
831.913	2651
832.051	2518
832.19	2590
832.329	2674
832.467	2549
832.606	2438
832.744	2575
832.883	2594
833.022	2568
833.16	2651
833.299	2667
833.437	2655
833.576	2708
833.714	2727
833.852	2686
833.991	2773
834.129	2819
834.267	2834
834.406	2788
834.544	2887
834.682	2864
834.821	2868
834.959	3032
835.097	2929
835.235	3089
835.373	3005
835.511	3005
835.65	2929
835.788	2956
835.926	2842
836.064	2807
836.202	2834
836.34	3077
836.478	3116
836.615	3047
836.753	3127
836.891	3165
837.029	3154
837.167	3138
837.305	3039
837.443	3074
837.58	2925
837.718	3085
837.856	3024
837.993	3036
838.131	3119
838.269	3135
838.406	3081
838.544	3077
838.681	2902
838.819	2883
838.956	2815
839.094	2845
839.231	2899
839.369	3032
839.506	3370
839.643	3188
839.781	2994
839.918	2967
840.055	3032
840.193	3058
840.33	3024
840.467	3097
840.604	3180
840.742	3386
840.879	3032
841.016	3013
841.153	3066
841.29	3329
841.427	3275
841.564	3272
841.701	3325
841.838	3188
841.975	3184
842.112	3199
842.249	3081
842.385	3032
842.522	3264
842.659	3093
842.796	3055
842.933	3070
843.069	3024
843.206	3036
843.343	3161
843.479	3097
843.616	3085
843.752	2864
843.889	2868
844.025	3070
844.162	2887
844.298	3077
844.435	2952
844.571	2906
844.708	3055
844.844	3192
844.98	3241
845.117	3173
845.253	3047
845.389	3017
845.525	3100
845.661	3123
845.798	2990
845.934	3104
846.07	3058
846.206	3241
846.342	3294
846.478	3192
846.614	3089
846.75	3047
846.886	3009
847.022	3260
847.158	3127
847.294	3195
847.429	3245
847.565	3195
847.701	3435
847.837	3036
847.972	2990
848.108	3142
848.244	3131
848.379	3028
848.515	2948
848.65	2979
848.786	2960
848.921	2986
849.057	3104
849.192	3142
849.328	3074
849.463	3077
849.598	3066
849.734	2998
849.869	2956
850.004	2906
850.14	2990
850.275	2891
850.41	2807
850.545	2861
850.68	2910
850.815	2960
850.95	3005
851.085	3192
851.22	3062
851.355	2975
851.49	2956
851.625	2994
851.76	3036
851.895	2967
852.03	2899
852.165	3024
852.299	3055
852.434	3176
852.569	3131
852.703	3161
852.838	3279
852.973	3313
853.107	3313
853.242	3180
853.376	3089
853.511	2979
853.645	3055
853.78	3207
853.914	3131
854.048	3100
854.183	3093
854.317	3100
854.451	3272
854.585	3123
854.72	3108
854.854	3203
854.988	3047
855.122	3077
855.256	2967
855.39	3081
855.524	3226
855.658	3131
855.792	3146
855.926	3154
856.06	3188
856.194	3218
856.327	3157
856.461	3066
856.595	3058
856.729	3085
856.862	3218
856.996	3157
857.13	3195
857.263	3260
857.397	3287
857.53	3112
857.664	3154
857.797	3245
857.931	3264
858.064	3142
858.197	3207
858.331	3097
858.464	3066
858.597	3009
858.731	3119
858.864	3119
858.997	3058
859.13	3135
859.263	3165
859.396	3226
859.529	3074
859.662	3070
859.795	3013
859.928	3127
860.061	3230
860.194	3287
860.327	3123
860.46	3108
860.592	3214
860.725	3256
860.858	3214
860.99	3085
861.123	3085
861.256	3017
861.388	3138
861.521	3854
861.653	2990
861.786	2967
861.918	3020
862.05	3043
862.183	3081
862.315	3176
862.447	3161
862.58	3100
862.712	2960
862.844	2876
862.976	3013
863.108	3013
863.24	3412
863.372	2861
863.504	2963
863.636	2918
863.768	3039
863.9	2967
864.032	2918
864.164	2956
864.296	2963
864.428	3093
864.559	3070
864.691	3074
864.823	3055
864.954	3047
865.086	3036
865.217	2998
865.349	2914
865.48	3001
865.612	3005
865.743	3150
865.875	2998
866.006	2963
866.137	2994
866.269	2963
866.4	2899
866.531	2925
866.662	2914
866.793	2906
866.924	2918
867.055	2956
867.186	2914
867.317	2876
867.448	2826
867.579	2868
867.71	2872
867.841	2811
867.972	2933
868.103	2883
868.233	2887
868.364	2899
868.495	2887
868.625	3036
868.756	3142
868.886	2986
869.017	3020
869.147	3203
869.278	3173
869.408	3017
869.539	2998
869.669	3104
869.799	3047
869.929	3116
870.06	3104
870.19	3317
870.32	3264
870.45	3291
870.58	3344
870.71	3450
870.84	3447
870.97	3310
871.1	3233
871.23	3534
871.36	3447
871.489	3363
871.619	3382
871.749	3409
871.879	3405
872.008	3424
872.138	3370
872.267	3260
872.397	3135
872.526	3112
872.656	3043
872.785	3055
872.915	3241
873.044	3336
873.173	3173
873.303	3233
873.432	3207
873.561	3203
873.69	3154
873.819	3127
873.948	3218
874.077	3097
874.206	3051
874.335	3070
874.464	3233
874.593	3348
874.722	3249
874.851	3363
874.979	3321
875.108	3325
875.237	3218
875.365	3184
875.494	3165
875.623	3237
875.751	3089
875.88	3123
876.008	3157
876.136	3233
876.265	3370
876.393	3534
876.521	3401
876.65	3401
876.778	3344
876.906	3245
877.034	3180
877.162	3237
877.29	3211
877.418	3222
877.546	3233
877.674	3233
877.802	3230
877.93	3233
878.058	3142
878.185	3097
878.313	3211
878.441	3218
878.568	3085
878.696	3150
878.824	3218
878.951	3287
879.079	3454
879.206	3599
879.333	3450
879.461	3317
879.588	3370
879.715	3500
879.842	3587
879.97	3367
880.097	3142
880.224	3123
880.351	3184
880.478	3203
880.605	3184
880.732	3184
880.859	3469
880.986	3260
881.112	3363
881.239	3192
881.366	3093
881.493	3070
881.619	2994
881.746	3055
881.872	3097
881.999	3070
882.125	3138
882.252	3233
882.378	3294
882.505	3416
882.631	3260
882.757	3165
882.883	3173
883.01	3230
883.136	3150
883.262	3097
883.388	3146
883.514	3310
883.64	3348
883.766	3317
883.892	3195
884.018	3249
884.143	3386
884.269	3519
884.395	3188
884.52	3146
884.646	3203
884.772	3142
884.897	3104
885.023	3184
885.148	3336
885.274	3443
885.399	3386
885.524	3264
885.65	3260
885.775	3310
885.9	3279
886.025	3439
886.15	3302
886.275	3302
886.4	3253
886.525	3279
886.65	3264
886.775	3279
886.9	3492
887.025	3606
887.149	3382
887.274	3241
887.399	3199
887.523	3253
887.648	3165
887.773	3230
887.897	3363
888.021	3386
888.146	3298
888.27	3462
888.395	3515
888.519	3443
888.643	3462
888.767	3477
888.891	3310
889.015	3249
889.139	3256
889.263	3256
889.387	3443
889.511	3530
889.635	3431
889.759	3294
889.883	3291
890.006	3409
890.13	3519
890.254	3237
890.377	3317
890.501	3184
890.624	3192
890.748	3325
890.871	3161
890.995	3097
891.118	3055
891.241	3192
891.364	3230
891.488	3298
891.611	3192
891.734	3237
891.857	3275
891.98	3218
892.103	3306
892.226	3279
892.349	3165
892.471	3112
892.594	3230
892.717	3272
892.839	3264
892.962	3279
893.085	3359
893.207	3291
893.33	3127
893.452	3245
893.575	3355
893.697	3237
893.819	3466
893.941	3496
894.064	3420
894.186	3253
894.308	3230
894.43	3435
894.552	3549
894.674	3485
894.796	3233
894.918	3264
895.04	3291
895.161	3405
895.283	3401
895.405	3325
895.526	3370
895.648	3435
895.769	3405
895.891	3473
896.012	3500
896.134	3447
896.255	3374
896.376	3382
896.498	3378
896.619	3424
896.74	3367
896.861	3416
896.982	3656
897.103	3808
897.224	3584
897.345	3542
897.466	3416
897.587	3492
897.708	3603
897.828	3488
897.949	3420
898.07	3363
898.19	3382
898.311	3606
898.431	3488
898.552	3523
898.672	3599
898.792	3576
898.913	3545
899.033	3386
899.153	3275
899.273	3169
899.393	3268
899.513	3325
899.633	3291
899.753	3298
899.873	3283
899.993	3386
900.113	3287
900.232	3386
900.352	3359
900.472	3264
900.591	3222
900.711	3279
900.83	3249
900.95	3420
901.069	3481
901.189	3370
901.308	3142
901.427	3100
901.546	3157
901.665	3302
901.784	3336
901.904	3226
902.023	3131
902.141	2960
902.26	2975
902.379	3154
902.498	3058
902.617	3074
902.735	3165
902.854	3203
902.973	3184
903.091	3036
903.21	3051
903.328	3097
903.446	3100
903.565	3097
903.683	3180
903.801	3127
903.919	3272
904.038	3298
904.156	3154
904.274	3287
904.392	3260
904.51	3275
904.627	3351
904.745	3412
904.863	3488
904.981	3241
905.098	3188
905.216	3237
905.334	3313
905.451	3298
905.569	3344
905.686	3412
905.803	3439
905.921	3275
906.038	3454
906.155	3332
906.272	3283
906.389	3317
906.506	3253
906.623	3260
906.74	3264
906.857	3199
906.974	3237
907.091	3450
907.208	3523
907.324	3466
907.441	3374
907.557	3218
907.674	3237
907.79	3218
907.907	3253
908.023	3397
908.139	3351
908.256	3321
908.372	3389
908.488	3374
908.604	3256
908.72	3253
908.836	3302
908.952	3264
909.068	3260
909.184	3439
909.3	3386
909.415	3458
909.531	3439
909.647	3264
909.762	3310
909.878	3256
909.993	3378
910.108	3359
910.224	3370
910.339	3435
910.454	3264
910.57	3279
910.685	3230
910.8	3557
910.915	3523
911.03	3420
911.145	3268
911.259	3287
911.374	3317
911.489	3226
911.604	3253
911.718	3127
911.833	3142
911.947	2998
912.062	2971
912.176	3150
912.291	3214
912.405	3218
912.519	3420
912.633	3450
912.748	3344
912.862	3291
912.976	3112
913.09	3039
913.204	3119
913.318	3226
913.431	3344
913.545	3332
913.659	3374
913.772	3321
913.886	3180
914	3199
914.113	3374
914.226	3393
914.34	3378
914.453	3192
914.566	3386
914.68	3279
914.793	3275
914.906	3165
915.019	3123
915.132	3066
915.245	3195
915.358	3241
915.47	3237
915.583	3253
915.696	3279
915.809	3431
915.921	3397
916.034	3241
916.146	3279
916.259	3260
916.371	3374
916.483	3378
916.595	3253
916.708	3294
916.82	3325
916.932	3306
917.044	3348
917.156	3348
917.268	3253
917.38	3313
917.491	3283
917.603	3370
917.715	3443
917.826	3507
917.938	3374
918.049	3226
918.161	3431
918.272	3587
918.384	3587
918.495	3466
918.606	3294
918.717	3253
918.828	3378
918.939	3401
919.05	3283
919.161	3401
919.272	3192
919.383	3260
919.494	3500
919.604	3682
919.715	3488
919.826	3393
919.936	3450
920.047	3595
920.157	3610
920.267	3743
920.378	3606
920.488	3545
920.598	3812
920.708	3956
920.818	3842
920.928	3819
921.038	4002
921.148	3968
921.258	3656
921.368	3618
921.477	3561
921.587	3557
921.697	3450
921.806	3610
921.916	3515
922.025	3363
922.134	3344
922.244	3325
922.353	3416
922.462	3226
922.571	3214
922.68	3108
922.789	3093
922.898	3116
923.007	3097
923.116	3195
923.224	3173
923.333	3161
923.442	3100
923.55	3089
923.659	3116
923.767	3233
923.876	3116
923.984	3203
924.092	3131
924.201	3207
924.309	3233
924.417	3233
924.525	3211
924.633	3253
924.741	4204
924.849	3020
924.956	3264
925.064	3104
925.172	3017
925.279	3062
925.387	3146
925.494	3188
925.602	3348
925.709	3302
925.816	3180
925.924	3264
926.031	3340
926.138	3332
926.245	3344
926.352	3241
926.459	3393
926.566	3462
926.673	3294
926.779	3222
926.886	3268
926.993	3157
927.099	3123
927.206	3123
927.312	3116
927.419	3214
927.525	3211
927.631	3207
927.737	3116
927.843	3131
927.95	2982
928.056	3131
928.162	3180
928.267	3268
928.373	3850
928.479	3264
928.585	3070
928.69	3233
928.796	3272
928.901	3192
929.007	3036
929.112	3211
929.218	3169
929.323	3104
929.428	3135
929.533	3310
929.638	3112
929.743	3188
929.848	3260
929.953	3142
930.058	3176
930.163	2982
930.267	3036
930.372	3203
930.477	3032
930.581	3317
930.685	3203
930.79	3055
930.894	3081
930.998	3097
931.103	3275
931.207	2899
931.311	2902
931.415	2941
931.519	2769
931.623	2781
