Data from test_V78500241_1142.txt Node
Date: Fri Mar 25 16:23:06 CST 2022
User: usil
Spectrometer: V785-0024
Trigger mode: 0
Integration Time (sec): 4.000000E-1
Scans to average: 1
Nonlinearity correction enabled: false
Boxcar width: 0
Storing dark spectrum: false
XAxis mode: Wavelengths
Number of Pixels in Spectrum: 1024
>>>>>Begin Spectral Data<<<<<
801.071	2937
801.214	2998
801.356	2922
801.499	2967
801.641	2891
801.783	2986
801.926	3104
802.068	3047
802.211	3051
802.353	3089
802.496	3032
802.638	3039
802.78	3085
802.923	3108
803.065	3077
803.208	2944
803.35	2982
803.492	2975
803.635	2948
803.777	2788
803.919	2910
804.061	3211
804.204	2994
804.346	2933
804.488	2891
804.63	3055
804.773	2941
804.915	2971
805.057	3112
805.199	2944
805.341	3024
805.483	3097
805.626	3032
805.768	2967
805.91	3112
806.052	3165
806.194	3104
806.336	3241
806.478	3062
806.62	2990
806.762	3036
806.904	3108
807.046	3237
807.188	3017
807.33	2925
807.472	3074
807.614	2910
807.756	2998
807.898	2960
808.04	2902
808.182	2998
808.324	3024
808.465	2914
808.607	2910
808.749	2868
808.891	2891
809.033	3001
809.174	3028
809.316	2925
809.458	2929
809.6	2792
809.741	2804
809.883	2792
810.025	2883
810.166	2876
810.308	2883
810.45	2883
810.591	2815
810.733	2804
810.875	2910
811.016	2815
811.158	2800
811.299	2826
811.441	2982
811.582	2914
811.724	2857
811.865	2887
812.007	2960
812.148	2895
812.29	2868
812.431	2880
812.573	2986
812.714	2994
812.855	3074
812.997	3062
813.138	3138
813.279	3043
813.421	2994
813.562	2986
813.703	2899
813.845	2933
813.986	2777
814.127	2758
814.268	2834
814.41	2849
814.551	2876
814.692	2906
814.833	2842
814.974	2899
815.115	2952
815.256	2872
815.397	2842
815.539	2880
815.68	2815
815.821	2826
815.962	2979
816.103	2941
816.244	2902
816.385	2933
816.526	2990
816.666	2963
816.807	2781
816.948	2906
817.089	2918
817.23	2891
817.371	2807
817.512	2864
817.653	2857
817.793	2853
817.934	2906
818.075	2952
818.216	2994
818.356	3043
818.497	2925
818.638	2819
818.778	2895
818.919	2826
819.06	2792
819.2	2899
819.341	2815
819.481	2769
819.622	2982
819.762	3108
819.903	3039
820.043	2963
820.184	2910
820.324	2971
820.465	3024
820.605	3036
820.746	3055
820.886	2960
821.026	3066
821.167	3226
821.307	3275
821.447	3294
821.588	3233
821.728	3218
821.868	3230
822.008	3108
822.149	3203
822.289	3218
822.429	3146
822.569	3146
822.709	3192
822.849	3062
822.99	3081
823.13	3180
823.27	3253
823.41	3097
823.55	3188
823.69	3161
823.83	3207
823.97	3142
824.11	3036
824.25	2986
824.389	3062
824.529	3097
824.669	3066
824.809	3211
824.949	3291
825.089	3237
825.228	3195
825.368	3005
825.508	3005
825.648	2990
825.787	3039
825.927	3039
826.067	2994
826.206	2956
826.346	3062
826.485	3051
826.625	3127
826.765	3310
826.904	3222
827.044	3020
827.183	2967
827.323	2906
827.462	3001
827.601	2910
827.741	2944
827.88	2963
828.02	2933
828.159	3001
828.298	3039
828.437	3146
828.577	3047
828.716	3253
828.855	3081
828.994	2906
829.134	2891
829.273	2952
829.412	2895
829.551	2918
829.69	2910
829.829	2990
829.968	3150
830.107	3005
830.246	3070
830.385	2952
830.524	2880
830.663	2845
830.802	2762
830.941	2693
831.08	2674
831.219	2785
831.357	2766
831.496	3013
831.635	2731
831.774	2686
831.913	2659
832.051	2552
832.19	2602
832.329	2705
832.467	2571
832.606	2492
832.744	2590
832.883	2598
833.022	2587
833.16	2667
833.299	2697
833.437	2701
833.576	2739
833.714	2762
833.852	2754
833.991	2796
834.129	2883
834.267	2830
834.406	2811
834.544	2868
834.682	2956
834.821	2902
834.959	3127
835.097	2925
835.235	3055
835.373	3051
835.511	3009
835.65	2982
835.788	2971
835.926	2849
836.064	2834
836.202	2853
836.34	3116
836.478	3192
836.615	3097
836.753	3142
836.891	3237
837.029	3188
837.167	3123
837.305	3089
837.443	3062
837.58	2986
837.718	3138
837.856	3051
837.993	3032
838.131	3146
838.269	3131
838.406	3081
838.544	3104
838.681	2967
838.819	2952
838.956	2838
839.094	2876
839.231	2937
839.369	3024
839.506	3367
839.643	3241
839.781	3043
839.918	2960
840.055	3039
840.193	3051
840.33	3093
840.467	3116
840.604	3176
840.742	3367
840.879	3093
841.016	3051
841.153	3119
841.29	3363
841.427	3325
841.564	3291
841.701	3348
841.838	3195
841.975	3203
842.112	3241
842.249	3074
842.385	3062
842.522	3241
842.659	3119
842.796	3074
842.933	3104
843.069	3032
843.206	3028
843.343	3184
843.479	3135
843.616	3138
843.752	2937
843.889	2880
844.025	3116
844.162	2902
844.298	3085
844.435	2990
844.571	2933
844.708	3100
844.844	3184
844.98	3260
845.117	3237
845.253	3062
845.389	3017
845.525	3100
845.661	3097
845.798	2994
845.934	3157
846.07	3066
846.206	3211
846.342	3340
846.478	3230
846.614	3093
846.75	3097
846.886	3047
847.022	3233
847.158	3146
847.294	3214
847.429	3241
847.565	3249
847.701	3523
847.837	3017
847.972	3020
848.108	3165
848.244	3138
848.379	3020
848.515	2952
848.65	2948
848.786	2994
848.921	3058
849.057	3138
849.192	3157
849.328	3085
849.463	3112
849.598	3074
849.734	3047
849.869	2994
850.004	2922
850.14	2963
850.275	2914
850.41	2845
850.545	2899
850.68	2941
850.815	2998
850.95	2967
851.085	3207
851.22	3108
851.355	3081
851.49	2986
851.625	2994
851.76	3017
851.895	2963
852.03	2910
852.165	3070
852.299	3097
852.434	3226
852.569	3142
852.703	3173
852.838	3233
852.973	3386
853.107	3298
853.242	3165
853.376	3070
853.511	2998
853.645	3036
853.78	3230
853.914	3127
854.048	3116
854.183	3108
854.317	3108
854.451	3306
854.585	3116
854.72	3116
854.854	3233
854.988	3085
855.122	3116
855.256	3017
855.39	3131
855.524	3222
855.658	3195
855.792	3146
855.926	3199
856.06	3226
856.194	3264
856.327	3180
856.461	3062
856.595	3051
856.729	3119
856.862	3226
856.996	3173
857.13	3211
857.263	3245
857.397	3291
857.53	3093
857.664	3233
857.797	3249
857.931	3268
858.064	3203
858.197	3253
858.331	3146
858.464	3116
858.597	2994
858.731	3116
858.864	3100
858.997	3100
859.13	3150
859.263	3161
859.396	3218
859.529	3097
859.662	3093
859.795	3043
859.928	3142
860.061	3264
860.194	3287
860.327	3119
860.46	3070
860.592	3211
860.725	3241
860.858	3237
860.99	3116
861.123	3081
861.256	3020
861.388	3131
861.521	3762
861.653	3028
861.786	3001
861.918	3028
862.05	3070
862.183	3108
862.315	3188
862.447	3218
862.58	3127
862.712	2994
862.844	2857
862.976	3036
863.108	3039
863.24	3302
863.372	2922
863.504	2960
863.636	2944
863.768	3017
863.9	2979
864.032	2929
864.164	2967
864.296	3005
864.428	3077
864.559	3146
864.691	3055
864.823	3070
864.954	3058
865.086	3055
865.217	2986
865.349	2956
865.48	2967
865.612	3036
865.743	3157
865.875	2971
866.006	2960
866.137	2986
866.269	2941
866.4	2918
866.531	2922
866.662	2902
866.793	2887
866.924	2910
867.055	2982
867.186	2948
867.317	2895
867.448	2849
867.579	2849
867.71	2891
867.841	2845
867.972	2891
868.103	2857
868.233	2906
868.364	2864
868.495	2922
868.625	3074
868.756	3165
868.886	2975
869.017	3024
869.147	3154
869.278	3157
869.408	3062
869.539	3024
869.669	3097
869.799	3089
869.929	3142
870.06	3077
870.19	3329
870.32	3302
870.45	3302
870.58	3374
870.71	3443
870.84	3431
870.97	3310
871.1	3245
871.23	3462
871.36	3420
871.489	3374
871.619	3428
871.749	3443
871.879	3481
872.008	3443
872.138	3359
872.267	3279
872.397	3104
872.526	3097
872.656	3043
872.785	3051
872.915	3253
873.044	3321
873.173	3203
873.303	3264
873.432	3253
873.561	3218
873.69	3226
873.819	3142
873.948	3203
874.077	3127
874.206	3024
874.335	3100
874.464	3211
874.593	3348
874.722	3268
874.851	3389
874.979	3306
875.108	3291
875.237	3207
875.365	3176
875.494	3165
875.623	3218
875.751	3100
875.88	3108
876.008	3165
876.136	3188
876.265	3393
876.393	3496
876.521	3424
876.65	3393
876.778	3317
876.906	3249
877.034	3253
877.162	3253
877.29	3169
877.418	3226
877.546	3233
877.674	3233
877.802	3214
877.93	3249
878.058	3195
878.185	3135
878.313	3180
878.441	3214
878.568	3066
878.696	3150
878.824	3264
878.951	3298
879.079	3420
879.206	3610
879.333	3450
879.461	3363
879.588	3370
879.715	3500
879.842	3584
879.97	3378
880.097	3180
880.224	3123
880.351	3184
880.478	3207
880.605	3188
880.732	3150
880.859	3488
880.986	3302
881.112	3321
881.239	3233
881.366	3089
881.493	3013
881.619	2990
881.746	3077
881.872	3089
881.999	3081
882.125	3146
882.252	3237
882.378	3298
882.505	3420
882.631	3302
882.757	3169
882.883	3218
883.01	3222
883.136	3169
883.262	3104
883.388	3104
883.514	3355
883.64	3393
883.766	3268
883.892	3180
884.018	3241
884.143	3450
884.269	3530
884.395	3173
884.52	3169
884.646	3184
884.772	3119
884.897	3123
885.023	3192
885.148	3344
885.274	3397
885.399	3382
885.524	3256
885.65	3237
885.775	3302
885.9	3283
886.025	3370
886.15	3382
886.275	3279
886.4	3211
886.525	3279
886.65	3306
886.775	3268
886.9	3507
887.025	3675
887.149	3382
887.274	3249
887.399	3150
887.523	3199
887.648	3173
887.773	3214
887.897	3340
888.021	3405
888.146	3317
888.27	3420
888.395	3523
888.519	3412
888.643	3420
888.767	3469
888.891	3348
889.015	3207
889.139	3283
889.263	3253
889.387	3370
889.511	3488
889.635	3431
889.759	3310
889.883	3294
890.006	3389
890.13	3462
890.254	3260
890.377	3298
890.501	3180
890.624	3169
890.748	3306
890.871	3188
890.995	3100
891.118	3051
891.241	3165
891.364	3230
891.488	3344
891.611	3161
891.734	3188
891.857	3283
891.98	3264
892.103	3306
892.226	3294
892.349	3230
892.471	3081
892.594	3203
892.717	3310
892.839	3275
892.962	3287
893.085	3344
893.207	3279
893.33	3142
893.452	3192
893.575	3336
893.697	3264
893.819	3469
893.941	3492
894.064	3469
894.186	3294
894.308	3291
894.43	3416
894.552	3538
894.674	3481
894.796	3253
894.918	3313
895.04	3294
895.161	3424
895.283	3389
895.405	3283
895.526	3363
895.648	3420
895.769	3431
895.891	3431
896.012	3450
896.134	3481
896.255	3424
896.376	3382
896.498	3359
896.619	3443
896.74	3355
896.861	3405
896.982	3686
897.103	3838
897.224	3576
897.345	3469
897.466	3412
897.587	3526
897.708	3603
897.828	3572
897.949	3450
898.07	3321
898.19	3405
898.311	3572
898.431	3454
898.552	3481
898.672	3625
898.792	3576
898.913	3526
899.033	3409
899.153	3275
899.273	3253
899.393	3272
899.513	3291
899.633	3283
899.753	3340
899.873	3329
899.993	3378
900.113	3325
900.232	3439
900.352	3340
900.472	3268
900.591	3211
900.711	3241
900.83	3222
900.95	3386
901.069	3488
901.189	3370
901.308	3135
901.427	3119
901.546	3199
901.665	3275
901.784	3317
901.904	3214
902.023	3146
902.141	3001
902.26	2967
902.379	3085
902.498	3085
902.617	3032
902.735	3188
902.854	3211
902.973	3161
903.091	3028
903.21	3085
903.328	3150
903.446	3085
903.565	3097
903.683	3222
903.801	3116
903.919	3245
904.038	3237
904.156	3154
904.274	3268
904.392	3279
904.51	3268
904.627	3306
904.745	3409
904.863	3496
904.981	3237
905.098	3188
905.216	3195
905.334	3298
905.451	3283
905.569	3325
905.686	3401
905.803	3443
905.921	3291
906.038	3409
906.155	3332
906.272	3260
906.389	3302
906.506	3241
906.623	3264
906.74	3264
906.857	3203
906.974	3283
907.091	3450
907.208	3595
907.324	3473
907.441	3397
907.557	3199
907.674	3253
907.79	3218
907.907	3283
908.023	3374
908.139	3363
908.256	3336
908.372	3329
908.488	3310
908.604	3253
908.72	3207
908.836	3264
908.952	3253
909.068	3336
909.184	3488
909.3	3370
909.415	3473
909.531	3469
909.647	3245
909.762	3283
909.878	3275
909.993	3336
910.108	3310
910.224	3332
910.339	3447
910.454	3317
910.57	3264
910.685	3256
910.8	3561
910.915	3492
911.03	3443
911.145	3264
911.259	3256
911.374	3298
911.489	3222
911.604	3237
911.718	3135
911.833	3135
911.947	2990
912.062	2998
912.176	3131
912.291	3154
912.405	3214
912.519	3397
912.633	3439
912.748	3355
912.862	3272
912.976	3142
913.09	3081
913.204	3131
913.318	3233
913.431	3359
913.545	3298
913.659	3424
913.772	3336
913.886	3249
914	3207
914.113	3363
914.226	3386
914.34	3359
914.453	3233
914.566	3382
914.68	3272
914.793	3287
914.906	3150
915.019	3104
915.132	3062
915.245	3154
915.358	3203
915.47	3237
915.583	3253
915.696	3298
915.809	3409
915.921	3412
916.034	3264
916.146	3230
916.259	3237
916.371	3367
916.483	3374
916.595	3256
916.708	3351
916.82	3332
916.932	3363
917.044	3329
917.156	3340
917.268	3230
917.38	3294
917.491	3302
917.603	3317
917.715	3458
917.826	3473
917.938	3351
918.049	3260
918.161	3435
918.272	3549
918.384	3591
918.495	3458
918.606	3321
918.717	3298
918.828	3374
918.939	3431
919.05	3291
919.161	3355
919.272	3180
919.383	3253
919.494	3523
919.604	3644
919.715	3466
919.826	3389
919.936	3412
920.047	3580
920.157	3576
920.267	3781
920.378	3606
920.488	3561
920.598	3751
920.708	3972
920.818	3819
920.928	3831
921.038	4029
921.148	4006
921.258	3713
921.368	3660
921.477	3568
921.587	3515
921.697	3477
921.806	3641
921.916	3523
922.025	3348
922.134	3336
922.244	3317
922.353	3431
922.462	3253
922.571	3226
922.68	3081
922.789	3089
922.898	3142
923.007	3062
923.116	3180
923.224	3199
923.333	3203
923.442	3104
923.55	3093
923.659	3169
923.767	3218
923.876	3142
923.984	3283
924.092	3097
924.201	3195
924.309	3214
924.417	3241
924.525	3188
924.633	3249
924.741	4002
924.849	3043
924.956	3268
925.064	3085
925.172	3066
925.279	3089
925.387	3176
925.494	3188
925.602	3344
925.709	3344
925.816	3173
925.924	3317
926.031	3374
926.138	3355
926.245	3351
926.352	3249
926.459	3431
926.566	3454
926.673	3298
926.779	3222
926.886	3211
926.993	3150
927.099	3150
927.206	3093
927.312	3123
927.419	3241
927.525	3226
927.631	3275
927.737	3100
927.843	3131
927.95	3043
928.056	3154
928.162	3142
928.267	3222
928.373	3846
928.479	3283
928.585	3032
928.69	3211
928.796	3241
928.901	3173
929.007	3039
929.112	3195
929.218	3142
929.323	3119
929.428	3157
929.533	3302
929.638	3081
929.743	3100
929.848	3256
929.953	3207
930.058	3154
930.163	2963
930.267	3020
930.372	3161
930.477	2994
930.581	3306
930.685	3169
930.79	3020
930.894	3085
930.998	3077
931.103	3283
931.207	2963
931.311	2952
931.415	2887
931.519	2788
931.623	2785
