Data from test_V78500241_826.txt Node
Date: Fri Mar 25 16:20:55 CST 2022
User: usil
Spectrometer: V785-0024
Trigger mode: 0
Integration Time (sec): 4.000000E-1
Scans to average: 1
Nonlinearity correction enabled: false
Boxcar width: 0
Storing dark spectrum: false
XAxis mode: Wavelengths
Number of Pixels in Spectrum: 1024
>>>>>Begin Spectral Data<<<<<
801.071	2895
801.214	2944
801.356	2899
801.499	2922
801.641	2895
801.783	2933
801.926	3070
802.068	2975
802.211	2998
802.353	3036
802.496	2948
802.638	3028
802.78	3043
802.923	3032
803.065	2975
803.208	2918
803.35	2929
803.492	2952
803.635	2941
803.777	2804
803.919	2849
804.061	3214
804.204	2922
804.346	2902
804.488	2880
804.63	2963
804.773	2872
804.915	2902
805.057	3097
805.199	2902
805.341	2944
805.483	3028
805.626	2971
805.768	2982
805.91	3097
806.052	3150
806.194	3017
806.336	3233
806.478	3039
806.62	2956
806.762	2998
806.904	3039
807.046	3169
807.188	2986
807.33	2922
807.472	3001
807.614	2910
807.756	2986
807.898	2891
808.04	2906
808.182	2933
808.324	2963
808.465	2864
808.607	2861
808.749	2796
808.891	2872
809.033	2941
809.174	2963
809.316	2891
809.458	2902
809.6	2815
809.741	2796
809.883	2773
810.025	2830
810.166	2876
810.308	2864
810.45	2876
810.591	2788
810.733	2769
810.875	2804
811.016	2773
811.158	2777
811.299	2804
811.441	2922
811.582	2880
811.724	2811
811.865	2804
812.007	2891
812.148	2891
812.29	2834
812.431	2857
812.573	2960
812.714	2990
812.855	3055
812.997	3039
813.138	3097
813.279	2998
813.421	2998
813.562	2960
813.703	2887
813.845	2883
813.986	2781
814.127	2724
814.268	2842
814.41	2819
814.551	2804
814.692	2891
814.833	2849
814.974	2887
815.115	2937
815.256	2804
815.397	2815
815.539	2868
815.68	2766
815.821	2815
815.962	2960
816.103	2941
816.244	2868
816.385	2853
816.526	2944
816.666	2910
816.807	2762
816.948	2925
817.089	2902
817.23	2826
817.371	2777
817.512	2804
817.653	2826
817.793	2864
817.934	2914
818.075	2967
818.216	3017
818.356	3039
818.497	2914
818.638	2804
818.778	2834
818.919	2788
819.06	2743
819.2	2887
819.341	2845
819.481	2781
819.622	2960
819.762	3062
819.903	3058
820.043	2918
820.184	2883
820.324	2906
820.465	3039
820.605	3020
820.746	3032
820.886	2952
821.026	3116
821.167	3176
821.307	3287
821.447	3272
821.588	3237
821.728	3230
821.868	3173
822.008	3051
822.149	3218
822.289	3230
822.429	3093
822.569	3093
822.709	3146
822.849	3013
822.99	3036
823.13	3119
823.27	3195
823.41	3077
823.55	3112
823.69	3146
823.83	3169
823.97	3104
824.11	3013
824.25	2994
824.389	3036
824.529	3123
824.669	3074
824.809	3207
824.949	3233
825.089	3188
825.228	3161
825.368	3032
825.508	2967
825.648	2956
825.787	3013
825.927	3009
826.067	2960
826.206	2914
826.346	3070
826.485	3077
826.625	3116
826.765	3249
826.904	3230
827.044	2971
827.183	2910
827.323	2902
827.462	2937
827.601	2914
827.741	2971
827.88	2933
828.02	2864
828.159	3017
828.298	3039
828.437	3093
828.577	3036
828.716	3260
828.855	3085
828.994	2872
829.134	2861
829.273	2914
829.412	2857
829.551	2857
829.69	2895
829.829	2982
829.968	3093
830.107	2998
830.246	3005
830.385	2929
830.524	2883
830.663	2815
830.802	2724
830.941	2689
831.08	2632
831.219	2750
831.357	2743
831.496	2952
831.635	2705
831.774	2648
831.913	2667
832.051	2549
832.19	2564
832.329	2663
832.467	2533
832.606	2488
832.744	2606
832.883	2594
833.022	2575
833.16	2648
833.299	2686
833.437	2667
833.576	2735
833.714	2727
833.852	2746
833.991	2777
834.129	2826
834.267	2807
834.406	2792
834.544	2876
834.682	2891
834.821	2823
834.959	3051
835.097	2891
835.235	3017
835.373	2982
835.511	2994
835.65	2956
835.788	2963
835.926	2838
836.064	2819
836.202	2887
836.34	3093
836.478	3119
836.615	3058
836.753	3119
836.891	3199
837.029	3127
837.167	3146
837.305	3032
837.443	3039
837.58	2948
837.718	3108
837.856	3039
837.993	3017
838.131	3154
838.269	3123
838.406	3104
838.544	3085
838.681	2956
838.819	2918
838.956	2842
839.094	2800
839.231	2872
839.369	3032
839.506	3370
839.643	3207
839.781	3024
839.918	2944
840.055	3070
840.193	3055
840.33	3032
840.467	3104
840.604	3150
840.742	3382
840.879	3005
841.016	3047
841.153	3074
841.29	3321
841.427	3287
841.564	3306
841.701	3279
841.838	3180
841.975	3184
842.112	3245
842.249	3039
842.385	3051
842.522	3237
842.659	3043
842.796	3055
842.933	3097
843.069	3074
843.206	3032
843.343	3184
843.479	3123
843.616	3146
843.752	2880
843.889	2861
844.025	3070
844.162	2872
844.298	3100
844.435	2952
844.571	2891
844.708	3047
844.844	3154
844.98	3184
845.117	3203
845.253	3058
845.389	2982
845.525	3104
845.661	3097
845.798	2986
845.934	3116
846.07	3039
846.206	3226
846.342	3313
846.478	3245
846.614	3093
846.75	3081
846.886	3009
847.022	3233
847.158	3154
847.294	3203
847.429	3222
847.565	3169
847.701	3462
847.837	3043
847.972	3001
848.108	3157
848.244	3157
848.379	2971
848.515	2937
848.65	2922
848.786	2952
848.921	3005
849.057	3127
849.192	3135
849.328	3009
849.463	3104
849.598	3097
849.734	3024
849.869	3005
850.004	2906
850.14	2967
850.275	2922
850.41	2853
850.545	2872
850.68	2929
850.815	2948
850.95	2960
851.085	3146
851.22	3066
851.355	3058
851.49	2979
851.625	3013
851.76	3009
851.895	2952
852.03	2902
852.165	3024
852.299	3142
852.434	3127
852.569	3142
852.703	3150
852.838	3233
852.973	3313
853.107	3332
853.242	3180
853.376	3051
853.511	2967
853.645	3036
853.78	3237
853.914	3161
854.048	3100
854.183	3066
854.317	3112
854.451	3256
854.585	3123
854.72	3077
854.854	3222
854.988	3066
855.122	3062
855.256	2975
855.39	3154
855.524	3245
855.658	3176
855.792	3165
855.926	3173
856.06	3176
856.194	3287
856.327	3112
856.461	3066
856.595	3024
856.729	3112
856.862	3203
856.996	3176
857.13	3222
857.263	3253
857.397	3241
857.53	3142
857.664	3184
857.797	3230
857.931	3272
858.064	3154
858.197	3218
858.331	3104
858.464	3085
858.597	2979
858.731	3165
858.864	3119
858.997	3089
859.13	3142
859.263	3173
859.396	3180
859.529	3062
859.662	3093
859.795	3058
859.928	3093
860.061	3283
860.194	3264
860.327	3070
860.46	3055
860.592	3203
860.725	3249
860.858	3249
860.99	3131
861.123	3100
861.256	3039
861.388	3157
861.521	3903
861.653	2994
861.786	2960
861.918	2982
862.05	3062
862.183	3089
862.315	3135
862.447	3203
862.58	3077
862.712	2910
862.844	2853
862.976	3036
863.108	3005
863.24	3325
863.372	2838
863.504	2967
863.636	2960
863.768	3013
863.9	2963
864.032	2925
864.164	2948
864.296	3032
864.428	3074
864.559	3097
864.691	3070
864.823	3051
864.954	3009
865.086	3051
865.217	2979
865.349	2925
865.48	2998
865.612	3017
865.743	3142
865.875	2944
866.006	2967
866.137	2952
866.269	2998
866.4	2910
866.531	2902
866.662	2880
866.793	2895
866.924	2899
867.055	2948
867.186	2861
867.317	2834
867.448	2838
867.579	2807
867.71	2861
867.841	2792
867.972	2910
868.103	2941
868.233	2883
868.364	2876
868.495	2906
868.625	3058
868.756	3150
868.886	2982
869.017	3005
869.147	3192
869.278	3135
869.408	3028
869.539	3020
869.669	3138
869.799	3036
869.929	3127
870.06	3108
870.19	3321
870.32	3264
870.45	3302
870.58	3370
870.71	3428
870.84	3416
870.97	3245
871.1	3211
871.23	3458
871.36	3488
871.489	3348
871.619	3401
871.749	3374
871.879	3416
872.008	3458
872.138	3370
872.267	3279
872.397	3119
872.526	3127
872.656	3005
872.785	3100
872.915	3195
873.044	3283
873.173	3211
873.303	3233
873.432	3253
873.561	3253
873.69	3142
873.819	3157
873.948	3161
874.077	3089
874.206	3062
874.335	3058
874.464	3241
874.593	3317
874.722	3233
874.851	3393
874.979	3325
875.108	3306
875.237	3157
875.365	3169
875.494	3195
875.623	3188
875.751	3093
875.88	3055
876.008	3222
876.136	3233
876.265	3374
876.393	3496
876.521	3424
876.65	3382
876.778	3298
876.906	3195
877.034	3169
877.162	3245
877.29	3157
877.418	3268
877.546	3249
877.674	3230
877.802	3222
877.93	3241
878.058	3112
878.185	3077
878.313	3188
878.441	3226
878.568	3081
878.696	3142
878.824	3233
878.951	3275
879.079	3439
879.206	3622
879.333	3439
879.461	3306
879.588	3359
879.715	3462
879.842	3591
879.97	3389
880.097	3150
880.224	3119
880.351	3180
880.478	3245
880.605	3184
880.732	3188
880.859	3473
880.986	3287
881.112	3348
881.239	3222
881.366	3085
881.493	3043
881.619	3013
881.746	3039
881.872	3108
881.999	3066
882.125	3138
882.252	3253
882.378	3287
882.505	3447
882.631	3287
882.757	3146
882.883	3184
883.01	3211
883.136	3161
883.262	3089
883.388	3112
883.514	3332
883.64	3382
883.766	3321
883.892	3214
884.018	3241
884.143	3393
884.269	3553
884.395	3161
884.52	3138
884.646	3176
884.772	3116
884.897	3104
885.023	3207
885.148	3321
885.274	3389
885.399	3351
885.524	3279
885.65	3245
885.775	3317
885.9	3275
886.025	3416
886.15	3332
886.275	3294
886.4	3245
886.525	3279
886.65	3291
886.775	3275
886.9	3488
887.025	3637
887.149	3409
887.274	3226
887.399	3180
887.523	3188
887.648	3214
887.773	3188
887.897	3367
888.021	3424
888.146	3291
888.27	3447
888.395	3504
888.519	3412
888.643	3409
888.767	3485
888.891	3332
889.015	3241
889.139	3291
889.263	3214
889.387	3370
889.511	3477
889.635	3458
889.759	3302
889.883	3310
890.006	3374
890.13	3504
890.254	3283
890.377	3370
890.501	3180
890.624	3161
890.748	3283
890.871	3173
890.995	3135
891.118	3055
891.241	3214
891.364	3222
891.488	3348
891.611	3188
891.734	3188
891.857	3291
891.98	3222
892.103	3340
892.226	3283
892.349	3207
892.471	3123
892.594	3222
892.717	3272
892.839	3264
892.962	3260
893.085	3351
893.207	3313
893.33	3138
893.452	3207
893.575	3344
893.697	3218
893.819	3488
893.941	3542
894.064	3443
894.186	3245
894.308	3253
894.43	3409
894.552	3507
894.674	3481
894.796	3245
894.918	3279
895.04	3302
895.161	3443
895.283	3405
895.405	3287
895.526	3382
895.648	3409
895.769	3412
895.891	3454
896.012	3473
896.134	3439
896.255	3397
896.376	3378
896.498	3348
896.619	3393
896.74	3363
896.861	3397
896.982	3698
897.103	3785
897.224	3580
897.345	3500
897.466	3447
897.587	3523
897.708	3584
897.828	3488
897.949	3443
898.07	3367
898.19	3405
898.311	3591
898.431	3428
898.552	3488
898.672	3557
898.792	3564
898.913	3549
899.033	3409
899.153	3272
899.273	3218
899.393	3275
899.513	3325
899.633	3355
899.753	3351
899.873	3279
899.993	3386
900.113	3321
900.232	3374
900.352	3359
900.472	3268
900.591	3230
900.711	3291
900.83	3207
900.95	3386
901.069	3466
901.189	3344
901.308	3123
901.427	3081
901.546	3211
901.665	3298
901.784	3321
901.904	3222
902.023	3131
902.141	3009
902.26	3028
902.379	3146
902.498	3081
902.617	3055
902.735	3241
902.854	3249
902.973	3154
903.091	3043
903.21	3028
903.328	3119
903.446	3108
903.565	3116
903.683	3214
903.801	3146
903.919	3256
904.038	3253
904.156	3169
904.274	3317
904.392	3264
904.51	3272
904.627	3306
904.745	3443
904.863	3473
904.981	3272
905.098	3165
905.216	3233
905.334	3294
905.451	3275
905.569	3336
905.686	3420
905.803	3428
905.921	3294
906.038	3405
906.155	3336
906.272	3283
906.389	3321
906.506	3226
906.623	3249
906.74	3268
906.857	3176
906.974	3245
907.091	3431
907.208	3534
907.324	3515
907.441	3382
907.557	3249
907.674	3226
907.79	3222
907.907	3283
908.023	3378
908.139	3374
908.256	3332
908.372	3386
908.488	3382
908.604	3302
908.72	3245
908.836	3275
908.952	3291
909.068	3386
909.184	3481
909.3	3397
909.415	3469
909.531	3450
909.647	3279
909.762	3283
909.878	3275
909.993	3363
910.108	3367
910.224	3332
910.339	3409
910.454	3329
910.57	3287
910.685	3237
910.8	3576
910.915	3545
911.03	3409
911.145	3268
911.259	3264
911.374	3268
911.489	3245
911.604	3260
911.718	3138
911.833	3176
911.947	3051
912.062	2994
912.176	3154
912.291	3173
912.405	3188
912.519	3409
912.633	3450
912.748	3359
912.862	3222
912.976	3176
913.09	3001
913.204	3161
913.318	3241
913.431	3336
913.545	3340
913.659	3439
913.772	3306
913.886	3237
914	3199
914.113	3401
914.226	3382
914.34	3344
914.453	3230
914.566	3378
914.68	3302
914.793	3336
914.906	3157
915.019	3131
915.132	3085
915.245	3127
915.358	3233
915.47	3188
915.583	3233
915.696	3306
915.809	3420
915.921	3416
916.034	3245
916.146	3218
916.259	3207
916.371	3386
916.483	3336
916.595	3279
916.708	3317
916.82	3332
916.932	3363
917.044	3382
917.156	3310
917.268	3241
917.38	3283
917.491	3260
917.603	3389
917.715	3412
917.826	3454
917.938	3359
918.049	3291
918.161	3431
918.272	3584
918.384	3561
918.495	3477
918.606	3355
918.717	3264
918.828	3374
918.939	3412
919.05	3287
919.161	3389
919.272	3184
919.383	3302
919.494	3538
919.604	3679
919.715	3481
919.826	3401
919.936	3435
920.047	3568
920.157	3511
920.267	3732
920.378	3629
920.488	3568
920.598	3797
920.708	3941
920.818	3812
920.928	3884
921.038	4025
921.148	4021
921.258	3709
921.368	3606
921.477	3561
921.587	3564
921.697	3450
921.806	3606
921.916	3515
922.025	3329
922.134	3344
922.244	3363
922.353	3466
922.462	3272
922.571	3222
922.68	3093
922.789	3119
922.898	3116
923.007	3093
923.116	3188
923.224	3161
923.333	3180
923.442	3066
923.55	3085
923.659	3097
923.767	3222
923.876	3131
923.984	3214
924.092	3077
924.201	3199
924.309	3226
924.417	3260
924.525	3195
924.633	3233
924.741	3998
924.849	3036
924.956	3237
925.064	3116
925.172	3051
925.279	3104
925.387	3188
925.494	3203
925.602	3355
925.709	3310
925.816	3165
925.924	3287
926.031	3340
926.138	3287
926.245	3393
926.352	3241
926.459	3412
926.566	3447
926.673	3313
926.779	3245
926.886	3245
926.993	3176
927.099	3135
927.206	3097
927.312	3108
927.419	3218
927.525	3211
927.631	3226
927.737	3112
927.843	3112
927.95	3032
928.056	3085
928.162	3203
928.267	3237
928.373	3736
928.479	3268
928.585	3058
928.69	3218
928.796	3287
928.901	3135
929.007	3058
929.112	3218
929.218	3150
929.323	3131
929.428	3135
929.533	3294
929.638	3089
929.743	3157
929.848	3249
929.953	3195
930.058	3135
930.163	2986
930.267	3074
930.372	3169
930.477	3066
930.581	3306
930.685	3165
930.79	3066
930.894	3112
930.998	3089
931.103	3325
931.207	2979
931.311	2918
931.415	2906
931.519	2792
931.623	2796
