Data from test_V78500241_1704.txt Node
Date: Fri Mar 25 16:27:00 CST 2022
User: usil
Spectrometer: V785-0024
Trigger mode: 0
Integration Time (sec): 4.000000E-1
Scans to average: 1
Nonlinearity correction enabled: false
Boxcar width: 0
Storing dark spectrum: false
XAxis mode: Wavelengths
Number of Pixels in Spectrum: 1024
>>>>>Begin Spectral Data<<<<<
801.071	2918
801.214	2963
801.356	2876
801.499	2906
801.641	2906
801.783	2952
801.926	3039
802.068	3024
802.211	3005
802.353	3020
802.496	2975
802.638	3028
802.78	3081
802.923	3077
803.065	2986
803.208	2922
803.35	2918
803.492	2918
803.635	2922
803.777	2762
803.919	2857
804.061	3222
804.204	2963
804.346	2922
804.488	2868
804.63	2998
804.773	2845
804.915	2902
805.057	3085
805.199	2925
805.341	3009
805.483	3062
805.626	3020
805.768	2982
805.91	3081
806.052	3097
806.194	3070
806.336	3249
806.478	3055
806.62	2941
806.762	3013
806.904	3043
807.046	3188
807.188	2994
807.33	2960
807.472	3009
807.614	2883
807.756	2971
807.898	2937
808.04	2910
808.182	2990
808.324	2956
808.465	2914
808.607	2868
808.749	2834
808.891	2796
809.033	2994
809.174	2952
809.316	2864
809.458	2887
809.6	2823
809.741	2766
809.883	2792
810.025	2826
810.166	2880
810.308	2868
810.45	2872
810.591	2769
810.733	2792
810.875	2864
811.016	2785
811.158	2788
811.299	2838
811.441	2944
811.582	2902
811.724	2845
811.865	2819
812.007	2922
812.148	2929
812.29	2864
812.431	2914
812.573	2933
812.714	2979
812.855	3036
812.997	3047
813.138	3135
813.279	2994
813.421	2994
813.562	2982
813.703	2899
813.845	2948
813.986	2800
814.127	2720
814.268	2826
814.41	2853
814.551	2849
814.692	2883
814.833	2826
814.974	2895
815.115	2925
815.256	2823
815.397	2819
815.539	2830
815.68	2773
815.821	2823
815.962	2944
816.103	2960
816.244	2868
816.385	2853
816.526	2967
816.666	2906
816.807	2804
816.948	2929
817.089	2914
817.23	2922
817.371	2804
817.512	2842
817.653	2834
817.793	2864
817.934	2883
818.075	2929
818.216	3005
818.356	2998
818.497	2906
818.638	2823
818.778	2861
818.919	2796
819.06	2727
819.2	2887
819.341	2807
819.481	2792
819.622	2948
819.762	3104
819.903	3039
820.043	2914
820.184	2925
820.324	2906
820.465	3047
820.605	3032
820.746	3005
820.886	2929
821.026	3081
821.167	3184
821.307	3256
821.447	3268
821.588	3256
821.728	3176
821.868	3188
822.008	3116
822.149	3165
822.289	3241
822.429	3077
822.569	3116
822.709	3214
822.849	3047
822.99	3051
823.13	3169
823.27	3245
823.41	3127
823.55	3157
823.69	3161
823.83	3188
823.97	3081
824.11	3005
824.25	3020
824.389	3070
824.529	3077
824.669	3081
824.809	3180
824.949	3272
825.089	3241
825.228	3176
825.368	2994
825.508	2986
825.648	2948
825.787	3028
825.927	3032
826.067	2967
826.206	2952
826.346	3062
826.485	3058
826.625	3127
826.765	3279
826.904	3214
827.044	2960
827.183	2963
827.323	2880
827.462	2998
827.601	2887
827.741	2979
827.88	2975
828.02	2823
828.159	2979
828.298	3020
828.437	3123
828.577	3039
828.716	3272
828.855	3142
828.994	2899
829.134	2906
829.273	2929
829.412	2845
829.551	2864
829.69	2918
829.829	2998
829.968	3100
830.107	3020
830.246	3039
830.385	2918
830.524	2861
830.663	2819
830.802	2708
830.941	2667
831.08	2651
831.219	2777
831.357	2781
831.496	2914
831.635	2720
831.774	2655
831.913	2678
832.051	2556
832.19	2594
832.329	2670
832.467	2564
832.606	2469
832.744	2583
832.883	2606
833.022	2610
833.16	2621
833.299	2712
833.437	2693
833.576	2682
833.714	2731
833.852	2712
833.991	2773
834.129	2838
834.267	2826
834.406	2769
834.544	2902
834.682	2868
834.821	2872
834.959	3097
835.097	2880
835.235	3070
835.373	2994
835.511	3055
835.65	2967
835.788	2956
835.926	2864
836.064	2834
836.202	2842
836.34	3112
836.478	3154
836.615	3017
836.753	3161
836.891	3192
837.029	3154
837.167	3093
837.305	3066
837.443	3009
837.58	2960
837.718	3093
837.856	3093
837.993	3043
838.131	3119
838.269	3062
838.406	3097
838.544	3066
838.681	2952
838.819	2887
838.956	2830
839.094	2826
839.231	2986
839.369	3032
839.506	3389
839.643	3188
839.781	3020
839.918	2929
840.055	3100
840.193	3051
840.33	3047
840.467	3116
840.604	3146
840.742	3382
840.879	3055
841.016	3009
841.153	3100
841.29	3332
841.427	3268
841.564	3214
841.701	3291
841.838	3226
841.975	3184
842.112	3222
842.249	3100
842.385	3036
842.522	3237
842.659	3100
842.796	3097
842.933	3112
843.069	3036
843.206	3051
843.343	3176
843.479	3104
843.616	3127
843.752	2864
843.889	2861
844.025	3089
844.162	2857
844.298	3085
844.435	2944
844.571	2895
844.708	3055
844.844	3161
844.98	3241
845.117	3199
845.253	3055
845.389	2952
845.525	3100
845.661	3116
845.798	3020
845.934	3142
846.07	3036
846.206	3199
846.342	3287
846.478	3275
846.614	3097
846.75	3058
846.886	3047
847.022	3237
847.158	3146
847.294	3218
847.429	3233
847.565	3222
847.701	3511
847.837	3062
847.972	3020
848.108	3165
848.244	3157
848.379	2986
848.515	2941
848.65	2933
848.786	2971
848.921	3017
849.057	3112
849.192	3150
849.328	3066
849.463	3100
849.598	3081
849.734	3024
849.869	2971
850.004	2933
850.14	3001
850.275	2933
850.41	2826
850.545	2891
850.68	2948
850.815	2952
850.95	2960
851.085	3188
851.22	3135
851.355	3028
851.49	3005
851.625	3001
851.76	2990
851.895	2937
852.03	2902
852.165	2975
852.299	3108
852.434	3199
852.569	3123
852.703	3192
852.838	3230
852.973	3355
853.107	3310
853.242	3173
853.376	3062
853.511	3005
853.645	2986
853.78	3207
853.914	3081
854.048	3089
854.183	3070
854.317	3127
854.451	3321
854.585	3123
854.72	3074
854.854	3233
854.988	3039
855.122	3077
855.256	2941
855.39	3112
855.524	3249
855.658	3169
855.792	3131
855.926	3184
856.06	3230
856.194	3237
856.327	3176
856.461	3058
856.595	3093
856.729	3108
856.862	3230
856.996	3169
857.13	3184
857.263	3211
857.397	3275
857.53	3089
857.664	3207
857.797	3249
857.931	3237
858.064	3157
858.197	3241
858.331	3112
858.464	3093
858.597	2998
858.731	3119
858.864	3093
858.997	3062
859.13	3154
859.263	3169
859.396	3195
859.529	3020
859.662	3047
859.795	3047
859.928	3131
860.061	3272
860.194	3272
860.327	3154
860.46	3116
860.592	3233
860.725	3226
860.858	3260
860.99	3104
861.123	3066
861.256	3043
861.388	3150
861.521	3956
861.653	3009
861.786	2986
861.918	2990
862.05	3077
862.183	3104
862.315	3142
862.447	3169
862.58	3097
862.712	2922
862.844	2872
862.976	3005
863.108	2982
863.24	3435
863.372	2902
863.504	2967
863.636	2918
863.768	2998
863.9	2933
864.032	2899
864.164	2967
864.296	2986
864.428	3100
864.559	3066
864.691	3055
864.823	3093
864.954	3032
865.086	3032
865.217	2922
865.349	2929
865.48	2986
865.612	3028
865.743	3180
865.875	2963
866.006	2914
866.137	2975
866.269	2937
866.4	2929
866.531	2914
866.662	2922
866.793	2902
866.924	2883
867.055	2948
867.186	2967
867.317	2891
867.448	2823
867.579	2861
867.71	2834
867.841	2842
867.972	2902
868.103	2906
868.233	2899
868.364	2853
868.495	2864
868.625	3051
868.756	3135
868.886	2956
869.017	2975
869.147	3146
869.278	3192
869.408	3036
869.539	3032
869.669	3062
869.799	3024
869.929	3116
870.06	3074
870.19	3302
870.32	3245
870.45	3287
870.58	3370
870.71	3420
870.84	3412
870.97	3287
871.1	3253
871.23	3507
871.36	3458
871.489	3332
871.619	3397
871.749	3382
871.879	3416
872.008	3454
872.138	3348
872.267	3249
872.397	3100
872.526	3104
872.656	3017
872.785	3104
872.915	3211
873.044	3291
873.173	3218
873.303	3245
873.432	3192
873.561	3253
873.69	3150
873.819	3165
873.948	3233
874.077	3123
874.206	3043
874.335	3093
874.464	3176
874.593	3325
874.722	3237
874.851	3378
874.979	3310
875.108	3321
875.237	3192
875.365	3157
875.494	3176
875.623	3233
875.751	3131
875.88	3097
876.008	3161
876.136	3195
876.265	3351
876.393	3481
876.521	3420
876.65	3393
876.778	3310
876.906	3268
877.034	3195
877.162	3188
877.29	3180
877.418	3237
877.546	3226
877.674	3245
877.802	3192
877.93	3237
878.058	3165
878.185	3077
878.313	3192
878.441	3199
878.568	3074
878.696	3207
878.824	3268
878.951	3298
879.079	3409
879.206	3614
879.333	3416
879.461	3336
879.588	3359
879.715	3496
879.842	3587
879.97	3359
880.097	3169
880.224	3161
880.351	3188
880.478	3214
880.605	3169
880.732	3188
880.859	3462
880.986	3310
881.112	3313
881.239	3195
881.366	3123
881.493	3028
881.619	3039
881.746	3051
881.872	3074
881.999	3108
882.125	3157
882.252	3253
882.378	3321
882.505	3389
882.631	3275
882.757	3116
882.883	3211
883.01	3218
883.136	3154
883.262	3100
883.388	3138
883.514	3329
883.64	3363
883.766	3306
883.892	3180
884.018	3226
884.143	3424
884.269	3530
884.395	3192
884.52	3195
884.646	3157
884.772	3138
884.897	3100
885.023	3211
885.148	3344
885.274	3386
885.399	3409
885.524	3283
885.65	3218
885.775	3325
885.9	3264
886.025	3431
886.15	3359
886.275	3321
886.4	3237
886.525	3283
886.65	3253
886.775	3268
886.9	3507
887.025	3652
887.149	3405
887.274	3264
887.399	3188
887.523	3192
887.648	3165
887.773	3180
887.897	3340
888.021	3382
888.146	3279
888.27	3450
888.395	3603
888.519	3401
888.643	3462
888.767	3443
888.891	3348
889.015	3214
889.139	3298
889.263	3237
889.387	3412
889.511	3511
889.635	3401
889.759	3237
889.883	3302
890.006	3374
890.13	3515
890.254	3268
890.377	3313
890.501	3184
890.624	3180
890.748	3287
890.871	3207
890.995	3116
891.118	3043
891.241	3207
891.364	3249
891.488	3363
891.611	3218
891.734	3241
891.857	3268
891.98	3211
892.103	3302
892.226	3268
892.349	3214
892.471	3142
892.594	3226
892.717	3279
892.839	3279
892.962	3298
893.085	3340
893.207	3272
893.33	3142
893.452	3214
893.575	3340
893.697	3272
893.819	3485
893.941	3526
894.064	3435
894.186	3275
894.308	3298
894.43	3447
894.552	3545
894.674	3477
894.796	3260
894.918	3332
895.04	3272
895.161	3409
895.283	3355
895.405	3291
895.526	3370
895.648	3428
895.769	3450
895.891	3462
896.012	3473
896.134	3496
896.255	3389
896.376	3405
896.498	3367
896.619	3439
896.74	3374
896.861	3386
896.982	3705
897.103	3854
897.224	3572
897.345	3504
897.466	3439
897.587	3511
897.708	3644
897.828	3523
897.949	3454
898.07	3340
898.19	3405
898.311	3591
898.431	3412
898.552	3481
898.672	3576
898.792	3580
898.913	3511
899.033	3401
899.153	3313
899.273	3233
899.393	3310
899.513	3272
899.633	3359
899.753	3321
899.873	3294
899.993	3382
900.113	3378
900.232	3405
900.352	3355
900.472	3306
900.591	3199
900.711	3256
900.83	3241
900.95	3405
901.069	3526
901.189	3363
901.308	3138
901.427	3146
901.546	3222
901.665	3294
901.784	3317
901.904	3249
902.023	3127
902.141	3009
902.26	2986
902.379	3150
902.498	3093
902.617	3036
902.735	3237
902.854	3222
902.973	3214
903.091	3055
903.21	3051
903.328	3127
903.446	3131
903.565	3093
903.683	3203
903.801	3135
903.919	3195
904.038	3291
904.156	3176
904.274	3310
904.392	3226
904.51	3268
904.627	3336
904.745	3435
904.863	3466
904.981	3245
905.098	3165
905.216	3195
905.334	3283
905.451	3310
905.569	3283
905.686	3416
905.803	3420
905.921	3294
906.038	3466
906.155	3332
906.272	3279
906.389	3348
906.506	3207
906.623	3226
906.74	3272
906.857	3188
906.974	3253
907.091	3450
907.208	3572
907.324	3469
907.441	3397
907.557	3256
907.674	3233
907.79	3230
907.907	3264
908.023	3382
908.139	3367
908.256	3310
908.372	3397
908.488	3340
908.604	3237
908.72	3203
908.836	3260
908.952	3317
909.068	3340
909.184	3485
909.3	3401
909.415	3481
909.531	3469
909.647	3256
909.762	3302
909.878	3268
909.993	3317
910.108	3348
910.224	3348
910.339	3405
910.454	3340
910.57	3279
910.685	3245
910.8	3580
910.915	3526
911.03	3462
911.145	3237
911.259	3253
911.374	3298
911.489	3241
911.604	3233
911.718	3119
911.833	3161
911.947	3066
912.062	2990
912.176	3169
912.291	3237
912.405	3188
912.519	3428
912.633	3428
912.748	3321
912.862	3294
912.976	3157
913.09	3051
913.204	3119
913.318	3230
913.431	3329
913.545	3351
913.659	3378
913.772	3374
913.886	3214
914	3192
914.113	3329
914.226	3409
914.34	3401
914.453	3203
914.566	3397
914.68	3272
914.793	3317
914.906	3142
915.019	3093
915.132	3055
915.245	3184
915.358	3173
915.47	3233
915.583	3287
915.696	3321
915.809	3428
915.921	3431
916.034	3264
916.146	3260
916.259	3207
916.371	3401
916.483	3344
916.595	3283
916.708	3359
916.82	3355
916.932	3313
917.044	3336
917.156	3363
917.268	3214
917.38	3321
917.491	3317
917.603	3370
917.715	3450
917.826	3485
917.938	3336
918.049	3283
918.161	3424
918.272	3561
918.384	3553
918.495	3473
918.606	3363
918.717	3279
918.828	3370
918.939	3443
919.05	3317
919.161	3351
919.272	3188
919.383	3264
919.494	3534
919.604	3652
919.715	3507
919.826	3412
919.936	3492
920.047	3564
920.157	3572
920.267	3747
920.378	3610
920.488	3595
920.598	3778
920.708	3941
920.818	3808
920.928	3823
921.038	4017
921.148	3972
921.258	3679
921.368	3595
921.477	3568
921.587	3526
921.697	3450
921.806	3591
921.916	3504
922.025	3355
922.134	3336
922.244	3317
922.353	3424
922.462	3283
922.571	3218
922.68	3081
922.789	3051
922.898	3119
923.007	3089
923.116	3199
923.224	3146
923.333	3116
923.442	3089
923.55	3127
923.659	3123
923.767	3211
923.876	3093
923.984	3237
924.092	3131
924.201	3199
924.309	3192
924.417	3245
924.525	3184
924.633	3211
924.741	3987
924.849	3066
924.956	3279
925.064	3108
925.172	2990
925.279	3081
925.387	3184
925.494	3207
925.602	3348
925.709	3355
925.816	3176
925.924	3287
926.031	3363
926.138	3313
926.245	3363
926.352	3226
926.459	3431
926.566	3454
926.673	3336
926.779	3241
926.886	3218
926.993	3157
927.099	3127
927.206	3116
927.312	3138
927.419	3249
927.525	3195
927.631	3241
927.737	3157
927.843	3142
927.95	3001
928.056	3112
928.162	3150
928.267	3237
928.373	3876
928.479	3275
928.585	3051
928.69	3214
928.796	3279
928.901	3176
929.007	3077
929.112	3192
929.218	3180
929.323	3154
929.428	3123
929.533	3287
929.638	3123
929.743	3173
929.848	3241
929.953	3195
930.058	3165
930.163	3009
930.267	3001
930.372	3214
930.477	3032
930.581	3294
930.685	3146
930.79	3047
930.894	3108
930.998	3127
931.103	3298
931.207	2948
931.311	2937
931.415	2933
931.519	2788
931.623	2766
