Data from test_V78500241_964.txt Node
Date: Fri Mar 25 16:21:52 CST 2022
User: usil
Spectrometer: V785-0024
Trigger mode: 0
Integration Time (sec): 4.000000E-1
Scans to average: 1
Nonlinearity correction enabled: false
Boxcar width: 0
Storing dark spectrum: false
XAxis mode: Wavelengths
Number of Pixels in Spectrum: 1024
>>>>>Begin Spectral Data<<<<<
801.071	2914
801.214	2967
801.356	2883
801.499	2899
801.641	2891
801.783	2975
801.926	3047
802.068	3001
802.211	3020
802.353	3058
802.496	2982
802.638	3039
802.78	3055
802.923	3104
803.065	3024
803.208	2914
803.35	2948
803.492	2906
803.635	2933
803.777	2781
803.919	2906
804.061	3256
804.204	3001
804.346	2925
804.488	2906
804.63	3005
804.773	2902
804.915	2929
805.057	3100
805.199	2956
805.341	2975
805.483	3051
805.626	3066
805.768	2960
805.91	3081
806.052	3097
806.194	3062
806.336	3211
806.478	3020
806.62	2948
806.762	2998
806.904	3089
807.046	3188
807.188	2967
807.33	2956
807.472	3009
807.614	2910
807.756	2975
807.898	2956
808.04	2861
808.182	2941
808.324	2986
808.465	2899
808.607	2842
808.749	2788
808.891	2842
809.033	2979
809.174	2956
809.316	2883
809.458	2914
809.6	2800
809.741	2796
809.883	2773
810.025	2861
810.166	2864
810.308	2876
810.45	2861
810.591	2788
810.733	2735
810.875	2853
811.016	2766
811.158	2735
811.299	2830
811.441	2914
811.582	2922
811.724	2845
811.865	2845
812.007	2956
812.148	2902
812.29	2880
812.431	2876
812.573	2944
812.714	2925
812.855	3077
812.997	3074
813.138	3146
813.279	3047
813.421	2956
813.562	2933
813.703	2838
813.845	2899
813.986	2766
814.127	2743
814.268	2830
814.41	2838
814.551	2804
814.692	2891
814.833	2804
814.974	2899
815.115	2971
815.256	2823
815.397	2819
815.539	2861
815.68	2781
815.821	2781
815.962	2967
816.103	2937
816.244	2876
816.385	2861
816.526	3009
816.666	2933
816.807	2750
816.948	2880
817.089	2891
817.23	2830
817.371	2792
817.512	2796
817.653	2826
817.793	2823
817.934	2868
818.075	2929
818.216	2979
818.356	3009
818.497	2910
818.638	2811
818.778	2834
818.919	2804
819.06	2766
819.2	2902
819.341	2781
819.481	2826
819.622	2910
819.762	3100
819.903	3055
820.043	2910
820.184	2891
820.324	2925
820.465	3020
820.605	2971
820.746	3032
820.886	2948
821.026	3123
821.167	3184
821.307	3241
821.447	3310
821.588	3211
821.728	3253
821.868	3173
822.008	3123
822.149	3173
822.289	3253
822.429	3097
822.569	3074
822.709	3226
822.849	3036
822.99	3081
823.13	3169
823.27	3192
823.41	3138
823.55	3157
823.69	3192
823.83	3203
823.97	3104
824.11	3043
824.25	3001
824.389	3085
824.529	3081
824.669	3093
824.809	3211
824.949	3260
825.089	3188
825.228	3180
825.368	3013
825.508	2963
825.648	2986
825.787	3013
825.927	3024
826.067	2967
826.206	2982
826.346	3020
826.485	3070
826.625	3104
826.765	3249
826.904	3211
827.044	3005
827.183	2937
827.323	2868
827.462	2990
827.601	2956
827.741	2960
827.88	2967
828.02	2864
828.159	2982
828.298	3020
828.437	3157
828.577	3055
828.716	3241
828.855	3058
828.994	2925
829.134	2883
829.273	2956
829.412	2864
829.551	2838
829.69	2925
829.829	2986
829.968	3123
830.107	3055
830.246	3009
830.385	2918
830.524	2880
830.663	2834
830.802	2727
830.941	2644
831.08	2632
831.219	2773
831.357	2769
831.496	2918
831.635	2708
831.774	2651
831.913	2667
832.051	2549
832.19	2564
832.329	2686
832.467	2571
832.606	2469
832.744	2571
832.883	2587
833.022	2587
833.16	2678
833.299	2701
833.437	2720
833.576	2686
833.714	2708
833.852	2762
833.991	2785
834.129	2864
834.267	2826
834.406	2777
834.544	2861
834.682	2876
834.821	2868
834.959	3070
835.097	2899
835.235	3100
835.373	2960
835.511	3009
835.65	2925
835.788	2952
835.926	2868
836.064	2838
836.202	2872
836.34	3097
836.478	3142
836.615	3047
836.753	3154
836.891	3161
837.029	3176
837.167	3116
837.305	3036
837.443	3028
837.58	2979
837.718	3127
837.856	3104
837.993	3001
838.131	3108
838.269	3085
838.406	3085
838.544	3081
838.681	2933
838.819	2941
838.956	2838
839.094	2826
839.231	2922
839.369	3017
839.506	3344
839.643	3230
839.781	3039
839.918	2933
840.055	3093
840.193	3066
840.33	3081
840.467	3093
840.604	3157
840.742	3435
840.879	3013
841.016	2998
841.153	3077
841.29	3321
841.427	3253
841.564	3275
841.701	3283
841.838	3195
841.975	3203
842.112	3195
842.249	3108
842.385	3051
842.522	3253
842.659	3074
842.796	3051
842.933	3112
843.069	3047
843.206	3039
843.343	3146
843.479	3089
843.616	3135
843.752	2868
843.889	2868
844.025	3074
844.162	2857
844.298	3085
844.435	2941
844.571	2975
844.708	3070
844.844	3188
844.98	3226
845.117	3184
845.253	3062
845.389	2998
845.525	3093
845.661	3081
845.798	3024
845.934	3108
846.07	3074
846.206	3180
846.342	3310
846.478	3233
846.614	3081
846.75	3070
846.886	3043
847.022	3214
847.158	3116
847.294	3233
847.429	3233
847.565	3195
847.701	3500
847.837	2998
847.972	3020
848.108	3127
848.244	3135
848.379	2967
848.515	2937
848.65	2914
848.786	2967
848.921	2982
849.057	3074
849.192	3165
849.328	3055
849.463	3077
849.598	3058
849.734	3047
849.869	2979
850.004	2914
850.14	2960
850.275	2902
850.41	2864
850.545	2876
850.68	2929
850.815	2960
850.95	2956
851.085	3176
851.22	3081
851.355	3032
851.49	2982
851.625	2975
851.76	3009
851.895	2944
852.03	2883
852.165	3028
852.299	3138
852.434	3165
852.569	3142
852.703	3184
852.838	3268
852.973	3325
853.107	3348
853.242	3138
853.376	3081
853.511	2994
853.645	3058
853.78	3214
853.914	3135
854.048	3104
854.183	3062
854.317	3123
854.451	3253
854.585	3116
854.72	3097
854.854	3233
854.988	3058
855.122	3093
855.256	2960
855.39	3119
855.524	3222
855.658	3176
855.792	3127
855.926	3176
856.06	3214
856.194	3260
856.327	3169
856.461	3089
856.595	3097
856.729	3062
856.862	3226
856.996	3127
857.13	3207
857.263	3218
857.397	3291
857.53	3116
857.664	3161
857.797	3237
857.931	3279
858.064	3142
858.197	3207
858.331	3138
858.464	3089
858.597	2998
858.731	3127
858.864	3146
858.997	3070
859.13	3142
859.263	3176
859.396	3192
859.529	3127
859.662	3097
859.795	3020
859.928	3127
860.061	3260
860.194	3310
860.327	3142
860.46	3093
860.592	3237
860.725	3237
860.858	3241
860.99	3097
861.123	3051
861.256	3039
861.388	3146
861.521	3838
861.653	3028
861.786	2967
861.918	3039
862.05	3047
862.183	3108
862.315	3123
862.447	3214
862.58	3074
862.712	2952
862.844	2853
862.976	3055
863.108	3005
863.24	3458
863.372	2838
863.504	2986
863.636	2941
863.768	3039
863.9	2975
864.032	2861
864.164	2948
864.296	2990
864.428	3089
864.559	3089
864.691	3047
864.823	3089
864.954	3039
865.086	3039
865.217	2998
865.349	2922
865.48	2990
865.612	3001
865.743	3146
865.875	2986
866.006	2986
866.137	2982
866.269	2922
866.4	2944
866.531	2929
866.662	2914
866.793	2872
866.924	2876
867.055	2998
867.186	2937
867.317	2845
867.448	2857
867.579	2857
867.71	2861
867.841	2800
867.972	2891
868.103	2883
868.233	2864
868.364	2872
868.495	2925
868.625	3058
868.756	3169
868.886	2986
869.017	2967
869.147	3180
869.278	3161
869.408	3070
869.539	3020
869.669	3093
869.799	3024
869.929	3157
870.06	3123
870.19	3325
870.32	3245
870.45	3313
870.58	3389
870.71	3447
870.84	3416
870.97	3283
871.1	3249
871.23	3477
871.36	3462
871.489	3351
871.619	3382
871.749	3374
871.879	3420
872.008	3466
872.138	3351
872.267	3310
872.397	3112
872.526	3112
872.656	3005
872.785	3100
872.915	3199
873.044	3325
873.173	3237
873.303	3230
873.432	3253
873.561	3272
873.69	3154
873.819	3112
873.948	3161
874.077	3093
874.206	3089
874.335	3100
874.464	3154
874.593	3332
874.722	3237
874.851	3378
874.979	3344
875.108	3306
875.237	3214
875.365	3142
875.494	3188
875.623	3230
875.751	3108
875.88	3077
876.008	3157
876.136	3169
876.265	3351
876.393	3511
876.521	3435
876.65	3370
876.778	3336
876.906	3230
877.034	3188
877.162	3180
877.29	3188
877.418	3245
877.546	3245
877.674	3340
877.802	3233
877.93	3192
878.058	3123
878.185	3097
878.313	3199
878.441	3203
878.568	3039
878.696	3146
878.824	3241
878.951	3302
879.079	3412
879.206	3591
879.333	3431
879.461	3321
879.588	3329
879.715	3458
879.842	3591
879.97	3378
880.097	3157
880.224	3138
880.351	3192
880.478	3241
880.605	3195
880.732	3173
880.859	3507
880.986	3260
881.112	3348
881.239	3161
881.366	3097
881.493	3047
881.619	3017
881.746	3066
881.872	3024
881.999	3127
882.125	3142
882.252	3245
882.378	3310
882.505	3431
882.631	3264
882.757	3138
882.883	3233
883.01	3211
883.136	3161
883.262	3135
883.388	3074
883.514	3332
883.64	3351
883.766	3302
883.892	3195
884.018	3260
884.143	3374
884.269	3549
884.395	3214
884.52	3173
884.646	3169
884.772	3135
884.897	3116
885.023	3214
885.148	3351
885.274	3447
885.399	3367
885.524	3268
885.65	3241
885.775	3275
885.9	3272
886.025	3397
886.15	3325
886.275	3310
886.4	3233
886.525	3294
886.65	3264
886.775	3302
886.9	3477
887.025	3656
887.149	3378
887.274	3275
887.399	3150
887.523	3195
887.648	3173
887.773	3180
887.897	3355
888.021	3378
888.146	3275
888.27	3412
888.395	3511
888.519	3447
888.643	3458
888.767	3492
888.891	3317
889.015	3256
889.139	3279
889.263	3253
889.387	3424
889.511	3557
889.635	3488
889.759	3253
889.883	3283
890.006	3355
890.13	3458
890.254	3260
890.377	3336
890.501	3188
890.624	3138
890.748	3283
890.871	3180
890.995	3131
891.118	3070
891.241	3195
891.364	3173
891.488	3317
891.611	3176
891.734	3230
891.857	3264
891.98	3241
892.103	3317
892.226	3264
892.349	3245
892.471	3116
892.594	3268
892.717	3279
892.839	3275
892.962	3283
893.085	3367
893.207	3306
893.33	3161
893.452	3211
893.575	3321
893.697	3233
893.819	3447
893.941	3458
894.064	3443
894.186	3230
894.308	3260
894.43	3450
894.552	3515
894.674	3481
894.796	3264
894.918	3317
895.04	3275
895.161	3397
895.283	3363
895.405	3302
895.526	3344
895.648	3424
895.769	3424
895.891	3454
896.012	3473
896.134	3447
896.255	3435
896.376	3397
896.498	3351
896.619	3409
896.74	3355
896.861	3420
896.982	3675
897.103	3838
897.224	3587
897.345	3526
897.466	3420
897.587	3504
897.708	3603
897.828	3523
897.949	3431
898.07	3374
898.19	3409
898.311	3599
898.431	3443
898.552	3564
898.672	3545
898.792	3610
898.913	3462
899.033	3393
899.153	3226
899.273	3211
899.393	3291
899.513	3317
899.633	3279
899.753	3332
899.873	3302
899.993	3389
900.113	3298
900.232	3370
900.352	3325
900.472	3218
900.591	3207
900.711	3340
900.83	3245
900.95	3439
901.069	3504
901.189	3317
901.308	3184
901.427	3127
901.546	3184
901.665	3279
901.784	3287
901.904	3222
902.023	3135
902.141	3005
902.26	2986
902.379	3142
902.498	3081
902.617	3062
902.735	3173
902.854	3195
902.973	3214
903.091	3017
903.21	3070
903.328	3173
903.446	3100
903.565	3089
903.683	3226
903.801	3112
903.919	3222
904.038	3245
904.156	3173
904.274	3291
904.392	3253
904.51	3275
904.627	3344
904.745	3424
904.863	3488
904.981	3214
905.098	3154
905.216	3256
905.334	3325
905.451	3287
905.569	3321
905.686	3431
905.803	3405
905.921	3287
906.038	3416
906.155	3367
906.272	3256
906.389	3306
906.506	3192
906.623	3233
906.74	3253
906.857	3207
906.974	3260
907.091	3428
907.208	3580
907.324	3492
907.441	3370
907.557	3195
907.674	3256
907.79	3256
907.907	3291
908.023	3332
908.139	3355
908.256	3340
908.372	3363
908.488	3329
908.604	3245
908.72	3249
908.836	3283
908.952	3283
909.068	3306
909.184	3477
909.3	3359
909.415	3511
909.531	3466
909.647	3233
909.762	3279
909.878	3264
909.993	3367
910.108	3340
910.224	3306
910.339	3386
910.454	3317
910.57	3321
910.685	3211
910.8	3587
910.915	3515
911.03	3416
911.145	3245
911.259	3283
911.374	3294
911.489	3233
911.604	3203
911.718	3108
911.833	3157
911.947	3005
912.062	2990
912.176	3173
912.291	3203
912.405	3199
912.519	3439
912.633	3488
912.748	3310
912.862	3275
912.976	3165
913.09	3077
913.204	3119
913.318	3222
913.431	3306
913.545	3321
913.659	3405
913.772	3351
913.886	3249
914	3165
914.113	3351
914.226	3435
914.34	3351
914.453	3207
914.566	3393
914.68	3298
914.793	3268
914.906	3165
915.019	3112
915.132	3051
915.245	3131
915.358	3260
915.47	3249
915.583	3253
915.696	3306
915.809	3401
915.921	3378
916.034	3253
916.146	3226
916.259	3226
916.371	3405
916.483	3367
916.595	3283
916.708	3363
916.82	3336
916.932	3348
917.044	3310
917.156	3370
917.268	3275
917.38	3329
917.491	3294
917.603	3321
917.715	3416
917.826	3469
917.938	3386
918.049	3298
918.161	3405
918.272	3530
918.384	3587
918.495	3488
918.606	3340
918.717	3249
918.828	3363
918.939	3374
919.05	3302
919.161	3370
919.272	3154
919.383	3275
919.494	3507
919.604	3675
919.715	3466
919.826	3420
919.936	3473
920.047	3572
920.157	3584
920.267	3759
920.378	3599
920.488	3557
920.598	3797
920.708	3949
920.818	3808
920.928	3861
921.038	4044
921.148	4006
921.258	3743
921.368	3660
921.477	3576
921.587	3534
921.697	3428
921.806	3584
921.916	3530
922.025	3351
922.134	3363
922.244	3329
922.353	3428
922.462	3245
922.571	3218
922.68	3112
922.789	3077
922.898	3150
923.007	3104
923.116	3188
923.224	3199
923.333	3161
923.442	3085
923.55	3077
923.659	3127
923.767	3199
923.876	3093
923.984	3260
924.092	3100
924.201	3173
924.309	3207
924.417	3233
924.525	3165
924.633	3233
924.741	4135
924.849	3089
924.956	3279
925.064	3104
925.172	3036
925.279	3085
925.387	3207
925.494	3233
925.602	3386
925.709	3294
925.816	3173
925.924	3245
926.031	3424
926.138	3348
926.245	3336
926.352	3253
926.459	3412
926.566	3481
926.673	3310
926.779	3192
926.886	3218
926.993	3154
927.099	3100
927.206	3108
927.312	3135
927.419	3226
927.525	3188
927.631	3256
927.737	3131
927.843	3119
927.95	3005
928.056	3112
928.162	3138
928.267	3249
928.373	3922
928.479	3313
928.585	3039
928.69	3211
928.796	3253
928.901	3169
929.007	3097
929.112	3203
929.218	3161
929.323	3173
929.428	3161
929.533	3310
929.638	3131
929.743	3161
929.848	3264
929.953	3176
930.058	3135
930.163	2960
930.267	3036
930.372	3176
930.477	3005
930.581	3336
930.685	3222
930.79	3055
930.894	3112
930.998	3074
931.103	3306
931.207	2937
931.311	2925
931.415	2902
931.519	2754
931.623	2815
