Data from test_V78500241_545.txt Node
Date: Fri Mar 25 16:18:58 CST 2022
User: usil
Spectrometer: V785-0024
Trigger mode: 0
Integration Time (sec): 4.000000E-1
Scans to average: 1
Nonlinearity correction enabled: false
Boxcar width: 0
Storing dark spectrum: false
XAxis mode: Wavelengths
Number of Pixels in Spectrum: 1024
>>>>>Begin Spectral Data<<<<<
801.071	2956
801.214	2963
801.356	2883
801.499	2910
801.641	2902
801.783	2933
801.926	3070
802.068	3005
802.211	3036
802.353	3085
802.496	3024
802.638	3020
802.78	3070
802.923	3108
803.065	3005
803.208	2941
803.35	2922
803.492	2952
803.635	2960
803.777	2735
803.919	2902
804.061	3195
804.204	2979
804.346	2929
804.488	2849
804.63	3024
804.773	2857
804.915	2960
805.057	3077
805.199	2941
805.341	3009
805.483	3070
805.626	3032
805.768	2975
805.91	3070
806.052	3104
806.194	3024
806.336	3253
806.478	3001
806.62	2975
806.762	2982
806.904	3062
807.046	3203
807.188	2971
807.33	2933
807.472	2990
807.614	2944
807.756	2998
807.898	2933
808.04	2918
808.182	2960
808.324	2971
808.465	2906
808.607	2929
808.749	2804
808.891	2849
809.033	3005
809.174	2975
809.316	2929
809.458	2922
809.6	2781
809.741	2769
809.883	2807
810.025	2861
810.166	2910
810.308	2845
810.45	2861
810.591	2800
810.733	2804
810.875	2868
811.016	2796
811.158	2773
811.299	2834
811.441	2933
811.582	2887
811.724	2815
811.865	2830
812.007	2925
812.148	2895
812.29	2887
812.431	2941
812.573	2967
812.714	2979
812.855	3055
812.997	3077
813.138	3142
813.279	3062
813.421	3001
813.562	3009
813.703	2868
813.845	2895
813.986	2815
814.127	2785
814.268	2819
814.41	2845
814.551	2830
814.692	2895
814.833	2845
814.974	2902
815.115	2948
815.256	2849
815.397	2845
815.539	2891
815.68	2819
815.821	2796
815.962	2971
816.103	2929
816.244	2895
816.385	2922
816.526	2967
816.666	2941
816.807	2735
816.948	2910
817.089	2933
817.23	2925
817.371	2819
817.512	2788
817.653	2880
817.793	2842
817.934	2918
818.075	2982
818.216	3039
818.356	3028
818.497	2918
818.638	2785
818.778	2823
818.919	2834
819.06	2762
819.2	2902
819.341	2842
819.481	2830
819.622	2929
819.762	3108
819.903	3062
820.043	2952
820.184	2941
820.324	2922
820.465	3017
820.605	3028
820.746	3085
820.886	2986
821.026	3104
821.167	3184
821.307	3260
821.447	3310
821.588	3218
821.728	3192
821.868	3195
822.008	3074
822.149	3184
822.289	3253
822.429	3097
822.569	3138
822.709	3184
822.849	3013
822.99	3051
823.13	3207
823.27	3203
823.41	3150
823.55	3184
823.69	3138
823.83	3169
823.97	3127
824.11	2986
824.25	3020
824.389	3043
824.529	3127
824.669	3093
824.809	3184
824.949	3260
825.089	3245
825.228	3184
825.368	3047
825.508	2967
825.648	3020
825.787	2982
825.927	3001
826.067	2998
826.206	2986
826.346	3081
826.485	3066
826.625	3100
826.765	3256
826.904	3211
827.044	3028
827.183	2986
827.323	2861
827.462	2963
827.601	2902
827.741	2960
827.88	2971
828.02	2891
828.159	2956
828.298	3070
828.437	3119
828.577	3055
828.716	3245
828.855	3104
828.994	2937
829.134	2872
829.273	2914
829.412	2872
829.551	2883
829.69	2910
829.829	3009
829.968	3150
830.107	3036
830.246	3009
830.385	2944
830.524	2902
830.663	2845
830.802	2746
830.941	2667
831.08	2667
831.219	2727
831.357	2773
831.496	2944
831.635	2750
831.774	2670
831.913	2644
832.051	2579
832.19	2594
832.329	2720
832.467	2571
832.606	2480
832.744	2583
832.883	2625
833.022	2617
833.16	2659
833.299	2686
833.437	2701
833.576	2667
833.714	2716
833.852	2739
833.991	2773
834.129	2880
834.267	2853
834.406	2788
834.544	2864
834.682	2902
834.821	2838
834.959	3089
835.097	2918
835.235	3093
835.373	3039
835.511	3009
835.65	2922
835.788	2975
835.926	2811
836.064	2785
836.202	2883
836.34	3146
836.478	3169
836.615	3058
836.753	3127
836.891	3192
837.029	3176
837.167	3138
837.305	3051
837.443	3062
837.58	2979
837.718	3142
837.856	3093
837.993	3009
838.131	3157
838.269	3119
838.406	3070
838.544	3066
838.681	2941
838.819	2944
838.956	2842
839.094	2838
839.231	2960
839.369	3013
839.506	3382
839.643	3233
839.781	3001
839.918	2967
840.055	3066
840.193	3020
840.33	3036
840.467	3142
840.604	3184
840.742	3386
840.879	3039
841.016	3043
841.153	3127
841.29	3340
841.427	3332
841.564	3264
841.701	3294
841.838	3260
841.975	3188
842.112	3241
842.249	3085
842.385	3058
842.522	3260
842.659	3123
842.796	3039
842.933	3119
843.069	3047
843.206	3005
843.343	3180
843.479	3108
843.616	3108
843.752	2895
843.889	2876
844.025	3097
844.162	2853
844.298	3112
844.435	2982
844.571	2914
844.708	3093
844.844	3157
844.98	3211
845.117	3165
845.253	3024
845.389	3017
845.525	3131
845.661	3089
845.798	2998
845.934	3123
846.07	3085
846.206	3188
846.342	3298
846.478	3256
846.614	3074
846.75	3108
846.886	3028
847.022	3241
847.158	3138
847.294	3176
847.429	3230
847.565	3226
847.701	3466
847.837	3047
847.972	2986
848.108	3218
848.244	3123
848.379	2975
848.515	2925
848.65	2925
848.786	2971
848.921	3005
849.057	3100
849.192	3142
849.328	3058
849.463	3123
849.598	3032
849.734	3032
849.869	3005
850.004	2941
850.14	2994
850.275	2918
850.41	2834
850.545	2887
850.68	2952
850.815	2986
850.95	3009
851.085	3218
851.22	3131
851.355	3089
851.49	3024
851.625	3024
851.76	3028
851.895	2963
852.03	2933
852.165	3081
852.299	3150
852.434	3218
852.569	3157
852.703	3230
852.838	3283
852.973	3348
853.107	3374
853.242	3169
853.376	3116
853.511	3013
853.645	3112
853.78	3291
853.914	3150
854.048	3157
854.183	3119
854.317	3180
854.451	3367
854.585	3150
854.72	3119
854.854	3264
854.988	3074
855.122	3100
855.256	3028
855.39	3188
855.524	3275
855.658	3203
855.792	3199
855.926	3195
856.06	3256
856.194	3310
856.327	3195
856.461	3116
856.595	3116
856.729	3138
856.862	3241
856.996	3230
857.13	3207
857.263	3264
857.397	3325
857.53	3154
857.664	3241
857.797	3249
857.931	3264
858.064	3188
858.197	3275
858.331	3169
858.464	3142
858.597	3032
858.731	3119
858.864	3195
858.997	3127
859.13	3203
859.263	3233
859.396	3256
859.529	3161
859.662	3097
859.795	3089
859.928	3150
860.061	3264
860.194	3317
860.327	3165
860.46	3138
860.592	3253
860.725	3268
860.858	3287
860.99	3169
861.123	3085
861.256	3085
861.388	3173
861.521	3850
861.653	3051
861.786	3036
861.918	3032
862.05	3089
862.183	3135
862.315	3199
862.447	3230
862.58	3123
862.712	3001
862.844	2868
862.976	3036
863.108	2998
863.24	3469
863.372	2891
863.504	3001
863.636	2948
863.768	3062
863.9	3028
864.032	2887
864.164	2971
864.296	3032
864.428	3135
864.559	3116
864.691	3112
864.823	3112
864.954	3100
865.086	3039
865.217	3017
865.349	2982
865.48	3024
865.612	3055
865.743	3184
865.875	3009
866.006	2933
866.137	2998
866.269	2990
866.4	2975
866.531	2941
866.662	2941
866.793	2925
866.924	2948
867.055	2998
867.186	2952
867.317	2929
867.448	2864
867.579	2845
867.71	2849
867.841	2826
867.972	2910
868.103	2906
868.233	2906
868.364	2876
868.495	2937
868.625	3146
868.756	3207
868.886	2963
869.017	3024
869.147	3192
869.278	3161
869.408	3058
869.539	3039
869.669	3108
869.799	3055
869.929	3176
870.06	3112
870.19	3332
870.32	3340
870.45	3317
870.58	3397
870.71	3526
870.84	3500
870.97	3336
871.1	3256
871.23	3496
871.36	3496
871.489	3428
871.619	3439
871.749	3428
871.879	3466
872.008	3507
872.138	3389
872.267	3306
872.397	3157
872.526	3192
872.656	3047
872.785	3131
872.915	3272
873.044	3351
873.173	3302
873.303	3260
873.432	3275
873.561	3245
873.69	3203
873.819	3157
873.948	3268
874.077	3127
874.206	3077
874.335	3104
874.464	3241
874.593	3348
874.722	3298
874.851	3378
874.979	3359
875.108	3393
875.237	3256
875.365	3199
875.494	3165
875.623	3268
875.751	3116
875.88	3131
876.008	3222
876.136	3256
876.265	3428
876.393	3568
876.521	3431
876.65	3447
876.778	3332
876.906	3249
877.034	3214
877.162	3287
877.29	3241
877.418	3317
877.546	3302
877.674	3264
877.802	3275
877.93	3203
878.058	3169
878.185	3119
878.313	3256
878.441	3214
878.568	3074
878.696	3173
878.824	3256
878.951	3340
879.079	3462
879.206	3641
879.333	3458
879.461	3344
879.588	3359
879.715	3511
879.842	3599
879.97	3454
880.097	3199
880.224	3123
880.351	3233
880.478	3241
880.605	3260
880.732	3184
880.859	3534
880.986	3329
881.112	3340
881.239	3211
881.366	3119
881.493	3081
881.619	3070
881.746	3100
881.872	3127
881.999	3135
882.125	3169
882.252	3253
882.378	3313
882.505	3458
882.631	3321
882.757	3188
882.883	3256
883.01	3241
883.136	3203
883.262	3127
883.388	3150
883.514	3355
883.64	3416
883.766	3329
883.892	3211
884.018	3253
884.143	3450
884.269	3587
884.395	3203
884.52	3169
884.646	3233
884.772	3184
884.897	3093
885.023	3203
885.148	3382
885.274	3450
885.399	3397
885.524	3325
885.65	3287
885.775	3317
885.9	3279
886.025	3447
886.15	3382
886.275	3298
886.4	3268
886.525	3313
886.65	3294
886.775	3302
886.9	3542
887.025	3629
887.149	3397
887.274	3306
887.399	3203
887.523	3230
887.648	3230
887.773	3203
887.897	3397
888.021	3447
888.146	3306
888.27	3458
888.395	3542
888.519	3443
888.643	3477
888.767	3469
888.891	3302
889.015	3272
889.139	3359
889.263	3272
889.387	3412
889.511	3530
889.635	3454
889.759	3332
889.883	3321
890.006	3401
890.13	3462
890.254	3264
890.377	3359
890.501	3237
890.624	3188
890.748	3325
890.871	3207
890.995	3150
891.118	3089
891.241	3218
891.364	3230
891.488	3370
891.611	3211
891.734	3264
891.857	3245
891.98	3287
892.103	3355
892.226	3306
892.349	3241
892.471	3154
892.594	3241
892.717	3332
892.839	3275
892.962	3302
893.085	3450
893.207	3310
893.33	3165
893.452	3188
893.575	3340
893.697	3294
893.819	3488
893.941	3519
894.064	3477
894.186	3287
894.308	3302
894.43	3469
894.552	3545
894.674	3485
894.796	3291
894.918	3317
895.04	3317
895.161	3439
895.283	3409
895.405	3325
895.526	3389
895.648	3435
895.769	3420
895.891	3416
896.012	3488
896.134	3454
896.255	3450
896.376	3420
896.498	3374
896.619	3488
896.74	3382
896.861	3409
896.982	3709
897.103	3854
897.224	3610
897.345	3530
897.466	3447
897.587	3523
897.708	3667
897.828	3580
897.949	3397
898.07	3363
898.19	3424
898.311	3618
898.431	3447
898.552	3523
898.672	3610
898.792	3595
898.913	3561
899.033	3473
899.153	3291
899.273	3233
899.393	3283
899.513	3332
899.633	3332
899.753	3348
899.873	3321
899.993	3370
900.113	3367
900.232	3405
900.352	3363
900.472	3332
900.591	3211
900.711	3336
900.83	3230
900.95	3428
901.069	3557
901.189	3367
901.308	3203
901.427	3146
901.546	3184
901.665	3329
901.784	3344
901.904	3233
902.023	3146
902.141	2982
902.26	2998
902.379	3161
902.498	3138
902.617	3058
902.735	3226
902.854	3264
902.973	3195
903.091	3093
903.21	3093
903.328	3131
903.446	3108
903.565	3123
903.683	3195
903.801	3138
903.919	3211
904.038	3317
904.156	3192
904.274	3336
904.392	3279
904.51	3298
904.627	3367
904.745	3435
904.863	3504
904.981	3279
905.098	3207
905.216	3264
905.334	3329
905.451	3275
905.569	3321
905.686	3454
905.803	3511
905.921	3302
906.038	3424
906.155	3355
906.272	3268
906.389	3367
906.506	3237
906.623	3260
906.74	3256
906.857	3161
906.974	3275
907.091	3481
907.208	3557
907.324	3481
907.441	3424
907.557	3226
907.674	3249
907.79	3230
907.907	3298
908.023	3401
908.139	3393
908.256	3332
908.372	3405
908.488	3370
908.604	3268
908.72	3260
908.836	3291
908.952	3302
909.068	3374
909.184	3473
909.3	3397
909.415	3507
909.531	3458
909.647	3283
909.762	3291
909.878	3268
909.993	3389
910.108	3344
910.224	3321
910.339	3416
910.454	3378
910.57	3348
910.685	3230
910.8	3584
910.915	3545
911.03	3469
911.145	3287
911.259	3298
911.374	3329
911.489	3268
911.604	3233
911.718	3116
911.833	3161
911.947	3062
912.062	3017
912.176	3180
912.291	3237
912.405	3214
912.519	3462
912.633	3488
912.748	3359
912.862	3287
912.976	3184
913.09	3100
913.204	3135
913.318	3249
913.431	3359
913.545	3336
913.659	3428
913.772	3332
913.886	3226
914	3230
914.113	3405
914.226	3435
914.34	3382
914.453	3226
914.566	3450
914.68	3310
914.793	3302
914.906	3157
915.019	3089
915.132	3104
915.245	3207
915.358	3211
915.47	3230
915.583	3256
915.696	3302
915.809	3393
915.921	3405
916.034	3260
916.146	3253
916.259	3218
916.371	3389
916.483	3389
916.595	3275
916.708	3332
916.82	3317
916.932	3336
917.044	3401
917.156	3374
917.268	3214
917.38	3336
917.491	3294
917.603	3389
917.715	3488
917.826	3511
917.938	3389
918.049	3302
918.161	3450
918.272	3545
918.384	3614
918.495	3511
918.606	3359
918.717	3249
918.828	3355
918.939	3428
919.05	3279
919.161	3397
919.272	3195
919.383	3325
919.494	3504
919.604	3694
919.715	3485
919.826	3397
919.936	3447
920.047	3587
920.157	3580
920.267	3781
920.378	3568
920.488	3587
920.598	3781
920.708	3945
920.818	3861
920.928	3842
921.038	4071
921.148	3979
921.258	3694
921.368	3690
921.477	3580
921.587	3549
921.697	3458
921.806	3682
921.916	3530
922.025	3370
922.134	3351
922.244	3310
922.353	3443
922.462	3294
922.571	3237
922.68	3104
922.789	3097
922.898	3108
923.007	3123
923.116	3214
923.224	3195
923.333	3180
923.442	3127
923.55	3108
923.659	3142
923.767	3192
923.876	3138
923.984	3214
924.092	3097
924.201	3222
924.309	3176
924.417	3287
924.525	3161
924.633	3226
924.741	3994
924.849	3043
924.956	3268
925.064	3100
925.172	3047
925.279	3119
925.387	3176
925.494	3249
925.602	3355
925.709	3310
925.816	3203
925.924	3294
926.031	3389
926.138	3348
926.245	3397
926.352	3253
926.459	3424
926.566	3477
926.673	3344
926.779	3256
926.886	3253
926.993	3176
927.099	3146
927.206	3142
927.312	3119
927.419	3237
927.525	3199
927.631	3260
927.737	3165
927.843	3119
927.95	3001
928.056	3169
928.162	3154
928.267	3241
928.373	3762
928.479	3306
928.585	3108
928.69	3203
928.796	3268
928.901	3173
929.007	3047
929.112	3203
929.218	3188
929.323	3157
929.428	3173
929.533	3332
929.638	3138
929.743	3161
929.848	3268
929.953	3214
930.058	3135
930.163	2998
930.267	3047
930.372	3188
930.477	3036
930.581	3325
930.685	3188
930.79	3058
930.894	3131
930.998	3085
931.103	3268
931.207	2979
931.311	2922
931.415	2956
931.519	2758
931.623	2826
