Data from test_V78500241_630.txt Node
Date: Fri Mar 25 16:19:34 CST 2022
User: usil
Spectrometer: V785-0024
Trigger mode: 0
Integration Time (sec): 4.000000E-1
Scans to average: 1
Nonlinearity correction enabled: false
Boxcar width: 0
Storing dark spectrum: false
XAxis mode: Wavelengths
Number of Pixels in Spectrum: 1024
>>>>>Begin Spectral Data<<<<<
801.071	2922
801.214	2948
801.356	2880
801.499	2902
801.641	2857
801.783	2895
801.926	3024
802.068	3005
802.211	2971
802.353	3013
802.496	2994
802.638	3005
802.78	3024
802.923	3085
803.065	2990
803.208	2868
803.35	2922
803.492	2941
803.635	2914
803.777	2777
803.919	2830
804.061	3188
804.204	2925
804.346	2876
804.488	2853
804.63	2971
804.773	2845
804.915	2872
805.057	3112
805.199	2918
805.341	2975
805.483	3024
805.626	3024
805.768	2948
805.91	3097
806.052	3123
806.194	3058
806.336	3207
806.478	3028
806.62	2967
806.762	2952
806.904	3066
807.046	3180
807.188	2952
807.33	2887
807.472	2960
807.614	2899
807.756	2979
807.898	2891
808.04	2914
808.182	2952
808.324	2925
808.465	2891
808.607	2876
808.749	2777
808.891	2864
809.033	2929
809.174	2982
809.316	2895
809.458	2902
809.6	2773
809.741	2777
809.883	2769
810.025	2849
810.166	2857
810.308	2815
810.45	2872
810.591	2766
810.733	2777
810.875	2830
811.016	2785
811.158	2746
811.299	2796
811.441	2937
811.582	2887
811.724	2823
811.865	2838
812.007	2887
812.148	2883
812.29	2872
812.431	2899
812.573	2948
812.714	2929
812.855	3039
812.997	3066
813.138	3123
813.279	2986
813.421	2975
813.562	2975
813.703	2868
813.845	2910
813.986	2750
814.127	2724
814.268	2785
814.41	2842
814.551	2819
814.692	2864
814.833	2815
814.974	2906
815.115	2922
815.256	2834
815.397	2785
815.539	2834
815.68	2773
815.821	2788
815.962	2910
816.103	2868
816.244	2891
816.385	2876
816.526	2975
816.666	2922
816.807	2739
816.948	2861
817.089	2906
817.23	2880
817.371	2754
817.512	2804
817.653	2807
817.793	2811
817.934	2883
818.075	2948
818.216	3028
818.356	3013
818.497	2914
818.638	2796
818.778	2807
818.919	2777
819.06	2777
819.2	2842
819.341	2815
819.481	2807
819.622	2948
819.762	3112
819.903	3032
820.043	2937
820.184	2902
820.324	2876
820.465	2975
820.605	3032
820.746	3036
820.886	2910
821.026	3081
821.167	3165
821.307	3279
821.447	3325
821.588	3256
821.728	3218
821.868	3199
822.008	3074
822.149	3157
822.289	3237
822.429	3077
822.569	3081
822.709	3165
822.849	3032
822.99	3085
823.13	3169
823.27	3165
823.41	3104
823.55	3150
823.69	3157
823.83	3207
823.97	3123
824.11	2994
824.25	3005
824.389	3070
824.529	3157
824.669	3081
824.809	3180
824.949	3253
825.089	3203
825.228	3161
825.368	3001
825.508	2960
825.648	2941
825.787	2998
825.927	2952
826.067	2963
826.206	2937
826.346	3013
826.485	3081
826.625	3077
826.765	3260
826.904	3188
827.044	2952
827.183	2899
827.323	2830
827.462	3005
827.601	2956
827.741	2948
827.88	2948
828.02	2853
828.159	2986
828.298	3055
828.437	3093
828.577	3013
828.716	3256
828.855	3058
828.994	2895
829.134	2937
829.273	2895
829.412	2868
829.551	2849
829.69	2857
829.829	2994
829.968	3135
830.107	2986
830.246	3043
830.385	2937
830.524	2876
830.663	2834
830.802	2724
830.941	2663
831.08	2636
831.219	2785
831.357	2750
831.496	2925
831.635	2712
831.774	2644
831.913	2693
832.051	2545
832.19	2602
832.329	2686
832.467	2537
832.606	2465
832.744	2560
832.883	2583
833.022	2564
833.16	2632
833.299	2674
833.437	2682
833.576	2697
833.714	2708
833.852	2727
833.991	2762
834.129	2811
834.267	2804
834.406	2777
834.544	2823
834.682	2834
834.821	2868
834.959	3055
835.097	2914
835.235	3058
835.373	2986
835.511	3028
835.65	2941
835.788	2910
835.926	2864
836.064	2785
836.202	2853
836.34	3051
836.478	3176
836.615	3055
836.753	3135
836.891	3150
837.029	3150
837.167	3051
837.305	3089
837.443	3058
837.58	2952
837.718	3085
837.856	3055
837.993	3028
838.131	3081
838.269	3100
838.406	3142
838.544	3081
838.681	2967
838.819	2906
838.956	2796
839.094	2823
839.231	2880
839.369	3013
839.506	3351
839.643	3199
839.781	3028
839.918	2944
840.055	3070
840.193	3051
840.33	3028
840.467	3077
840.604	3146
840.742	3420
840.879	3062
841.016	3017
841.153	3085
841.29	3287
841.427	3294
841.564	3283
841.701	3313
841.838	3207
841.975	3184
842.112	3207
842.249	3047
842.385	3047
842.522	3264
842.659	3066
842.796	3013
842.933	3116
843.069	3058
843.206	3051
843.343	3173
843.479	3104
843.616	3127
843.752	2876
843.889	2857
844.025	3058
844.162	2861
844.298	3058
844.435	2918
844.571	2902
844.708	3043
844.844	3173
844.98	3233
845.117	3165
845.253	3032
845.389	3001
845.525	3104
845.661	3081
845.798	2990
845.934	3119
846.07	3013
846.206	3184
846.342	3279
846.478	3264
846.614	3055
846.75	3039
846.886	3005
847.022	3253
847.158	3131
847.294	3211
847.429	3249
847.565	3142
847.701	3469
847.837	3032
847.972	3024
848.108	3150
848.244	3161
848.379	2982
848.515	2937
848.65	2914
848.786	2963
848.921	2990
849.057	3131
849.192	3100
849.328	3066
849.463	3085
849.598	3085
849.734	3055
849.869	2941
850.004	2933
850.14	2967
850.275	2914
850.41	2834
850.545	2872
850.68	2937
850.815	2956
850.95	2952
851.085	3195
851.22	3093
851.355	3005
851.49	2948
851.625	3005
851.76	3028
851.895	2925
852.03	2925
852.165	3043
852.299	3089
852.434	3192
852.569	3138
852.703	3184
852.838	3241
852.973	3325
853.107	3329
853.242	3169
853.376	3074
853.511	2937
853.645	3047
853.78	3218
853.914	3077
854.048	3093
854.183	3104
854.317	3127
854.451	3275
854.585	3093
854.72	3085
854.854	3218
854.988	3032
855.122	3085
855.256	2952
855.39	3039
855.524	3230
855.658	3199
855.792	3169
855.926	3173
856.06	3161
856.194	3256
856.327	3138
856.461	3055
856.595	3062
856.729	3135
856.862	3214
856.996	3173
857.13	3184
857.263	3218
857.397	3256
857.53	3093
857.664	3184
857.797	3211
857.931	3230
858.064	3142
858.197	3230
858.331	3131
858.464	3077
858.597	3028
858.731	3135
858.864	3127
858.997	3043
859.13	3188
859.263	3135
859.396	3192
859.529	3051
859.662	3081
859.795	3058
859.928	3085
860.061	3264
860.194	3306
860.327	3089
860.46	3081
860.592	3161
860.725	3226
860.858	3237
860.99	3070
861.123	3009
861.256	3043
861.388	3112
861.521	3709
861.653	2998
861.786	2979
861.918	3005
862.05	3051
862.183	3070
862.315	3150
862.447	3146
862.58	3093
862.712	2937
862.844	2880
862.976	3005
863.108	3001
863.24	3386
863.372	2876
863.504	2948
863.636	2948
863.768	2990
863.9	3013
864.032	2876
864.164	2956
864.296	3009
864.428	3085
864.559	3112
864.691	3051
864.823	3024
864.954	3039
865.086	3055
865.217	2994
865.349	2944
865.48	2982
865.612	2982
865.743	3154
865.875	2933
866.006	2922
866.137	2967
866.269	2906
866.4	2906
866.531	2941
866.662	2883
866.793	2857
866.924	2895
867.055	2933
867.186	2925
867.317	2899
867.448	2830
867.579	2838
867.71	2853
867.841	2819
867.972	2883
868.103	2902
868.233	2845
868.364	2876
868.495	2880
868.625	3093
868.756	3157
868.886	2967
869.017	3005
869.147	3157
869.278	3161
869.408	3066
869.539	2979
869.669	3119
869.799	3066
869.929	3154
870.06	3116
870.19	3287
870.32	3245
870.45	3287
870.58	3332
870.71	3447
870.84	3450
870.97	3310
871.1	3245
871.23	3469
871.36	3397
871.489	3317
871.619	3378
871.749	3409
871.879	3424
872.008	3447
872.138	3340
872.267	3298
872.397	3146
872.526	3119
872.656	3020
872.785	3097
872.915	3226
873.044	3287
873.173	3192
873.303	3230
873.432	3233
873.561	3214
873.69	3119
873.819	3119
873.948	3165
874.077	3100
874.206	3032
874.335	3074
874.464	3173
874.593	3294
874.722	3237
874.851	3367
874.979	3378
875.108	3329
875.237	3226
875.365	3161
875.494	3123
875.623	3222
875.751	3104
875.88	3093
876.008	3195
876.136	3203
876.265	3351
876.393	3507
876.521	3416
876.65	3351
876.778	3329
876.906	3214
877.034	3176
877.162	3241
877.29	3173
877.418	3245
877.546	3207
877.674	3222
877.802	3203
877.93	3195
878.058	3173
878.185	3112
878.313	3188
878.441	3165
878.568	3066
878.696	3142
878.824	3237
878.951	3279
879.079	3424
879.206	3584
879.333	3374
879.461	3279
879.588	3298
879.715	3515
879.842	3595
879.97	3389
880.097	3169
880.224	3138
880.351	3211
880.478	3211
880.605	3173
880.732	3184
880.859	3469
880.986	3268
881.112	3317
881.239	3195
881.366	3051
881.493	3013
881.619	3020
881.746	3036
881.872	3085
881.999	3085
882.125	3142
882.252	3272
882.378	3340
882.505	3458
882.631	3260
882.757	3100
882.883	3188
883.01	3226
883.136	3146
883.262	3074
883.388	3108
883.514	3294
883.64	3306
883.766	3294
883.892	3199
884.018	3237
884.143	3409
884.269	3523
884.395	3176
884.52	3112
884.646	3138
884.772	3138
884.897	3058
885.023	3184
885.148	3298
885.274	3409
885.399	3279
885.524	3256
885.65	3230
885.775	3313
885.9	3275
886.025	3416
886.15	3298
886.275	3294
886.4	3169
886.525	3291
886.65	3253
886.775	3260
886.9	3473
887.025	3618
887.149	3386
887.274	3245
887.399	3150
887.523	3192
887.648	3150
887.773	3184
887.897	3329
888.021	3336
888.146	3268
888.27	3393
888.395	3542
888.519	3416
888.643	3435
888.767	3450
888.891	3336
889.015	3230
889.139	3260
889.263	3230
889.387	3428
889.511	3488
889.635	3412
889.759	3279
889.883	3351
890.006	3439
890.13	3511
890.254	3332
890.377	3317
890.501	3237
890.624	3203
890.748	3302
890.871	3207
890.995	3104
891.118	3043
891.241	3211
891.364	3233
891.488	3325
891.611	3195
891.734	3218
891.857	3310
891.98	3279
892.103	3344
892.226	3268
892.349	3245
892.471	3100
892.594	3260
892.717	3325
892.839	3310
892.962	3336
893.085	3359
893.207	3332
893.33	3214
893.452	3241
893.575	3386
893.697	3306
893.819	3492
893.941	3553
894.064	3523
894.186	3302
894.308	3310
894.43	3466
894.552	3549
894.674	3488
894.796	3298
894.918	3359
895.04	3302
895.161	3481
895.283	3485
895.405	3332
895.526	3458
895.648	3447
895.769	3488
895.891	3542
896.012	3500
896.134	3538
896.255	3462
896.376	3416
896.498	3435
896.619	3492
896.74	3382
896.861	3416
896.982	3705
897.103	3888
897.224	3618
897.345	3542
897.466	3458
897.587	3595
897.708	3637
897.828	3557
897.949	3481
898.07	3332
898.19	3462
898.311	3660
898.431	3526
898.552	3549
898.672	3652
898.792	3603
898.913	3568
899.033	3485
899.153	3306
899.273	3241
899.393	3321
899.513	3363
899.633	3329
899.753	3378
899.873	3363
899.993	3424
900.113	3393
900.232	3412
900.352	3378
900.472	3344
900.591	3253
900.711	3348
900.83	3275
900.95	3504
901.069	3511
901.189	3397
901.308	3207
901.427	3169
901.546	3260
901.665	3313
901.784	3336
901.904	3241
902.023	3203
902.141	3047
902.26	3070
902.379	3157
902.498	3112
902.617	3093
902.735	3260
902.854	3298
902.973	3214
903.091	3100
903.21	3074
903.328	3131
903.446	3127
903.565	3108
903.683	3268
903.801	3169
903.919	3245
904.038	3317
904.156	3237
904.274	3332
904.392	3264
904.51	3287
904.627	3367
904.745	3481
904.863	3530
904.981	3291
905.098	3192
905.216	3233
905.334	3306
905.451	3325
905.569	3325
905.686	3473
905.803	3492
905.921	3306
906.038	3435
906.155	3370
906.272	3317
906.389	3367
906.506	3245
906.623	3302
906.74	3313
906.857	3195
906.974	3275
907.091	3496
907.208	3576
907.324	3534
907.441	3412
907.557	3275
907.674	3272
907.79	3222
907.907	3302
908.023	3355
908.139	3367
908.256	3382
908.372	3428
908.488	3393
908.604	3272
908.72	3249
908.836	3317
908.952	3306
909.068	3344
909.184	3530
909.3	3462
909.415	3530
909.531	3504
909.647	3317
909.762	3306
909.878	3237
909.993	3363
910.108	3363
910.224	3329
910.339	3431
910.454	3393
910.57	3332
910.685	3275
910.8	3603
910.915	3599
911.03	3477
911.145	3298
911.259	3279
911.374	3332
911.489	3294
911.604	3291
911.718	3150
911.833	3230
911.947	3093
912.062	3020
912.176	3207
912.291	3256
912.405	3237
912.519	3469
912.633	3538
912.748	3363
912.862	3310
912.976	3214
913.09	3112
913.204	3138
913.318	3237
913.431	3416
913.545	3325
913.659	3424
913.772	3355
913.886	3245
914	3226
914.113	3336
914.226	3454
914.34	3428
914.453	3256
914.566	3462
914.68	3294
914.793	3348
914.906	3142
915.019	3150
915.132	3127
915.245	3222
915.358	3222
915.47	3218
915.583	3287
915.696	3332
915.809	3443
915.921	3393
916.034	3279
916.146	3279
916.259	3310
916.371	3386
916.483	3393
916.595	3291
916.708	3401
916.82	3378
916.932	3363
917.044	3344
917.156	3420
917.268	3313
917.38	3329
917.491	3351
917.603	3389
917.715	3443
917.826	3523
917.938	3458
918.049	3325
918.161	3439
918.272	3603
918.384	3606
918.495	3519
918.606	3378
918.717	3302
918.828	3412
918.939	3462
919.05	3351
919.161	3416
919.272	3180
919.383	3302
919.494	3545
919.604	3705
919.715	3530
919.826	3450
919.936	3545
920.047	3622
920.157	3580
920.267	3778
920.378	3648
920.488	3610
920.598	3808
920.708	4032
920.818	3835
920.928	3835
921.038	4017
921.148	4025
921.258	3759
921.368	3690
921.477	3599
921.587	3534
921.697	3485
921.806	3690
921.916	3561
922.025	3389
922.134	3401
922.244	3367
922.353	3454
922.462	3302
922.571	3264
922.68	3112
922.789	3093
922.898	3184
923.007	3100
923.116	3230
923.224	3222
923.333	3222
923.442	3146
923.55	3112
923.659	3150
923.767	3222
923.876	3123
923.984	3253
924.092	3146
924.201	3211
924.309	3233
924.417	3279
924.525	3222
924.633	3245
924.741	3975
924.849	3062
924.956	3359
925.064	3142
925.172	3051
925.279	3165
925.387	3211
925.494	3272
925.602	3382
925.709	3370
925.816	3214
925.924	3268
926.031	3416
926.138	3351
926.245	3359
926.352	3310
926.459	3454
926.566	3485
926.673	3355
926.779	3218
926.886	3241
926.993	3169
927.099	3180
927.206	3131
927.312	3150
927.419	3260
927.525	3241
927.631	3313
927.737	3184
927.843	3112
927.95	3058
928.056	3169
928.162	3192
928.267	3237
928.373	3781
928.479	3348
928.585	3104
928.69	3226
928.796	3260
928.901	3207
929.007	3093
929.112	3230
929.218	3195
929.323	3154
929.428	3146
929.533	3336
929.638	3154
929.743	3214
929.848	3249
929.953	3253
930.058	3138
930.163	3043
930.267	3032
930.372	3241
930.477	3036
930.581	3374
930.685	3218
930.79	3066
930.894	3127
930.998	3127
931.103	3245
931.207	2982
931.311	2967
931.415	2960
931.519	2785
931.623	2880
