Data from test_V78500241_326.txt Node
Date: Fri Mar 25 16:17:27 CST 2022
User: usil
Spectrometer: V785-0024
Trigger mode: 0
Integration Time (sec): 4.000000E-1
Scans to average: 1
Nonlinearity correction enabled: false
Boxcar width: 0
Storing dark spectrum: false
XAxis mode: Wavelengths
Number of Pixels in Spectrum: 1024
>>>>>Begin Spectral Data<<<<<
801.071	2902
801.214	2941
801.356	2887
801.499	2906
801.641	2887
801.783	2937
801.926	3039
802.068	2982
802.211	2986
802.353	3051
802.496	2960
802.638	2990
802.78	3108
802.923	3032
803.065	3013
803.208	2880
803.35	2914
803.492	2922
803.635	2956
803.777	2754
803.919	2830
804.061	3184
804.204	2941
804.346	2902
804.488	2868
804.63	2994
804.773	2834
804.915	2933
805.057	3062
805.199	2929
805.341	2986
805.483	3001
805.626	3001
805.768	2941
805.91	3074
806.052	3131
806.194	3001
806.336	3260
806.478	3028
806.62	2956
806.762	2990
806.904	3043
807.046	3199
807.188	3028
807.33	2914
807.472	2979
807.614	2914
807.756	2967
807.898	2899
808.04	2887
808.182	2994
808.324	2933
808.465	2857
808.607	2883
808.749	2796
808.891	2861
809.033	2960
809.174	2975
809.316	2861
809.458	2853
809.6	2781
809.741	2766
809.883	2746
810.025	2864
810.166	2861
810.308	2826
810.45	2861
810.591	2800
810.733	2777
810.875	2842
811.016	2807
811.158	2758
811.299	2804
811.441	2914
811.582	2941
811.724	2830
811.865	2807
812.007	2937
812.148	2842
812.29	2838
812.431	2880
812.573	2944
812.714	2982
812.855	3028
812.997	3074
813.138	3127
813.279	2990
813.421	2975
813.562	2929
813.703	2849
813.845	2868
813.986	2781
814.127	2773
814.268	2815
814.41	2857
814.551	2830
814.692	2883
814.833	2800
814.974	2868
815.115	2944
815.256	2826
815.397	2853
815.539	2842
815.68	2773
815.821	2796
815.962	2918
816.103	2944
816.244	2868
816.385	2864
816.526	2975
816.666	2941
816.807	2754
816.948	2876
817.089	2910
817.23	2872
817.371	2800
817.512	2807
817.653	2815
817.793	2842
817.934	2872
818.075	2937
818.216	2998
818.356	2982
818.497	2899
818.638	2796
818.778	2834
818.919	2811
819.06	2769
819.2	2849
819.341	2849
819.481	2823
819.622	2929
819.762	3116
819.903	3043
820.043	2922
820.184	2925
820.324	2880
820.465	3020
820.605	3013
820.746	3001
820.886	2925
821.026	3108
821.167	3154
821.307	3279
821.447	3256
821.588	3249
821.728	3192
821.868	3199
822.008	3085
822.149	3173
822.289	3218
822.429	3074
822.569	3108
822.709	3161
822.849	3024
822.99	3055
823.13	3154
823.27	3146
823.41	3104
823.55	3127
823.69	3157
823.83	3157
823.97	3055
824.11	3005
824.25	3009
824.389	3055
824.529	3112
824.669	3043
824.809	3195
824.949	3253
825.089	3245
825.228	3131
825.368	3001
825.508	2941
825.648	2975
825.787	3032
825.927	3032
826.067	2982
826.206	2952
826.346	3036
826.485	3013
826.625	3112
826.765	3226
826.904	3188
827.044	2982
827.183	2929
827.323	2876
827.462	2941
827.601	2914
827.741	2918
827.88	2986
828.02	2853
828.159	2990
828.298	3020
828.437	3135
828.577	3043
828.716	3245
828.855	3077
828.994	2895
829.134	2857
829.273	2895
829.412	2868
829.551	2834
829.69	2883
829.829	2986
829.968	3123
830.107	2994
830.246	3009
830.385	2895
830.524	2872
830.663	2800
830.802	2743
830.941	2663
831.08	2636
831.219	2781
831.357	2750
831.496	2948
831.635	2712
831.774	2644
831.913	2693
832.051	2549
832.19	2575
832.329	2648
832.467	2568
832.606	2480
832.744	2583
832.883	2571
833.022	2579
833.16	2644
833.299	2682
833.437	2708
833.576	2720
833.714	2716
833.852	2750
833.991	2773
834.129	2864
834.267	2819
834.406	2811
834.544	2876
834.682	2845
834.821	2880
834.959	3074
835.097	2914
835.235	3055
835.373	2979
835.511	3013
835.65	2952
835.788	2963
835.926	2838
836.064	2830
836.202	2815
836.34	3097
836.478	3150
836.615	3039
836.753	3154
836.891	3211
837.029	3169
837.167	3127
837.305	3070
837.443	3017
837.58	2956
837.718	3131
837.856	3074
837.993	3047
838.131	3112
838.269	3089
838.406	3081
838.544	3062
838.681	2925
838.819	2906
838.956	2830
839.094	2826
839.231	2922
839.369	3001
839.506	3393
839.643	3226
839.781	3001
839.918	2982
840.055	3028
840.193	3066
840.33	3062
840.467	3100
840.604	3138
840.742	3401
840.879	3062
841.016	3058
841.153	3123
841.29	3310
841.427	3272
841.564	3241
841.701	3306
841.838	3184
841.975	3135
842.112	3260
842.249	3043
842.385	3051
842.522	3230
842.659	3093
842.796	3055
842.933	3135
843.069	3039
843.206	3028
843.343	3180
843.479	3116
843.616	3070
843.752	2906
843.889	2880
844.025	3066
844.162	2861
844.298	3093
844.435	2925
844.571	2876
844.708	3066
844.844	3176
844.98	3253
845.117	3192
845.253	3089
845.389	2998
845.525	3077
845.661	3081
845.798	3013
845.934	3138
846.07	3005
846.206	3207
846.342	3317
846.478	3230
846.614	3055
846.75	3058
846.886	3024
847.022	3245
847.158	3123
847.294	3184
847.429	3233
847.565	3188
847.701	3466
847.837	3051
847.972	3005
848.108	3123
848.244	3135
848.379	2986
848.515	2933
848.65	2918
848.786	2986
848.921	3020
849.057	3108
849.192	3150
849.328	3058
849.463	3093
849.598	3047
849.734	3009
849.869	3024
850.004	2891
850.14	2925
850.275	2925
850.41	2804
850.545	2868
850.68	2922
850.815	2979
850.95	2948
851.085	3173
851.22	3108
851.355	3062
851.49	3001
851.625	2982
851.76	3013
851.895	2925
852.03	2937
852.165	3066
852.299	3127
852.434	3173
852.569	3157
852.703	3180
852.838	3253
852.973	3325
853.107	3332
853.242	3165
853.376	3104
853.511	2990
853.645	3032
853.78	3272
853.914	3108
854.048	3081
854.183	3097
854.317	3146
854.451	3336
854.585	3123
854.72	3058
854.854	3218
854.988	3039
855.122	3070
855.256	2982
855.39	3100
855.524	3256
855.658	3184
855.792	3150
855.926	3199
856.06	3199
856.194	3241
856.327	3165
856.461	3093
856.595	3108
856.729	3104
856.862	3188
856.996	3161
857.13	3169
857.263	3241
857.397	3298
857.53	3093
857.664	3218
857.797	3260
857.931	3264
858.064	3165
858.197	3192
858.331	3176
858.464	3055
858.597	2998
858.731	3119
858.864	3165
858.997	3100
859.13	3131
859.263	3218
859.396	3230
859.529	3055
859.662	3081
859.795	3051
859.928	3131
860.061	3272
860.194	3264
860.327	3169
860.46	3093
860.592	3260
860.725	3233
860.858	3241
860.99	3108
861.123	3024
861.256	3039
861.388	3161
861.521	3861
861.653	3017
861.786	2960
861.918	2998
862.05	3062
862.183	3093
862.315	3146
862.447	3192
862.58	3104
862.712	2948
862.844	2842
862.976	3028
863.108	3001
863.24	3256
863.372	2868
863.504	2960
863.636	2937
863.768	3001
863.9	2952
864.032	2895
864.164	2952
864.296	3013
864.428	3116
864.559	3116
864.691	3055
864.823	3051
864.954	3047
865.086	3066
865.217	2986
865.349	2952
865.48	3001
865.612	2990
865.743	3161
865.875	2998
866.006	2956
866.137	2967
866.269	2986
866.4	2963
866.531	2914
866.662	2929
866.793	2883
866.924	2872
867.055	2944
867.186	2937
867.317	2922
867.448	2853
867.579	2819
867.71	2853
867.841	2807
867.972	2880
868.103	2868
868.233	2864
868.364	2880
868.495	2887
868.625	3066
868.756	3237
868.886	2975
869.017	3043
869.147	3161
869.278	3173
869.408	3036
869.539	3066
869.669	3100
869.799	3001
869.929	3123
870.06	3112
870.19	3325
870.32	3291
870.45	3287
870.58	3363
870.71	3454
870.84	3439
870.97	3275
871.1	3207
871.23	3477
871.36	3466
871.489	3332
871.619	3329
871.749	3401
871.879	3416
872.008	3466
872.138	3329
872.267	3298
872.397	3138
872.526	3123
872.656	3005
872.785	3062
872.915	3249
873.044	3348
873.173	3161
873.303	3260
873.432	3241
873.561	3253
873.69	3180
873.819	3150
873.948	3188
874.077	3131
874.206	3032
874.335	3085
874.464	3245
874.593	3306
874.722	3237
874.851	3397
874.979	3344
875.108	3348
875.237	3199
875.365	3138
875.494	3146
875.623	3233
875.751	3108
875.88	3089
876.008	3157
876.136	3237
876.265	3370
876.393	3485
876.521	3409
876.65	3374
876.778	3355
876.906	3260
877.034	3173
877.162	3241
877.29	3199
877.418	3264
877.546	3237
877.674	3272
877.802	3218
877.93	3237
878.058	3138
878.185	3135
878.313	3207
878.441	3173
878.568	3089
878.696	3097
878.824	3230
878.951	3298
879.079	3412
879.206	3599
879.333	3424
879.461	3325
879.588	3321
879.715	3409
879.842	3568
879.97	3348
880.097	3135
880.224	3116
880.351	3176
880.478	3199
880.605	3199
880.732	3176
880.859	3511
880.986	3317
881.112	3294
881.239	3176
881.366	3116
881.493	3036
881.619	3001
881.746	3089
881.872	3104
881.999	3112
882.125	3100
882.252	3260
882.378	3310
882.505	3435
882.631	3237
882.757	3116
882.883	3184
883.01	3222
883.136	3157
883.262	3100
883.388	3104
883.514	3313
883.64	3409
883.766	3302
883.892	3203
884.018	3211
884.143	3401
884.269	3519
884.395	3226
884.52	3157
884.646	3188
884.772	3157
884.897	3104
885.023	3195
885.148	3325
885.274	3443
885.399	3378
885.524	3275
885.65	3279
885.775	3313
885.9	3245
886.025	3405
886.15	3378
886.275	3298
886.4	3203
886.525	3291
886.65	3268
886.775	3272
886.9	3481
887.025	3629
887.149	3401
887.274	3237
887.399	3188
887.523	3211
887.648	3161
887.773	3199
887.897	3401
888.021	3389
888.146	3283
888.27	3473
888.395	3591
888.519	3443
888.643	3458
888.767	3458
888.891	3302
889.015	3230
889.139	3287
889.263	3256
889.387	3386
889.511	3500
889.635	3447
889.759	3287
889.883	3294
890.006	3355
890.13	3534
890.254	3260
890.377	3329
890.501	3192
890.624	3173
890.748	3313
890.871	3154
890.995	3127
891.118	3058
891.241	3226
891.364	3253
891.488	3302
891.611	3176
891.734	3260
891.857	3283
891.98	3256
892.103	3348
892.226	3268
892.349	3207
892.471	3112
892.594	3226
892.717	3241
892.839	3272
892.962	3310
893.085	3344
893.207	3256
893.33	3176
893.452	3211
893.575	3325
893.697	3283
893.819	3454
893.941	3519
894.064	3447
894.186	3260
894.308	3287
894.43	3431
894.552	3538
894.674	3469
894.796	3264
894.918	3294
895.04	3306
895.161	3420
895.283	3416
895.405	3329
895.526	3378
895.648	3450
895.769	3431
895.891	3458
896.012	3473
896.134	3473
896.255	3405
896.376	3378
896.498	3363
896.619	3412
896.74	3336
896.861	3431
896.982	3713
897.103	3816
897.224	3576
897.345	3530
897.466	3454
897.587	3496
897.708	3606
897.828	3530
897.949	3450
898.07	3355
898.19	3397
898.311	3572
898.431	3424
898.552	3496
898.672	3618
898.792	3572
898.913	3549
899.033	3405
899.153	3287
899.273	3245
899.393	3264
899.513	3325
899.633	3310
899.753	3363
899.873	3306
899.993	3359
900.113	3306
900.232	3382
900.352	3287
900.472	3272
900.591	3203
900.711	3283
900.83	3199
900.95	3424
901.069	3507
901.189	3355
901.308	3169
901.427	3138
901.546	3165
901.665	3313
901.784	3367
901.904	3207
902.023	3154
902.141	3005
902.26	2994
902.379	3146
902.498	3100
902.617	3051
902.735	3180
902.854	3256
902.973	3173
903.091	3028
903.21	3051
903.328	3135
903.446	3142
903.565	3123
903.683	3199
903.801	3112
903.919	3264
904.038	3298
904.156	3169
904.274	3317
904.392	3291
904.51	3253
904.627	3313
904.745	3397
904.863	3481
904.981	3226
905.098	3169
905.216	3230
905.334	3291
905.451	3272
905.569	3302
905.686	3382
905.803	3439
905.921	3275
906.038	3450
906.155	3374
906.272	3245
906.389	3310
906.506	3195
906.623	3264
906.74	3298
906.857	3192
906.974	3237
907.091	3435
907.208	3564
907.324	3443
907.441	3378
907.557	3237
907.674	3249
907.79	3218
907.907	3264
908.023	3336
908.139	3340
908.256	3332
908.372	3382
908.488	3374
908.604	3245
908.72	3154
908.836	3298
908.952	3329
909.068	3321
909.184	3450
909.3	3450
909.415	3458
909.531	3428
909.647	3245
909.762	3260
909.878	3260
909.993	3310
910.108	3298
910.224	3332
910.339	3412
910.454	3359
910.57	3275
910.685	3256
910.8	3591
910.915	3477
911.03	3454
911.145	3249
911.259	3275
911.374	3291
911.489	3211
911.604	3203
911.718	3146
911.833	3180
911.947	3043
912.062	2979
912.176	3169
912.291	3161
912.405	3195
912.519	3435
912.633	3477
912.748	3302
912.862	3256
912.976	3161
913.09	3085
913.204	3142
913.318	3211
913.431	3336
913.545	3329
913.659	3431
913.772	3298
913.886	3211
914	3161
914.113	3344
914.226	3405
914.34	3351
914.453	3161
914.566	3397
914.68	3287
914.793	3332
914.906	3169
915.019	3157
915.132	3123
915.245	3184
915.358	3203
915.47	3249
915.583	3272
915.696	3336
915.809	3424
915.921	3435
916.034	3294
916.146	3287
916.259	3256
916.371	3386
916.483	3409
916.595	3313
916.708	3409
916.82	3344
916.932	3393
917.044	3348
917.156	3389
917.268	3294
917.38	3340
917.491	3355
917.603	3435
917.715	3477
917.826	3519
917.938	3412
918.049	3351
918.161	3462
918.272	3599
918.384	3595
918.495	3538
918.606	3359
918.717	3325
918.828	3450
918.939	3431
919.05	3336
919.161	3431
919.272	3195
919.383	3317
919.494	3530
919.604	3736
919.715	3538
919.826	3443
919.936	3511
920.047	3656
920.157	3599
920.267	3804
920.378	3641
920.488	3591
920.598	3816
920.708	4036
920.818	3842
920.928	3857
921.038	4105
921.148	4067
921.258	3819
921.368	3644
921.477	3629
921.587	3595
921.697	3534
921.806	3652
921.916	3584
922.025	3386
922.134	3393
922.244	3351
922.353	3424
922.462	3321
922.571	3260
922.68	3154
922.789	3127
922.898	3173
923.007	3161
923.116	3218
923.224	3195
923.333	3233
923.442	3169
923.55	3157
923.659	3188
923.767	3226
923.876	3157
923.984	3272
924.092	3123
924.201	3256
924.309	3253
924.417	3332
924.525	3233
924.633	3283
924.741	4223
924.849	3066
924.956	3291
925.064	3135
925.172	3074
925.279	3119
925.387	3245
925.494	3230
925.602	3393
925.709	3370
925.816	3199
925.924	3329
926.031	3382
926.138	3363
926.245	3428
926.352	3298
926.459	3458
926.566	3492
926.673	3367
926.779	3272
926.886	3291
926.993	3211
927.099	3176
927.206	3146
927.312	3165
927.419	3253
927.525	3222
927.631	3272
927.737	3207
927.843	3165
927.95	3051
928.056	3184
928.162	3203
928.267	3302
928.373	3880
928.479	3386
928.585	3112
928.69	3230
928.796	3313
928.901	3214
929.007	3104
929.112	3260
929.218	3218
929.323	3214
929.428	3218
929.533	3359
929.638	3157
929.743	3230
929.848	3310
929.953	3245
930.058	3165
930.163	3039
930.267	3085
930.372	3218
930.477	3039
930.581	3317
930.685	3264
930.79	3138
930.894	3173
930.998	3138
931.103	3272
931.207	2971
931.311	2967
931.415	2963
931.519	2815
931.623	2838
