Data from test_V78500241_87.txt Node
Date: Fri Mar 25 16:15:48 CST 2022
User: usil
Spectrometer: V785-0024
Trigger mode: 0
Integration Time (sec): 4.000000E-1
Scans to average: 1
Nonlinearity correction enabled: false
Boxcar width: 0
Storing dark spectrum: false
XAxis mode: Wavelengths
Number of Pixels in Spectrum: 1024
>>>>>Begin Spectral Data<<<<<
801.071	2941
801.214	2982
801.356	2876
801.499	2948
801.641	2872
801.783	2971
801.926	3077
802.068	3013
802.211	3039
802.353	3028
802.496	2998
802.638	3005
802.78	3089
802.923	3055
803.065	3062
803.208	2918
803.35	2929
803.492	2937
803.635	2956
803.777	2777
803.919	2872
804.061	3241
804.204	2998
804.346	2941
804.488	2899
804.63	3013
804.773	2906
804.915	2929
805.057	3070
805.199	2918
805.341	3024
805.483	3070
805.626	3024
805.768	2979
805.91	3131
806.052	3165
806.194	3070
806.336	3226
806.478	3074
806.62	3013
806.762	2971
806.904	3070
807.046	3176
807.188	3005
807.33	2963
807.472	3013
807.614	2910
807.756	2998
807.898	2941
808.04	2872
808.182	2975
808.324	2963
808.465	2944
808.607	2929
808.749	2838
808.891	2872
809.033	2971
809.174	2982
809.316	2933
809.458	2929
809.6	2769
809.741	2807
809.883	2804
810.025	2857
810.166	2876
810.308	2842
810.45	2887
810.591	2815
810.733	2861
810.875	2845
811.016	2796
811.158	2777
811.299	2842
811.441	2960
811.582	2956
811.724	2826
811.865	2902
812.007	2952
812.148	2899
812.29	2891
812.431	2937
812.573	2933
812.714	3001
812.855	3089
812.997	3138
813.138	3176
813.279	2994
813.421	2998
813.562	2982
813.703	2925
813.845	2933
813.986	2781
814.127	2708
814.268	2842
814.41	2857
814.551	2849
814.692	2914
814.833	2853
814.974	2902
815.115	2967
815.256	2804
815.397	2811
815.539	2929
815.68	2804
815.821	2811
815.962	2986
816.103	2952
816.244	2891
816.385	2883
816.526	3013
816.666	2918
816.807	2785
816.948	2910
817.089	2963
817.23	2887
817.371	2826
817.512	2834
817.653	2880
817.793	2834
817.934	2929
818.075	2975
818.216	3032
818.356	3028
818.497	2914
818.638	2857
818.778	2842
818.919	2811
819.06	2800
819.2	2899
819.341	2800
819.481	2815
819.622	2967
819.762	3116
819.903	3051
820.043	2937
820.184	2922
820.324	2880
820.465	3039
820.605	3043
820.746	3100
820.886	2975
821.026	3108
821.167	3199
821.307	3256
821.447	3321
821.588	3245
821.728	3203
821.868	3218
822.008	3131
822.149	3184
822.289	3268
822.429	3097
822.569	3108
822.709	3195
822.849	3032
822.99	3097
823.13	3157
823.27	3233
823.41	3138
823.55	3176
823.69	3146
823.83	3214
823.97	3135
824.11	3024
824.25	3032
824.389	3093
824.529	3165
824.669	3104
824.809	3203
824.949	3306
825.089	3241
825.228	3165
825.368	3039
825.508	2963
825.648	2979
825.787	3028
825.927	3036
826.067	2967
826.206	3024
826.346	3039
826.485	3058
826.625	3123
826.765	3321
826.904	3245
827.044	3028
827.183	2956
827.323	2918
827.462	3005
827.601	2925
827.741	2956
827.88	2967
828.02	2861
828.159	2979
828.298	3055
828.437	3100
828.577	3058
828.716	3256
828.855	3093
828.994	2979
829.134	2861
829.273	2929
829.412	2902
829.551	2899
829.69	2918
829.829	3005
829.968	3146
830.107	3081
830.246	3074
830.385	2910
830.524	2914
830.663	2823
830.802	2731
830.941	2693
831.08	2659
831.219	2762
831.357	2769
831.496	2971
831.635	2754
831.774	2674
831.913	2701
832.051	2564
832.19	2583
832.329	2720
832.467	2587
832.606	2503
832.744	2587
832.883	2621
833.022	2602
833.16	2644
833.299	2686
833.437	2727
833.576	2743
833.714	2750
833.852	2769
833.991	2788
834.129	2868
834.267	2864
834.406	2804
834.544	2880
834.682	2887
834.821	2883
834.959	3089
835.097	2922
835.235	3085
835.373	3032
835.511	3020
835.65	3001
835.788	2998
835.926	2864
836.064	2842
836.202	2842
836.34	3135
836.478	3199
836.615	3058
836.753	3176
836.891	3230
837.029	3169
837.167	3154
837.305	3051
837.443	3062
837.58	2944
837.718	3176
837.856	3074
837.993	3047
838.131	3135
838.269	3146
838.406	3146
838.544	3119
838.681	2986
838.819	2929
838.956	2853
839.094	2853
839.231	2899
839.369	3036
839.506	3405
839.643	3233
839.781	3039
839.918	2994
840.055	3062
840.193	3074
840.33	3108
840.467	3127
840.604	3135
840.742	3420
840.879	3074
841.016	3085
841.153	3135
841.29	3363
841.427	3302
841.564	3302
841.701	3306
841.838	3199
841.975	3218
842.112	3218
842.249	3127
842.385	3055
842.522	3332
842.659	3097
842.796	3036
842.933	3077
843.069	3074
843.206	3024
843.343	3195
843.479	3131
843.616	3165
843.752	2876
843.889	2876
844.025	3058
844.162	2895
844.298	3097
844.435	2975
844.571	2956
844.708	3097
844.844	3249
844.98	3287
845.117	3214
845.253	3100
845.389	3043
845.525	3157
845.661	3093
845.798	3024
845.934	3146
846.07	3081
846.206	3218
846.342	3386
846.478	3260
846.614	3142
846.75	3047
846.886	3055
847.022	3279
847.158	3108
847.294	3249
847.429	3253
847.565	3230
847.701	3504
847.837	3070
847.972	3043
848.108	3192
848.244	3173
848.379	3028
848.515	2963
848.65	2967
848.786	2952
848.921	3028
849.057	3127
849.192	3180
849.328	3066
849.463	3116
849.598	3077
849.734	3047
849.869	3013
850.004	2933
850.14	3009
850.275	2956
850.41	2872
850.545	2902
850.68	2982
850.815	2986
850.95	3009
851.085	3218
851.22	3146
851.355	3066
851.49	2990
851.625	3013
851.76	3017
851.895	2937
852.03	2948
852.165	3074
852.299	3119
852.434	3180
852.569	3154
852.703	3214
852.838	3283
852.973	3351
853.107	3355
853.242	3154
853.376	3138
853.511	2952
853.645	3043
853.78	3256
853.914	3119
854.048	3116
854.183	3085
854.317	3192
854.451	3306
854.585	3142
854.72	3108
854.854	3233
854.988	3077
855.122	3138
855.256	3020
855.39	3138
855.524	3291
855.658	3203
855.792	3150
855.926	3195
856.06	3214
856.194	3268
856.327	3188
856.461	3104
856.595	3097
856.729	3123
856.862	3233
856.996	3184
857.13	3218
857.263	3275
857.397	3294
857.53	3135
857.664	3222
857.797	3249
857.931	3233
858.064	3184
858.197	3207
858.331	3150
858.464	3108
858.597	2990
858.731	3157
858.864	3165
858.997	3081
859.13	3176
859.263	3214
859.396	3237
859.529	3123
859.662	3119
859.795	3089
859.928	3176
860.061	3317
860.194	3294
860.327	3165
860.46	3077
860.592	3287
860.725	3275
860.858	3264
860.99	3108
861.123	3097
861.256	3081
861.388	3173
861.521	3717
861.653	3024
861.786	2998
861.918	3024
862.05	3104
862.183	3108
862.315	3165
862.447	3203
862.58	3116
862.712	2998
862.844	2876
862.976	3062
863.108	3039
863.24	3424
863.372	2887
863.504	2952
863.636	3013
863.768	3039
863.9	3036
864.032	2902
864.164	2956
864.296	3028
864.428	3127
864.559	3100
864.691	3097
864.823	3077
864.954	3036
865.086	3089
865.217	3017
865.349	2963
865.48	2967
865.612	3036
865.743	3173
865.875	3047
866.006	2967
866.137	2990
866.269	2963
866.4	2975
866.531	2998
866.662	2899
866.793	2910
866.924	2941
867.055	2982
867.186	2902
867.317	2937
867.448	2891
867.579	2883
867.71	2872
867.841	2876
867.972	2933
868.103	2918
868.233	2925
868.364	2899
868.495	2944
868.625	3074
868.756	3218
868.886	3001
869.017	3017
869.147	3180
869.278	3180
869.408	3108
869.539	3039
869.669	3127
869.799	3043
869.929	3180
870.06	3116
870.19	3355
870.32	3340
870.45	3291
870.58	3359
870.71	3485
870.84	3488
870.97	3344
871.1	3253
871.23	3538
871.36	3504
871.489	3363
871.619	3431
871.749	3435
871.879	3473
872.008	3549
872.138	3340
872.267	3302
872.397	3245
872.526	3116
872.656	3062
872.785	3116
872.915	3260
873.044	3325
873.173	3260
873.303	3275
873.432	3275
873.561	3245
873.69	3173
873.819	3157
873.948	3222
874.077	3150
874.206	3089
874.335	3070
874.464	3230
874.593	3348
874.722	3233
874.851	3382
874.979	3374
875.108	3355
875.237	3249
875.365	3188
875.494	3192
875.623	3272
875.751	3108
875.88	3127
876.008	3226
876.136	3256
876.265	3412
876.393	3561
876.521	3488
876.65	3420
876.778	3351
876.906	3283
877.034	3203
877.162	3245
877.29	3233
877.418	3249
877.546	3245
877.674	3283
877.802	3241
877.93	3272
878.058	3195
878.185	3146
878.313	3249
878.441	3264
878.568	3100
878.696	3180
878.824	3233
878.951	3359
879.079	3500
879.206	3641
879.333	3450
879.461	3393
879.588	3397
879.715	3492
879.842	3644
879.97	3447
880.097	3207
880.224	3131
880.351	3214
880.478	3233
880.605	3211
880.732	3218
880.859	3519
880.986	3294
881.112	3348
881.239	3245
881.366	3089
881.493	3039
881.619	3043
881.746	3100
881.872	3108
881.999	3165
882.125	3176
882.252	3275
882.378	3329
882.505	3447
882.631	3306
882.757	3226
882.883	3260
883.01	3237
883.136	3161
883.262	3135
883.388	3146
883.514	3363
883.64	3420
883.766	3336
883.892	3245
884.018	3195
884.143	3450
884.269	3530
884.395	3237
884.52	3184
884.646	3245
884.772	3161
884.897	3138
885.023	3207
885.148	3348
885.274	3428
885.399	3401
885.524	3310
885.65	3241
885.775	3317
885.9	3317
886.025	3447
886.15	3386
886.275	3336
886.4	3237
886.525	3302
886.65	3336
886.775	3279
886.9	3526
887.025	3660
887.149	3431
887.274	3268
887.399	3211
887.523	3241
887.648	3218
887.773	3226
887.897	3401
888.021	3462
888.146	3340
888.27	3473
888.395	3534
888.519	3443
888.643	3500
888.767	3515
888.891	3382
889.015	3287
889.139	3313
889.263	3302
889.387	3397
889.511	3523
889.635	3454
889.759	3363
889.883	3321
890.006	3424
890.13	3523
890.254	3313
890.377	3359
890.501	3226
890.624	3188
890.748	3306
890.871	3222
890.995	3157
891.118	3108
891.241	3253
891.364	3253
891.488	3348
891.611	3195
891.734	3249
891.857	3363
891.98	3283
892.103	3355
892.226	3313
892.349	3264
892.471	3123
892.594	3272
892.717	3313
892.839	3317
892.962	3294
893.085	3389
893.207	3321
893.33	3184
893.452	3230
893.575	3370
893.697	3302
893.819	3492
893.941	3511
894.064	3511
894.186	3253
894.308	3302
894.43	3454
894.552	3561
894.674	3530
894.796	3294
894.918	3313
895.04	3306
895.161	3447
895.283	3428
895.405	3336
895.526	3401
895.648	3477
895.769	3435
895.891	3507
896.012	3481
896.134	3504
896.255	3416
896.376	3367
896.498	3355
896.619	3454
896.74	3401
896.861	3435
896.982	3728
897.103	3873
897.224	3637
897.345	3545
897.466	3439
897.587	3549
897.708	3682
897.828	3603
897.949	3420
898.07	3359
898.19	3443
898.311	3606
898.431	3488
898.552	3557
898.672	3629
898.792	3591
898.913	3568
899.033	3435
899.153	3306
899.273	3230
899.393	3279
899.513	3302
899.633	3370
899.753	3344
899.873	3348
899.993	3405
900.113	3405
900.232	3420
900.352	3382
900.472	3321
900.591	3245
900.711	3325
900.83	3298
900.95	3458
901.069	3538
901.189	3424
901.308	3211
901.427	3165
901.546	3237
901.665	3317
901.784	3355
901.904	3249
902.023	3165
902.141	3024
902.26	3024
902.379	3142
902.498	3058
902.617	3055
902.735	3237
902.854	3279
902.973	3211
903.091	3020
903.21	3131
903.328	3173
903.446	3135
903.565	3154
903.683	3214
903.801	3138
903.919	3272
904.038	3351
904.156	3211
904.274	3310
904.392	3310
904.51	3317
904.627	3386
904.745	3462
904.863	3549
904.981	3272
905.098	3203
905.216	3264
905.334	3355
905.451	3367
905.569	3344
905.686	3462
905.803	3450
905.921	3336
906.038	3477
906.155	3370
906.272	3325
906.389	3370
906.506	3256
906.623	3306
906.74	3287
906.857	3222
906.974	3260
907.091	3507
907.208	3614
907.324	3538
907.441	3370
907.557	3260
907.674	3237
907.79	3230
907.907	3306
908.023	3431
908.139	3409
908.256	3355
908.372	3401
908.488	3405
908.604	3287
908.72	3279
908.836	3310
908.952	3336
909.068	3336
909.184	3507
909.3	3405
909.415	3526
909.531	3519
909.647	3275
909.762	3287
909.878	3279
909.993	3363
910.108	3363
910.224	3378
910.339	3454
910.454	3397
910.57	3340
910.685	3230
910.8	3648
910.915	3542
911.03	3469
911.145	3256
911.259	3291
911.374	3348
911.489	3272
911.604	3241
911.718	3119
911.833	3165
911.947	3074
912.062	3017
912.176	3176
912.291	3253
912.405	3253
912.519	3435
912.633	3500
912.748	3382
912.862	3332
912.976	3207
913.09	3123
913.204	3161
913.318	3268
913.431	3332
913.545	3332
913.659	3443
913.772	3355
913.886	3256
914	3233
914.113	3351
914.226	3401
914.34	3374
914.453	3233
914.566	3473
914.68	3317
914.793	3340
914.906	3188
915.019	3165
915.132	3108
915.245	3188
915.358	3253
915.47	3256
915.583	3317
915.696	3321
915.809	3450
915.921	3496
916.034	3260
916.146	3260
916.259	3241
916.371	3416
916.483	3409
916.595	3313
916.708	3348
916.82	3378
916.932	3374
917.044	3359
917.156	3428
917.268	3275
917.38	3272
917.491	3332
917.603	3401
917.715	3450
917.826	3507
917.938	3378
918.049	3306
918.161	3454
918.272	3633
918.384	3599
918.495	3526
918.606	3374
918.717	3298
918.828	3401
918.939	3397
919.05	3321
919.161	3389
919.272	3222
919.383	3359
919.494	3496
919.604	3717
919.715	3485
919.826	3473
919.936	3473
920.047	3625
920.157	3595
920.267	3755
920.378	3660
920.488	3606
920.598	3808
920.708	3964
920.818	3842
920.928	3873
921.038	4055
921.148	4029
921.258	3728
921.368	3629
921.477	3595
921.587	3530
921.697	3466
921.806	3652
921.916	3557
922.025	3401
922.134	3363
922.244	3329
922.353	3431
922.462	3287
922.571	3241
922.68	3108
922.789	3116
922.898	3161
923.007	3127
923.116	3226
923.224	3241
923.333	3195
923.442	3116
923.55	3169
923.659	3157
923.767	3253
923.876	3169
923.984	3275
924.092	3108
924.201	3245
924.309	3279
924.417	3264
924.525	3222
924.633	3233
924.741	4215
924.849	3085
924.956	3264
925.064	3108
925.172	3097
925.279	3142
925.387	3230
925.494	3222
925.602	3359
925.709	3359
925.816	3214
925.924	3325
926.031	3443
926.138	3355
926.245	3431
926.352	3268
926.459	3439
926.566	3481
926.673	3310
926.779	3256
926.886	3287
926.993	3146
927.099	3154
927.206	3157
927.312	3138
927.419	3279
927.525	3230
927.631	3294
927.737	3142
927.843	3154
927.95	3074
928.056	3161
928.162	3192
928.267	3245
928.373	3846
928.479	3332
928.585	3074
928.69	3230
928.796	3272
928.901	3165
929.007	3085
929.112	3237
929.218	3180
929.323	3146
929.428	3146
929.533	3321
929.638	3157
929.743	3176
929.848	3306
929.953	3230
930.058	3165
930.163	2986
930.267	3085
930.372	3253
930.477	3081
930.581	3355
930.685	3192
930.79	3097
930.894	3135
930.998	3089
931.103	3294
931.207	2986
931.311	2986
931.415	2925
931.519	2781
931.623	2804
