Data from test_V78500241_1271.txt Node
Date: Fri Mar 25 16:24:00 CST 2022
User: usil
Spectrometer: V785-0024
Trigger mode: 0
Integration Time (sec): 4.000000E-1
Scans to average: 1
Nonlinearity correction enabled: false
Boxcar width: 0
Storing dark spectrum: false
XAxis mode: Wavelengths
Number of Pixels in Spectrum: 1024
>>>>>Begin Spectral Data<<<<<
801.071	2929
801.214	2922
801.356	2887
801.499	2906
801.641	2906
801.783	2956
801.926	3051
802.068	2937
802.211	2979
802.353	3062
802.496	2971
802.638	3017
802.78	3005
802.923	3074
803.065	3001
803.208	2872
803.35	2876
803.492	2937
803.635	2918
803.777	2735
803.919	2842
804.061	3184
804.204	2883
804.346	2899
804.488	2838
804.63	2925
804.773	2849
804.915	2876
805.057	3070
805.199	2895
805.341	2956
805.483	3036
805.626	3005
805.768	2956
805.91	3017
806.052	3066
806.194	3036
806.336	3199
806.478	2994
806.62	2922
806.762	2944
806.904	3017
807.046	3142
807.188	2967
807.33	2906
807.472	2971
807.614	2918
807.756	2963
807.898	2895
808.04	2906
808.182	2967
808.324	2956
808.465	2895
808.607	2883
808.749	2773
808.891	2849
809.033	2982
809.174	2982
809.316	2891
809.458	2891
809.6	2773
809.741	2750
809.883	2735
810.025	2857
810.166	2830
810.308	2807
810.45	2845
810.591	2746
810.733	2724
810.875	2815
811.016	2758
811.158	2735
811.299	2823
811.441	2941
811.582	2872
811.724	2769
811.865	2830
812.007	2899
812.148	2849
812.29	2834
812.431	2868
812.573	2941
812.714	2933
812.855	2990
812.997	3047
813.138	3116
813.279	3013
813.421	2956
813.562	2925
813.703	2853
813.845	2838
813.986	2781
814.127	2716
814.268	2823
814.41	2834
814.551	2785
814.692	2861
814.833	2796
814.974	2834
815.115	2963
815.256	2792
815.397	2826
815.539	2845
815.68	2758
815.821	2773
815.962	2914
816.103	2891
816.244	2845
816.385	2883
816.526	2937
816.666	2895
816.807	2724
816.948	2868
817.089	2876
817.23	2857
817.371	2739
817.512	2785
817.653	2823
817.793	2804
817.934	2838
818.075	2944
818.216	2948
818.356	3024
818.497	2895
818.638	2804
818.778	2811
818.919	2826
819.06	2781
819.2	2830
819.341	2804
819.481	2773
819.622	2895
819.762	3077
819.903	3062
820.043	2944
820.184	2868
820.324	2849
820.465	3001
820.605	2960
820.746	2986
820.886	2914
821.026	3077
821.167	3146
821.307	3207
821.447	3260
821.588	3199
821.728	3184
821.868	3150
822.008	3074
822.149	3203
822.289	3226
822.429	3089
822.569	3093
822.709	3150
822.849	2998
822.99	3043
823.13	3119
823.27	3173
823.41	3093
823.55	3116
823.69	3112
823.83	3169
823.97	3077
824.11	2971
824.25	2956
824.389	3043
824.529	3066
824.669	3032
824.809	3184
824.949	3237
825.089	3180
825.228	3123
825.368	2986
825.508	2937
825.648	2960
825.787	2963
825.927	2986
826.067	2937
826.206	2941
826.346	3017
826.485	3039
826.625	3085
826.765	3249
826.904	3211
827.044	2967
827.183	2899
827.323	2796
827.462	2975
827.601	2895
827.741	2899
827.88	2918
828.02	2815
828.159	2948
828.298	3036
828.437	3081
828.577	2967
828.716	3222
828.855	3043
828.994	2887
829.134	2849
829.273	2914
829.412	2872
829.551	2864
829.69	2864
829.829	3020
829.968	3127
830.107	3005
830.246	3070
830.385	2922
830.524	2914
830.663	2788
830.802	2750
830.941	2636
831.08	2617
831.219	2762
831.357	2777
831.496	2944
831.635	2712
831.774	2655
831.913	2670
832.051	2545
832.19	2598
832.329	2693
832.467	2549
832.606	2507
832.744	2625
832.883	2594
833.022	2602
833.16	2663
833.299	2678
833.437	2754
833.576	2716
833.714	2731
833.852	2758
833.991	2769
834.129	2845
834.267	2861
834.406	2826
834.544	2880
834.682	2922
834.821	2895
834.959	3119
835.097	2952
835.235	3081
835.373	3051
835.511	3058
835.65	2986
835.788	2963
835.926	2845
836.064	2872
836.202	2861
836.34	3146
836.478	3169
836.615	3058
836.753	3184
836.891	3226
837.029	3211
837.167	3127
837.305	3108
837.443	3032
837.58	2990
837.718	3157
837.856	3123
837.993	3077
838.131	3135
838.269	3138
838.406	3119
838.544	3135
838.681	2982
838.819	2963
838.956	2861
839.094	2861
839.231	2956
839.369	3051
839.506	3405
839.643	3237
839.781	3047
839.918	3005
840.055	3066
840.193	3085
840.33	3116
840.467	3104
840.604	3192
840.742	3447
840.879	3093
841.016	3055
841.153	3093
841.29	3374
841.427	3317
841.564	3317
841.701	3291
841.838	3268
841.975	3222
842.112	3241
842.249	3081
842.385	3108
842.522	3268
842.659	3112
842.796	3100
842.933	3112
843.069	3051
843.206	3112
843.343	3222
843.479	3123
843.616	3165
843.752	2937
843.889	2891
844.025	3104
844.162	2899
844.298	3123
844.435	2937
844.571	2933
844.708	3150
844.844	3192
844.98	3214
845.117	3192
845.253	3089
845.389	3009
845.525	3150
845.661	3173
845.798	3043
845.934	3192
846.07	3123
846.206	3272
846.342	3359
846.478	3226
846.614	3123
846.75	3055
846.886	3055
847.022	3275
847.158	3176
847.294	3268
847.429	3233
847.565	3233
847.701	3519
847.837	3066
847.972	3020
848.108	3173
848.244	3165
848.379	3009
848.515	2982
848.65	2979
848.786	3001
848.921	3036
849.057	3154
849.192	3184
849.328	3100
849.463	3146
849.598	3123
849.734	3047
849.869	2982
850.004	2918
850.14	3020
850.275	2963
850.41	2838
850.545	2899
850.68	2956
850.815	2975
850.95	2979
851.085	3207
851.22	3154
851.355	3066
851.49	3005
851.625	3009
851.76	3055
851.895	2952
852.03	2941
852.165	3074
852.299	3161
852.434	3214
852.569	3173
852.703	3207
852.838	3218
852.973	3370
853.107	3351
853.242	3188
853.376	3112
853.511	2994
853.645	3085
853.78	3241
853.914	3188
854.048	3112
854.183	3112
854.317	3169
854.451	3325
854.585	3131
854.72	3138
854.854	3260
854.988	3085
855.122	3097
855.256	3001
855.39	3116
855.524	3253
855.658	3203
855.792	3195
855.926	3203
856.06	3230
856.194	3287
856.327	3180
856.461	3112
856.595	3112
856.729	3119
856.862	3260
856.996	3188
857.13	3260
857.263	3218
857.397	3325
857.53	3108
857.664	3237
857.797	3237
857.931	3272
858.064	3165
858.197	3245
858.331	3161
858.464	3138
858.597	3047
858.731	3138
858.864	3150
858.997	3089
859.13	3192
859.263	3233
859.396	3207
859.529	3104
859.662	3116
859.795	3058
859.928	3195
860.061	3256
860.194	3283
860.327	3146
860.46	3154
860.592	3249
860.725	3287
860.858	3226
860.99	3131
861.123	3062
861.256	3085
861.388	3150
861.521	3747
861.653	3043
861.786	3001
861.918	3047
862.05	3043
862.183	3131
862.315	3188
862.447	3184
862.58	3123
862.712	2971
862.844	2910
862.976	3039
863.108	3017
863.24	3329
863.372	2891
863.504	2990
863.636	2967
863.768	2990
863.9	3017
864.032	2918
864.164	3024
864.296	3024
864.428	3100
864.559	3119
864.691	3097
864.823	3127
864.954	3066
865.086	3055
865.217	3055
865.349	2956
865.48	2979
865.612	3043
865.743	3154
865.875	3005
866.006	2956
866.137	3005
866.269	2967
866.4	2937
866.531	2937
866.662	2918
866.793	2906
866.924	2925
867.055	3047
867.186	2975
867.317	2922
867.448	2838
867.579	2883
867.71	2845
867.841	2830
867.972	2948
868.103	2922
868.233	2929
868.364	2864
868.495	2933
868.625	3081
868.756	3173
868.886	2971
869.017	3070
869.147	3192
869.278	3180
869.408	3058
869.539	3036
869.669	3116
869.799	3051
869.929	3138
870.06	3123
870.19	3325
870.32	3367
870.45	3321
870.58	3386
870.71	3477
870.84	3466
870.97	3332
871.1	3260
871.23	3431
871.36	3473
871.489	3374
871.619	3416
871.749	3409
871.879	3481
872.008	3500
872.138	3344
872.267	3302
872.397	3184
872.526	3097
872.656	3005
872.785	3077
872.915	3260
873.044	3359
873.173	3249
873.303	3264
873.432	3283
873.561	3245
873.69	3184
873.819	3199
873.948	3203
874.077	3100
874.206	3066
874.335	3093
874.464	3222
874.593	3359
874.722	3253
874.851	3374
874.979	3325
875.108	3363
875.237	3230
875.365	3146
875.494	3123
875.623	3253
875.751	3108
875.88	3142
876.008	3207
876.136	3233
876.265	3393
876.393	3500
876.521	3424
876.65	3420
876.778	3344
876.906	3253
877.034	3226
877.162	3241
877.29	3184
877.418	3291
877.546	3283
877.674	3279
877.802	3245
877.93	3222
878.058	3154
878.185	3077
878.313	3222
878.441	3203
878.568	3089
878.696	3157
878.824	3283
878.951	3321
879.079	3492
879.206	3656
879.333	3450
879.461	3344
879.588	3412
879.715	3500
879.842	3572
879.97	3409
880.097	3165
880.224	3135
880.351	3211
880.478	3241
880.605	3230
880.732	3195
880.859	3507
880.986	3317
881.112	3340
881.239	3192
881.366	3123
881.493	3070
881.619	3017
881.746	3097
881.872	3108
881.999	3135
882.125	3142
882.252	3260
882.378	3275
882.505	3431
882.631	3272
882.757	3131
882.883	3237
883.01	3241
883.136	3154
883.262	3116
883.388	3161
883.514	3310
883.64	3389
883.766	3302
883.892	3226
884.018	3237
884.143	3420
884.269	3534
884.395	3222
884.52	3176
884.646	3199
884.772	3138
884.897	3093
885.023	3214
885.148	3348
885.274	3447
885.399	3386
885.524	3306
885.65	3264
885.775	3359
885.9	3287
886.025	3420
886.15	3355
886.275	3294
886.4	3241
886.525	3332
886.65	3302
886.775	3317
886.9	3519
887.025	3648
887.149	3431
887.274	3283
887.399	3226
887.523	3195
887.648	3233
887.773	3218
887.897	3351
888.021	3393
888.146	3313
888.27	3435
888.395	3591
888.519	3443
888.643	3439
888.767	3450
888.891	3336
889.015	3256
889.139	3306
889.263	3253
889.387	3416
889.511	3496
889.635	3485
889.759	3317
889.883	3321
890.006	3424
890.13	3496
890.254	3287
890.377	3355
890.501	3256
890.624	3233
890.748	3306
890.871	3230
890.995	3112
891.118	3108
891.241	3214
891.364	3237
891.488	3325
891.611	3214
891.734	3226
891.857	3329
891.98	3260
892.103	3374
892.226	3313
892.349	3260
892.471	3131
892.594	3275
892.717	3302
892.839	3230
892.962	3313
893.085	3374
893.207	3317
893.33	3165
893.452	3253
893.575	3348
893.697	3253
893.819	3477
893.941	3542
894.064	3447
894.186	3291
894.308	3310
894.43	3454
894.552	3553
894.674	3447
894.796	3313
894.918	3313
895.04	3302
895.161	3439
895.283	3405
895.405	3336
895.526	3393
895.648	3443
895.769	3428
895.891	3431
896.012	3500
896.134	3466
896.255	3393
896.376	3378
896.498	3355
896.619	3428
896.74	3363
896.861	3431
896.982	3717
897.103	3823
897.224	3622
897.345	3507
897.466	3428
897.587	3545
897.708	3622
897.828	3557
897.949	3450
898.07	3302
898.19	3420
898.311	3641
898.431	3450
898.552	3507
898.672	3603
898.792	3599
898.913	3530
899.033	3416
899.153	3245
899.273	3237
899.393	3298
899.513	3332
899.633	3344
899.753	3325
899.873	3332
899.993	3386
900.113	3344
900.232	3378
900.352	3363
900.472	3279
900.591	3203
900.711	3340
900.83	3256
900.95	3401
901.069	3500
901.189	3351
901.308	3157
901.427	3176
901.546	3199
901.665	3317
901.784	3340
901.904	3211
902.023	3154
902.141	3017
902.26	3039
902.379	3119
902.498	3062
902.617	3047
902.735	3253
902.854	3199
902.973	3207
903.091	3055
903.21	3089
903.328	3188
903.446	3142
903.565	3100
903.683	3173
903.801	3112
903.919	3245
904.038	3313
904.156	3199
904.274	3268
904.392	3283
904.51	3306
904.627	3329
904.745	3439
904.863	3496
904.981	3249
905.098	3180
905.216	3260
905.334	3264
905.451	3317
905.569	3317
905.686	3431
905.803	3466
905.921	3253
906.038	3454
906.155	3363
906.272	3275
906.389	3317
906.506	3176
906.623	3249
906.74	3310
906.857	3192
906.974	3260
907.091	3458
907.208	3549
907.324	3473
907.441	3416
907.557	3230
907.674	3222
907.79	3173
907.907	3287
908.023	3401
908.139	3340
908.256	3298
908.372	3382
908.488	3348
908.604	3272
908.72	3253
908.836	3249
908.952	3310
909.068	3378
909.184	3492
909.3	3367
909.415	3504
909.531	3507
909.647	3268
909.762	3298
909.878	3264
909.993	3355
910.108	3310
910.224	3382
910.339	3435
910.454	3332
910.57	3336
910.685	3260
910.8	3584
910.915	3507
911.03	3492
911.145	3241
911.259	3268
911.374	3310
911.489	3233
911.604	3218
911.718	3116
911.833	3165
911.947	3058
912.062	2986
912.176	3173
912.291	3214
912.405	3203
912.519	3435
912.633	3469
912.748	3332
912.862	3302
912.976	3146
913.09	3070
913.204	3119
913.318	3230
913.431	3313
913.545	3336
913.659	3405
913.772	3336
913.886	3233
914	3165
914.113	3340
914.226	3412
914.34	3355
914.453	3245
914.566	3386
914.68	3272
914.793	3283
914.906	3119
915.019	3108
915.132	3058
915.245	3180
915.358	3176
915.47	3195
915.583	3279
915.696	3287
915.809	3435
915.921	3389
916.034	3272
916.146	3249
916.259	3245
916.371	3382
916.483	3317
916.595	3272
916.708	3344
916.82	3325
916.932	3336
917.044	3359
917.156	3332
917.268	3272
917.38	3294
917.491	3260
917.603	3359
917.715	3443
917.826	3500
917.938	3378
918.049	3310
918.161	3412
918.272	3561
918.384	3584
918.495	3485
918.606	3313
918.717	3287
918.828	3424
918.939	3397
919.05	3313
919.161	3332
919.272	3184
919.383	3275
919.494	3538
919.604	3679
919.715	3504
919.826	3428
919.936	3485
920.047	3580
920.157	3584
920.267	3800
920.378	3614
920.488	3576
920.598	3766
920.708	3968
920.818	3835
920.928	3850
921.038	4006
921.148	3994
921.258	3709
921.368	3633
921.477	3572
921.587	3492
921.697	3447
921.806	3622
921.916	3492
922.025	3332
922.134	3355
922.244	3317
922.353	3458
922.462	3275
922.571	3222
922.68	3100
922.789	3055
922.898	3195
923.007	3112
923.116	3203
923.224	3184
923.333	3195
923.442	3104
923.55	3062
923.659	3131
923.767	3211
923.876	3097
923.984	3241
924.092	3123
924.201	3211
924.309	3157
924.417	3249
924.525	3203
924.633	3256
924.741	4010
924.849	3036
924.956	3268
925.064	3100
925.172	3005
925.279	3097
925.387	3176
925.494	3184
925.602	3359
925.709	3370
925.816	3199
925.924	3294
926.031	3386
926.138	3310
926.245	3363
926.352	3230
926.459	3405
926.566	3462
926.673	3291
926.779	3272
926.886	3245
926.993	3116
927.099	3131
927.206	3119
927.312	3089
927.419	3256
927.525	3195
927.631	3264
927.737	3176
927.843	3142
927.95	3009
928.056	3100
928.162	3222
928.267	3264
928.373	3842
928.479	3298
928.585	3039
928.69	3203
928.796	3287
928.901	3157
929.007	3062
929.112	3218
929.218	3157
929.323	3173
929.428	3123
929.533	3325
929.638	3097
929.743	3169
929.848	3249
929.953	3176
930.058	3173
930.163	2982
930.267	3062
930.372	3161
930.477	3047
930.581	3359
930.685	3188
930.79	3020
930.894	3123
930.998	3077
931.103	3306
931.207	2914
931.311	2929
931.415	2933
931.519	2766
931.623	2819
