Data from test_V78500241_336.txt Node
Date: Fri Mar 25 16:17:31 CST 2022
User: usil
Spectrometer: V785-0024
Trigger mode: 0
Integration Time (sec): 4.000000E-1
Scans to average: 1
Nonlinearity correction enabled: false
Boxcar width: 0
Storing dark spectrum: false
XAxis mode: Wavelengths
Number of Pixels in Spectrum: 1024
>>>>>Begin Spectral Data<<<<<
801.071	2887
801.214	2944
801.356	2857
801.499	2906
801.641	2845
801.783	2910
801.926	3039
802.068	2971
802.211	2948
802.353	3017
802.496	2956
802.638	2994
802.78	3017
802.923	3066
803.065	3013
803.208	2910
803.35	2925
803.492	2952
803.635	2941
803.777	2758
803.919	2826
804.061	3218
804.204	2937
804.346	2887
804.488	2826
804.63	2975
804.773	2853
804.915	2906
805.057	3074
805.199	2914
805.341	2994
805.483	3001
805.626	2994
805.768	2944
805.91	3043
806.052	3138
806.194	3028
806.336	3237
806.478	3009
806.62	2933
806.762	2948
806.904	3013
807.046	3127
807.188	2986
807.33	2887
807.472	2952
807.614	2910
807.756	3001
807.898	2922
808.04	2914
808.182	2998
808.324	2963
808.465	2880
808.607	2887
808.749	2804
808.891	2830
809.033	2963
809.174	2960
809.316	2899
809.458	2887
809.6	2758
809.741	2739
809.883	2766
810.025	2853
810.166	2891
810.308	2861
810.45	2857
810.591	2815
810.733	2766
810.875	2842
811.016	2781
811.158	2746
811.299	2796
811.441	2910
811.582	2933
811.724	2804
811.865	2785
812.007	2941
812.148	2864
812.29	2857
812.431	2902
812.573	2929
812.714	2944
812.855	3066
812.997	3039
813.138	3112
813.279	3028
813.421	3013
813.562	2956
813.703	2895
813.845	2925
813.986	2781
814.127	2720
814.268	2811
814.41	2819
814.551	2834
814.692	2861
814.833	2815
814.974	2876
815.115	2963
815.256	2891
815.397	2830
815.539	2861
815.68	2815
815.821	2788
815.962	2918
816.103	2914
816.244	2868
816.385	2872
816.526	2960
816.666	2880
816.807	2739
816.948	2891
817.089	2906
817.23	2849
817.371	2788
817.512	2807
817.653	2861
817.793	2777
817.934	2849
818.075	2906
818.216	3024
818.356	2990
818.497	2880
818.638	2781
818.778	2838
818.919	2788
819.06	2735
819.2	2895
819.341	2781
819.481	2766
819.622	2944
819.762	3074
819.903	3039
820.043	2937
820.184	2918
820.324	2876
820.465	2994
820.605	3017
820.746	3055
820.886	2925
821.026	3085
821.167	3169
821.307	3230
821.447	3298
821.588	3218
821.728	3241
821.868	3161
822.008	3089
822.149	3195
822.289	3253
822.429	3077
822.569	3085
822.709	3207
822.849	3047
822.99	3070
823.13	3142
823.27	3207
823.41	3097
823.55	3161
823.69	3161
823.83	3138
823.97	3070
824.11	2994
824.25	3001
824.389	3062
824.529	3093
824.669	3055
824.809	3180
824.949	3283
825.089	3214
825.228	3154
825.368	3009
825.508	2937
825.648	2948
825.787	2998
825.927	3032
826.067	2948
826.206	2963
826.346	3028
826.485	3036
826.625	3100
826.765	3256
826.904	3188
827.044	3017
827.183	2952
827.323	2880
827.462	3009
827.601	2914
827.741	2918
827.88	2971
828.02	2891
828.159	2941
828.298	2994
828.437	3077
828.577	3036
828.716	3237
828.855	3062
828.994	2906
829.134	2883
829.273	2925
829.412	2845
829.551	2880
829.69	2910
829.829	2975
829.968	3127
830.107	3005
830.246	3043
830.385	2914
830.524	2872
830.663	2842
830.802	2689
830.941	2651
831.08	2636
831.219	2750
831.357	2773
831.496	2979
831.635	2746
831.774	2655
831.913	2648
832.051	2560
832.19	2571
832.329	2697
832.467	2503
832.606	2514
832.744	2568
832.883	2579
833.022	2575
833.16	2617
833.299	2670
833.437	2670
833.576	2682
833.714	2674
833.852	2758
833.991	2762
834.129	2823
834.267	2796
834.406	2766
834.544	2864
834.682	2857
834.821	2876
834.959	3055
835.097	2906
835.235	3074
835.373	2986
835.511	3009
835.65	2960
835.788	2956
835.926	2804
836.064	2800
836.202	2842
836.34	3070
836.478	3135
836.615	3032
836.753	3135
836.891	3184
837.029	3154
837.167	3093
837.305	3074
837.443	3039
837.58	2982
837.718	3104
837.856	3100
837.993	3058
838.131	3100
838.269	3077
838.406	3093
838.544	3085
838.681	2906
838.819	2891
838.956	2849
839.094	2830
839.231	2876
839.369	3017
839.506	3367
839.643	3218
839.781	2982
839.918	2948
840.055	3024
840.193	3036
840.33	3058
840.467	3077
840.604	3112
840.742	3386
840.879	3070
841.016	3017
841.153	3085
841.29	3302
841.427	3294
841.564	3241
841.701	3325
841.838	3207
841.975	3131
842.112	3226
842.249	3055
842.385	3001
842.522	3279
842.659	3085
842.796	3024
842.933	3108
843.069	3055
843.206	3005
843.343	3180
843.479	3093
843.616	3138
843.752	2861
843.889	2838
844.025	3135
844.162	2887
844.298	3055
844.435	2941
844.571	2880
844.708	3047
844.844	3184
844.98	3218
845.117	3203
845.253	3024
845.389	3009
845.525	3119
845.661	3089
845.798	2975
845.934	3104
846.07	3066
846.206	3188
846.342	3310
846.478	3237
846.614	3100
846.75	3043
846.886	3009
847.022	3233
847.158	3104
847.294	3184
847.429	3245
847.565	3222
847.701	3504
847.837	3028
847.972	2998
848.108	3176
848.244	3146
848.379	2971
848.515	2902
848.65	2925
848.786	2956
848.921	2982
849.057	3100
849.192	3127
849.328	3055
849.463	3081
849.598	3036
849.734	3051
849.869	2941
850.004	2922
850.14	2986
850.275	2929
850.41	2849
850.545	2861
850.68	2933
850.815	2975
850.95	2960
851.085	3180
851.22	3085
851.355	3024
851.49	2933
851.625	3013
851.76	2990
851.895	2925
852.03	2895
852.165	3032
852.299	3093
852.434	3180
852.569	3165
852.703	3184
852.838	3195
852.973	3355
853.107	3306
853.242	3112
853.376	3085
853.511	2948
853.645	3039
853.78	3230
853.914	3112
854.048	3135
854.183	3085
854.317	3089
854.451	3245
854.585	3081
854.72	3039
854.854	3195
854.988	3036
855.122	3055
855.256	2971
855.39	3081
855.524	3230
855.658	3169
855.792	3131
855.926	3173
856.06	3230
856.194	3272
856.327	3127
856.461	3055
856.595	3081
856.729	3058
856.862	3226
856.996	3150
857.13	3173
857.263	3195
857.397	3275
857.53	3081
857.664	3203
857.797	3211
857.931	3214
858.064	3161
858.197	3222
858.331	3123
858.464	3089
858.597	3028
858.731	3104
858.864	3116
858.997	3093
859.13	3154
859.263	3176
859.396	3199
859.529	3119
859.662	3077
859.795	3058
859.928	3161
860.061	3272
860.194	3306
860.327	3146
860.46	3104
860.592	3245
860.725	3272
860.858	3291
860.99	3112
861.123	3062
861.256	3104
861.388	3161
861.521	3717
861.653	3055
861.786	3005
861.918	3020
862.05	3070
862.183	3138
862.315	3161
862.447	3272
862.58	3165
862.712	2967
862.844	2906
862.976	3066
863.108	3020
863.24	3287
863.372	2922
863.504	3047
863.636	3032
863.768	3062
863.9	3009
864.032	2948
864.164	2986
864.296	3036
864.428	3135
864.559	3146
864.691	3146
864.823	3093
864.954	3081
865.086	3085
865.217	3051
865.349	2971
865.48	3032
865.612	3036
865.743	3192
865.875	3039
866.006	2971
866.137	3036
866.269	2998
866.4	2975
866.531	2937
866.662	2948
866.793	2944
866.924	2948
867.055	2982
867.186	2952
867.317	2952
867.448	2880
867.579	2868
867.71	2891
867.841	2849
867.972	2956
868.103	2952
868.233	2956
868.364	2918
868.495	2925
868.625	3127
868.756	3188
868.886	2986
869.017	3097
869.147	3253
869.278	3184
869.408	3108
869.539	3047
869.669	3093
869.799	3104
869.929	3161
870.06	3146
870.19	3386
870.32	3329
870.45	3298
870.58	3431
870.71	3458
870.84	3443
870.97	3313
871.1	3233
871.23	3534
871.36	3481
871.489	3412
871.619	3401
871.749	3435
871.879	3504
872.008	3523
872.138	3401
872.267	3310
872.397	3195
872.526	3116
872.656	3070
872.785	3108
872.915	3283
873.044	3386
873.173	3272
873.303	3317
873.432	3260
873.561	3279
873.69	3214
873.819	3142
873.948	3203
874.077	3131
874.206	3039
874.335	3131
874.464	3272
874.593	3397
874.722	3249
874.851	3447
874.979	3359
875.108	3348
875.237	3222
875.365	3192
875.494	3222
875.623	3222
875.751	3108
875.88	3157
876.008	3249
876.136	3275
876.265	3454
876.393	3530
876.521	3473
876.65	3409
876.778	3393
876.906	3294
877.034	3237
877.162	3291
877.29	3211
877.418	3313
877.546	3279
877.674	3256
877.802	3260
877.93	3207
878.058	3222
878.185	3169
878.313	3249
878.441	3260
878.568	3089
878.696	3157
878.824	3256
878.951	3310
879.079	3469
879.206	3610
879.333	3466
879.461	3336
879.588	3389
879.715	3553
879.842	3625
879.97	3443
880.097	3192
880.224	3180
880.351	3233
880.478	3260
880.605	3199
880.732	3237
880.859	3530
880.986	3363
881.112	3359
881.239	3249
881.366	3154
881.493	3070
881.619	3066
881.746	3104
881.872	3154
881.999	3135
882.125	3173
882.252	3256
882.378	3344
882.505	3492
882.631	3321
882.757	3165
882.883	3253
883.01	3253
883.136	3214
883.262	3085
883.388	3142
883.514	3382
883.64	3397
883.766	3355
883.892	3199
884.018	3233
884.143	3435
884.269	3584
884.395	3268
884.52	3154
884.646	3237
884.772	3157
884.897	3176
885.023	3253
885.148	3397
885.274	3462
885.399	3401
885.524	3302
885.65	3325
885.775	3367
885.9	3355
886.025	3443
886.15	3409
886.275	3344
886.4	3264
886.525	3340
886.65	3321
886.775	3325
886.9	3538
887.025	3629
887.149	3473
887.274	3313
887.399	3222
887.523	3230
887.648	3211
887.773	3188
887.897	3378
888.021	3439
888.146	3329
888.27	3488
888.395	3504
888.519	3477
888.643	3511
888.767	3538
888.891	3340
889.015	3298
889.139	3317
889.263	3298
889.387	3439
889.511	3530
889.635	3450
889.759	3348
889.883	3325
890.006	3450
890.13	3553
890.254	3298
890.377	3393
890.501	3249
890.624	3211
890.748	3336
890.871	3207
890.995	3127
891.118	3104
891.241	3222
891.364	3264
891.488	3336
891.611	3230
891.734	3260
891.857	3321
891.98	3253
892.103	3363
892.226	3321
892.349	3249
892.471	3131
892.594	3268
892.717	3302
892.839	3336
892.962	3317
893.085	3382
893.207	3359
893.33	3195
893.452	3230
893.575	3386
893.697	3306
893.819	3481
893.941	3511
894.064	3488
894.186	3283
894.308	3268
894.43	3477
894.552	3587
894.674	3504
894.796	3298
894.918	3378
895.04	3317
895.161	3454
895.283	3424
895.405	3348
895.526	3370
895.648	3462
895.769	3447
895.891	3515
896.012	3519
896.134	3485
896.255	3454
896.376	3409
896.498	3393
896.619	3454
896.74	3367
896.861	3409
896.982	3717
897.103	3873
897.224	3614
897.345	3523
897.466	3450
897.587	3538
897.708	3648
897.828	3584
897.949	3469
898.07	3317
898.19	3443
898.311	3633
898.431	3466
898.552	3553
898.672	3603
898.792	3576
898.913	3580
899.033	3428
899.153	3294
899.273	3226
899.393	3313
899.513	3332
899.633	3348
899.753	3359
899.873	3393
899.993	3424
900.113	3382
900.232	3435
900.352	3351
900.472	3317
900.591	3226
900.711	3340
900.83	3253
900.95	3447
901.069	3511
901.189	3355
901.308	3211
901.427	3150
901.546	3214
901.665	3272
901.784	3367
901.904	3245
902.023	3199
902.141	3058
902.26	3024
902.379	3146
902.498	3119
902.617	3074
902.735	3222
902.854	3253
902.973	3226
903.091	3085
903.21	3112
903.328	3131
903.446	3154
903.565	3157
903.683	3203
903.801	3100
903.919	3291
904.038	3321
904.156	3154
904.274	3291
904.392	3298
904.51	3332
904.627	3340
904.745	3454
904.863	3500
904.981	3287
905.098	3176
905.216	3211
905.334	3279
905.451	3325
905.569	3310
905.686	3447
905.803	3458
905.921	3302
906.038	3488
906.155	3401
906.272	3310
906.389	3363
906.506	3237
906.623	3283
906.74	3325
906.857	3237
906.974	3275
907.091	3469
907.208	3603
907.324	3488
907.441	3401
907.557	3211
907.674	3245
907.79	3230
907.907	3317
908.023	3401
908.139	3428
908.256	3313
908.372	3401
908.488	3382
908.604	3287
908.72	3253
908.836	3378
908.952	3317
909.068	3374
909.184	3534
909.3	3439
909.415	3496
909.531	3500
909.647	3291
909.762	3313
909.878	3279
909.993	3374
910.108	3340
910.224	3348
910.339	3393
910.454	3325
910.57	3310
910.685	3222
910.8	3622
910.915	3542
911.03	3447
911.145	3294
911.259	3279
911.374	3283
911.489	3260
911.604	3275
911.718	3157
911.833	3138
911.947	3024
912.062	3001
912.176	3157
912.291	3184
912.405	3256
912.519	3469
912.633	3485
912.748	3351
912.862	3287
912.976	3169
913.09	3066
913.204	3154
913.318	3256
913.431	3340
913.545	3386
913.659	3409
913.772	3363
913.886	3207
914	3249
914.113	3389
914.226	3435
914.34	3370
914.453	3211
914.566	3386
914.68	3317
914.793	3306
914.906	3180
915.019	3142
915.132	3093
915.245	3207
915.358	3237
915.47	3249
915.583	3264
915.696	3355
915.809	3409
915.921	3454
916.034	3302
916.146	3253
916.259	3256
916.371	3450
916.483	3416
916.595	3298
916.708	3367
916.82	3348
916.932	3389
917.044	3336
917.156	3397
917.268	3302
917.38	3332
917.491	3283
917.603	3405
917.715	3454
917.826	3504
917.938	3409
918.049	3325
918.161	3405
918.272	3587
918.384	3606
918.495	3504
918.606	3332
918.717	3291
918.828	3420
918.939	3439
919.05	3306
919.161	3378
919.272	3192
919.383	3291
919.494	3454
919.604	3713
919.715	3511
919.826	3416
919.936	3473
920.047	3637
920.157	3534
920.267	3789
920.378	3622
920.488	3595
920.598	3827
920.708	3953
920.818	3850
920.928	3869
921.038	4029
921.148	3968
921.258	3743
921.368	3663
921.477	3622
921.587	3580
921.697	3477
921.806	3644
921.916	3504
922.025	3344
922.134	3405
922.244	3310
922.353	3420
922.462	3279
922.571	3279
922.68	3135
922.789	3089
922.898	3119
923.007	3142
923.116	3245
923.224	3180
923.333	3188
923.442	3085
923.55	3089
923.659	3135
923.767	3211
923.876	3157
923.984	3260
924.092	3116
924.201	3226
924.309	3253
924.417	3253
924.525	3230
924.633	3268
924.741	4219
924.849	3062
924.956	3317
925.064	3108
925.172	3047
925.279	3085
925.387	3249
925.494	3195
925.602	3386
925.709	3317
925.816	3184
925.924	3321
926.031	3389
926.138	3363
926.245	3374
926.352	3291
926.459	3397
926.566	3454
926.673	3321
926.779	3256
926.886	3275
926.993	3169
927.099	3161
927.206	3154
927.312	3142
927.419	3256
927.525	3207
927.631	3298
927.737	3154
927.843	3157
927.95	3051
928.056	3127
928.162	3214
928.267	3275
928.373	3876
928.479	3310
928.585	3097
928.69	3226
928.796	3279
928.901	3199
929.007	3055
929.112	3226
929.218	3260
929.323	3214
929.428	3180
929.533	3344
929.638	3173
929.743	3230
929.848	3306
929.953	3253
930.058	3173
930.163	3055
930.267	3108
930.372	3226
930.477	3081
930.581	3348
930.685	3245
930.79	3093
930.894	3131
930.998	3180
931.103	3348
931.207	3024
931.311	2998
931.415	2948
931.519	2838
931.623	2876
