Data from test_V78500241_1491.txt Node
Date: Fri Mar 25 16:25:31 CST 2022
User: usil
Spectrometer: V785-0024
Trigger mode: 0
Integration Time (sec): 4.000000E-1
Scans to average: 1
Nonlinearity correction enabled: false
Boxcar width: 0
Storing dark spectrum: false
XAxis mode: Wavelengths
Number of Pixels in Spectrum: 1024
>>>>>Begin Spectral Data<<<<<
801.071	2883
801.214	2941
801.356	2887
801.499	2883
801.641	2883
801.783	2941
801.926	3051
802.068	2982
802.211	2994
802.353	3013
802.496	2952
802.638	2975
802.78	3028
802.923	3062
803.065	2967
803.208	2895
803.35	2918
803.492	2929
803.635	2906
803.777	2773
803.919	2868
804.061	3192
804.204	2967
804.346	2918
804.488	2830
804.63	2982
804.773	2876
804.915	2918
805.057	3077
805.199	2895
805.341	2990
805.483	3055
805.626	2967
805.768	2948
805.91	3062
806.052	3119
806.194	3005
806.336	3237
806.478	3047
806.62	2963
806.762	2948
806.904	3085
807.046	3138
807.188	2986
807.33	2914
807.472	2986
807.614	2902
807.756	2982
807.898	2902
808.04	2845
808.182	2963
808.324	2979
808.465	2883
808.607	2887
808.749	2807
808.891	2853
809.033	3009
809.174	2967
809.316	2891
809.458	2895
809.6	2769
809.741	2788
809.883	2762
810.025	2826
810.166	2868
810.308	2834
810.45	2868
810.591	2766
810.733	2743
810.875	2815
811.016	2754
811.158	2762
811.299	2788
811.441	2872
811.582	2899
811.724	2811
811.865	2826
812.007	2902
812.148	2857
812.29	2849
812.431	2872
812.573	2944
812.714	2952
812.855	3013
812.997	3077
813.138	3135
813.279	3020
813.421	2990
813.562	2960
813.703	2864
813.845	2876
813.986	2724
814.127	2708
814.268	2804
814.41	2849
814.551	2804
814.692	2853
814.833	2796
814.974	2868
815.115	2925
815.256	2830
815.397	2857
815.539	2887
815.68	2800
815.821	2815
815.962	2914
816.103	2914
816.244	2891
816.385	2826
816.526	2967
816.666	2895
816.807	2739
816.948	2872
817.089	2906
817.23	2823
817.371	2758
817.512	2788
817.653	2830
817.793	2857
817.934	2857
818.075	2944
818.216	3005
818.356	3043
818.497	2880
818.638	2769
818.778	2807
818.919	2754
819.06	2773
819.2	2826
819.341	2804
819.481	2807
819.622	2929
819.762	3112
819.903	3047
820.043	2902
820.184	2899
820.324	2876
820.465	3047
820.605	3055
820.746	3074
820.886	2937
821.026	3100
821.167	3138
821.307	3268
821.447	3230
821.588	3230
821.728	3203
821.868	3199
822.008	3077
822.149	3180
822.289	3195
822.429	3104
822.569	3070
822.709	3169
822.849	3001
822.99	3085
823.13	3150
823.27	3176
823.41	3138
823.55	3161
823.69	3154
823.83	3169
823.97	3108
824.11	2982
824.25	3009
824.389	3047
824.529	3112
824.669	3070
824.809	3180
824.949	3275
825.089	3199
825.228	3131
825.368	2998
825.508	2929
825.648	2952
825.787	2998
825.927	2998
826.067	2975
826.206	2952
826.346	3043
826.485	3058
826.625	3123
826.765	3279
826.904	3176
827.044	3013
827.183	2952
827.323	2857
827.462	3001
827.601	2899
827.741	2910
827.88	2960
828.02	2845
828.159	2929
828.298	3062
828.437	3104
828.577	3051
828.716	3222
828.855	3081
828.994	2925
829.134	2853
829.273	2902
829.412	2849
829.551	2872
829.69	2891
829.829	3024
829.968	3123
830.107	3017
830.246	3017
830.385	2933
830.524	2918
830.663	2823
830.802	2705
830.941	2655
831.08	2663
831.219	2712
831.357	2766
831.496	2944
831.635	2716
831.774	2629
831.913	2640
832.051	2503
832.19	2552
832.329	2686
832.467	2526
832.606	2473
832.744	2575
832.883	2575
833.022	2587
833.16	2625
833.299	2678
833.437	2686
833.576	2670
833.714	2739
833.852	2735
833.991	2743
834.129	2811
834.267	2800
834.406	2739
834.544	2842
834.682	2845
834.821	2834
834.959	3051
835.097	2872
835.235	3036
835.373	3020
835.511	3020
835.65	2971
835.788	2971
835.926	2849
836.064	2773
836.202	2819
836.34	3097
836.478	3176
836.615	3051
836.753	3131
836.891	3188
837.029	3154
837.167	3085
837.305	3077
837.443	3028
837.58	2960
837.718	3154
837.856	3077
837.993	3005
838.131	3074
838.269	3081
838.406	3062
838.544	3081
838.681	2925
838.819	2914
838.956	2800
839.094	2838
839.231	2891
839.369	3047
839.506	3351
839.643	3169
839.781	2998
839.918	2956
840.055	3047
840.193	3024
840.33	3062
840.467	3070
840.604	3146
840.742	3370
840.879	3051
841.016	3043
841.153	3097
841.29	3336
841.427	3291
841.564	3233
841.701	3287
841.838	3249
841.975	3188
842.112	3199
842.249	3062
842.385	3032
842.522	3256
842.659	3089
842.796	3085
842.933	3089
843.069	3032
843.206	3028
843.343	3188
843.479	3089
843.616	3135
843.752	2906
843.889	2876
844.025	3085
844.162	2861
844.298	3055
844.435	2948
844.571	2906
844.708	3051
844.844	3157
844.98	3249
845.117	3184
845.253	3055
845.389	2982
845.525	3081
845.661	3081
845.798	2994
845.934	3108
846.07	3097
846.206	3192
846.342	3310
846.478	3211
846.614	3074
846.75	3043
846.886	3051
847.022	3180
847.158	3157
847.294	3218
847.429	3245
847.565	3214
847.701	3462
847.837	3020
847.972	2982
848.108	3165
848.244	3138
848.379	3009
848.515	2925
848.65	2914
848.786	2948
848.921	2990
849.057	3074
849.192	3180
849.328	3066
849.463	3154
849.598	3039
849.734	3028
849.869	2982
850.004	2941
850.14	2960
850.275	2937
850.41	2800
850.545	2857
850.68	2887
850.815	2956
850.95	2975
851.085	3214
851.22	3081
851.355	3024
851.49	2986
851.625	2979
851.76	3009
851.895	2906
852.03	2914
852.165	3036
852.299	3138
852.434	3169
852.569	3112
852.703	3165
852.838	3241
852.973	3351
853.107	3306
853.242	3146
853.376	3066
853.511	2956
853.645	3070
853.78	3253
853.914	3119
854.048	3100
854.183	3070
854.317	3131
854.451	3291
854.585	3081
854.72	3062
854.854	3214
854.988	3039
855.122	3081
855.256	2994
855.39	3131
855.524	3275
855.658	3176
855.792	3157
855.926	3165
856.06	3203
856.194	3287
856.327	3142
856.461	3104
856.595	3051
856.729	3077
856.862	3218
856.996	3150
857.13	3157
857.263	3165
857.397	3260
857.53	3131
857.664	3169
857.797	3207
857.931	3203
858.064	3173
858.197	3161
858.331	3127
858.464	3074
858.597	2979
858.731	3089
858.864	3123
858.997	3077
859.13	3138
859.263	3184
859.396	3188
859.529	3074
859.662	3093
859.795	3032
859.928	3127
860.061	3260
860.194	3287
860.327	3131
860.46	3100
860.592	3233
860.725	3233
860.858	3268
860.99	3135
861.123	3013
861.256	3058
861.388	3123
861.521	3869
861.653	3051
861.786	2979
861.918	2986
862.05	3051
862.183	3135
862.315	3165
862.447	3184
862.58	3104
862.712	2960
862.844	2872
862.976	2982
863.108	2975
863.24	3291
863.372	2883
863.504	2925
863.636	2929
863.768	3013
863.9	2967
864.032	2902
864.164	2960
864.296	2986
864.428	3081
864.559	3138
864.691	3051
864.823	3085
864.954	3001
865.086	3039
865.217	2960
865.349	2948
865.48	2963
865.612	3020
865.743	3150
865.875	2960
866.006	2963
866.137	2998
866.269	2952
866.4	2944
866.531	2922
866.662	2891
866.793	2929
866.924	2902
867.055	2948
867.186	2902
867.317	2857
867.448	2853
867.579	2804
867.71	2880
867.841	2830
867.972	2906
868.103	2922
868.233	2868
868.364	2864
868.495	2887
868.625	3055
868.756	3157
868.886	2914
869.017	3001
869.147	3157
869.278	3154
869.408	3017
869.539	3017
869.669	3146
869.799	3066
869.929	3097
870.06	3127
870.19	3302
870.32	3287
870.45	3287
870.58	3370
870.71	3450
870.84	3443
870.97	3325
871.1	3245
871.23	3481
871.36	3462
871.489	3351
871.619	3393
871.749	3389
871.879	3424
872.008	3443
872.138	3317
872.267	3214
872.397	3169
872.526	3047
872.656	2956
872.785	3074
872.915	3253
873.044	3306
873.173	3184
873.303	3233
873.432	3230
873.561	3226
873.69	3173
873.819	3108
873.948	3180
874.077	3127
874.206	3047
874.335	3074
874.464	3218
874.593	3325
874.722	3268
874.851	3412
874.979	3317
875.108	3348
875.237	3203
875.365	3116
875.494	3154
875.623	3268
875.751	3097
875.88	3138
876.008	3161
876.136	3253
876.265	3397
876.393	3515
876.521	3363
876.65	3447
876.778	3317
876.906	3272
877.034	3184
877.162	3150
877.29	3214
877.418	3283
877.546	3237
877.674	3241
877.802	3222
877.93	3230
878.058	3161
878.185	3119
878.313	3173
878.441	3199
878.568	3058
878.696	3169
878.824	3218
878.951	3329
879.079	3420
879.206	3637
879.333	3443
879.461	3310
879.588	3363
879.715	3485
879.842	3618
879.97	3424
880.097	3150
880.224	3108
880.351	3203
880.478	3195
880.605	3222
880.732	3176
880.859	3481
880.986	3298
881.112	3317
881.239	3184
881.366	3070
881.493	3058
881.619	3013
881.746	3055
881.872	3070
881.999	3093
882.125	3154
882.252	3249
882.378	3287
882.505	3428
882.631	3272
882.757	3161
882.883	3203
883.01	3222
883.136	3138
883.262	3093
883.388	3104
883.514	3313
883.64	3367
883.766	3329
883.892	3176
884.018	3253
884.143	3374
884.269	3561
884.395	3192
884.52	3142
884.646	3180
884.772	3131
884.897	3123
885.023	3199
885.148	3306
885.274	3458
885.399	3359
885.524	3287
885.65	3283
885.775	3310
885.9	3253
886.025	3412
886.15	3348
886.275	3294
886.4	3199
886.525	3272
886.65	3253
886.775	3298
886.9	3504
887.025	3648
887.149	3374
887.274	3253
887.399	3211
887.523	3195
887.648	3169
887.773	3199
887.897	3378
888.021	3386
888.146	3298
888.27	3447
888.395	3545
888.519	3382
888.643	3450
888.767	3447
888.891	3272
889.015	3237
889.139	3256
889.263	3260
889.387	3431
889.511	3500
889.635	3450
889.759	3317
889.883	3275
890.006	3393
890.13	3462
890.254	3298
890.377	3336
890.501	3195
890.624	3165
890.748	3329
890.871	3119
890.995	3119
891.118	3047
891.241	3138
891.364	3230
891.488	3306
891.611	3165
891.734	3199
891.857	3268
891.98	3260
892.103	3348
892.226	3253
892.349	3207
892.471	3131
892.594	3192
892.717	3275
892.839	3291
892.962	3302
893.085	3382
893.207	3283
893.33	3150
893.452	3237
893.575	3382
893.697	3253
893.819	3450
893.941	3504
894.064	3420
894.186	3325
894.308	3306
894.43	3477
894.552	3504
894.674	3450
894.796	3275
894.918	3310
895.04	3272
895.161	3386
895.283	3389
895.405	3310
895.526	3393
895.648	3409
895.769	3431
895.891	3454
896.012	3443
896.134	3454
896.255	3416
896.376	3378
896.498	3310
896.619	3447
896.74	3344
896.861	3405
896.982	3732
897.103	3812
897.224	3549
897.345	3572
897.466	3424
897.587	3500
897.708	3614
897.828	3557
897.949	3469
898.07	3325
898.19	3416
898.311	3606
898.431	3447
898.552	3496
898.672	3603
898.792	3576
898.913	3515
899.033	3424
899.153	3283
899.273	3207
899.393	3279
899.513	3275
899.633	3317
899.753	3310
899.873	3325
899.993	3412
900.113	3325
900.232	3363
900.352	3332
900.472	3283
900.591	3218
900.711	3325
900.83	3192
900.95	3370
901.069	3485
901.189	3351
901.308	3127
901.427	3131
901.546	3184
901.665	3275
901.784	3344
901.904	3203
902.023	3150
902.141	3005
902.26	3013
902.379	3173
902.498	3077
902.617	3077
902.735	3214
902.854	3218
902.973	3211
903.091	3028
903.21	3047
903.328	3116
903.446	3112
903.565	3100
903.683	3207
903.801	3116
903.919	3237
904.038	3264
904.156	3138
904.274	3256
904.392	3275
904.51	3306
904.627	3287
904.745	3485
904.863	3492
904.981	3268
905.098	3180
905.216	3233
905.334	3302
905.451	3344
905.569	3302
905.686	3397
905.803	3443
905.921	3306
906.038	3443
906.155	3355
906.272	3245
906.389	3291
906.506	3237
906.623	3230
906.74	3272
906.857	3161
906.974	3291
907.091	3447
907.208	3561
907.324	3473
907.441	3420
907.557	3256
907.674	3245
907.79	3260
907.907	3302
908.023	3397
908.139	3351
908.256	3336
908.372	3336
908.488	3325
908.604	3226
908.72	3245
908.836	3310
908.952	3325
909.068	3317
909.184	3462
909.3	3393
909.415	3462
909.531	3496
909.647	3249
909.762	3253
909.878	3233
909.993	3378
910.108	3329
910.224	3359
910.339	3374
910.454	3374
910.57	3313
910.685	3230
910.8	3580
910.915	3534
911.03	3393
911.145	3237
911.259	3283
911.374	3313
911.489	3264
911.604	3264
911.718	3119
911.833	3154
911.947	3036
912.062	2979
912.176	3146
912.291	3180
912.405	3233
912.519	3412
912.633	3488
912.748	3329
912.862	3264
912.976	3176
913.09	3039
913.204	3135
913.318	3222
913.431	3359
913.545	3344
913.659	3420
913.772	3306
913.886	3184
914	3180
914.113	3329
914.226	3389
914.34	3382
914.453	3192
914.566	3393
914.68	3306
914.793	3294
914.906	3135
915.019	3093
915.132	3081
915.245	3214
915.358	3188
915.47	3230
915.583	3264
915.696	3310
915.809	3424
915.921	3420
916.034	3272
916.146	3237
916.259	3207
916.371	3363
916.483	3359
916.595	3237
916.708	3348
916.82	3310
916.932	3348
917.044	3336
917.156	3359
917.268	3260
917.38	3264
917.491	3332
917.603	3351
917.715	3412
917.826	3466
917.938	3351
918.049	3237
918.161	3428
918.272	3542
918.384	3557
918.495	3507
918.606	3351
918.717	3283
918.828	3386
918.939	3409
919.05	3313
919.161	3374
919.272	3173
919.383	3279
919.494	3462
919.604	3671
919.715	3485
919.826	3431
919.936	3519
920.047	3595
920.157	3542
920.267	3778
920.378	3591
920.488	3610
920.598	3740
920.708	3941
920.818	3816
920.928	3816
921.038	3994
921.148	3953
921.258	3694
921.368	3603
921.477	3584
921.587	3561
921.697	3473
921.806	3648
921.916	3515
922.025	3317
922.134	3386
922.244	3302
922.353	3374
922.462	3241
922.571	3222
922.68	3108
922.789	3055
922.898	3184
923.007	3081
923.116	3226
923.224	3154
923.333	3207
923.442	3085
923.55	3127
923.659	3157
923.767	3214
923.876	3097
923.984	3214
924.092	3104
924.201	3180
924.309	3226
924.417	3245
924.525	3192
924.633	3253
924.741	4158
924.849	3028
924.956	3264
925.064	3097
925.172	3070
925.279	3077
925.387	3192
925.494	3192
925.602	3329
925.709	3351
925.816	3199
925.924	3268
926.031	3386
926.138	3336
926.245	3370
926.352	3268
926.459	3389
926.566	3443
926.673	3329
926.779	3207
926.886	3256
926.993	3116
927.099	3150
927.206	3112
927.312	3123
927.419	3241
927.525	3195
927.631	3268
927.737	3131
927.843	3123
927.95	2990
928.056	3127
928.162	3184
928.267	3218
928.373	3766
928.479	3313
928.585	3097
928.69	3195
928.796	3249
928.901	3150
929.007	3013
929.112	3180
929.218	3195
929.323	3142
929.428	3119
929.533	3294
929.638	3119
929.743	3135
929.848	3256
929.953	3230
930.058	3161
930.163	2979
930.267	3043
930.372	3188
930.477	3051
930.581	3313
930.685	3199
930.79	3047
930.894	3154
930.998	3093
931.103	3268
931.207	2994
931.311	2910
931.415	2956
931.519	2800
931.623	2788
