Data from test_V78500241_1838.txt Node
Date: Fri Mar 25 16:27:56 CST 2022
User: usil
Spectrometer: V785-0024
Trigger mode: 0
Integration Time (sec): 4.000000E-1
Scans to average: 1
Nonlinearity correction enabled: false
Boxcar width: 0
Storing dark spectrum: false
XAxis mode: Wavelengths
Number of Pixels in Spectrum: 1024
>>>>>Begin Spectral Data<<<<<
801.071	2883
801.214	2967
801.356	2872
801.499	2914
801.641	2853
801.783	2880
801.926	3020
802.068	2982
802.211	2990
802.353	3039
802.496	2982
802.638	3005
802.78	3009
802.923	3066
803.065	2994
803.208	2872
803.35	2933
803.492	2956
803.635	2887
803.777	2746
803.919	2857
804.061	3230
804.204	2937
804.346	2868
804.488	2830
804.63	2956
804.773	2853
804.915	2933
805.057	3058
805.199	2952
805.341	2975
805.483	2982
805.626	2998
805.768	2956
805.91	3074
806.052	3138
806.194	3077
806.336	3218
806.478	3013
806.62	2979
806.762	2979
806.904	3032
807.046	3123
807.188	2948
807.33	2857
807.472	2994
807.614	2925
807.756	2982
807.898	2937
808.04	2906
808.182	2967
808.324	2941
808.465	2853
808.607	2883
808.749	2811
808.891	2823
809.033	2937
809.174	2944
809.316	2910
809.458	2922
809.6	2769
809.741	2769
809.883	2739
810.025	2823
810.166	2845
810.308	2819
810.45	2868
810.591	2743
810.733	2758
810.875	2819
811.016	2758
811.158	2762
811.299	2815
811.441	2944
811.582	2895
811.724	2804
811.865	2830
812.007	2876
812.148	2914
812.29	2842
812.431	2887
812.573	2937
812.714	2971
812.855	3024
812.997	3051
813.138	3108
813.279	3009
813.421	2967
813.562	2948
813.703	2857
813.845	2883
813.986	2781
814.127	2720
814.268	2819
814.41	2842
814.551	2830
814.692	2845
814.833	2804
814.974	2872
815.115	2944
815.256	2826
815.397	2807
815.539	2864
815.68	2769
815.821	2800
815.962	2971
816.103	2906
816.244	2883
816.385	2864
816.526	2960
816.666	2887
816.807	2766
816.948	2902
817.089	2891
817.23	2849
817.371	2762
817.512	2792
817.653	2834
817.793	2804
817.934	2876
818.075	2971
818.216	2990
818.356	3047
818.497	2899
818.638	2811
818.778	2807
818.919	2807
819.06	2712
819.2	2906
819.341	2796
819.481	2788
819.622	2929
819.762	3104
819.903	3028
820.043	2956
820.184	2925
820.324	2887
820.465	3013
820.605	2990
820.746	3005
820.886	2910
821.026	3077
821.167	3142
821.307	3268
821.447	3287
821.588	3218
821.728	3218
821.868	3176
822.008	3077
822.149	3184
822.289	3218
822.429	3051
822.569	3039
822.709	3138
822.849	3013
822.99	3070
823.13	3161
823.27	3214
823.41	3116
823.55	3173
823.69	3146
823.83	3203
823.97	3100
824.11	2982
824.25	2979
824.389	3036
824.529	3116
824.669	3051
824.809	3161
824.949	3268
825.089	3226
825.228	3188
825.368	2979
825.508	2944
825.648	2979
825.787	2998
825.927	2982
826.067	2979
826.206	2910
826.346	3017
826.485	3077
826.625	3127
826.765	3264
826.904	3169
827.044	2986
827.183	2975
827.323	2861
827.462	2960
827.601	2956
827.741	2933
827.88	2986
828.02	2876
828.159	2986
828.298	3024
828.437	3039
828.577	3047
828.716	3214
828.855	3055
828.994	2902
829.134	2861
829.273	2914
829.412	2842
829.551	2842
829.69	2902
829.829	2967
829.968	3146
830.107	2990
830.246	3020
830.385	2918
830.524	2868
830.663	2815
830.802	2724
830.941	2651
831.08	2629
831.219	2773
831.357	2754
831.496	2982
831.635	2724
831.774	2651
831.913	2651
832.051	2530
832.19	2590
832.329	2682
832.467	2518
832.606	2442
832.744	2541
832.883	2575
833.022	2575
833.16	2636
833.299	2667
833.437	2674
833.576	2682
833.714	2678
833.852	2731
833.991	2735
834.129	2792
834.267	2796
834.406	2785
834.544	2872
834.682	2868
834.821	2826
834.959	3036
835.097	2880
835.235	3055
835.373	2963
835.511	3005
835.65	2944
835.788	2899
835.926	2815
836.064	2830
836.202	2853
836.34	3089
836.478	3154
836.615	3024
836.753	3131
836.891	3199
837.029	3165
837.167	3108
837.305	3074
837.443	3032
837.58	2963
837.718	3135
837.856	3066
837.993	3020
838.131	3108
838.269	3081
838.406	3093
838.544	3085
838.681	2971
838.819	2895
838.956	2819
839.094	2823
839.231	2922
839.369	3005
839.506	3359
839.643	3184
839.781	3005
839.918	2975
840.055	3051
840.193	3058
840.33	3043
840.467	3089
840.604	3161
840.742	3431
840.879	3009
841.016	3043
841.153	3146
841.29	3348
841.427	3291
841.564	3253
841.701	3275
841.838	3218
841.975	3154
842.112	3207
842.249	3085
842.385	3039
842.522	3268
842.659	3070
842.796	3077
842.933	3047
843.069	3047
843.206	3036
843.343	3184
843.479	3112
843.616	3142
843.752	2899
843.889	2842
844.025	3058
844.162	2883
844.298	3058
844.435	2956
844.571	2887
844.708	3077
844.844	3173
844.98	3226
845.117	3199
845.253	3055
845.389	2986
845.525	3119
845.661	3074
845.798	3020
845.934	3157
846.07	3058
846.206	3214
846.342	3321
846.478	3207
846.614	3097
846.75	3028
846.886	3028
847.022	3241
847.158	3085
847.294	3214
847.429	3199
847.565	3184
847.701	3450
847.837	3020
847.972	2994
848.108	3195
848.244	3154
848.379	2960
848.515	2906
848.65	2925
848.786	2982
848.921	2990
849.057	3066
849.192	3127
849.328	3062
849.463	3108
849.598	3055
849.734	3055
849.869	2975
850.004	2929
850.14	2929
850.275	2925
850.41	2864
850.545	2895
850.68	2944
850.815	2910
850.95	2944
851.085	3173
851.22	3100
851.355	3013
851.49	2982
851.625	2975
851.76	3017
851.895	2948
852.03	2929
852.165	3055
852.299	3108
852.434	3150
852.569	3161
852.703	3195
852.838	3272
852.973	3302
853.107	3340
853.242	3157
853.376	3089
853.511	2971
853.645	3062
853.78	3249
853.914	3081
854.048	3089
854.183	3077
854.317	3142
854.451	3302
854.585	3146
854.72	3062
854.854	3176
854.988	3043
855.122	3066
855.256	2967
855.39	3077
855.524	3222
855.658	3131
855.792	3146
855.926	3203
856.06	3230
856.194	3237
856.327	3131
856.461	3070
856.595	3070
856.729	3116
856.862	3226
856.996	3173
857.13	3150
857.263	3233
857.397	3264
857.53	3081
857.664	3146
857.797	3260
857.931	3256
858.064	3150
858.197	3218
858.331	3112
858.464	3081
858.597	3009
858.731	3135
858.864	3138
858.997	3039
859.13	3176
859.263	3180
859.396	3176
859.529	3066
859.662	3066
859.795	3039
859.928	3119
860.061	3272
860.194	3260
860.327	3131
860.46	3097
860.592	3226
860.725	3249
860.858	3241
860.99	3116
861.123	3043
861.256	3043
861.388	3135
861.521	3804
861.653	2975
861.786	3017
861.918	2994
862.05	3077
862.183	3089
862.315	3135
862.447	3184
862.58	3089
862.712	2922
862.844	2872
862.976	3013
863.108	2986
863.24	3412
863.372	2887
863.504	2929
863.636	2948
863.768	3024
863.9	3020
864.032	2902
864.164	2933
864.296	2998
864.428	3104
864.559	3070
864.691	3074
864.823	3077
864.954	3028
865.086	3039
865.217	3005
865.349	2960
865.48	2986
865.612	3028
865.743	3161
865.875	2994
866.006	2944
866.137	2990
866.269	2952
866.4	2941
866.531	2922
866.662	2861
866.793	2902
866.924	2914
867.055	2929
867.186	2876
867.317	2887
867.448	2834
867.579	2849
867.71	2845
867.841	2807
867.972	2887
868.103	2880
868.233	2895
868.364	2868
868.495	2937
868.625	3058
868.756	3169
868.886	2960
869.017	2990
869.147	3169
869.278	3173
869.408	3017
869.539	3005
869.669	3123
869.799	3062
869.929	3093
870.06	3081
870.19	3294
870.32	3249
870.45	3291
870.58	3329
870.71	3424
870.84	3439
870.97	3287
871.1	3214
871.23	3488
871.36	3439
871.489	3359
871.619	3378
871.749	3374
871.879	3412
872.008	3473
872.138	3386
872.267	3272
872.397	3169
872.526	3119
872.656	3028
872.785	3062
872.915	3249
873.044	3306
873.173	3184
873.303	3253
873.432	3272
873.561	3245
873.69	3161
873.819	3123
873.948	3173
874.077	3108
874.206	3055
874.335	3077
874.464	3222
874.593	3348
874.722	3226
874.851	3389
874.979	3332
875.108	3310
875.237	3176
875.365	3157
875.494	3173
875.623	3256
875.751	3112
875.88	3142
876.008	3211
876.136	3211
876.265	3340
876.393	3511
876.521	3397
876.65	3370
876.778	3340
876.906	3245
877.034	3195
877.162	3222
877.29	3188
877.418	3230
877.546	3253
877.674	3275
877.802	3207
877.93	3237
878.058	3150
878.185	3077
878.313	3195
878.441	3199
878.568	3039
878.696	3142
878.824	3207
878.951	3321
879.079	3462
879.206	3652
879.333	3439
879.461	3332
879.588	3355
879.715	3492
879.842	3618
879.97	3351
880.097	3142
880.224	3146
880.351	3207
880.478	3169
880.605	3188
880.732	3173
880.859	3477
880.986	3313
881.112	3287
881.239	3184
881.366	3089
881.493	3058
881.619	3013
881.746	3058
881.872	3047
881.999	3119
882.125	3138
882.252	3207
882.378	3268
882.505	3405
882.631	3279
882.757	3123
882.883	3199
883.01	3214
883.136	3150
883.262	3066
883.388	3108
883.514	3336
883.64	3378
883.766	3325
883.892	3218
884.018	3226
884.143	3416
884.269	3568
884.395	3203
884.52	3188
884.646	3184
884.772	3127
884.897	3100
885.023	3161
885.148	3302
885.274	3389
885.399	3370
885.524	3264
885.65	3245
885.775	3313
885.9	3291
886.025	3450
886.15	3306
886.275	3370
886.4	3241
886.525	3253
886.65	3275
886.775	3279
886.9	3496
887.025	3660
887.149	3409
887.274	3260
887.399	3188
887.523	3203
887.648	3207
887.773	3165
887.897	3370
888.021	3424
888.146	3294
888.27	3458
888.395	3557
888.519	3424
888.643	3458
888.767	3473
888.891	3275
889.015	3233
889.139	3237
889.263	3180
889.387	3382
889.511	3477
889.635	3473
889.759	3306
889.883	3306
890.006	3401
890.13	3454
890.254	3264
890.377	3329
890.501	3226
890.624	3173
890.748	3253
890.871	3192
890.995	3047
891.118	3024
891.241	3230
891.364	3222
891.488	3329
891.611	3161
891.734	3218
891.857	3260
891.98	3237
892.103	3336
892.226	3287
892.349	3214
892.471	3100
892.594	3264
892.717	3275
892.839	3222
892.962	3310
893.085	3348
893.207	3317
893.33	3154
893.452	3203
893.575	3340
893.697	3218
893.819	3466
893.941	3488
894.064	3435
894.186	3283
894.308	3264
894.43	3412
894.552	3549
894.674	3428
894.796	3279
894.918	3279
895.04	3279
895.161	3428
895.283	3424
895.405	3321
895.526	3348
895.648	3409
895.769	3405
895.891	3458
896.012	3454
896.134	3458
896.255	3397
896.376	3389
896.498	3336
896.619	3447
896.74	3393
896.861	3370
896.982	3686
897.103	3842
897.224	3606
897.345	3496
897.466	3405
897.587	3488
897.708	3599
897.828	3542
897.949	3477
898.07	3340
898.19	3401
898.311	3591
898.431	3473
898.552	3496
898.672	3572
898.792	3515
898.913	3526
899.033	3424
899.153	3264
899.273	3218
899.393	3294
899.513	3348
899.633	3332
899.753	3321
899.873	3306
899.993	3389
900.113	3283
900.232	3355
900.352	3344
900.472	3298
900.591	3131
900.711	3298
900.83	3245
900.95	3412
901.069	3458
901.189	3344
901.308	3169
901.427	3097
901.546	3218
901.665	3302
901.784	3336
901.904	3199
902.023	3173
902.141	3028
902.26	3020
902.379	3169
902.498	3055
902.617	3093
902.735	3253
902.854	3218
902.973	3188
903.091	3032
903.21	3062
903.328	3150
903.446	3131
903.565	3119
903.683	3226
903.801	3138
903.919	3211
904.038	3294
904.156	3131
904.274	3268
904.392	3230
904.51	3272
904.627	3351
904.745	3435
904.863	3481
904.981	3249
905.098	3180
905.216	3218
905.334	3306
905.451	3272
905.569	3302
905.686	3428
905.803	3431
905.921	3306
906.038	3435
906.155	3310
906.272	3253
906.389	3317
906.506	3260
906.623	3211
906.74	3287
906.857	3161
906.974	3230
907.091	3412
907.208	3549
907.324	3469
907.441	3344
907.557	3230
907.674	3218
907.79	3237
907.907	3268
908.023	3359
908.139	3401
908.256	3306
908.372	3378
908.488	3363
908.604	3218
908.72	3249
908.836	3268
908.952	3272
909.068	3351
909.184	3469
909.3	3409
909.415	3504
909.531	3511
909.647	3241
909.762	3233
909.878	3214
909.993	3397
910.108	3340
910.224	3355
910.339	3424
910.454	3351
910.57	3302
910.685	3207
910.8	3591
910.915	3530
911.03	3450
911.145	3279
911.259	3256
911.374	3325
911.489	3211
911.604	3199
911.718	3123
911.833	3123
911.947	3024
912.062	2960
912.176	3165
912.291	3207
912.405	3180
912.519	3431
912.633	3473
912.748	3336
912.862	3245
912.976	3176
913.09	3077
913.204	3165
913.318	3226
913.431	3329
913.545	3321
913.659	3389
913.772	3351
913.886	3218
914	3169
914.113	3325
914.226	3428
914.34	3405
914.453	3173
914.566	3420
914.68	3275
914.793	3321
914.906	3116
915.019	3119
915.132	3062
915.245	3203
915.358	3192
915.47	3237
915.583	3253
915.696	3291
915.809	3431
915.921	3393
916.034	3260
916.146	3230
916.259	3226
916.371	3374
916.483	3355
916.595	3264
916.708	3344
916.82	3329
916.932	3325
917.044	3344
917.156	3351
917.268	3272
917.38	3344
917.491	3283
917.603	3374
917.715	3443
917.826	3454
917.938	3374
918.049	3291
918.161	3416
918.272	3557
918.384	3564
918.495	3447
918.606	3329
918.717	3283
918.828	3386
918.939	3428
919.05	3321
919.161	3374
919.272	3226
919.383	3268
919.494	3485
919.604	3675
919.715	3435
919.826	3405
919.936	3485
920.047	3568
920.157	3568
920.267	3759
920.378	3603
920.488	3557
920.598	3766
920.708	3930
920.818	3812
920.928	3819
921.038	3998
921.148	4021
921.258	3705
921.368	3614
921.477	3538
921.587	3534
921.697	3477
921.806	3637
921.916	3530
922.025	3370
922.134	3359
922.244	3298
922.353	3389
922.462	3260
922.571	3226
922.68	3085
922.789	3089
922.898	3146
923.007	3100
923.116	3218
923.224	3131
923.333	3184
923.442	3119
923.55	3119
923.659	3142
923.767	3218
923.876	3173
923.984	3233
924.092	3081
924.201	3192
924.309	3203
924.417	3245
924.525	3192
924.633	3260
924.741	4162
924.849	3043
924.956	3287
925.064	3100
925.172	3024
925.279	3077
925.387	3184
925.494	3211
925.602	3359
925.709	3340
925.816	3195
925.924	3287
926.031	3363
926.138	3317
926.245	3351
926.352	3264
926.459	3393
926.566	3485
926.673	3317
926.779	3233
926.886	3272
926.993	3176
927.099	3116
927.206	3119
927.312	3123
927.419	3226
927.525	3195
927.631	3287
927.737	3146
927.843	3112
927.95	3055
928.056	3112
928.162	3142
928.267	3298
928.373	3793
928.479	3302
928.585	3062
928.69	3203
928.796	3298
928.901	3108
929.007	3047
929.112	3195
929.218	3157
929.323	3161
929.428	3123
929.533	3310
929.638	3138
929.743	3184
929.848	3279
929.953	3199
930.058	3154
930.163	2994
930.267	3062
930.372	3188
930.477	3055
930.581	3294
930.685	3192
930.79	3055
930.894	3097
930.998	3074
931.103	3279
931.207	2971
931.311	2914
931.415	2910
931.519	2773
931.623	2777
