Data from test_V78500241_1499.txt Node
Date: Fri Mar 25 16:25:35 CST 2022
User: usil
Spectrometer: V785-0024
Trigger mode: 0
Integration Time (sec): 4.000000E-1
Scans to average: 1
Nonlinearity correction enabled: false
Boxcar width: 0
Storing dark spectrum: false
XAxis mode: Wavelengths
Number of Pixels in Spectrum: 1024
>>>>>Begin Spectral Data<<<<<
801.071	2929
801.214	2918
801.356	2887
801.499	2891
801.641	2883
801.783	2902
801.926	3058
802.068	2971
802.211	3047
802.353	3058
802.496	2967
802.638	3009
802.78	3020
802.923	3043
803.065	2998
803.208	2906
803.35	2944
803.492	2910
803.635	2887
803.777	2762
803.919	2857
804.061	3173
804.204	2922
804.346	2906
804.488	2796
804.63	2979
804.773	2887
804.915	2906
805.057	3081
805.199	2899
805.341	3001
805.483	3074
805.626	3039
805.768	2918
805.91	3097
806.052	3112
806.194	3017
806.336	3214
806.478	3047
806.62	2941
806.762	2960
806.904	3062
807.046	3146
807.188	2963
807.33	2922
807.472	2975
807.614	2910
807.756	3017
807.898	2914
808.04	2922
808.182	2944
808.324	2948
808.465	2902
808.607	2895
808.749	2804
808.891	2823
809.033	2963
809.174	2952
809.316	2868
809.458	2853
809.6	2788
809.741	2766
809.883	2762
810.025	2857
810.166	2857
810.308	2815
810.45	2845
810.591	2804
810.733	2769
810.875	2826
811.016	2804
811.158	2739
811.299	2804
811.441	2876
811.582	2876
811.724	2842
811.865	2823
812.007	2902
812.148	2864
812.29	2830
812.431	2872
812.573	2902
812.714	2963
812.855	3013
812.997	3013
813.138	3123
813.279	3020
813.421	2979
813.562	2918
813.703	2868
813.845	2906
813.986	2788
814.127	2727
814.268	2792
814.41	2857
814.551	2777
814.692	2868
814.833	2804
814.974	2868
815.115	2937
815.256	2842
815.397	2807
815.539	2842
815.68	2754
815.821	2800
815.962	2944
816.103	2906
816.244	2880
816.385	2872
816.526	2979
816.666	2906
816.807	2724
816.948	2880
817.089	2925
817.23	2868
817.371	2819
817.512	2804
817.653	2815
817.793	2849
817.934	2876
818.075	2952
818.216	2952
818.356	3001
818.497	2899
818.638	2800
818.778	2769
818.919	2792
819.06	2739
819.2	2876
819.341	2804
819.481	2796
819.622	2891
819.762	3097
819.903	3047
820.043	2887
820.184	2883
820.324	2914
820.465	3009
820.605	3013
820.746	3039
820.886	2944
821.026	3104
821.167	3176
821.307	3249
821.447	3226
821.588	3218
821.728	3207
821.868	3173
822.008	3093
822.149	3154
822.289	3253
822.429	3055
822.569	3074
822.709	3184
822.849	3013
822.99	3089
823.13	3161
823.27	3211
823.41	3081
823.55	3165
823.69	3203
823.83	3195
823.97	3100
824.11	2986
824.25	2975
824.389	3032
824.529	3116
824.669	3093
824.809	3188
824.949	3260
825.089	3256
825.228	3150
825.368	2979
825.508	2918
825.648	2956
825.787	3020
825.927	3020
826.067	2948
826.206	2960
826.346	3028
826.485	3081
826.625	3074
826.765	3253
826.904	3192
827.044	3039
827.183	2948
827.323	2815
827.462	3001
827.601	2891
827.741	2937
827.88	2960
828.02	2849
828.159	2933
828.298	3055
828.437	3077
828.577	3028
828.716	3245
828.855	3089
828.994	2933
829.134	2880
829.273	2937
829.412	2880
829.551	2872
829.69	2925
829.829	2948
829.968	3123
830.107	2971
830.246	3013
830.385	2944
830.524	2864
830.663	2785
830.802	2758
830.941	2651
831.08	2636
831.219	2754
831.357	2743
831.496	2948
831.635	2689
831.774	2644
831.913	2655
832.051	2541
832.19	2545
832.329	2697
832.467	2537
832.606	2473
832.744	2583
832.883	2590
833.022	2598
833.16	2613
833.299	2705
833.437	2670
833.576	2670
833.714	2724
833.852	2712
833.991	2762
834.129	2819
834.267	2861
834.406	2815
834.544	2857
834.682	2845
834.821	2880
834.959	3028
835.097	2899
835.235	3074
835.373	2971
835.511	3039
835.65	2948
835.788	2925
835.926	2842
836.064	2811
836.202	2857
836.34	3089
836.478	3173
836.615	3024
836.753	3131
836.891	3222
837.029	3138
837.167	3093
837.305	3074
837.443	3055
837.58	2929
837.718	3093
837.856	3036
837.993	3039
838.131	3138
838.269	3127
838.406	3112
838.544	3070
838.681	2925
838.819	2906
838.956	2826
839.094	2834
839.231	2868
839.369	3032
839.506	3409
839.643	3188
839.781	3028
839.918	2952
840.055	3047
840.193	3039
840.33	3058
840.467	3058
840.604	3135
840.742	3401
840.879	3024
841.016	3036
841.153	3112
841.29	3351
841.427	3317
841.564	3272
841.701	3310
841.838	3218
841.975	3161
842.112	3176
842.249	3058
842.385	3055
842.522	3253
842.659	3085
842.796	3108
842.933	3093
843.069	3055
843.206	3081
843.343	3188
843.479	3119
843.616	3127
843.752	2887
843.889	2861
844.025	3093
844.162	2876
844.298	3047
844.435	2948
844.571	2933
844.708	3074
844.844	3207
844.98	3222
845.117	3173
845.253	3013
845.389	2971
845.525	3062
845.661	3066
845.798	3005
845.934	3093
846.07	3020
846.206	3214
846.342	3336
846.478	3214
846.614	3047
846.75	3058
846.886	2994
847.022	3203
847.158	3089
847.294	3199
847.429	3283
847.565	3169
847.701	3481
847.837	3047
847.972	3017
848.108	3161
848.244	3165
848.379	3001
848.515	2944
848.65	2891
848.786	2944
848.921	3001
849.057	3089
849.192	3146
849.328	3051
849.463	3135
849.598	3062
849.734	3005
849.869	2967
850.004	2910
850.14	2979
850.275	2941
850.41	2811
850.545	2853
850.68	2929
850.815	2960
850.95	2956
851.085	3173
851.22	3097
851.355	3028
851.49	2967
851.625	2963
851.76	3001
851.895	2967
852.03	2922
852.165	3028
852.299	3119
852.434	3161
852.569	3165
852.703	3199
852.838	3222
852.973	3336
853.107	3317
853.242	3154
853.376	3108
853.511	2941
853.645	3009
853.78	3233
853.914	3074
854.048	3108
854.183	3097
854.317	3165
854.451	3291
854.585	3093
854.72	3085
854.854	3226
854.988	3066
855.122	3093
855.256	2960
855.39	3119
855.524	3230
855.658	3184
855.792	3138
855.926	3203
856.06	3245
856.194	3260
856.327	3176
856.461	3055
856.595	3097
856.729	3039
856.862	3218
856.996	3188
857.13	3214
857.263	3218
857.397	3272
857.53	3127
857.664	3195
857.797	3226
857.931	3253
858.064	3161
858.197	3207
858.331	3112
858.464	3085
858.597	3005
858.731	3123
858.864	3119
858.997	3074
859.13	3154
859.263	3127
859.396	3176
859.529	3108
859.662	3097
859.795	3024
859.928	3150
860.061	3283
860.194	3268
860.327	3116
860.46	3062
860.592	3249
860.725	3214
860.858	3253
860.99	3081
861.123	3043
861.256	3047
861.388	3127
861.521	3804
861.653	3020
861.786	3001
861.918	2944
862.05	3093
862.183	3097
862.315	3146
862.447	3180
862.58	3070
862.712	2922
862.844	2857
862.976	3032
863.108	2982
863.24	3359
863.372	2861
863.504	2963
863.636	2956
863.768	2998
863.9	2944
864.032	2891
864.164	2937
864.296	3020
864.428	3077
864.559	3081
864.691	3051
864.823	3070
864.954	3055
865.086	3070
865.217	2979
865.349	2918
865.48	2986
865.612	3032
865.743	3138
865.875	2967
866.006	2967
866.137	2956
866.269	2941
866.4	2944
866.531	2899
866.662	2895
866.793	2876
866.924	2906
867.055	2971
867.186	2922
867.317	2891
867.448	2842
867.579	2872
867.71	2838
867.841	2857
867.972	2925
868.103	2914
868.233	2910
868.364	2895
868.495	2891
868.625	3055
868.756	3169
868.886	2971
869.017	2990
869.147	3161
869.278	3146
869.408	3043
869.539	2975
869.669	3123
869.799	3043
869.929	3097
870.06	3074
870.19	3325
870.32	3313
870.45	3272
870.58	3359
870.71	3428
870.84	3416
870.97	3348
871.1	3241
871.23	3450
871.36	3435
871.489	3355
871.619	3416
871.749	3405
871.879	3401
872.008	3477
872.138	3336
872.267	3245
872.397	3157
872.526	3089
872.656	3005
872.785	3131
872.915	3245
873.044	3291
873.173	3230
873.303	3256
873.432	3226
873.561	3233
873.69	3169
873.819	3127
873.948	3173
874.077	3100
874.206	3020
874.335	3097
874.464	3207
874.593	3302
874.722	3249
874.851	3389
874.979	3329
875.108	3325
875.237	3207
875.365	3157
875.494	3180
875.623	3226
875.751	3062
875.88	3093
876.008	3207
876.136	3180
876.265	3348
876.393	3496
876.521	3443
876.65	3393
876.778	3306
876.906	3264
877.034	3275
877.162	3199
877.29	3154
877.418	3241
877.546	3241
877.674	3260
877.802	3203
877.93	3207
878.058	3173
878.185	3081
878.313	3199
878.441	3203
878.568	3070
878.696	3165
878.824	3249
878.951	3313
879.079	3450
879.206	3629
879.333	3424
879.461	3302
879.588	3351
879.715	3473
879.842	3580
879.97	3409
880.097	3157
880.224	3138
880.351	3165
880.478	3176
880.605	3207
880.732	3184
880.859	3458
880.986	3275
881.112	3329
881.239	3176
881.366	3108
881.493	3017
881.619	3032
881.746	3074
881.872	3116
881.999	3085
882.125	3165
882.252	3226
882.378	3306
882.505	3431
882.631	3298
882.757	3157
882.883	3214
883.01	3272
883.136	3131
883.262	3104
883.388	3146
883.514	3302
883.64	3389
883.766	3306
883.892	3203
884.018	3245
884.143	3420
884.269	3561
884.395	3214
884.52	3161
884.646	3173
884.772	3131
884.897	3116
885.023	3176
885.148	3321
885.274	3439
885.399	3348
885.524	3298
885.65	3272
885.775	3336
885.9	3310
886.025	3412
886.15	3317
886.275	3272
886.4	3211
886.525	3329
886.65	3268
886.775	3260
886.9	3462
887.025	3633
887.149	3374
887.274	3237
887.399	3203
887.523	3180
887.648	3184
887.773	3211
887.897	3393
888.021	3370
888.146	3294
888.27	3393
888.395	3515
888.519	3454
888.643	3458
888.767	3473
888.891	3306
889.015	3249
889.139	3313
889.263	3245
889.387	3397
889.511	3523
889.635	3435
889.759	3233
889.883	3287
890.006	3370
890.13	3458
890.254	3249
890.377	3336
890.501	3184
890.624	3173
890.748	3287
890.871	3161
890.995	3093
891.118	3058
891.241	3188
891.364	3195
891.488	3325
891.611	3165
891.734	3222
891.857	3264
891.98	3218
892.103	3336
892.226	3275
892.349	3176
892.471	3112
892.594	3249
892.717	3275
892.839	3272
892.962	3275
893.085	3348
893.207	3306
893.33	3161
893.452	3230
893.575	3325
893.697	3237
893.819	3504
893.941	3488
894.064	3485
894.186	3275
894.308	3313
894.43	3439
894.552	3519
894.674	3435
894.796	3325
894.918	3313
895.04	3298
895.161	3431
895.283	3348
895.405	3294
895.526	3321
895.648	3367
895.769	3412
895.891	3439
896.012	3458
896.134	3454
896.255	3393
896.376	3382
896.498	3386
896.619	3458
896.74	3370
896.861	3363
896.982	3705
897.103	3842
897.224	3595
897.345	3492
897.466	3443
897.587	3473
897.708	3545
897.828	3572
897.949	3439
898.07	3325
898.19	3428
898.311	3587
898.431	3469
898.552	3507
898.672	3580
898.792	3561
898.913	3481
899.033	3412
899.153	3302
899.273	3218
899.393	3275
899.513	3310
899.633	3336
899.753	3344
899.873	3351
899.993	3370
900.113	3329
900.232	3439
900.352	3348
900.472	3272
900.591	3180
900.711	3283
900.83	3260
900.95	3409
901.069	3485
901.189	3340
901.308	3173
901.427	3150
901.546	3214
901.665	3298
901.784	3363
901.904	3260
902.023	3123
902.141	3009
902.26	2975
902.379	3165
902.498	3085
902.617	3036
902.735	3203
902.854	3256
902.973	3165
903.091	3043
903.21	3043
903.328	3142
903.446	3097
903.565	3104
903.683	3222
903.801	3127
903.919	3230
904.038	3287
904.156	3157
904.274	3287
904.392	3268
904.51	3272
904.627	3336
904.745	3454
904.863	3496
904.981	3222
905.098	3176
905.216	3214
905.334	3272
905.451	3332
905.569	3321
905.686	3397
905.803	3412
905.921	3317
906.038	3389
906.155	3336
906.272	3264
906.389	3321
906.506	3188
906.623	3245
906.74	3256
906.857	3180
906.974	3291
907.091	3458
907.208	3572
907.324	3447
907.441	3397
907.557	3260
907.674	3226
907.79	3192
907.907	3264
908.023	3378
908.139	3412
908.256	3321
908.372	3412
908.488	3386
908.604	3233
908.72	3222
908.836	3233
908.952	3283
909.068	3363
909.184	3492
909.3	3378
909.415	3507
909.531	3481
909.647	3264
909.762	3321
909.878	3253
909.993	3378
910.108	3351
910.224	3332
910.339	3386
910.454	3340
910.57	3332
910.685	3245
910.8	3538
910.915	3507
911.03	3405
911.145	3233
911.259	3249
911.374	3348
911.489	3253
911.604	3214
911.718	3100
911.833	3127
911.947	3051
912.062	3009
912.176	3165
912.291	3203
912.405	3237
912.519	3466
912.633	3443
912.748	3344
912.862	3237
912.976	3173
913.09	3077
913.204	3157
913.318	3188
913.431	3348
913.545	3336
913.659	3401
913.772	3355
913.886	3211
914	3233
914.113	3370
914.226	3412
914.34	3393
914.453	3237
914.566	3405
914.68	3279
914.793	3298
914.906	3169
915.019	3119
915.132	3062
915.245	3184
915.358	3195
915.47	3237
915.583	3268
915.696	3279
915.809	3382
915.921	3409
916.034	3268
916.146	3283
916.259	3222
916.371	3351
916.483	3351
916.595	3256
916.708	3344
916.82	3340
916.932	3344
917.044	3317
917.156	3336
917.268	3260
917.38	3279
917.491	3291
917.603	3363
917.715	3447
917.826	3420
917.938	3447
918.049	3275
918.161	3443
918.272	3549
918.384	3603
918.495	3504
918.606	3359
918.717	3279
918.828	3370
918.939	3397
919.05	3336
919.161	3389
919.272	3180
919.383	3264
919.494	3462
919.604	3648
919.715	3507
919.826	3412
919.936	3469
920.047	3549
920.157	3564
920.267	3766
920.378	3599
920.488	3564
920.598	3762
920.708	3930
920.818	3850
920.928	3846
921.038	4040
921.148	3994
921.258	3724
921.368	3660
921.477	3595
921.587	3530
921.697	3435
921.806	3648
921.916	3557
922.025	3367
922.134	3363
922.244	3302
922.353	3435
922.462	3264
922.571	3230
922.68	3062
922.789	3081
922.898	3085
923.007	3123
923.116	3195
923.224	3180
923.333	3230
923.442	3100
923.55	3058
923.659	3116
923.767	3222
923.876	3138
923.984	3218
924.092	3100
924.201	3211
924.309	3230
924.417	3283
924.525	3169
924.633	3268
924.741	3994
924.849	3039
924.956	3287
925.064	3112
925.172	3058
925.279	3100
925.387	3192
925.494	3233
925.602	3332
925.709	3310
925.816	3214
925.924	3313
926.031	3351
926.138	3283
926.245	3355
926.352	3279
926.459	3428
926.566	3435
926.673	3351
926.779	3230
926.886	3253
926.993	3138
927.099	3165
927.206	3116
927.312	3097
927.419	3233
927.525	3226
927.631	3279
927.737	3119
927.843	3146
927.95	3013
928.056	3142
928.162	3214
928.267	3226
928.373	3736
928.479	3287
928.585	3100
928.69	3207
928.796	3283
928.901	3173
929.007	3077
929.112	3233
929.218	3237
929.323	3108
929.428	3180
929.533	3321
929.638	3116
929.743	3157
929.848	3245
929.953	3180
930.058	3169
930.163	2986
930.267	3062
930.372	3192
930.477	3024
930.581	3310
930.685	3184
930.79	3077
930.894	3146
930.998	3108
931.103	3253
931.207	2941
931.311	2929
931.415	2899
931.519	2773
931.623	2823
