Data from test_V78500241_1610.txt Node
Date: Fri Mar 25 16:26:21 CST 2022
User: usil
Spectrometer: V785-0024
Trigger mode: 0
Integration Time (sec): 4.000000E-1
Scans to average: 1
Nonlinearity correction enabled: false
Boxcar width: 0
Storing dark spectrum: false
XAxis mode: Wavelengths
Number of Pixels in Spectrum: 1024
>>>>>Begin Spectral Data<<<<<
801.071	2902
801.214	2956
801.356	2853
801.499	2918
801.641	2868
801.783	2929
801.926	3081
802.068	2967
802.211	2998
802.353	3047
802.496	2944
802.638	2994
802.78	3043
802.923	3066
803.065	2979
803.208	2891
803.35	2937
803.492	2902
803.635	2918
803.777	2754
803.919	2891
804.061	3180
804.204	2918
804.346	2918
804.488	2883
804.63	3001
804.773	2830
804.915	2906
805.057	3093
805.199	2895
805.341	2967
805.483	3017
805.626	2990
805.768	2937
805.91	3093
806.052	3077
806.194	3062
806.336	3218
806.478	3020
806.62	2933
806.762	2922
806.904	3070
807.046	3165
807.188	2979
807.33	2922
807.472	2982
807.614	2922
807.756	2960
807.898	2937
808.04	2876
808.182	2956
808.324	2963
808.465	2845
808.607	2876
808.749	2807
808.891	2811
809.033	2998
809.174	2975
809.316	2861
809.458	2891
809.6	2743
809.741	2766
809.883	2792
810.025	2834
810.166	2861
810.308	2842
810.45	2830
810.591	2800
810.733	2769
810.875	2826
811.016	2796
811.158	2746
811.299	2785
811.441	2937
811.582	2918
811.724	2807
811.865	2792
812.007	2872
812.148	2887
812.29	2872
812.431	2887
812.573	2922
812.714	2971
812.855	3001
812.997	3017
813.138	3119
813.279	2979
813.421	2975
813.562	2967
813.703	2861
813.845	2861
813.986	2743
814.127	2720
814.268	2796
814.41	2842
814.551	2807
814.692	2895
814.833	2823
814.974	2895
815.115	2967
815.256	2876
815.397	2796
815.539	2834
815.68	2773
815.821	2804
815.962	2922
816.103	2941
816.244	2872
816.385	2880
816.526	2963
816.666	2929
816.807	2697
816.948	2891
817.089	2891
817.23	2861
817.371	2815
817.512	2769
817.653	2864
817.793	2830
817.934	2861
818.075	2952
818.216	3013
818.356	3013
818.497	2864
818.638	2777
818.778	2804
818.919	2750
819.06	2746
819.2	2857
819.341	2804
819.481	2796
819.622	2948
819.762	3085
819.903	3036
820.043	2910
820.184	2910
820.324	2895
820.465	3051
820.605	3009
820.746	3009
820.886	2891
821.026	3093
821.167	3180
821.307	3226
821.447	3268
821.588	3249
821.728	3226
821.868	3192
822.008	3066
822.149	3203
822.289	3230
822.429	3047
822.569	3123
822.709	3184
822.849	3017
822.99	3043
823.13	3131
823.27	3214
823.41	3104
823.55	3123
823.69	3157
823.83	3180
823.97	3108
824.11	2975
824.25	2979
824.389	3055
824.529	3104
824.669	3097
824.809	3199
824.949	3233
825.089	3211
825.228	3214
825.368	2967
825.508	2929
825.648	2952
825.787	3013
825.927	3017
826.067	2941
826.206	2952
826.346	3024
826.485	3081
826.625	3097
826.765	3211
826.904	3184
827.044	2994
827.183	2956
827.323	2883
827.462	2963
827.601	2944
827.741	2902
827.88	2960
828.02	2849
828.159	2944
828.298	3047
828.437	3116
828.577	3028
828.716	3188
828.855	3070
828.994	2944
829.134	2891
829.273	2910
829.412	2872
829.551	2834
829.69	2845
829.829	2975
829.968	3112
830.107	3032
830.246	3009
830.385	2929
830.524	2883
830.663	2845
830.802	2708
830.941	2629
831.08	2632
831.219	2746
831.357	2743
831.496	2914
831.635	2743
831.774	2636
831.913	2640
832.051	2530
832.19	2587
832.329	2731
832.467	2537
832.606	2473
832.744	2575
832.883	2575
833.022	2598
833.16	2617
833.299	2663
833.437	2682
833.576	2686
833.714	2746
833.852	2701
833.991	2769
834.129	2819
834.267	2849
834.406	2785
834.544	2868
834.682	2857
834.821	2842
834.959	3036
835.097	2906
835.235	3055
835.373	2994
835.511	3036
835.65	2925
835.788	2941
835.926	2826
836.064	2796
836.202	2876
836.34	3070
836.478	3112
836.615	3036
836.753	3108
836.891	3188
837.029	3165
837.167	3070
837.305	3066
837.443	3081
837.58	2922
837.718	3165
837.856	3047
837.993	2963
838.131	3093
838.269	3100
838.406	3097
838.544	3074
838.681	2937
838.819	2895
838.956	2819
839.094	2815
839.231	2944
839.369	3024
839.506	3382
839.643	3226
839.781	2986
839.918	2952
840.055	3066
840.193	3032
840.33	3032
840.467	3100
840.604	3119
840.742	3397
840.879	3062
841.016	3055
841.153	3062
841.29	3317
841.427	3275
841.564	3256
841.701	3329
841.838	3207
841.975	3135
842.112	3214
842.249	3081
842.385	3036
842.522	3253
842.659	3043
842.796	3077
842.933	3085
843.069	3028
843.206	3024
843.343	3180
843.479	3097
843.616	3138
843.752	2876
843.889	2895
844.025	3051
844.162	2880
844.298	3058
844.435	2967
844.571	2929
844.708	3036
844.844	3161
844.98	3268
845.117	3173
845.253	3024
845.389	2990
845.525	3100
845.661	3089
845.798	2990
845.934	3116
846.07	3051
846.206	3226
846.342	3298
846.478	3203
846.614	3066
846.75	3043
846.886	3039
847.022	3249
847.158	3173
847.294	3188
847.429	3233
847.565	3214
847.701	3500
847.837	3043
847.972	2994
848.108	3169
848.244	3127
848.379	2979
848.515	2948
848.65	2895
848.786	2952
848.921	2994
849.057	3104
849.192	3161
849.328	3070
849.463	3104
849.598	3051
849.734	3039
849.869	2952
850.004	2872
850.14	2933
850.275	2918
850.41	2826
850.545	2864
850.68	2925
850.815	2944
850.95	2971
851.085	3157
851.22	3097
851.355	3009
851.49	2975
851.625	2986
851.76	3009
851.895	2941
852.03	2876
852.165	3024
852.299	3093
852.434	3146
852.569	3104
852.703	3112
852.838	3203
852.973	3306
853.107	3310
853.242	3150
853.376	3085
853.511	2967
853.645	3028
853.78	3241
853.914	3146
854.048	3112
854.183	3070
854.317	3157
854.451	3298
854.585	3093
854.72	3100
854.854	3207
854.988	3013
855.122	3066
855.256	2971
855.39	3112
855.524	3226
855.658	3161
855.792	3135
855.926	3199
856.06	3226
856.194	3222
856.327	3123
856.461	3043
856.595	3047
856.729	3058
856.862	3195
856.996	3146
857.13	3192
857.263	3230
857.397	3245
857.53	3142
857.664	3169
857.797	3245
857.931	3245
858.064	3123
858.197	3233
858.331	3119
858.464	3089
858.597	3009
858.731	3089
858.864	3123
858.997	3100
859.13	3161
859.263	3146
859.396	3192
859.529	3070
859.662	3104
859.795	3062
859.928	3089
860.061	3272
860.194	3283
860.327	3127
860.46	3097
860.592	3275
860.725	3184
860.858	3241
860.99	3089
861.123	3020
861.256	3062
861.388	3131
861.521	3892
861.653	3020
861.786	2971
861.918	2994
862.05	3074
862.183	3104
862.315	3138
862.447	3184
862.58	3089
862.712	2922
862.844	2872
862.976	3005
863.108	2982
863.24	3310
863.372	2868
863.504	2948
863.636	2952
863.768	3001
863.9	2975
864.032	2887
864.164	2914
864.296	2960
864.428	3066
864.559	3100
864.691	3032
864.823	3043
864.954	2975
865.086	3039
865.217	2941
865.349	2933
865.48	3005
865.612	2990
865.743	3165
865.875	2956
866.006	2944
866.137	2982
866.269	2933
866.4	2948
866.531	2956
866.662	2861
866.793	2864
866.924	2887
867.055	2925
867.186	2944
867.317	2883
867.448	2804
867.579	2830
867.71	2876
867.841	2807
867.972	2883
868.103	2868
868.233	2864
868.364	2823
868.495	2868
868.625	3066
868.756	3150
868.886	2971
869.017	2982
869.147	3184
869.278	3157
869.408	3055
869.539	3017
869.669	3112
869.799	3024
869.929	3150
870.06	3112
870.19	3291
870.32	3253
870.45	3283
870.58	3355
870.71	3416
870.84	3435
870.97	3310
871.1	3268
871.23	3450
871.36	3466
871.489	3332
871.619	3363
871.749	3386
871.879	3447
872.008	3466
872.138	3336
872.267	3283
872.397	3157
872.526	3093
872.656	3051
872.785	3066
872.915	3256
873.044	3294
873.173	3233
873.303	3233
873.432	3256
873.561	3233
873.69	3150
873.819	3142
873.948	3218
874.077	3070
874.206	3024
874.335	3051
874.464	3199
874.593	3302
874.722	3218
874.851	3355
874.979	3310
875.108	3336
875.237	3161
875.365	3127
875.494	3169
875.623	3264
875.751	3055
875.88	3097
876.008	3176
876.136	3199
876.265	3340
876.393	3492
876.521	3401
876.65	3386
876.778	3355
876.906	3249
877.034	3264
877.162	3222
877.29	3157
877.418	3230
877.546	3230
877.674	3207
877.802	3218
877.93	3203
878.058	3104
878.185	3085
878.313	3180
878.441	3214
878.568	3077
878.696	3161
878.824	3199
878.951	3287
879.079	3454
879.206	3580
879.333	3412
879.461	3291
879.588	3374
879.715	3450
879.842	3584
879.97	3401
880.097	3150
880.224	3112
880.351	3188
880.478	3218
880.605	3180
880.732	3169
880.859	3492
880.986	3313
881.112	3287
881.239	3188
881.366	3062
881.493	2998
881.619	3005
881.746	3051
881.872	3066
881.999	3062
882.125	3131
882.252	3203
882.378	3226
882.505	3458
882.631	3253
882.757	3146
882.883	3192
883.01	3195
883.136	3123
883.262	3093
883.388	3123
883.514	3302
883.64	3348
883.766	3317
883.892	3195
884.018	3241
884.143	3405
884.269	3545
884.395	3195
884.52	3165
884.646	3176
884.772	3165
884.897	3173
885.023	3195
885.148	3332
885.274	3435
885.399	3370
885.524	3298
885.65	3279
885.775	3332
885.9	3302
886.025	3435
886.15	3359
886.275	3321
886.4	3264
886.525	3340
886.65	3283
886.775	3287
886.9	3530
887.025	3629
887.149	3439
887.274	3294
887.399	3222
887.523	3237
887.648	3203
887.773	3218
887.897	3447
888.021	3409
888.146	3313
888.27	3462
888.395	3572
888.519	3473
888.643	3481
888.767	3481
888.891	3363
889.015	3313
889.139	3298
889.263	3260
889.387	3439
889.511	3504
889.635	3488
889.759	3359
889.883	3336
890.006	3409
890.13	3519
890.254	3321
890.377	3359
890.501	3268
890.624	3207
890.748	3370
890.871	3211
890.995	3112
891.118	3089
891.241	3249
891.364	3253
891.488	3367
891.611	3211
891.734	3253
891.857	3355
891.98	3264
892.103	3401
892.226	3344
892.349	3249
892.471	3154
892.594	3294
892.717	3294
892.839	3291
892.962	3321
893.085	3382
893.207	3321
893.33	3192
893.452	3272
893.575	3397
893.697	3272
893.819	3507
893.941	3564
894.064	3443
894.186	3306
894.308	3306
894.43	3466
894.552	3584
894.674	3492
894.796	3298
894.918	3367
895.04	3332
895.161	3500
895.283	3386
895.405	3325
895.526	3389
895.648	3473
895.769	3431
895.891	3488
896.012	3488
896.134	3500
896.255	3450
896.376	3416
896.498	3378
896.619	3481
896.74	3412
896.861	3488
896.982	3713
897.103	3850
897.224	3644
897.345	3568
897.466	3485
897.587	3534
897.708	3675
897.828	3587
897.949	3492
898.07	3367
898.19	3447
898.311	3584
898.431	3500
898.552	3568
898.672	3606
898.792	3614
898.913	3557
899.033	3450
899.153	3329
899.273	3287
899.393	3325
899.513	3378
899.633	3313
899.753	3378
899.873	3317
899.993	3405
900.113	3332
900.232	3416
900.352	3374
900.472	3313
900.591	3207
900.711	3329
900.83	3275
900.95	3428
901.069	3534
901.189	3401
901.308	3192
901.427	3161
901.546	3245
901.665	3355
901.784	3340
901.904	3233
902.023	3180
902.141	3051
902.26	2986
902.379	3180
902.498	3070
902.617	3070
902.735	3241
902.854	3287
902.973	3207
903.091	3089
903.21	3066
903.328	3188
903.446	3135
903.565	3150
903.683	3230
903.801	3157
903.919	3298
904.038	3336
904.156	3207
904.274	3321
904.392	3313
904.51	3340
904.627	3332
904.745	3458
904.863	3504
904.981	3302
905.098	3176
905.216	3237
905.334	3336
905.451	3359
905.569	3317
905.686	3443
905.803	3439
905.921	3317
906.038	3447
906.155	3355
906.272	3283
906.389	3355
906.506	3302
906.623	3260
906.74	3325
906.857	3218
906.974	3279
907.091	3504
907.208	3599
907.324	3492
907.441	3420
907.557	3272
907.674	3245
907.79	3245
907.907	3325
908.023	3386
908.139	3363
908.256	3317
908.372	3420
908.488	3359
908.604	3275
908.72	3256
908.836	3272
908.952	3294
909.068	3374
909.184	3504
909.3	3450
909.415	3473
909.531	3500
909.647	3317
909.762	3332
909.878	3294
909.993	3378
910.108	3344
910.224	3332
910.339	3477
910.454	3363
910.57	3325
910.685	3283
910.8	3599
910.915	3603
911.03	3443
911.145	3310
911.259	3306
911.374	3351
911.489	3275
911.604	3291
911.718	3116
911.833	3165
911.947	3051
912.062	3017
912.176	3165
912.291	3253
912.405	3260
912.519	3397
912.633	3485
912.748	3386
912.862	3336
912.976	3214
913.09	3104
913.204	3207
913.318	3226
913.431	3329
913.545	3355
913.659	3439
913.772	3344
913.886	3291
914	3230
914.113	3420
914.226	3439
914.34	3443
914.453	3241
914.566	3393
914.68	3321
914.793	3370
914.906	3180
915.019	3146
915.132	3081
915.245	3188
915.358	3237
915.47	3291
915.583	3298
915.696	3344
915.809	3473
915.921	3420
916.034	3264
916.146	3302
916.259	3268
916.371	3435
916.483	3393
916.595	3298
916.708	3348
916.82	3355
916.932	3329
917.044	3355
917.156	3355
917.268	3275
917.38	3332
917.491	3287
917.603	3378
917.715	3466
917.826	3496
917.938	3386
918.049	3310
918.161	3447
918.272	3595
918.384	3568
918.495	3534
918.606	3370
918.717	3329
918.828	3420
918.939	3447
919.05	3302
919.161	3382
919.272	3180
919.383	3310
919.494	3549
919.604	3736
919.715	3511
919.826	3424
919.936	3481
920.047	3603
920.157	3584
920.267	3804
920.378	3637
920.488	3576
920.598	3800
920.708	3975
920.818	3850
920.928	3892
921.038	3983
921.148	3975
921.258	3709
921.368	3641
921.477	3603
921.587	3564
921.697	3473
921.806	3644
921.916	3557
922.025	3378
922.134	3435
922.244	3359
922.353	3481
922.462	3306
922.571	3253
922.68	3085
922.789	3081
922.898	3138
923.007	3100
923.116	3233
923.224	3195
923.333	3260
923.442	3119
923.55	3093
923.659	3165
923.767	3287
923.876	3173
923.984	3260
924.092	3100
924.201	3230
924.309	3268
924.417	3260
924.525	3260
924.633	3253
924.741	4196
924.849	3100
924.956	3245
925.064	3116
925.172	3070
925.279	3150
925.387	3222
925.494	3253
925.602	3378
925.709	3321
925.816	3192
925.924	3321
926.031	3386
926.138	3359
926.245	3355
926.352	3226
926.459	3443
926.566	3500
926.673	3340
926.779	3283
926.886	3272
926.993	3211
927.099	3142
927.206	3123
927.312	3138
927.419	3207
927.525	3207
927.631	3279
927.737	3150
927.843	3138
927.95	3051
928.056	3188
928.162	3222
928.267	3291
928.373	3903
928.479	3325
928.585	3047
928.69	3233
928.796	3313
928.901	3207
929.007	3055
929.112	3214
929.218	3199
929.323	3180
929.428	3169
929.533	3306
929.638	3123
929.743	3199
929.848	3287
929.953	3211
930.058	3180
930.163	3028
930.267	3070
930.372	3203
930.477	3089
930.581	3329
930.685	3180
930.79	3085
930.894	3154
930.998	3154
931.103	3306
931.207	2998
931.311	2967
931.415	2944
931.519	2823
931.623	2842
