Data from test_V78500241_1279.txt Node
Date: Fri Mar 25 16:24:03 CST 2022
User: usil
Spectrometer: V785-0024
Trigger mode: 0
Integration Time (sec): 4.000000E-1
Scans to average: 1
Nonlinearity correction enabled: false
Boxcar width: 0
Storing dark spectrum: false
XAxis mode: Wavelengths
Number of Pixels in Spectrum: 1024
>>>>>Begin Spectral Data<<<<<
801.071	2986
801.214	2990
801.356	2902
801.499	2925
801.641	2922
801.783	2960
801.926	3116
802.068	2971
802.211	3074
802.353	3081
802.496	3047
802.638	3020
802.78	3100
802.923	3116
803.065	3055
803.208	2941
803.35	2982
803.492	2975
803.635	2971
803.777	2800
803.919	2895
804.061	3214
804.204	2948
804.346	2937
804.488	2887
804.63	3024
804.773	2899
804.915	2986
805.057	3116
805.199	2990
805.341	3036
805.483	3062
805.626	3017
805.768	2986
805.91	3135
806.052	3146
806.194	3093
806.336	3260
806.478	3051
806.62	2986
806.762	3024
806.904	3108
807.046	3203
807.188	2986
807.33	2910
807.472	3039
807.614	2975
807.756	2994
807.898	2941
808.04	2914
808.182	3039
808.324	3009
808.465	2922
808.607	2910
808.749	2853
808.891	2910
809.033	3001
809.174	2990
809.316	2925
809.458	2929
809.6	2823
809.741	2826
809.883	2838
810.025	2895
810.166	2880
810.308	2872
810.45	2914
810.591	2811
810.733	2769
810.875	2857
811.016	2823
811.158	2807
811.299	2849
811.441	2937
811.582	2929
811.724	2876
811.865	2872
812.007	2941
812.148	2887
812.29	2914
812.431	2910
812.573	3001
812.714	2998
812.855	3039
812.997	3047
813.138	3127
813.279	3055
813.421	3001
813.562	2944
813.703	2910
813.845	2937
813.986	2758
814.127	2739
814.268	2883
814.41	2880
814.551	2842
814.692	2906
814.833	2842
814.974	2914
815.115	2994
815.256	2887
815.397	2853
815.539	2876
815.68	2785
815.821	2815
815.962	2990
816.103	2956
816.244	2929
816.385	2895
816.526	2998
816.666	2956
816.807	2773
816.948	2948
817.089	2906
817.23	2872
817.371	2823
817.512	2804
817.653	2857
817.793	2849
817.934	2906
818.075	2994
818.216	3028
818.356	3036
818.497	2914
818.638	2800
818.778	2857
818.919	2826
819.06	2815
819.2	2910
819.341	2830
819.481	2823
819.622	2941
819.762	3161
819.903	3085
820.043	2952
820.184	2933
820.324	2902
820.465	3032
820.605	3039
820.746	3032
820.886	2937
821.026	3146
821.167	3173
821.307	3283
821.447	3340
821.588	3237
821.728	3230
821.868	3211
822.008	3097
822.149	3207
822.289	3253
822.429	3097
822.569	3116
822.709	3207
822.849	3055
822.99	3100
823.13	3169
823.27	3237
823.41	3146
823.55	3150
823.69	3161
823.83	3207
823.97	3138
824.11	3032
824.25	3024
824.389	3089
824.529	3135
824.669	3062
824.809	3218
824.949	3268
825.089	3203
825.228	3180
825.368	3024
825.508	2986
825.648	2979
825.787	3062
825.927	3066
826.067	2990
826.206	2975
826.346	3047
826.485	3093
826.625	3138
826.765	3306
826.904	3275
827.044	3020
827.183	2937
827.323	2868
827.462	3036
827.601	2941
827.741	2929
827.88	3001
828.02	2864
828.159	2998
828.298	3058
828.437	3123
828.577	3036
828.716	3245
828.855	3127
828.994	2956
829.134	2914
829.273	2948
829.412	2883
829.551	2868
829.69	2906
829.829	3020
829.968	3142
830.107	3051
830.246	3051
830.385	2933
830.524	2872
830.663	2826
830.802	2762
830.941	2659
831.08	2678
831.219	2781
831.357	2777
831.496	2975
831.635	2716
831.774	2682
831.913	2663
832.051	2568
832.19	2594
832.329	2701
832.467	2587
832.606	2511
832.744	2602
832.883	2636
833.022	2617
833.16	2693
833.299	2720
833.437	2731
833.576	2727
833.714	2743
833.852	2769
833.991	2758
834.129	2868
834.267	2887
834.406	2796
834.544	2876
834.682	2906
834.821	2902
834.959	3081
835.097	2864
835.235	3085
835.373	3028
835.511	3047
835.65	2975
835.788	3001
835.926	2845
836.064	2823
836.202	2845
836.34	3123
836.478	3165
836.615	3039
836.753	3138
836.891	3226
837.029	3180
837.167	3108
837.305	3081
837.443	3051
837.58	2956
837.718	3138
837.856	3089
837.993	3043
838.131	3142
838.269	3135
838.406	3123
838.544	3104
838.681	3005
838.819	2952
838.956	2849
839.094	2804
839.231	2933
839.369	3036
839.506	3401
839.643	3233
839.781	3009
839.918	2982
840.055	3043
840.193	3097
840.33	3070
840.467	3116
840.604	3142
840.742	3382
840.879	3077
841.016	3051
841.153	3146
841.29	3294
841.427	3279
841.564	3275
841.701	3344
841.838	3237
841.975	3207
842.112	3218
842.249	3097
842.385	3077
842.522	3241
842.659	3081
842.796	3074
842.933	3104
843.069	3047
843.206	3055
843.343	3184
843.479	3104
843.616	3157
843.752	2925
843.889	2864
844.025	3119
844.162	2868
844.298	3070
844.435	2998
844.571	2944
844.708	3047
844.844	3169
844.98	3230
845.117	3226
845.253	3039
845.389	3013
845.525	3127
845.661	3112
845.798	2998
845.934	3104
846.07	3104
846.206	3241
846.342	3340
846.478	3241
846.614	3116
846.75	3085
846.886	3017
847.022	3245
847.158	3150
847.294	3211
847.429	3268
847.565	3241
847.701	3496
847.837	3070
847.972	3001
848.108	3195
848.244	3150
848.379	3005
848.515	2971
848.65	2948
848.786	2960
848.921	3043
849.057	3116
849.192	3146
849.328	3077
849.463	3104
849.598	3066
849.734	3024
849.869	3009
850.004	2902
850.14	2986
850.275	2922
850.41	2849
850.545	2853
850.68	2925
850.815	2971
850.95	2998
851.085	3199
851.22	3119
851.355	3066
851.49	2986
851.625	3017
851.76	2994
851.895	2933
852.03	2899
852.165	3058
852.299	3108
852.434	3207
852.569	3123
852.703	3192
852.838	3249
852.973	3374
853.107	3340
853.242	3173
853.376	3051
853.511	2982
853.645	3070
853.78	3226
853.914	3146
854.048	3138
854.183	3112
854.317	3150
854.451	3256
854.585	3150
854.72	3112
854.854	3226
854.988	3039
855.122	3051
855.256	2975
855.39	3108
855.524	3275
855.658	3192
855.792	3154
855.926	3222
856.06	3203
856.194	3260
856.327	3131
856.461	3108
856.595	3093
856.729	3093
856.862	3195
856.996	3176
857.13	3192
857.263	3253
857.397	3256
857.53	3097
857.664	3192
857.797	3249
857.931	3241
858.064	3173
858.197	3253
858.331	3081
858.464	3074
858.597	3001
858.731	3123
858.864	3138
858.997	3085
859.13	3161
859.263	3169
859.396	3218
859.529	3131
859.662	3100
859.795	3066
859.928	3165
860.061	3283
860.194	3264
860.327	3169
860.46	3123
860.592	3237
860.725	3199
860.858	3272
860.99	3138
861.123	3028
861.256	3058
861.388	3127
861.521	3656
861.653	3032
861.786	3017
861.918	3051
862.05	3100
862.183	3104
862.315	3188
862.447	3184
862.58	3116
862.712	2971
862.844	2891
862.976	3036
863.108	3028
863.24	3294
863.372	2887
863.504	2986
863.636	2941
863.768	3043
863.9	3005
864.032	2925
864.164	2956
864.296	3024
864.428	3077
864.559	3119
864.691	3074
864.823	3097
864.954	3024
865.086	3100
865.217	2960
865.349	2960
865.48	2994
865.612	3005
865.743	3138
865.875	2994
866.006	2933
866.137	3005
866.269	2925
866.4	2922
866.531	2925
866.662	2914
866.793	2914
866.924	2895
867.055	2975
867.186	2899
867.317	2902
867.448	2845
867.579	2842
867.71	2864
867.841	2868
867.972	2906
868.103	2914
868.233	2880
868.364	2857
868.495	2861
868.625	3093
868.756	3207
868.886	2998
869.017	3070
869.147	3165
869.278	3226
869.408	3051
869.539	3043
869.669	3146
869.799	3020
869.929	3116
870.06	3085
870.19	3306
870.32	3264
870.45	3272
870.58	3367
870.71	3473
870.84	3511
870.97	3291
871.1	3256
871.23	3473
871.36	3447
871.489	3401
871.619	3424
871.749	3405
871.879	3420
872.008	3496
872.138	3382
872.267	3253
872.397	3150
872.526	3093
872.656	3024
872.785	3097
872.915	3211
873.044	3317
873.173	3222
873.303	3230
873.432	3214
873.561	3237
873.69	3195
873.819	3135
873.948	3237
874.077	3123
874.206	3047
874.335	3131
874.464	3230
874.593	3359
874.722	3245
874.851	3428
874.979	3370
875.108	3298
875.237	3169
875.365	3127
875.494	3165
875.623	3275
875.751	3077
875.88	3100
876.008	3184
876.136	3237
876.265	3386
876.393	3496
876.521	3382
876.65	3397
876.778	3367
876.906	3226
877.034	3230
877.162	3199
877.29	3188
877.418	3230
877.546	3233
877.674	3241
877.802	3237
877.93	3214
878.058	3146
878.185	3119
878.313	3207
878.441	3173
878.568	3058
878.696	3154
878.824	3237
878.951	3275
879.079	3450
879.206	3637
879.333	3477
879.461	3348
879.588	3370
879.715	3462
879.842	3618
879.97	3409
880.097	3180
880.224	3142
880.351	3180
880.478	3188
880.605	3188
880.732	3169
880.859	3496
880.986	3313
881.112	3287
881.239	3180
881.366	3081
881.493	3024
881.619	2963
881.746	3047
881.872	3081
881.999	3112
882.125	3169
882.252	3226
882.378	3264
882.505	3458
882.631	3306
882.757	3138
882.883	3195
883.01	3222
883.136	3173
883.262	3093
883.388	3131
883.514	3294
883.64	3363
883.766	3291
883.892	3188
884.018	3233
884.143	3393
884.269	3561
884.395	3222
884.52	3154
884.646	3184
884.772	3100
884.897	3108
885.023	3230
885.148	3321
885.274	3435
885.399	3359
885.524	3264
885.65	3268
885.775	3344
885.9	3230
886.025	3412
886.15	3386
886.275	3344
886.4	3241
886.525	3325
886.65	3245
886.775	3233
886.9	3500
887.025	3637
887.149	3367
887.274	3264
887.399	3176
887.523	3203
887.648	3207
887.773	3169
887.897	3389
888.021	3420
888.146	3283
888.27	3447
888.395	3523
888.519	3439
888.643	3412
888.767	3428
888.891	3359
889.015	3230
889.139	3283
889.263	3233
889.387	3405
889.511	3500
889.635	3454
889.759	3283
889.883	3264
890.006	3370
890.13	3485
890.254	3260
890.377	3351
890.501	3195
890.624	3207
890.748	3317
890.871	3180
890.995	3123
891.118	3043
891.241	3222
891.364	3173
891.488	3287
891.611	3184
891.734	3195
891.857	3321
891.98	3241
892.103	3340
892.226	3313
892.349	3207
892.471	3131
892.594	3222
892.717	3298
892.839	3275
892.962	3287
893.085	3382
893.207	3294
893.33	3108
893.452	3203
893.575	3325
893.697	3283
893.819	3443
893.941	3466
894.064	3393
894.186	3226
894.308	3283
894.43	3439
894.552	3507
894.674	3488
894.796	3268
894.918	3340
895.04	3294
895.161	3412
895.283	3431
895.405	3317
895.526	3393
895.648	3428
895.769	3420
895.891	3447
896.012	3469
896.134	3477
896.255	3409
896.376	3382
896.498	3344
896.619	3412
896.74	3325
896.861	3401
896.982	3686
897.103	3835
897.224	3603
897.345	3511
897.466	3450
897.587	3534
897.708	3675
897.828	3564
897.949	3450
898.07	3340
898.19	3424
898.311	3564
898.431	3409
898.552	3515
898.672	3572
898.792	3557
898.913	3488
899.033	3416
899.153	3287
899.273	3203
899.393	3291
899.513	3321
899.633	3321
899.753	3344
899.873	3325
899.993	3382
900.113	3370
900.232	3416
900.352	3340
900.472	3253
900.591	3184
900.711	3291
900.83	3226
900.95	3386
901.069	3473
901.189	3351
901.308	3173
901.427	3123
901.546	3169
901.665	3275
901.784	3313
901.904	3161
902.023	3146
902.141	3024
902.26	2998
902.379	3116
902.498	3074
902.617	3066
902.735	3199
902.854	3241
902.973	3184
903.091	3024
903.21	3055
903.328	3142
903.446	3112
903.565	3112
903.683	3192
903.801	3104
903.919	3214
904.038	3283
904.156	3173
904.274	3249
904.392	3237
904.51	3302
904.627	3298
904.745	3458
904.863	3500
904.981	3302
905.098	3188
905.216	3249
905.334	3256
905.451	3287
905.569	3275
905.686	3374
905.803	3447
905.921	3302
906.038	3412
906.155	3340
906.272	3272
906.389	3336
906.506	3211
906.623	3260
906.74	3313
906.857	3192
906.974	3237
907.091	3420
907.208	3572
907.324	3500
907.441	3393
907.557	3222
907.674	3230
907.79	3184
907.907	3279
908.023	3363
908.139	3378
908.256	3283
908.372	3382
908.488	3351
908.604	3272
908.72	3180
908.836	3306
908.952	3275
909.068	3351
909.184	3473
909.3	3386
909.415	3504
909.531	3481
909.647	3241
909.762	3275
909.878	3253
909.993	3363
910.108	3332
910.224	3332
910.339	3412
910.454	3302
910.57	3291
910.685	3237
910.8	3625
910.915	3557
911.03	3454
911.145	3260
911.259	3249
911.374	3332
911.489	3275
911.604	3218
911.718	3104
911.833	3176
911.947	3024
912.062	2986
912.176	3135
912.291	3184
912.405	3230
912.519	3389
912.633	3466
912.748	3336
912.862	3298
912.976	3135
913.09	3047
913.204	3138
913.318	3222
913.431	3367
913.545	3355
913.659	3424
913.772	3325
913.886	3203
914	3222
914.113	3359
914.226	3389
914.34	3332
914.453	3230
914.566	3405
914.68	3268
914.793	3310
914.906	3154
915.019	3089
915.132	3074
915.245	3173
915.358	3203
915.47	3211
915.583	3275
915.696	3310
915.809	3397
915.921	3443
916.034	3287
916.146	3233
916.259	3256
916.371	3374
916.483	3389
916.595	3253
916.708	3340
916.82	3325
916.932	3302
917.044	3351
917.156	3336
917.268	3260
917.38	3279
917.491	3279
917.603	3344
917.715	3500
917.826	3458
917.938	3344
918.049	3226
918.161	3416
918.272	3584
918.384	3564
918.495	3466
918.606	3351
918.717	3245
918.828	3344
918.939	3409
919.05	3294
919.161	3329
919.272	3173
919.383	3302
919.494	3496
919.604	3686
919.715	3447
919.826	3374
919.936	3424
920.047	3572
920.157	3542
920.267	3778
920.378	3610
920.488	3603
920.598	3789
920.708	3907
920.818	3827
920.928	3831
921.038	4067
921.148	3983
921.258	3690
921.368	3614
921.477	3572
921.587	3507
921.697	3439
921.806	3671
921.916	3523
922.025	3348
922.134	3348
922.244	3325
922.353	3447
922.462	3253
922.571	3237
922.68	3081
922.789	3097
922.898	3108
923.007	3123
923.116	3157
923.224	3195
923.333	3199
923.442	3123
923.55	3081
923.659	3157
923.767	3218
923.876	3081
923.984	3218
924.092	3112
924.201	3222
924.309	3199
924.417	3245
924.525	3176
924.633	3253
924.741	4032
924.849	3028
924.956	3294
925.064	3116
925.172	3043
925.279	3097
925.387	3180
925.494	3173
925.602	3344
925.709	3317
925.816	3188
925.924	3302
926.031	3412
926.138	3329
926.245	3367
926.352	3203
926.459	3397
926.566	3454
926.673	3302
926.779	3260
926.886	3264
926.993	3104
927.099	3146
927.206	3123
927.312	3119
927.419	3211
927.525	3150
927.631	3279
927.737	3123
927.843	3112
927.95	3039
928.056	3142
928.162	3184
928.267	3222
928.373	3842
928.479	3317
928.585	3066
928.69	3173
928.796	3272
928.901	3146
929.007	3062
929.112	3237
929.218	3176
929.323	3131
929.428	3173
929.533	3302
929.638	3089
929.743	3161
929.848	3207
929.953	3203
930.058	3173
930.163	2982
930.267	3036
930.372	3169
930.477	3047
930.581	3291
930.685	3127
930.79	3001
930.894	3093
930.998	3081
931.103	3256
931.207	2922
931.311	2941
931.415	2918
931.519	2750
931.623	2815
