Data from test_V78500241_783.txt Node
Date: Fri Mar 25 16:20:37 CST 2022
User: usil
Spectrometer: V785-0024
Trigger mode: 0
Integration Time (sec): 4.000000E-1
Scans to average: 1
Nonlinearity correction enabled: false
Boxcar width: 0
Storing dark spectrum: false
XAxis mode: Wavelengths
Number of Pixels in Spectrum: 1024
>>>>>Begin Spectral Data<<<<<
801.071	2887
801.214	2925
801.356	2826
801.499	2845
801.641	2861
801.783	2906
801.926	3017
802.068	2960
802.211	2960
802.353	3047
802.496	2956
802.638	3005
802.78	3024
802.923	3055
803.065	3017
803.208	2876
803.35	2914
803.492	2941
803.635	2948
803.777	2731
803.919	2826
804.061	3173
804.204	2956
804.346	2887
804.488	2838
804.63	2990
804.773	2868
804.915	2918
805.057	3074
805.199	2929
805.341	2960
805.483	3039
805.626	3036
805.768	2944
805.91	3070
806.052	3116
806.194	3097
806.336	3222
806.478	3051
806.62	2948
806.762	2994
806.904	3085
807.046	3135
807.188	2971
807.33	2895
807.472	2941
807.614	2887
807.756	2982
807.898	2880
808.04	2853
808.182	2986
808.324	2971
808.465	2887
808.607	2868
808.749	2807
808.891	2826
809.033	2979
809.174	2963
809.316	2883
809.458	2891
809.6	2807
809.741	2769
809.883	2792
810.025	2857
810.166	2834
810.308	2838
810.45	2838
810.591	2781
810.733	2754
810.875	2849
811.016	2781
811.158	2731
811.299	2792
811.441	2952
811.582	2857
811.724	2807
811.865	2845
812.007	2899
812.148	2883
812.29	2819
812.431	2883
812.573	2876
812.714	2929
812.855	3009
812.997	3039
813.138	3131
813.279	3001
813.421	3013
813.562	2960
813.703	2868
813.845	2883
813.986	2796
814.127	2716
814.268	2834
814.41	2845
814.551	2796
814.692	2864
814.833	2834
814.974	2899
815.115	2944
815.256	2819
815.397	2766
815.539	2872
815.68	2769
815.821	2826
815.962	2956
816.103	2948
816.244	2872
816.385	2845
816.526	2990
816.666	2922
816.807	2762
816.948	2902
817.089	2922
817.23	2864
817.371	2788
817.512	2773
817.653	2853
817.793	2796
817.934	2845
818.075	2944
818.216	3032
818.356	2986
818.497	2861
818.638	2773
818.778	2826
818.919	2788
819.06	2769
819.2	2880
819.341	2785
819.481	2792
819.622	2914
819.762	3093
819.903	3036
820.043	2925
820.184	2899
820.324	2883
820.465	3020
820.605	3043
820.746	3028
820.886	2918
821.026	3135
821.167	3161
821.307	3233
821.447	3294
821.588	3222
821.728	3154
821.868	3157
822.008	3081
822.149	3199
822.289	3214
822.429	3077
822.569	3116
822.709	3161
822.849	3005
822.99	3062
823.13	3146
823.27	3226
823.41	3085
823.55	3131
823.69	3131
823.83	3207
823.97	3104
824.11	2982
824.25	2998
824.389	3074
824.529	3085
824.669	3055
824.809	3188
824.949	3222
825.089	3226
825.228	3154
825.368	3020
825.508	2925
825.648	2937
825.787	3001
825.927	2994
826.067	2941
826.206	2944
826.346	3051
826.485	3043
826.625	3093
826.765	3264
826.904	3184
827.044	3009
827.183	2933
827.323	2861
827.462	2998
827.601	2914
827.741	2922
827.88	2956
828.02	2872
828.159	2990
828.298	3005
828.437	3100
828.577	3055
828.716	3230
828.855	3081
828.994	2910
829.134	2895
829.273	2925
829.412	2838
829.551	2823
829.69	2925
829.829	2967
829.968	3100
830.107	3005
830.246	3013
830.385	2895
830.524	2868
830.663	2807
830.802	2731
830.941	2636
831.08	2629
831.219	2724
831.357	2746
831.496	2944
831.635	2701
831.774	2655
831.913	2659
832.051	2518
832.19	2587
832.329	2667
832.467	2526
832.606	2480
832.744	2575
832.883	2590
833.022	2590
833.16	2636
833.299	2678
833.437	2674
833.576	2678
833.714	2708
833.852	2739
833.991	2758
834.129	2823
834.267	2788
834.406	2777
834.544	2864
834.682	2891
834.821	2842
834.959	3036
835.097	2902
835.235	3070
835.373	2952
835.511	2990
835.65	2956
835.788	2952
835.926	2857
836.064	2826
836.202	2834
836.34	3081
836.478	3127
836.615	3036
836.753	3089
836.891	3199
837.029	3157
837.167	3108
837.305	3070
837.443	3077
837.58	2929
837.718	3131
837.856	3077
837.993	3032
838.131	3112
838.269	3074
838.406	3055
838.544	3058
838.681	2960
838.819	2895
838.956	2815
839.094	2823
839.231	2918
839.369	3017
839.506	3397
839.643	3188
839.781	2998
839.918	2963
840.055	3013
840.193	3017
840.33	3100
840.467	3062
840.604	3119
840.742	3382
840.879	3032
841.016	3058
841.153	3131
841.29	3363
841.427	3306
841.564	3275
841.701	3310
841.838	3180
841.975	3173
842.112	3207
842.249	3055
842.385	3043
842.522	3230
842.659	3085
842.796	3028
842.933	3089
843.069	3074
843.206	3036
843.343	3146
843.479	3097
843.616	3150
843.752	2906
843.889	2853
844.025	3085
844.162	2868
844.298	3077
844.435	2918
844.571	2902
844.708	3089
844.844	3169
844.98	3237
845.117	3184
845.253	3032
845.389	3005
845.525	3108
845.661	3062
845.798	2994
845.934	3135
846.07	3043
846.206	3264
846.342	3310
846.478	3184
846.614	3108
846.75	3051
846.886	2979
847.022	3214
847.158	3138
847.294	3192
847.429	3192
847.565	3233
847.701	3469
847.837	3032
847.972	3001
848.108	3146
848.244	3135
848.379	2986
848.515	2914
848.65	2929
848.786	3013
848.921	3028
849.057	3081
849.192	3161
849.328	3043
849.463	3119
849.598	3074
849.734	3066
849.869	2944
850.004	2937
850.14	2963
850.275	2887
850.41	2853
850.545	2864
850.68	2960
850.815	3005
850.95	2967
851.085	3192
851.22	3104
851.355	3009
851.49	2963
851.625	2967
851.76	2990
851.895	2914
852.03	2880
852.165	3001
852.299	3093
852.434	3192
852.569	3157
852.703	3180
852.838	3218
852.973	3351
853.107	3336
853.242	3138
853.376	3081
853.511	2971
853.645	3039
853.78	3207
853.914	3108
854.048	3142
854.183	3055
854.317	3123
854.451	3268
854.585	3108
854.72	3077
854.854	3176
854.988	3028
855.122	3051
855.256	2941
855.39	3112
855.524	3245
855.658	3203
855.792	3173
855.926	3173
856.06	3207
856.194	3256
856.327	3173
856.461	3062
856.595	3081
856.729	3093
856.862	3214
856.996	3108
857.13	3154
857.263	3211
857.397	3260
857.53	3074
857.664	3188
857.797	3237
857.931	3233
858.064	3146
858.197	3211
858.331	3116
858.464	3112
858.597	3032
858.731	3112
858.864	3138
858.997	3085
859.13	3157
859.263	3195
859.396	3245
859.529	3036
859.662	3097
859.795	3013
859.928	3142
860.061	3237
860.194	3283
860.327	3142
860.46	3093
860.592	3233
860.725	3214
860.858	3245
860.99	3097
861.123	3055
861.256	3009
861.388	3135
861.521	3888
861.653	3005
861.786	2960
861.918	2979
862.05	3028
862.183	3085
862.315	3123
862.447	3195
862.58	3055
862.712	2929
862.844	2872
862.976	3020
863.108	2971
863.24	3405
863.372	2864
863.504	2963
863.636	2982
863.768	3032
863.9	3005
864.032	2880
864.164	2929
864.296	2982
864.428	3066
864.559	3062
864.691	3070
864.823	3036
864.954	3032
865.086	3043
865.217	2967
865.349	2963
865.48	2933
865.612	2998
865.743	3150
865.875	2990
866.006	2922
866.137	2963
866.269	2922
866.4	2933
866.531	2914
866.662	2868
866.793	2914
866.924	2861
867.055	2963
867.186	2902
867.317	2887
867.448	2842
867.579	2842
867.71	2876
867.841	2804
867.972	2914
868.103	2906
868.233	2849
868.364	2826
868.495	2914
868.625	3051
868.756	3127
868.886	2937
869.017	3055
869.147	3131
869.278	3161
869.408	3047
869.539	3017
869.669	3085
869.799	3013
869.929	3138
870.06	3119
870.19	3294
870.32	3260
870.45	3310
870.58	3367
870.71	3405
870.84	3439
870.97	3279
871.1	3222
871.23	3435
871.36	3435
871.489	3344
871.619	3370
871.749	3409
871.879	3416
872.008	3458
872.138	3370
872.267	3245
872.397	3154
872.526	3104
872.656	3024
872.785	3066
872.915	3256
873.044	3268
873.173	3188
873.303	3241
873.432	3226
873.561	3233
873.69	3173
873.819	3154
873.948	3173
874.077	3108
874.206	3039
874.335	3055
874.464	3203
874.593	3348
874.722	3233
874.851	3397
874.979	3321
875.108	3302
875.237	3165
875.365	3195
875.494	3146
875.623	3253
875.751	3085
875.88	3089
876.008	3176
876.136	3260
876.265	3332
876.393	3530
876.521	3409
876.65	3401
876.778	3332
876.906	3241
877.034	3180
877.162	3226
877.29	3184
877.418	3245
877.546	3226
877.674	3199
877.802	3226
877.93	3218
878.058	3161
878.185	3112
878.313	3211
878.441	3195
878.568	3077
878.696	3131
878.824	3203
878.951	3272
879.079	3450
879.206	3595
879.333	3424
879.461	3275
879.588	3374
879.715	3435
879.842	3599
879.97	3397
880.097	3176
880.224	3123
880.351	3169
880.478	3188
880.605	3230
880.732	3199
880.859	3431
880.986	3325
881.112	3298
881.239	3211
881.366	3104
881.493	3005
881.619	3028
881.746	3043
881.872	3081
881.999	3097
882.125	3119
882.252	3249
882.378	3310
882.505	3409
882.631	3253
882.757	3135
882.883	3211
883.01	3218
883.136	3176
883.262	3051
883.388	3123
883.514	3313
883.64	3374
883.766	3279
883.892	3146
884.018	3256
884.143	3397
884.269	3534
884.395	3207
884.52	3123
884.646	3173
884.772	3085
884.897	3135
885.023	3195
885.148	3317
885.274	3393
885.399	3329
885.524	3272
885.65	3241
885.775	3325
885.9	3249
886.025	3405
886.15	3355
886.275	3306
886.4	3214
886.525	3298
886.65	3249
886.775	3268
886.9	3500
887.025	3633
887.149	3393
887.274	3260
887.399	3176
887.523	3192
887.648	3150
887.773	3161
887.897	3336
888.021	3367
888.146	3272
888.27	3439
888.395	3515
888.519	3424
888.643	3393
888.767	3466
888.891	3272
889.015	3226
889.139	3275
889.263	3279
889.387	3386
889.511	3443
889.635	3492
889.759	3264
889.883	3310
890.006	3321
890.13	3504
890.254	3249
890.377	3317
890.501	3222
890.624	3176
890.748	3306
890.871	3188
890.995	3112
891.118	3032
891.241	3169
891.364	3184
891.488	3317
891.611	3165
891.734	3192
891.857	3272
891.98	3256
892.103	3313
892.226	3275
892.349	3188
892.471	3074
892.594	3256
892.717	3294
892.839	3291
892.962	3256
893.085	3351
893.207	3249
893.33	3161
893.452	3192
893.575	3336
893.697	3249
893.819	3477
893.941	3507
894.064	3447
894.186	3279
894.308	3279
894.43	3420
894.552	3530
894.674	3450
894.796	3249
894.918	3329
895.04	3264
895.161	3397
895.283	3412
895.405	3253
895.526	3344
895.648	3439
895.769	3401
895.891	3458
896.012	3443
896.134	3439
896.255	3431
896.376	3382
896.498	3340
896.619	3424
896.74	3367
896.861	3412
896.982	3675
897.103	3827
897.224	3564
897.345	3511
897.466	3412
897.587	3481
897.708	3587
897.828	3526
897.949	3424
898.07	3336
898.19	3401
898.311	3584
898.431	3412
898.552	3485
898.672	3580
898.792	3561
898.913	3504
899.033	3420
899.153	3306
899.273	3226
899.393	3279
899.513	3306
899.633	3332
899.753	3291
899.873	3313
899.993	3382
900.113	3367
900.232	3367
900.352	3306
900.472	3283
900.591	3184
900.711	3283
900.83	3226
900.95	3389
901.069	3458
901.189	3294
901.308	3184
901.427	3085
901.546	3176
901.665	3291
901.784	3313
901.904	3195
902.023	3157
902.141	3005
902.26	3028
902.379	3142
902.498	3055
902.617	3058
902.735	3176
902.854	3188
902.973	3203
903.091	3047
903.21	3085
903.328	3150
903.446	3112
903.565	3100
903.683	3211
903.801	3100
903.919	3226
904.038	3272
904.156	3173
904.274	3249
904.392	3241
904.51	3306
904.627	3329
904.745	3443
904.863	3454
904.981	3253
905.098	3157
905.216	3226
905.334	3287
905.451	3298
905.569	3344
905.686	3428
905.803	3462
905.921	3264
906.038	3458
906.155	3325
906.272	3260
906.389	3317
906.506	3211
906.623	3245
906.74	3264
906.857	3169
906.974	3214
907.091	3424
907.208	3507
907.324	3496
907.441	3378
907.557	3188
907.674	3195
907.79	3207
907.907	3306
908.023	3367
908.139	3370
908.256	3302
908.372	3393
908.488	3336
908.604	3237
908.72	3230
908.836	3283
908.952	3260
909.068	3317
909.184	3431
909.3	3367
909.415	3488
909.531	3481
909.647	3272
909.762	3291
909.878	3245
909.993	3378
910.108	3291
910.224	3348
910.339	3359
910.454	3302
910.57	3233
910.685	3249
910.8	3568
910.915	3587
911.03	3428
911.145	3253
911.259	3329
911.374	3325
911.489	3264
911.604	3184
911.718	3104
911.833	3176
911.947	3024
912.062	2971
912.176	3184
912.291	3169
912.405	3192
912.519	3428
912.633	3458
912.748	3325
912.862	3245
912.976	3176
913.09	3036
913.204	3123
913.318	3192
913.431	3306
913.545	3325
913.659	3416
913.772	3329
913.886	3237
914	3173
914.113	3370
914.226	3424
914.34	3306
914.453	3241
914.566	3405
914.68	3275
914.793	3329
914.906	3142
915.019	3112
915.132	3051
915.245	3184
915.358	3169
915.47	3169
915.583	3233
915.696	3291
915.809	3409
915.921	3431
916.034	3253
916.146	3264
916.259	3211
916.371	3355
916.483	3355
916.595	3249
916.708	3302
916.82	3313
916.932	3321
917.044	3359
917.156	3344
917.268	3218
917.38	3294
917.491	3287
917.603	3348
917.715	3382
917.826	3386
917.938	3370
918.049	3245
918.161	3450
918.272	3507
918.384	3534
918.495	3530
918.606	3321
918.717	3291
918.828	3355
918.939	3367
919.05	3268
919.161	3348
919.272	3188
919.383	3230
919.494	3447
919.604	3641
919.715	3466
919.826	3397
919.936	3447
920.047	3603
920.157	3519
920.267	3755
920.378	3599
920.488	3553
920.598	3740
920.708	3945
920.818	3823
920.928	3831
921.038	4013
921.148	3983
921.258	3717
921.368	3637
921.477	3572
921.587	3538
921.697	3492
921.806	3641
921.916	3557
922.025	3370
922.134	3405
922.244	3405
922.353	3485
922.462	3310
922.571	3233
922.68	3100
922.789	3070
922.898	3150
923.007	3119
923.116	3233
923.224	3165
923.333	3207
923.442	3131
923.55	3081
923.659	3192
923.767	3241
923.876	3146
923.984	3294
924.092	3131
924.201	3230
924.309	3287
924.417	3275
924.525	3249
924.633	3260
924.741	4249
924.849	3089
924.956	3329
925.064	3154
925.172	3081
925.279	3165
925.387	3245
925.494	3264
925.602	3389
925.709	3370
925.816	3230
925.924	3340
926.031	3416
926.138	3382
926.245	3401
926.352	3310
926.459	3454
926.566	3500
926.673	3367
926.779	3313
926.886	3287
926.993	3195
927.099	3188
927.206	3176
927.312	3150
927.419	3256
927.525	3226
927.631	3359
927.737	3135
927.843	3188
927.95	3051
928.056	3169
928.162	3199
928.267	3298
928.373	3816
928.479	3378
928.585	3104
928.69	3230
928.796	3325
928.901	3199
929.007	3077
929.112	3272
929.218	3222
929.323	3165
929.428	3157
929.533	3386
929.638	3173
929.743	3180
929.848	3279
929.953	3260
930.058	3188
930.163	3066
930.267	3089
930.372	3241
930.477	3100
930.581	3344
930.685	3218
930.79	3112
930.894	3146
930.998	3089
931.103	3310
931.207	3001
931.311	2971
931.415	2956
931.519	2834
931.623	2830
