Data from test_V78500241_1682.txt Node
Date: Fri Mar 25 16:26:51 CST 2022
User: usil
Spectrometer: V785-0024
Trigger mode: 0
Integration Time (sec): 4.000000E-1
Scans to average: 1
Nonlinearity correction enabled: false
Boxcar width: 0
Storing dark spectrum: false
XAxis mode: Wavelengths
Number of Pixels in Spectrum: 1024
>>>>>Begin Spectral Data<<<<<
801.071	3013
801.214	3032
801.356	2918
801.499	2925
801.641	2902
801.783	2979
801.926	3093
802.068	3001
802.211	3066
802.353	3097
802.496	2998
802.638	3058
802.78	3062
802.923	3131
803.065	3032
803.208	2895
803.35	2979
803.492	2948
803.635	2998
803.777	2807
803.919	2906
804.061	3249
804.204	2986
804.346	2937
804.488	2910
804.63	3013
804.773	2914
804.915	2956
805.057	3116
805.199	2952
805.341	2971
805.483	3085
805.626	3039
805.768	3005
805.91	3135
806.052	3138
806.194	3074
806.336	3249
806.478	3043
806.62	2994
806.762	3005
806.904	3108
807.046	3226
807.188	3043
807.33	2925
807.472	3047
807.614	2960
807.756	3009
807.898	2986
808.04	2952
808.182	3028
808.324	3013
808.465	2910
808.607	2887
808.749	2830
808.891	2880
809.033	3024
809.174	3036
809.316	2941
809.458	2941
809.6	2796
809.741	2800
809.883	2826
810.025	2857
810.166	2891
810.308	2887
810.45	2887
810.591	2807
810.733	2826
810.875	2933
811.016	2838
811.158	2834
811.299	2834
811.441	2941
811.582	2933
811.724	2838
811.865	2906
812.007	2948
812.148	2883
812.29	2922
812.431	2929
812.573	2975
812.714	2994
812.855	3051
812.997	3066
813.138	3188
813.279	3066
813.421	2990
813.562	2967
813.703	2883
813.845	2933
813.986	2777
814.127	2762
814.268	2857
814.41	2880
814.551	2864
814.692	2906
814.833	2876
814.974	2960
815.115	3013
815.256	2826
815.397	2819
815.539	2910
815.68	2834
815.821	2842
815.962	2994
816.103	3024
816.244	2880
816.385	2880
816.526	2998
816.666	2914
816.807	2792
816.948	2925
817.089	2918
817.23	2918
817.371	2800
817.512	2853
817.653	2887
817.793	2845
817.934	2902
818.075	2975
818.216	3005
818.356	3024
818.497	2910
818.638	2781
818.778	2861
818.919	2826
819.06	2815
819.2	2868
819.341	2845
819.481	2815
819.622	2918
819.762	3131
819.903	3085
820.043	2948
820.184	2967
820.324	2918
820.465	3043
820.605	3043
820.746	3039
820.886	2982
821.026	3085
821.167	3157
821.307	3325
821.447	3264
821.588	3241
821.728	3226
821.868	3230
822.008	3097
822.149	3207
822.289	3245
822.429	3127
822.569	3123
822.709	3218
822.849	3039
822.99	3074
823.13	3161
823.27	3207
823.41	3146
823.55	3188
823.69	3142
823.83	3218
823.97	3142
824.11	3066
824.25	3028
824.389	3112
824.529	3127
824.669	3074
824.809	3214
824.949	3272
825.089	3226
825.228	3192
825.368	3017
825.508	2979
825.648	3017
825.787	3058
825.927	3085
826.067	2990
826.206	2971
826.346	3116
826.485	3097
826.625	3119
826.765	3298
826.904	3272
827.044	3013
827.183	2948
827.323	2902
827.462	3020
827.601	2933
827.741	2963
827.88	2998
828.02	2876
828.159	3039
828.298	3074
828.437	3157
828.577	3043
828.716	3260
828.855	3108
828.994	2944
829.134	2906
829.273	2971
829.412	2902
829.551	2906
829.69	2933
829.829	3005
829.968	3165
830.107	3047
830.246	3028
830.385	2910
830.524	2910
830.663	2849
830.802	2754
830.941	2651
831.08	2678
831.219	2777
831.357	2773
831.496	2937
831.635	2777
831.774	2678
831.913	2712
832.051	2583
832.19	2598
832.329	2724
832.467	2552
832.606	2530
832.744	2617
832.883	2621
833.022	2610
833.16	2640
833.299	2720
833.437	2724
833.576	2735
833.714	2769
833.852	2743
833.991	2796
834.129	2864
834.267	2864
834.406	2815
834.544	2857
834.682	2937
834.821	2891
834.959	3074
835.097	2910
835.235	3074
835.373	3024
835.511	3043
835.65	2994
835.788	3013
835.926	2872
836.064	2811
836.202	2880
836.34	3131
836.478	3142
836.615	3066
836.753	3154
836.891	3253
837.029	3169
837.167	3142
837.305	3055
837.443	3058
837.58	2986
837.718	3161
837.856	3104
837.993	3051
838.131	3146
838.269	3100
838.406	3112
838.544	3100
838.681	2952
838.819	2948
838.956	2823
839.094	2872
839.231	2952
839.369	3062
839.506	3424
839.643	3268
839.781	3043
839.918	2971
840.055	3093
840.193	3070
840.33	3112
840.467	3097
840.604	3173
840.742	3447
840.879	3066
841.016	3055
841.153	3154
841.29	3321
841.427	3321
841.564	3268
841.701	3294
841.838	3214
841.975	3157
842.112	3222
842.249	3104
842.385	3043
842.522	3275
842.659	3093
842.796	3070
842.933	3119
843.069	3058
843.206	3058
843.343	3142
843.479	3146
843.616	3146
843.752	2910
843.889	2910
844.025	3135
844.162	2906
844.298	3074
844.435	2979
844.571	2948
844.708	3108
844.844	3214
844.98	3233
845.117	3218
845.253	3089
845.389	2990
845.525	3112
845.661	3142
845.798	3032
845.934	3150
846.07	3070
846.206	3222
846.342	3344
846.478	3226
846.614	3112
846.75	3108
846.886	3020
847.022	3256
847.158	3154
847.294	3237
847.429	3275
847.565	3230
847.701	3496
847.837	3077
847.972	3017
848.108	3169
848.244	3138
848.379	3028
848.515	2963
848.65	2967
848.786	2994
848.921	3009
849.057	3119
849.192	3150
849.328	3097
849.463	3131
849.598	3112
849.734	3051
849.869	3024
850.004	2944
850.14	2986
850.275	2899
850.41	2849
850.545	2868
850.68	2975
850.815	3017
850.95	2990
851.085	3237
851.22	3138
851.355	3028
851.49	2979
851.625	3020
851.76	3039
851.895	2933
852.03	2918
852.165	3047
852.299	3135
852.434	3176
852.569	3154
852.703	3173
852.838	3226
852.973	3374
853.107	3355
853.242	3157
853.376	3100
853.511	2975
853.645	3085
853.78	3272
853.914	3135
854.048	3138
854.183	3081
854.317	3195
854.451	3310
854.585	3142
854.72	3085
854.854	3214
854.988	3070
855.122	3112
855.256	3009
855.39	3116
855.524	3260
855.658	3211
855.792	3169
855.926	3230
856.06	3256
856.194	3291
856.327	3142
856.461	3081
856.595	3119
856.729	3089
856.862	3188
856.996	3138
857.13	3199
857.263	3230
857.397	3272
857.53	3127
857.664	3230
857.797	3291
857.931	3264
858.064	3188
858.197	3233
858.331	3138
858.464	3097
858.597	3017
858.731	3131
858.864	3150
858.997	3112
859.13	3169
859.263	3176
859.396	3211
859.529	3070
859.662	3062
859.795	3039
859.928	3192
860.061	3275
860.194	3298
860.327	3135
860.46	3123
860.592	3264
860.725	3237
860.858	3279
860.99	3066
861.123	3085
861.256	3047
861.388	3176
861.521	3903
861.653	3032
861.786	2986
861.918	3039
862.05	3108
862.183	3062
862.315	3176
862.447	3203
862.58	3135
862.712	2990
862.844	2876
862.976	3028
863.108	3017
863.24	3428
863.372	2887
863.504	2971
863.636	2963
863.768	3055
863.9	3017
864.032	2937
864.164	2963
864.296	3032
864.428	3100
864.559	3112
864.691	3116
864.823	3062
864.954	3051
865.086	3043
865.217	3017
865.349	2956
865.48	3005
865.612	3036
865.743	3138
865.875	2994
866.006	2933
866.137	2963
866.269	2929
866.4	2971
866.531	2929
866.662	2895
866.793	2891
866.924	2880
867.055	3024
867.186	2918
867.317	2880
867.448	2826
867.579	2842
867.71	2876
867.841	2849
867.972	2918
868.103	2895
868.233	2906
868.364	2887
868.495	2944
868.625	3066
868.756	3161
868.886	3013
869.017	3013
869.147	3150
869.278	3157
869.408	3066
869.539	3028
869.669	3100
869.799	3066
869.929	3135
870.06	3104
870.19	3329
870.32	3306
870.45	3294
870.58	3367
870.71	3454
870.84	3466
870.97	3298
871.1	3214
871.23	3485
871.36	3439
871.489	3355
871.619	3424
871.749	3412
871.879	3447
872.008	3523
872.138	3310
872.267	3260
872.397	3161
872.526	3131
872.656	3051
872.785	3093
872.915	3237
873.044	3329
873.173	3203
873.303	3253
873.432	3230
873.561	3230
873.69	3131
873.819	3176
873.948	3218
874.077	3116
874.206	3024
874.335	3089
874.464	3253
874.593	3386
874.722	3275
874.851	3397
874.979	3348
875.108	3359
875.237	3165
875.365	3188
875.494	3203
875.623	3241
875.751	3108
875.88	3097
876.008	3192
876.136	3199
876.265	3363
876.393	3526
876.521	3462
876.65	3386
876.778	3283
876.906	3272
877.034	3230
877.162	3237
877.29	3192
877.418	3294
877.546	3298
877.674	3222
877.802	3268
877.93	3211
878.058	3169
878.185	3097
878.313	3230
878.441	3214
878.568	3093
878.696	3173
878.824	3249
878.951	3336
879.079	3458
879.206	3648
879.333	3401
879.461	3336
879.588	3359
879.715	3530
879.842	3587
879.97	3367
880.097	3154
880.224	3135
880.351	3195
880.478	3230
880.605	3249
880.732	3214
880.859	3500
880.986	3321
881.112	3336
881.239	3237
881.366	3116
881.493	3070
881.619	3039
881.746	3077
881.872	3085
881.999	3116
882.125	3176
882.252	3264
882.378	3287
882.505	3477
882.631	3268
882.757	3127
882.883	3188
883.01	3260
883.136	3157
883.262	3108
883.388	3112
883.514	3310
883.64	3405
883.766	3294
883.892	3180
884.018	3211
884.143	3409
884.269	3538
884.395	3237
884.52	3154
884.646	3188
884.772	3157
884.897	3123
885.023	3199
885.148	3310
885.274	3420
885.399	3367
885.524	3310
885.65	3260
885.775	3298
885.9	3287
886.025	3393
886.15	3378
886.275	3294
886.4	3241
886.525	3348
886.65	3249
886.775	3272
886.9	3504
887.025	3637
887.149	3401
887.274	3253
887.399	3211
887.523	3230
887.648	3161
887.773	3173
887.897	3340
888.021	3412
888.146	3291
888.27	3428
888.395	3553
888.519	3450
888.643	3450
888.767	3439
888.891	3283
889.015	3253
889.139	3332
889.263	3260
889.387	3435
889.511	3496
889.635	3420
889.759	3313
889.883	3298
890.006	3378
890.13	3496
890.254	3264
890.377	3310
890.501	3199
890.624	3218
890.748	3310
890.871	3192
890.995	3104
891.118	3058
891.241	3180
891.364	3253
891.488	3355
891.611	3135
891.734	3237
891.857	3287
891.98	3211
892.103	3302
892.226	3241
892.349	3230
892.471	3104
892.594	3211
892.717	3264
892.839	3264
892.962	3294
893.085	3389
893.207	3306
893.33	3192
893.452	3211
893.575	3329
893.697	3249
893.819	3454
893.941	3542
894.064	3450
894.186	3268
894.308	3245
894.43	3420
894.552	3557
894.674	3435
894.796	3245
894.918	3298
895.04	3287
895.161	3401
895.283	3374
895.405	3329
895.526	3332
895.648	3412
895.769	3416
895.891	3458
896.012	3488
896.134	3481
896.255	3443
896.376	3321
896.498	3393
896.619	3393
896.74	3359
896.861	3412
896.982	3701
897.103	3838
897.224	3595
897.345	3538
897.466	3428
897.587	3519
897.708	3576
897.828	3485
897.949	3424
898.07	3313
898.19	3424
898.311	3603
898.431	3443
898.552	3538
898.672	3576
898.792	3587
898.913	3526
899.033	3431
899.153	3302
899.273	3188
899.393	3294
899.513	3294
899.633	3298
899.753	3317
899.873	3321
899.993	3386
900.113	3321
900.232	3420
900.352	3336
900.472	3241
900.591	3214
900.711	3272
900.83	3233
900.95	3466
901.069	3488
901.189	3332
901.308	3146
901.427	3116
901.546	3192
901.665	3302
901.784	3329
901.904	3222
902.023	3142
902.141	2994
902.26	2990
902.379	3138
902.498	3070
902.617	3074
902.735	3184
902.854	3245
902.973	3199
903.091	3062
903.21	3055
903.328	3127
903.446	3108
903.565	3127
903.683	3226
903.801	3116
903.919	3249
904.038	3298
904.156	3180
904.274	3291
904.392	3241
904.51	3275
904.627	3344
904.745	3477
904.863	3435
904.981	3279
905.098	3146
905.216	3233
905.334	3332
905.451	3294
905.569	3287
905.686	3424
905.803	3447
905.921	3268
906.038	3409
906.155	3344
906.272	3275
906.389	3355
906.506	3260
906.623	3214
906.74	3245
906.857	3195
906.974	3237
907.091	3416
907.208	3591
907.324	3523
907.441	3351
907.557	3226
907.674	3218
907.79	3211
907.907	3253
908.023	3393
908.139	3367
908.256	3321
908.372	3367
908.488	3351
908.604	3256
908.72	3195
908.836	3256
908.952	3268
909.068	3287
909.184	3492
909.3	3393
909.415	3523
909.531	3443
909.647	3275
909.762	3268
909.878	3222
909.993	3348
910.108	3321
910.224	3355
910.339	3450
910.454	3336
910.57	3283
910.685	3272
910.8	3610
910.915	3530
911.03	3405
911.145	3241
911.259	3260
911.374	3332
911.489	3218
911.604	3275
911.718	3127
911.833	3165
911.947	3043
912.062	2986
912.176	3138
912.291	3176
912.405	3203
912.519	3443
912.633	3481
912.748	3367
912.862	3287
912.976	3184
913.09	3058
913.204	3154
913.318	3233
913.431	3344
913.545	3363
913.659	3393
913.772	3317
913.886	3226
914	3180
914.113	3332
914.226	3393
914.34	3336
914.453	3241
914.566	3424
914.68	3256
914.793	3283
914.906	3142
915.019	3135
915.132	3051
915.245	3211
915.358	3192
915.47	3218
915.583	3245
915.696	3317
915.809	3389
915.921	3416
916.034	3245
916.146	3272
916.259	3237
916.371	3378
916.483	3329
916.595	3298
916.708	3355
916.82	3332
916.932	3344
917.044	3367
917.156	3409
917.268	3253
917.38	3264
917.491	3260
917.603	3397
917.715	3485
917.826	3447
917.938	3386
918.049	3294
918.161	3458
918.272	3606
918.384	3606
918.495	3485
918.606	3325
918.717	3260
918.828	3382
918.939	3447
919.05	3306
919.161	3412
919.272	3157
919.383	3294
919.494	3473
919.604	3652
919.715	3477
919.826	3405
919.936	3454
920.047	3591
920.157	3523
920.267	3812
920.378	3564
920.488	3595
920.598	3789
920.708	3941
920.818	3838
920.928	3838
921.038	4051
921.148	3994
921.258	3698
921.368	3667
921.477	3557
921.587	3549
921.697	3458
921.806	3622
921.916	3523
922.025	3348
922.134	3370
922.244	3313
922.353	3443
922.462	3287
922.571	3222
922.68	3123
922.789	3097
922.898	3100
923.007	3097
923.116	3184
923.224	3157
923.333	3169
923.442	3074
923.55	3081
923.659	3146
923.767	3195
923.876	3146
923.984	3199
924.092	3074
924.201	3214
924.309	3165
924.417	3264
924.525	3192
924.633	3226
924.741	4219
924.849	3032
924.956	3260
925.064	3135
925.172	3028
925.279	3108
925.387	3173
925.494	3211
925.602	3374
925.709	3332
925.816	3203
925.924	3268
926.031	3405
926.138	3336
926.245	3363
926.352	3230
926.459	3431
926.566	3458
926.673	3336
926.779	3256
926.886	3207
926.993	3173
927.099	3157
927.206	3108
927.312	3127
927.419	3211
927.525	3199
927.631	3294
927.737	3131
927.843	3123
927.95	3024
928.056	3165
928.162	3180
928.267	3230
928.373	3842
928.479	3272
928.585	3066
928.69	3211
928.796	3245
928.901	3154
929.007	3009
929.112	3199
929.218	3146
929.323	3142
929.428	3138
929.533	3313
929.638	3085
929.743	3192
929.848	3260
929.953	3207
930.058	3104
930.163	2967
930.267	3028
930.372	3207
930.477	3051
930.581	3302
930.685	3135
930.79	3036
930.894	3135
930.998	3093
931.103	3260
931.207	2918
931.311	2956
931.415	2914
931.519	2762
931.623	2826
