Data from test_V78500241_1839.txt Node
Date: Fri Mar 25 16:27:56 CST 2022
User: usil
Spectrometer: V785-0024
Trigger mode: 0
Integration Time (sec): 4.000000E-1
Scans to average: 1
Nonlinearity correction enabled: false
Boxcar width: 0
Storing dark spectrum: false
XAxis mode: Wavelengths
Number of Pixels in Spectrum: 1024
>>>>>Begin Spectral Data<<<<<
801.071	2925
801.214	2960
801.356	2876
801.499	2922
801.641	2902
801.783	2937
801.926	3036
802.068	2986
802.211	3009
802.353	3055
802.496	2975
802.638	3036
802.78	3051
802.923	3089
803.065	2994
803.208	2918
803.35	2952
803.492	2956
803.635	2937
803.777	2773
803.919	2849
804.061	3188
804.204	2967
804.346	2922
804.488	2868
804.63	3024
804.773	2883
804.915	2956
805.057	3108
805.199	2971
805.341	2971
805.483	3047
805.626	3024
805.768	2963
805.91	3051
806.052	3138
806.194	3036
806.336	3233
806.478	3062
806.62	2994
806.762	2982
806.904	3077
807.046	3169
807.188	2986
807.33	2960
807.472	2975
807.614	2895
807.756	2998
807.898	2952
808.04	2895
808.182	2960
808.324	2925
808.465	2887
808.607	2906
808.749	2788
808.891	2861
809.033	3005
809.174	2952
809.316	2883
809.458	2872
809.6	2781
809.741	2804
809.883	2735
810.025	2849
810.166	2842
810.308	2845
810.45	2864
810.591	2834
810.733	2796
810.875	2823
811.016	2777
811.158	2754
811.299	2785
811.441	2918
811.582	2899
811.724	2830
811.865	2826
812.007	2899
812.148	2868
812.29	2883
812.431	2895
812.573	2941
812.714	2952
812.855	3036
812.997	3058
813.138	3112
813.279	3001
813.421	2979
813.562	2956
813.703	2849
813.845	2887
813.986	2766
814.127	2781
814.268	2830
814.41	2864
814.551	2819
814.692	2872
814.833	2849
814.974	2887
815.115	2948
815.256	2830
815.397	2792
815.539	2842
815.68	2758
815.821	2777
815.962	2933
816.103	2941
816.244	2883
816.385	2868
816.526	2975
816.666	2937
816.807	2735
816.948	2906
817.089	2902
817.23	2861
817.371	2769
817.512	2807
817.653	2823
817.793	2769
817.934	2891
818.075	2956
818.216	2994
818.356	2998
818.497	2891
818.638	2777
818.778	2807
818.919	2777
819.06	2766
819.2	2922
819.341	2826
819.481	2807
819.622	2933
819.762	3093
819.903	3070
820.043	2956
820.184	2914
820.324	2902
820.465	2990
820.605	3036
820.746	3028
820.886	2937
821.026	3123
821.167	3150
821.307	3306
821.447	3317
821.588	3268
821.728	3237
821.868	3218
822.008	3089
822.149	3176
822.289	3298
822.429	3097
822.569	3135
822.709	3207
822.849	3093
822.99	3077
823.13	3203
823.27	3195
823.41	3131
823.55	3176
823.69	3207
823.83	3207
823.97	3150
824.11	3066
824.25	3017
824.389	3138
824.529	3119
824.669	3089
824.809	3230
824.949	3306
825.089	3268
825.228	3169
825.368	3051
825.508	3020
825.648	3039
825.787	3058
825.927	3089
826.067	2994
826.206	2986
826.346	3081
826.485	3089
826.625	3116
826.765	3325
826.904	3207
827.044	3043
827.183	2956
827.323	2910
827.462	3047
827.601	2914
827.741	2948
827.88	2975
828.02	2906
828.159	3024
828.298	3077
828.437	3108
828.577	3051
828.716	3344
828.855	3112
828.994	2933
829.134	2891
829.273	2933
829.412	2922
829.551	2872
829.69	2922
829.829	3039
829.968	3180
830.107	3074
830.246	3074
830.385	2956
830.524	2937
830.663	2895
830.802	2792
830.941	2697
831.08	2667
831.219	2792
831.357	2796
831.496	2963
831.635	2785
831.774	2674
831.913	2697
832.051	2571
832.19	2613
832.329	2739
832.467	2560
832.606	2495
832.744	2598
832.883	2575
833.022	2625
833.16	2667
833.299	2758
833.437	2731
833.576	2754
833.714	2777
833.852	2777
833.991	2769
834.129	2864
834.267	2876
834.406	2834
834.544	2910
834.682	2895
834.821	2906
834.959	3081
835.097	2963
835.235	3108
835.373	3036
835.511	3032
835.65	2975
835.788	2998
835.926	2876
836.064	2842
836.202	2910
836.34	3116
836.478	3150
836.615	3093
836.753	3161
836.891	3237
837.029	3203
837.167	3123
837.305	3097
837.443	3070
837.58	2982
837.718	3150
837.856	3058
837.993	3089
838.131	3157
838.269	3131
838.406	3127
838.544	3097
838.681	2971
838.819	2929
838.956	2872
839.094	2895
839.231	2937
839.369	3039
839.506	3382
839.643	3264
839.781	3066
839.918	2998
840.055	3077
840.193	3085
840.33	3077
840.467	3138
840.604	3184
840.742	3397
840.879	3058
841.016	3093
841.153	3142
841.29	3393
841.427	3340
841.564	3294
841.701	3329
841.838	3245
841.975	3211
842.112	3222
842.249	3116
842.385	3024
842.522	3237
842.659	3127
842.796	3074
842.933	3116
843.069	3058
843.206	3055
843.343	3222
843.479	3146
843.616	3142
843.752	2944
843.889	2891
844.025	3108
844.162	2906
844.298	3089
844.435	2982
844.571	2952
844.708	3104
844.844	3203
844.98	3249
845.117	3211
845.253	3074
845.389	3058
845.525	3146
845.661	3135
845.798	3005
845.934	3108
846.07	3058
846.206	3253
846.342	3332
846.478	3241
846.614	3119
846.75	3142
846.886	3032
847.022	3275
847.158	3165
847.294	3241
847.429	3264
847.565	3218
847.701	3519
847.837	3058
847.972	3013
848.108	3199
848.244	3138
848.379	3032
848.515	2960
848.65	2982
848.786	3009
848.921	3013
849.057	3119
849.192	3188
849.328	3108
849.463	3135
849.598	3074
849.734	3028
849.869	2971
850.004	2937
850.14	2994
850.275	2960
850.41	2895
850.545	2880
850.68	2979
850.815	2979
850.95	2979
851.085	3233
851.22	3097
851.355	3051
851.49	3020
851.625	3081
851.76	3043
851.895	2944
852.03	2933
852.165	3085
852.299	3131
852.434	3214
852.569	3157
852.703	3184
852.838	3264
852.973	3336
853.107	3321
853.242	3161
853.376	3131
853.511	2998
853.645	3062
853.78	3260
853.914	3146
854.048	3138
854.183	3074
854.317	3184
854.451	3306
854.585	3142
854.72	3116
854.854	3203
854.988	3081
855.122	3108
855.256	2979
855.39	3173
855.524	3272
855.658	3188
855.792	3154
855.926	3230
856.06	3253
856.194	3279
856.327	3173
856.461	3074
856.595	3112
856.729	3161
856.862	3230
856.996	3184
857.13	3237
857.263	3260
857.397	3313
857.53	3142
857.664	3207
857.797	3279
857.931	3298
858.064	3173
858.197	3249
858.331	3176
858.464	3089
858.597	3013
858.731	3165
858.864	3173
858.997	3116
859.13	3161
859.263	3195
859.396	3218
859.529	3100
859.662	3131
859.795	3077
859.928	3161
860.061	3275
860.194	3298
860.327	3135
860.46	3104
860.592	3253
860.725	3275
860.858	3245
860.99	3131
861.123	3051
861.256	3081
861.388	3150
861.521	3831
861.653	3062
861.786	3005
861.918	3013
862.05	3074
862.183	3116
862.315	3195
862.447	3222
862.58	3112
862.712	2967
862.844	2891
862.976	3043
863.108	2975
863.24	3473
863.372	2914
863.504	3001
863.636	2975
863.768	3009
863.9	2982
864.032	2937
864.164	2960
864.296	3043
864.428	3093
864.559	3119
864.691	3112
864.823	3100
864.954	3024
865.086	3089
865.217	3020
865.349	2971
865.48	2986
865.612	3013
865.743	3161
865.875	3028
866.006	2941
866.137	2986
866.269	2979
866.4	2948
866.531	2937
866.662	2925
866.793	2902
866.924	2948
867.055	2963
867.186	2990
867.317	2910
867.448	2834
867.579	2861
867.71	2872
867.841	2811
867.972	2952
868.103	2929
868.233	2899
868.364	2880
868.495	2895
868.625	3116
868.756	3211
868.886	2990
869.017	3028
869.147	3180
869.278	3176
869.408	3081
869.539	3032
869.669	3142
869.799	3066
869.929	3146
870.06	3150
870.19	3332
870.32	3325
870.45	3275
870.58	3378
870.71	3481
870.84	3450
870.97	3325
871.1	3264
871.23	3496
871.36	3477
871.489	3348
871.619	3443
871.749	3412
871.879	3450
872.008	3500
872.138	3367
872.267	3298
872.397	3214
872.526	3135
872.656	3005
872.785	3104
872.915	3249
873.044	3367
873.173	3199
873.303	3214
873.432	3272
873.561	3260
873.69	3180
873.819	3184
873.948	3199
874.077	3108
874.206	3077
874.335	3108
874.464	3214
874.593	3386
874.722	3226
874.851	3416
874.979	3329
875.108	3359
875.237	3180
875.365	3203
875.494	3173
875.623	3222
875.751	3074
875.88	3135
876.008	3184
876.136	3283
876.265	3393
876.393	3504
876.521	3450
876.65	3428
876.778	3355
876.906	3287
877.034	3245
877.162	3272
877.29	3188
877.418	3256
877.546	3253
877.674	3283
877.802	3253
877.93	3237
878.058	3176
878.185	3108
878.313	3207
878.441	3214
878.568	3081
878.696	3188
878.824	3264
878.951	3306
879.079	3443
879.206	3618
879.333	3458
879.461	3325
879.588	3355
879.715	3447
879.842	3622
879.97	3386
880.097	3157
880.224	3131
880.351	3173
880.478	3211
880.605	3203
880.732	3214
880.859	3507
880.986	3340
881.112	3344
881.239	3199
881.366	3123
881.493	3047
881.619	3005
881.746	3093
881.872	3085
881.999	3154
882.125	3169
882.252	3253
882.378	3264
882.505	3424
882.631	3313
882.757	3161
882.883	3283
883.01	3237
883.136	3199
883.262	3142
883.388	3157
883.514	3348
883.64	3374
883.766	3310
883.892	3192
884.018	3249
884.143	3409
884.269	3564
884.395	3245
884.52	3176
884.646	3230
884.772	3089
884.897	3112
885.023	3211
885.148	3382
885.274	3450
885.399	3393
885.524	3313
885.65	3306
885.775	3351
885.9	3298
886.025	3466
886.15	3317
886.275	3298
886.4	3241
886.525	3332
886.65	3313
886.775	3275
886.9	3515
887.025	3641
887.149	3378
887.274	3272
887.399	3230
887.523	3249
887.648	3161
887.773	3222
887.897	3363
888.021	3420
888.146	3279
888.27	3405
888.395	3530
888.519	3447
888.643	3458
888.767	3443
888.891	3344
889.015	3253
889.139	3287
889.263	3249
889.387	3439
889.511	3564
889.635	3515
889.759	3302
889.883	3306
890.006	3382
890.13	3500
890.254	3226
890.377	3325
890.501	3233
890.624	3180
890.748	3332
890.871	3176
890.995	3116
891.118	3112
891.241	3203
891.364	3241
891.488	3332
891.611	3184
891.734	3230
891.857	3325
891.98	3249
892.103	3386
892.226	3329
892.349	3203
892.471	3093
892.594	3237
892.717	3302
892.839	3256
892.962	3298
893.085	3348
893.207	3260
893.33	3192
893.452	3180
893.575	3374
893.697	3260
893.819	3473
893.941	3530
894.064	3450
894.186	3275
894.308	3260
894.43	3466
894.552	3515
894.674	3485
894.796	3237
894.918	3363
895.04	3302
895.161	3454
895.283	3374
895.405	3291
895.526	3378
895.648	3397
895.769	3435
895.891	3477
896.012	3462
896.134	3466
896.255	3412
896.376	3386
896.498	3348
896.619	3454
896.74	3363
896.861	3447
896.982	3663
897.103	3861
897.224	3610
897.345	3515
897.466	3481
897.587	3500
897.708	3614
897.828	3530
897.949	3447
898.07	3310
898.19	3386
898.311	3652
898.431	3481
898.552	3500
898.672	3606
898.792	3603
898.913	3557
899.033	3420
899.153	3275
899.273	3233
899.393	3272
899.513	3329
899.633	3359
899.753	3367
899.873	3329
899.993	3409
900.113	3329
900.232	3409
900.352	3336
900.472	3264
900.591	3214
900.711	3260
900.83	3256
900.95	3397
901.069	3488
901.189	3359
901.308	3184
901.427	3142
901.546	3222
901.665	3291
901.784	3291
901.904	3245
902.023	3142
902.141	2994
902.26	2990
902.379	3119
902.498	3085
902.617	3055
902.735	3154
902.854	3207
902.973	3211
903.091	3036
903.21	3074
903.328	3169
903.446	3150
903.565	3104
903.683	3176
903.801	3150
903.919	3245
904.038	3306
904.156	3157
904.274	3298
904.392	3264
904.51	3253
904.627	3287
904.745	3450
904.863	3523
904.981	3264
905.098	3157
905.216	3256
905.334	3321
905.451	3348
905.569	3298
905.686	3454
905.803	3450
905.921	3268
906.038	3431
906.155	3332
906.272	3268
906.389	3344
906.506	3249
906.623	3275
906.74	3260
906.857	3161
906.974	3272
907.091	3473
907.208	3534
907.324	3496
907.441	3420
907.557	3256
907.674	3294
907.79	3249
907.907	3321
908.023	3370
908.139	3336
908.256	3321
908.372	3378
908.488	3321
908.604	3222
908.72	3241
908.836	3272
908.952	3272
909.068	3329
909.184	3485
909.3	3401
909.415	3504
909.531	3454
909.647	3245
909.762	3313
909.878	3237
909.993	3355
910.108	3367
910.224	3344
910.339	3378
910.454	3378
910.57	3302
910.685	3272
910.8	3580
910.915	3561
911.03	3397
911.145	3218
911.259	3275
911.374	3321
911.489	3230
911.604	3214
911.718	3127
911.833	3146
911.947	3039
912.062	2986
912.176	3142
912.291	3226
912.405	3195
912.519	3424
912.633	3500
912.748	3336
912.862	3294
912.976	3157
913.09	3074
913.204	3161
913.318	3233
913.431	3348
913.545	3351
913.659	3405
913.772	3325
913.886	3233
914	3199
914.113	3340
914.226	3439
914.34	3378
914.453	3226
914.566	3389
914.68	3306
914.793	3275
914.906	3184
915.019	3081
915.132	3062
915.245	3203
915.358	3203
915.47	3260
915.583	3268
915.696	3317
915.809	3435
915.921	3386
916.034	3237
916.146	3268
916.259	3237
916.371	3382
916.483	3348
916.595	3260
916.708	3329
916.82	3325
916.932	3374
917.044	3359
917.156	3370
917.268	3264
917.38	3294
917.491	3317
917.603	3363
917.715	3454
917.826	3477
917.938	3355
918.049	3253
918.161	3458
918.272	3553
918.384	3572
918.495	3511
918.606	3325
918.717	3310
918.828	3409
918.939	3367
919.05	3294
919.161	3355
919.272	3180
919.383	3283
919.494	3519
919.604	3629
919.715	3507
919.826	3401
919.936	3485
920.047	3561
920.157	3564
920.267	3728
920.378	3633
920.488	3580
920.598	3793
920.708	3899
920.818	3793
920.928	3835
921.038	4017
921.148	3956
921.258	3694
921.368	3629
921.477	3614
921.587	3530
921.697	3477
921.806	3614
921.916	3530
922.025	3340
922.134	3374
922.244	3317
922.353	3447
922.462	3260
922.571	3241
922.68	3123
922.789	3077
922.898	3123
923.007	3097
923.116	3207
923.224	3154
923.333	3188
923.442	3123
923.55	3085
923.659	3138
923.767	3222
923.876	3135
923.984	3207
924.092	3116
924.201	3199
924.309	3207
924.417	3260
924.525	3199
924.633	3249
924.741	4147
924.849	3062
924.956	3275
925.064	3077
925.172	3017
925.279	3093
925.387	3184
925.494	3233
925.602	3340
925.709	3351
925.816	3195
925.924	3291
926.031	3336
926.138	3306
926.245	3344
926.352	3241
926.459	3405
926.566	3485
926.673	3294
926.779	3253
926.886	3260
926.993	3127
927.099	3119
927.206	3135
927.312	3135
927.419	3237
927.525	3218
927.631	3256
927.737	3169
927.843	3173
927.95	3051
928.056	3135
928.162	3161
928.267	3207
928.373	3755
928.479	3351
928.585	3051
928.69	3222
928.796	3253
928.901	3154
929.007	3070
929.112	3169
929.218	3192
929.323	3138
929.428	3154
929.533	3291
929.638	3123
929.743	3176
929.848	3253
929.953	3226
930.058	3142
930.163	3013
930.267	3039
930.372	3199
930.477	3055
930.581	3340
930.685	3169
930.79	3028
930.894	3100
930.998	3108
931.103	3287
931.207	3001
931.311	2956
931.415	2906
931.519	2773
931.623	2804
