Data from test_V78500241_1382.txt Node
Date: Fri Mar 25 16:24:46 CST 2022
User: usil
Spectrometer: V785-0024
Trigger mode: 0
Integration Time (sec): 4.000000E-1
Scans to average: 1
Nonlinearity correction enabled: false
Boxcar width: 0
Storing dark spectrum: false
XAxis mode: Wavelengths
Number of Pixels in Spectrum: 1024
>>>>>Begin Spectral Data<<<<<
801.071	2918
801.214	2963
801.356	2902
801.499	2948
801.641	2914
801.783	2933
801.926	3062
802.068	3001
802.211	3013
802.353	3070
802.496	2982
802.638	3032
802.78	3074
802.923	3119
803.065	3024
803.208	2933
803.35	2929
803.492	2937
803.635	2967
803.777	2777
803.919	2880
804.061	3233
804.204	2952
804.346	2944
804.488	2842
804.63	2990
804.773	2864
804.915	2952
805.057	3108
805.199	2956
805.341	2994
805.483	3089
805.626	3024
805.768	2986
805.91	3100
806.052	3112
806.194	3055
806.336	3253
806.478	3043
806.62	2963
806.762	2982
806.904	3108
807.046	3188
807.188	3024
807.33	2922
807.472	3005
807.614	2910
807.756	2971
807.898	2929
808.04	2922
808.182	3001
808.324	2948
808.465	2914
808.607	2899
808.749	2864
808.891	2857
809.033	3009
809.174	2998
809.316	2899
809.458	2933
809.6	2819
809.741	2792
809.883	2823
810.025	2880
810.166	2891
810.308	2868
810.45	2876
810.591	2823
810.733	2792
810.875	2861
811.016	2830
811.158	2777
811.299	2826
811.441	2933
811.582	2963
811.724	2845
811.865	2861
812.007	2922
812.148	2891
812.29	2876
812.431	2937
812.573	2937
812.714	3005
812.855	3104
812.997	3089
813.138	3142
813.279	3024
813.421	3005
813.562	2971
813.703	2902
813.845	2918
813.986	2781
814.127	2731
814.268	2826
814.41	2876
814.551	2842
814.692	2899
814.833	2861
814.974	2910
815.115	2967
815.256	2838
815.397	2853
815.539	2842
815.68	2796
815.821	2811
815.962	2994
816.103	2929
816.244	2906
816.385	2925
816.526	2960
816.666	2933
816.807	2724
816.948	2937
817.089	2941
817.23	2845
817.371	2804
817.512	2777
817.653	2864
817.793	2807
817.934	2891
818.075	3009
818.216	2994
818.356	3062
818.497	2918
818.638	2807
818.778	2857
818.919	2845
819.06	2796
819.2	2880
819.341	2834
819.481	2815
819.622	2937
819.762	3089
819.903	3036
820.043	2952
820.184	2937
820.324	2906
820.465	3047
820.605	3043
820.746	3058
820.886	2963
821.026	3123
821.167	3184
821.307	3260
821.447	3287
821.588	3230
821.728	3188
821.868	3230
822.008	3077
822.149	3184
822.289	3249
822.429	3119
822.569	3112
822.709	3180
822.849	3020
822.99	3066
823.13	3173
823.27	3169
823.41	3173
823.55	3142
823.69	3154
823.83	3188
823.97	3123
824.11	3013
824.25	3017
824.389	3070
824.529	3116
824.669	3119
824.809	3249
824.949	3264
825.089	3218
825.228	3218
825.368	3039
825.508	2971
825.648	2971
825.787	3024
825.927	3001
826.067	2967
826.206	2944
826.346	3070
826.485	3093
826.625	3112
826.765	3253
826.904	3233
827.044	3005
827.183	2963
827.323	2880
827.462	3009
827.601	2925
827.741	2948
827.88	2956
828.02	2872
828.159	2956
828.298	3074
828.437	3070
828.577	3055
828.716	3214
828.855	3089
828.994	2944
829.134	2857
829.273	2944
829.412	2849
829.551	2918
829.69	2895
829.829	3020
829.968	3131
830.107	3020
830.246	3051
830.385	2914
830.524	2895
830.663	2834
830.802	2769
830.941	2693
831.08	2693
831.219	2762
831.357	2754
831.496	3001
831.635	2750
831.774	2667
831.913	2705
832.051	2571
832.19	2590
832.329	2701
832.467	2560
832.606	2530
832.744	2606
832.883	2636
833.022	2621
833.16	2667
833.299	2705
833.437	2697
833.576	2724
833.714	2705
833.852	2735
833.991	2781
834.129	2864
834.267	2842
834.406	2785
834.544	2872
834.682	2876
834.821	2864
834.959	3077
835.097	2910
835.235	3058
835.373	3028
835.511	3024
835.65	2975
835.788	2948
835.926	2857
836.064	2811
836.202	2834
836.34	3100
836.478	3150
836.615	3074
836.753	3146
836.891	3192
837.029	3180
837.167	3119
837.305	3062
837.443	3051
837.58	2948
837.718	3146
837.856	3093
837.993	3032
838.131	3146
838.269	3081
838.406	3093
838.544	3097
838.681	2910
838.819	2948
838.956	2857
839.094	2857
839.231	2952
839.369	3036
839.506	3405
839.643	3184
839.781	2990
839.918	3017
840.055	3020
840.193	3028
840.33	3093
840.467	3104
840.604	3176
840.742	3409
840.879	3058
841.016	3055
841.153	3131
841.29	3370
841.427	3283
841.564	3249
841.701	3317
841.838	3222
841.975	3222
842.112	3230
842.249	3112
842.385	3039
842.522	3249
842.659	3119
842.796	3058
842.933	3119
843.069	3066
843.206	3066
843.343	3180
843.479	3119
843.616	3112
843.752	2891
843.889	2906
844.025	3116
844.162	2845
844.298	3085
844.435	2971
844.571	2914
844.708	3055
844.844	3222
844.98	3211
845.117	3230
845.253	3039
845.389	3032
845.525	3112
845.661	3097
845.798	3036
845.934	3119
846.07	3074
846.206	3222
846.342	3348
846.478	3253
846.614	3089
846.75	3066
846.886	3013
847.022	3241
847.158	3116
847.294	3222
847.429	3253
847.565	3237
847.701	3492
847.837	3051
847.972	3001
848.108	3161
848.244	3108
848.379	3009
848.515	2960
848.65	2937
848.786	2967
848.921	3051
849.057	3108
849.192	3138
849.328	3043
849.463	3119
849.598	3066
849.734	3051
849.869	2956
850.004	2914
850.14	2975
850.275	2910
850.41	2857
850.545	2849
850.68	2967
850.815	2952
850.95	2941
851.085	3184
851.22	3131
851.355	3017
851.49	2982
851.625	2994
851.76	3005
851.895	2933
852.03	2929
852.165	3028
852.299	3116
852.434	3176
852.569	3150
852.703	3142
852.838	3283
852.973	3359
853.107	3317
853.242	3138
853.376	3108
853.511	2990
853.645	3062
853.78	3287
853.914	3146
854.048	3119
854.183	3123
854.317	3157
854.451	3310
854.585	3127
854.72	3104
854.854	3195
854.988	3036
855.122	3100
855.256	2956
855.39	3108
855.524	3230
855.658	3233
855.792	3135
855.926	3241
856.06	3195
856.194	3302
856.327	3104
856.461	3066
856.595	3112
856.729	3070
856.862	3241
856.996	3188
857.13	3192
857.263	3226
857.397	3256
857.53	3112
857.664	3188
857.797	3260
857.931	3237
858.064	3131
858.197	3249
858.331	3131
858.464	3055
858.597	3009
858.731	3131
858.864	3161
858.997	3097
859.13	3192
859.263	3199
859.396	3180
859.529	3123
859.662	3051
859.795	3047
859.928	3135
860.061	3256
860.194	3279
860.327	3142
860.46	3097
860.592	3245
860.725	3275
860.858	3253
860.99	3085
861.123	3062
861.256	3077
861.388	3135
861.521	3774
861.653	3043
861.786	2941
861.918	3009
862.05	3058
862.183	3074
862.315	3157
862.447	3203
862.58	3097
862.712	2906
862.844	2872
862.976	3055
863.108	3024
863.24	3268
863.372	2861
863.504	2982
863.636	2952
863.768	3005
863.9	2975
864.032	2906
864.164	2956
864.296	2990
864.428	3085
864.559	3104
864.691	3066
864.823	3062
864.954	3036
865.086	3062
865.217	2975
865.349	2925
865.48	2994
865.612	2994
865.743	3173
865.875	2998
866.006	2925
866.137	2975
866.269	2971
866.4	2918
866.531	2941
866.662	2899
866.793	2883
866.924	2906
867.055	2979
867.186	2952
867.317	2883
867.448	2857
867.579	2845
867.71	2845
867.841	2838
867.972	2902
868.103	2918
868.233	2902
868.364	2902
868.495	2895
868.625	3077
868.756	3169
868.886	2960
869.017	3020
869.147	3154
869.278	3146
869.408	3032
869.539	3024
869.669	3097
869.799	3039
869.929	3146
870.06	3108
870.19	3332
870.32	3260
870.45	3287
870.58	3325
870.71	3481
870.84	3428
870.97	3268
871.1	3233
871.23	3488
871.36	3469
871.489	3359
871.619	3405
871.749	3416
871.879	3431
872.008	3481
872.138	3397
872.267	3298
872.397	3161
872.526	3055
872.656	3013
872.785	3100
872.915	3203
873.044	3336
873.173	3237
873.303	3226
873.432	3241
873.561	3264
873.69	3127
873.819	3142
873.948	3184
874.077	3135
874.206	3020
874.335	3074
874.464	3203
874.593	3355
874.722	3264
874.851	3374
874.979	3370
875.108	3306
875.237	3169
875.365	3150
875.494	3150
875.623	3233
875.751	3097
875.88	3131
876.008	3169
876.136	3230
876.265	3393
876.393	3469
876.521	3428
876.65	3359
876.778	3340
876.906	3253
877.034	3218
877.162	3226
877.29	3161
877.418	3256
877.546	3253
877.674	3230
877.802	3199
877.93	3199
878.058	3135
878.185	3097
878.313	3199
878.441	3214
878.568	3055
878.696	3154
878.824	3264
878.951	3317
879.079	3454
879.206	3606
879.333	3462
879.461	3359
879.588	3310
879.715	3481
879.842	3580
879.97	3336
880.097	3184
880.224	3142
880.351	3195
880.478	3237
880.605	3199
880.732	3173
880.859	3469
880.986	3302
881.112	3313
881.239	3176
881.366	3077
881.493	3020
881.619	3009
881.746	3055
881.872	3089
881.999	3093
882.125	3138
882.252	3268
882.378	3287
882.505	3428
882.631	3298
882.757	3154
882.883	3184
883.01	3222
883.136	3176
883.262	3104
883.388	3135
883.514	3302
883.64	3351
883.766	3287
883.892	3135
884.018	3237
884.143	3378
884.269	3530
884.395	3165
884.52	3173
884.646	3230
884.772	3104
884.897	3138
885.023	3199
885.148	3310
885.274	3401
885.399	3401
885.524	3260
885.65	3245
885.775	3348
885.9	3275
886.025	3420
886.15	3363
886.275	3321
886.4	3211
886.525	3302
886.65	3268
886.775	3260
886.9	3485
887.025	3644
887.149	3363
887.274	3233
887.399	3214
887.523	3184
887.648	3226
887.773	3199
887.897	3367
888.021	3389
888.146	3302
888.27	3473
888.395	3496
888.519	3462
888.643	3439
888.767	3431
888.891	3275
889.015	3233
889.139	3279
889.263	3268
889.387	3416
889.511	3496
889.635	3435
889.759	3268
889.883	3302
890.006	3363
890.13	3511
890.254	3260
890.377	3317
890.501	3207
890.624	3176
890.748	3298
890.871	3165
890.995	3116
891.118	3039
891.241	3180
891.364	3214
891.488	3317
891.611	3188
891.734	3199
891.857	3294
891.98	3249
892.103	3313
892.226	3275
892.349	3214
892.471	3104
892.594	3233
892.717	3256
892.839	3294
892.962	3275
893.085	3336
893.207	3291
893.33	3169
893.452	3256
893.575	3355
893.697	3230
893.819	3443
893.941	3519
894.064	3447
894.186	3237
894.308	3268
894.43	3382
894.552	3511
894.674	3431
894.796	3264
894.918	3283
895.04	3253
895.161	3439
895.283	3370
895.405	3302
895.526	3344
895.648	3412
895.769	3431
895.891	3462
896.012	3485
896.134	3473
896.255	3431
896.376	3340
896.498	3355
896.619	3431
896.74	3370
896.861	3374
896.982	3660
897.103	3816
897.224	3591
897.345	3526
897.466	3424
897.587	3488
897.708	3610
897.828	3542
897.949	3439
898.07	3336
898.19	3450
898.311	3622
898.431	3420
898.552	3496
898.672	3606
898.792	3587
898.913	3492
899.033	3447
899.153	3287
899.273	3214
899.393	3249
899.513	3302
899.633	3367
899.753	3355
899.873	3321
899.993	3355
900.113	3321
900.232	3367
900.352	3340
900.472	3245
900.591	3176
900.711	3332
900.83	3249
900.95	3401
901.069	3481
901.189	3355
901.308	3169
901.427	3135
901.546	3176
901.665	3287
901.784	3321
901.904	3211
902.023	3142
902.141	2998
902.26	2990
902.379	3108
902.498	3100
902.617	3039
902.735	3184
902.854	3207
902.973	3173
903.091	3024
903.21	3051
903.328	3150
903.446	3104
903.565	3058
903.683	3180
903.801	3097
903.919	3260
904.038	3317
904.156	3180
904.274	3310
904.392	3226
904.51	3283
904.627	3359
904.745	3458
904.863	3507
904.981	3302
905.098	3195
905.216	3230
905.334	3313
905.451	3275
905.569	3298
905.686	3439
905.803	3469
905.921	3291
906.038	3431
906.155	3382
906.272	3237
906.389	3329
906.506	3195
906.623	3253
906.74	3268
906.857	3123
906.974	3241
907.091	3397
907.208	3545
907.324	3488
907.441	3348
907.557	3283
907.674	3230
907.79	3157
907.907	3313
908.023	3359
908.139	3370
908.256	3348
908.372	3355
908.488	3351
908.604	3249
908.72	3230
908.836	3340
908.952	3287
909.068	3332
909.184	3466
909.3	3409
909.415	3466
909.531	3473
909.647	3294
909.762	3291
909.878	3226
909.993	3348
910.108	3313
910.224	3363
910.339	3416
910.454	3306
910.57	3275
910.685	3214
910.8	3580
910.915	3561
911.03	3420
911.145	3272
911.259	3245
911.374	3332
911.489	3214
911.604	3226
911.718	3123
911.833	3142
911.947	3062
912.062	2956
912.176	3199
912.291	3161
912.405	3230
912.519	3420
912.633	3504
912.748	3332
912.862	3268
912.976	3146
913.09	3058
913.204	3138
913.318	3203
913.431	3340
913.545	3317
913.659	3401
913.772	3321
913.886	3207
914	3207
914.113	3317
914.226	3389
914.34	3393
914.453	3237
914.566	3386
914.68	3279
914.793	3321
914.906	3127
915.019	3116
915.132	3051
915.245	3146
915.358	3188
915.47	3211
915.583	3272
915.696	3294
915.809	3416
915.921	3386
916.034	3245
916.146	3275
916.259	3253
916.371	3355
916.483	3393
916.595	3283
916.708	3317
916.82	3306
916.932	3302
917.044	3378
917.156	3336
917.268	3226
917.38	3325
917.491	3279
917.603	3340
917.715	3428
917.826	3435
917.938	3344
918.049	3283
918.161	3443
918.272	3572
918.384	3561
918.495	3496
918.606	3351
918.717	3294
918.828	3401
918.939	3382
919.05	3310
919.161	3382
919.272	3165
919.383	3329
919.494	3500
919.604	3675
919.715	3504
919.826	3367
919.936	3450
920.047	3568
920.157	3534
920.267	3759
920.378	3576
920.488	3576
920.598	3831
920.708	3930
920.818	3808
920.928	3850
921.038	4010
921.148	4002
921.258	3698
921.368	3610
921.477	3515
921.587	3572
921.697	3488
921.806	3644
921.916	3538
922.025	3355
922.134	3336
922.244	3336
922.353	3447
922.462	3306
922.571	3245
922.68	3112
922.789	3020
922.898	3154
923.007	3066
923.116	3192
923.224	3176
923.333	3195
923.442	3070
923.55	3104
923.659	3127
923.767	3195
923.876	3127
923.984	3245
924.092	3116
924.201	3169
924.309	3207
924.417	3264
924.525	3165
924.633	3253
924.741	3991
924.849	3058
924.956	3230
925.064	3085
925.172	3051
925.279	3093
925.387	3245
925.494	3161
925.602	3325
925.709	3382
925.816	3192
925.924	3283
926.031	3378
926.138	3344
926.245	3374
926.352	3260
926.459	3428
926.566	3477
926.673	3332
926.779	3256
926.886	3298
926.993	3116
927.099	3085
927.206	3104
927.312	3100
927.419	3233
927.525	3195
927.631	3214
927.737	3142
927.843	3127
927.95	3013
928.056	3142
928.162	3135
928.267	3203
928.373	3846
928.479	3332
928.585	3074
928.69	3222
928.796	3275
928.901	3176
929.007	3039
929.112	3176
929.218	3184
929.323	3150
929.428	3119
929.533	3279
929.638	3104
929.743	3169
929.848	3249
929.953	3218
930.058	3138
930.163	3001
930.267	3039
930.372	3188
930.477	3005
930.581	3321
930.685	3184
930.79	3043
930.894	3119
930.998	3070
931.103	3325
931.207	2956
931.311	2929
931.415	2937
931.519	2785
931.623	2815
