Data from test_V78500241_1615.txt Node
Date: Fri Mar 25 16:26:23 CST 2022
User: usil
Spectrometer: V785-0024
Trigger mode: 0
Integration Time (sec): 4.000000E-1
Scans to average: 1
Nonlinearity correction enabled: false
Boxcar width: 0
Storing dark spectrum: false
XAxis mode: Wavelengths
Number of Pixels in Spectrum: 1024
>>>>>Begin Spectral Data<<<<<
801.071	2922
801.214	2929
801.356	2883
801.499	2895
801.641	2845
801.783	2960
801.926	3066
802.068	2952
802.211	2967
802.353	3028
802.496	2971
802.638	3017
802.78	3028
802.923	3070
803.065	3009
803.208	2864
803.35	2933
803.492	2944
803.635	2941
803.777	2750
803.919	2895
804.061	3207
804.204	2929
804.346	2914
804.488	2853
804.63	2975
804.773	2887
804.915	2933
805.057	3093
805.199	2925
805.341	2971
805.483	3074
805.626	2967
805.768	2971
805.91	3066
806.052	3108
806.194	3028
806.336	3230
806.478	2994
806.62	2922
806.762	3001
806.904	3043
807.046	3112
807.188	2975
807.33	2883
807.472	3005
807.614	2918
807.756	3001
807.898	2910
808.04	2872
808.182	2982
808.324	2979
808.465	2861
808.607	2834
808.749	2785
808.891	2838
809.033	2963
809.174	2944
809.316	2853
809.458	2864
809.6	2769
809.741	2754
809.883	2781
810.025	2849
810.166	2857
810.308	2807
810.45	2883
810.591	2758
810.733	2766
810.875	2819
811.016	2769
811.158	2705
811.299	2796
811.441	2925
811.582	2895
811.724	2819
811.865	2838
812.007	2910
812.148	2883
812.29	2845
812.431	2899
812.573	2937
812.714	2948
812.855	3020
812.997	3032
813.138	3081
813.279	3020
813.421	2979
813.562	2971
813.703	2876
813.845	2891
813.986	2743
814.127	2743
814.268	2815
814.41	2834
814.551	2811
814.692	2906
814.833	2838
814.974	2902
815.115	2933
815.256	2845
815.397	2830
815.539	2849
815.68	2788
815.821	2830
815.962	2944
816.103	2941
816.244	2861
816.385	2887
816.526	2967
816.666	2925
816.807	2739
816.948	2899
817.089	2880
817.23	2845
817.371	2842
817.512	2785
817.653	2842
817.793	2823
817.934	2899
818.075	2956
818.216	2975
818.356	3024
818.497	2891
818.638	2804
818.778	2800
818.919	2785
819.06	2758
819.2	2891
819.341	2804
819.481	2777
819.622	2944
819.762	3089
819.903	3036
820.043	2929
820.184	2922
820.324	2883
820.465	2994
820.605	3005
820.746	3017
820.886	2937
821.026	3085
821.167	3165
821.307	3226
821.447	3268
821.588	3226
821.728	3203
821.868	3203
822.008	3100
822.149	3169
822.289	3233
822.429	3119
822.569	3070
822.709	3173
822.849	3009
822.99	3036
823.13	3173
823.27	3218
823.41	3093
823.55	3154
823.69	3161
823.83	3154
823.97	3119
824.11	2990
824.25	3009
824.389	3089
824.529	3119
824.669	3028
824.809	3184
824.949	3260
825.089	3195
825.228	3188
825.368	3005
825.508	2963
825.648	3005
825.787	3039
825.927	2994
826.067	2967
826.206	2952
826.346	3020
826.485	3047
826.625	3100
826.765	3233
826.904	3230
827.044	3009
827.183	2956
827.323	2830
827.462	3009
827.601	2906
827.741	2910
827.88	2937
828.02	2853
828.159	2994
828.298	3005
828.437	3108
828.577	3039
828.716	3180
828.855	3066
828.994	2918
829.134	2887
829.273	2899
829.412	2845
829.551	2834
829.69	2887
829.829	2979
829.968	3169
830.107	3009
830.246	2986
830.385	2937
830.524	2857
830.663	2811
830.802	2750
830.941	2670
831.08	2659
831.219	2758
831.357	2766
831.496	2941
831.635	2697
831.774	2621
831.913	2640
832.051	2556
832.19	2564
832.329	2648
832.467	2526
832.606	2507
832.744	2564
832.883	2575
833.022	2587
833.16	2678
833.299	2697
833.437	2686
833.576	2727
833.714	2693
833.852	2739
833.991	2712
834.129	2830
834.267	2834
834.406	2773
834.544	2883
834.682	2880
834.821	2861
834.959	3074
835.097	2899
835.235	3070
835.373	3001
835.511	3009
835.65	2948
835.788	2956
835.926	2830
836.064	2788
836.202	2826
836.34	3074
836.478	3138
836.615	3047
836.753	3135
836.891	3165
837.029	3165
837.167	3104
837.305	3085
837.443	3043
837.58	2967
837.718	3135
837.856	3074
837.993	3055
838.131	3100
838.269	3116
838.406	3077
838.544	3051
838.681	2937
838.819	2937
838.956	2788
839.094	2838
839.231	2895
839.369	3009
839.506	3382
839.643	3214
839.781	3039
839.918	2975
840.055	3009
840.193	3028
840.33	3055
840.467	3081
840.604	3131
840.742	3378
840.879	3051
841.016	3001
841.153	3112
841.29	3302
841.427	3291
841.564	3253
841.701	3313
841.838	3195
841.975	3154
842.112	3203
842.249	3081
842.385	3013
842.522	3230
842.659	3077
842.796	3055
842.933	3085
843.069	3020
843.206	3062
843.343	3176
843.479	3100
843.616	3127
843.752	2891
843.889	2880
844.025	3047
844.162	2849
844.298	3089
844.435	2975
844.571	2967
844.708	3055
844.844	3180
844.98	3241
845.117	3176
845.253	3028
845.389	2982
845.525	3104
845.661	3066
845.798	3028
845.934	3138
846.07	3051
846.206	3226
846.342	3272
846.478	3199
846.614	3104
846.75	3081
846.886	3005
847.022	3222
847.158	3146
847.294	3180
847.429	3287
847.565	3226
847.701	3488
847.837	3009
847.972	3017
848.108	3154
848.244	3127
848.379	2986
848.515	2929
848.65	2899
848.786	2929
848.921	3017
849.057	3127
849.192	3161
849.328	3070
849.463	3108
849.598	3020
849.734	3009
849.869	2967
850.004	2880
850.14	2963
850.275	2933
850.41	2842
850.545	2910
850.68	2918
850.815	2975
850.95	2960
851.085	3173
851.22	3074
851.355	3028
851.49	2971
851.625	2998
851.76	3001
851.895	2933
852.03	2895
852.165	3043
852.299	3093
852.434	3192
852.569	3116
852.703	3173
852.838	3218
852.973	3313
853.107	3317
853.242	3161
853.376	3055
853.511	3005
853.645	3058
853.78	3218
853.914	3089
854.048	3135
854.183	3116
854.317	3146
854.451	3298
854.585	3123
854.72	3077
854.854	3188
854.988	3051
855.122	3077
855.256	2986
855.39	3100
855.524	3249
855.658	3237
855.792	3138
855.926	3154
856.06	3226
856.194	3218
856.327	3135
856.461	3055
856.595	3039
856.729	3077
856.862	3188
856.996	3146
857.13	3211
857.263	3226
857.397	3241
857.53	3108
857.664	3184
857.797	3207
857.931	3230
858.064	3157
858.197	3199
858.331	3127
858.464	3093
858.597	3001
858.731	3116
858.864	3039
858.997	3097
859.13	3161
859.263	3180
859.396	3195
859.529	3028
859.662	3058
859.795	3013
859.928	3173
860.061	3302
860.194	3275
860.327	3161
860.46	3081
860.592	3230
860.725	3260
860.858	3256
860.99	3074
861.123	3062
861.256	3055
861.388	3127
861.521	3850
861.653	3001
861.786	2982
861.918	2967
862.05	3051
862.183	3070
862.315	3173
862.447	3157
862.58	3089
862.712	2944
862.844	2864
862.976	2982
863.108	2994
863.24	3302
863.372	2857
863.504	2982
863.636	2933
863.768	3032
863.9	3005
864.032	2891
864.164	2944
864.296	3032
864.428	3097
864.559	3108
864.691	3081
864.823	3039
864.954	3020
865.086	3074
865.217	2971
865.349	2948
865.48	3013
865.612	2998
865.743	3135
865.875	2979
866.006	2952
866.137	2963
866.269	2948
866.4	2906
866.531	2910
866.662	2857
866.793	2883
866.924	2880
867.055	2975
867.186	2918
867.317	2880
867.448	2842
867.579	2883
867.71	2838
867.841	2804
867.972	2902
868.103	2902
868.233	2876
868.364	2853
868.495	2887
868.625	3077
868.756	3188
868.886	2929
869.017	3013
869.147	3169
869.278	3150
869.408	3024
869.539	3051
869.669	3112
869.799	3047
869.929	3176
870.06	3116
870.19	3325
870.32	3272
870.45	3291
870.58	3367
870.71	3462
870.84	3389
870.97	3298
871.1	3272
871.23	3492
871.36	3466
871.489	3386
871.619	3397
871.749	3424
871.879	3462
872.008	3466
872.138	3363
872.267	3287
872.397	3142
872.526	3089
872.656	3024
872.785	3097
872.915	3218
873.044	3306
873.173	3237
873.303	3256
873.432	3222
873.561	3245
873.69	3146
873.819	3146
873.948	3192
874.077	3081
874.206	3024
874.335	3074
874.464	3195
874.593	3355
874.722	3264
874.851	3393
874.979	3355
875.108	3317
875.237	3192
875.365	3142
875.494	3165
875.623	3256
875.751	3077
875.88	3108
876.008	3226
876.136	3249
876.265	3367
876.393	3469
876.521	3435
876.65	3428
876.778	3321
876.906	3256
877.034	3142
877.162	3211
877.29	3176
877.418	3245
877.546	3207
877.674	3268
877.802	3222
877.93	3249
878.058	3157
878.185	3108
878.313	3188
878.441	3180
878.568	3077
878.696	3161
878.824	3218
878.951	3279
879.079	3428
879.206	3603
879.333	3454
879.461	3310
879.588	3321
879.715	3481
879.842	3584
879.97	3420
880.097	3169
880.224	3104
880.351	3180
880.478	3214
880.605	3195
880.732	3154
880.859	3557
880.986	3275
881.112	3310
881.239	3245
881.366	3097
881.493	3028
881.619	3013
881.746	3119
881.872	3058
881.999	3104
882.125	3119
882.252	3214
882.378	3272
882.505	3435
882.631	3264
882.757	3142
882.883	3188
883.01	3222
883.136	3207
883.262	3085
883.388	3097
883.514	3340
883.64	3374
883.766	3317
883.892	3184
884.018	3245
884.143	3401
884.269	3553
884.395	3157
884.52	3123
884.646	3173
884.772	3123
884.897	3089
885.023	3184
885.148	3310
885.274	3386
885.399	3359
885.524	3291
885.65	3237
885.775	3294
885.9	3275
886.025	3435
886.15	3374
886.275	3302
886.4	3249
886.525	3294
886.65	3287
886.775	3233
886.9	3526
887.025	3622
887.149	3382
887.274	3249
887.399	3165
887.523	3161
887.648	3142
887.773	3195
887.897	3370
888.021	3378
888.146	3287
888.27	3477
888.395	3492
888.519	3431
888.643	3439
888.767	3477
888.891	3355
889.015	3233
889.139	3279
889.263	3233
889.387	3386
889.511	3492
889.635	3439
889.759	3264
889.883	3310
890.006	3382
890.13	3477
890.254	3272
890.377	3332
890.501	3176
890.624	3199
890.748	3329
890.871	3180
890.995	3127
891.118	3074
891.241	3195
891.364	3207
891.488	3321
891.611	3195
891.734	3245
891.857	3294
891.98	3256
892.103	3336
892.226	3294
892.349	3207
892.471	3097
892.594	3249
892.717	3272
892.839	3268
892.962	3298
893.085	3367
893.207	3260
893.33	3131
893.452	3199
893.575	3340
893.697	3249
893.819	3447
893.941	3523
894.064	3447
894.186	3272
894.308	3256
894.43	3386
894.552	3519
894.674	3485
894.796	3264
894.918	3336
895.04	3287
895.161	3454
895.283	3386
895.405	3336
895.526	3393
895.648	3443
895.769	3447
895.891	3450
896.012	3435
896.134	3462
896.255	3428
896.376	3424
896.498	3416
896.619	3424
896.74	3386
896.861	3397
896.982	3679
897.103	3846
897.224	3610
897.345	3511
897.466	3412
897.587	3492
897.708	3656
897.828	3530
897.949	3439
898.07	3306
898.19	3424
898.311	3557
898.431	3431
898.552	3523
898.672	3599
898.792	3572
898.913	3492
899.033	3431
899.153	3256
899.273	3233
899.393	3272
899.513	3283
899.633	3313
899.753	3325
899.873	3306
899.993	3386
900.113	3325
900.232	3344
900.352	3329
900.472	3272
900.591	3237
900.711	3313
900.83	3249
900.95	3416
901.069	3454
901.189	3363
901.308	3180
901.427	3100
901.546	3203
901.665	3268
901.784	3359
901.904	3192
902.023	3104
902.141	3009
902.26	3005
902.379	3131
902.498	3085
902.617	3020
902.735	3173
902.854	3218
902.973	3207
903.091	3062
903.21	3070
903.328	3142
903.446	3123
903.565	3089
903.683	3203
903.801	3116
903.919	3256
904.038	3287
904.156	3184
904.274	3264
904.392	3256
904.51	3325
904.627	3325
904.745	3393
904.863	3511
904.981	3264
905.098	3188
905.216	3256
905.334	3302
905.451	3310
905.569	3313
905.686	3439
905.803	3462
905.921	3283
906.038	3473
906.155	3370
906.272	3268
906.389	3344
906.506	3214
906.623	3245
906.74	3272
906.857	3207
906.974	3245
907.091	3439
907.208	3595
907.324	3481
907.441	3393
907.557	3230
907.674	3180
907.79	3203
907.907	3294
908.023	3344
908.139	3363
908.256	3317
908.372	3382
908.488	3359
908.604	3275
908.72	3268
908.836	3302
908.952	3287
909.068	3317
909.184	3500
909.3	3401
909.415	3454
909.531	3443
909.647	3283
909.762	3306
909.878	3283
909.993	3348
910.108	3321
910.224	3340
910.339	3416
910.454	3359
910.57	3283
910.685	3222
910.8	3584
910.915	3515
911.03	3462
911.145	3233
911.259	3237
911.374	3268
911.489	3253
911.604	3226
911.718	3127
911.833	3085
911.947	3024
912.062	2956
912.176	3176
912.291	3192
912.405	3207
912.519	3431
912.633	3485
912.748	3313
912.862	3291
912.976	3222
913.09	3066
913.204	3108
913.318	3245
913.431	3340
913.545	3317
913.659	3409
913.772	3355
913.886	3211
914	3173
914.113	3344
914.226	3416
914.34	3367
914.453	3253
914.566	3409
914.68	3298
914.793	3325
914.906	3180
915.019	3119
915.132	3051
915.245	3211
915.358	3237
915.47	3233
915.583	3222
915.696	3291
915.809	3397
915.921	3431
916.034	3260
916.146	3245
916.259	3195
916.371	3378
916.483	3329
916.595	3264
916.708	3302
916.82	3310
916.932	3355
917.044	3378
917.156	3313
917.268	3264
917.38	3272
917.491	3287
917.603	3370
917.715	3447
917.826	3439
917.938	3386
918.049	3241
918.161	3397
918.272	3591
918.384	3595
918.495	3454
918.606	3310
918.717	3279
918.828	3401
918.939	3431
919.05	3291
919.161	3386
919.272	3180
919.383	3275
919.494	3492
919.604	3728
919.715	3523
919.826	3378
919.936	3428
920.047	3561
920.157	3564
920.267	3717
920.378	3622
920.488	3564
920.598	3759
920.708	3975
920.818	3846
920.928	3774
921.038	4006
921.148	4002
921.258	3701
921.368	3606
921.477	3572
921.587	3515
921.697	3450
921.806	3656
921.916	3504
922.025	3344
922.134	3340
922.244	3313
922.353	3443
922.462	3272
922.571	3230
922.68	3100
922.789	3066
922.898	3123
923.007	3123
923.116	3207
923.224	3195
923.333	3207
923.442	3104
923.55	3108
923.659	3150
923.767	3195
923.876	3112
923.984	3249
924.092	3108
924.201	3249
924.309	3218
924.417	3256
924.525	3226
924.633	3260
924.741	4166
924.849	3036
924.956	3260
925.064	3058
925.172	3074
925.279	3089
925.387	3192
925.494	3226
925.602	3355
925.709	3317
925.816	3188
925.924	3272
926.031	3393
926.138	3283
926.245	3386
926.352	3226
926.459	3386
926.566	3454
926.673	3298
926.779	3214
926.886	3287
926.993	3138
927.099	3112
927.206	3077
927.312	3119
927.419	3218
927.525	3211
927.631	3268
927.737	3142
927.843	3108
927.95	2975
928.056	3146
928.162	3173
928.267	3233
928.373	3827
928.479	3302
928.585	3077
928.69	3222
928.796	3291
928.901	3142
929.007	3028
929.112	3157
929.218	3176
929.323	3157
929.428	3180
929.533	3313
929.638	3146
929.743	3127
929.848	3256
929.953	3230
930.058	3165
930.163	2982
930.267	3097
930.372	3195
930.477	3043
930.581	3359
930.685	3169
930.79	3051
930.894	3135
930.998	3093
931.103	3275
931.207	2967
931.311	2944
931.415	2948
931.519	2777
931.623	2785
