Data from test_V78500241_405.txt Node
Date: Fri Mar 25 16:18:00 CST 2022
User: usil
Spectrometer: V785-0024
Trigger mode: 0
Integration Time (sec): 4.000000E-1
Scans to average: 1
Nonlinearity correction enabled: false
Boxcar width: 0
Storing dark spectrum: false
XAxis mode: Wavelengths
Number of Pixels in Spectrum: 1024
>>>>>Begin Spectral Data<<<<<
801.071	2910
801.214	2963
801.356	2891
801.499	2895
801.641	2880
801.783	2899
801.926	3017
802.068	2990
802.211	3001
802.353	2971
802.496	2948
802.638	3020
802.78	2963
802.923	3051
803.065	2963
803.208	2899
803.35	2914
803.492	2914
803.635	2902
803.777	2735
803.919	2834
804.061	3184
804.204	2937
804.346	2895
804.488	2834
804.63	2979
804.773	2834
804.915	2902
805.057	3070
805.199	2899
805.341	2971
805.483	3001
805.626	2982
805.768	2929
805.91	3070
806.052	3100
806.194	3005
806.336	3226
806.478	3001
806.62	2956
806.762	2963
806.904	3036
807.046	3142
807.188	2990
807.33	2918
807.472	2986
807.614	2902
807.756	2998
807.898	2933
808.04	2868
808.182	2971
808.324	2922
808.465	2864
808.607	2868
808.749	2796
808.891	2876
809.033	2941
809.174	2963
809.316	2887
809.458	2883
809.6	2758
809.741	2796
809.883	2743
810.025	2857
810.166	2891
810.308	2842
810.45	2845
810.591	2769
810.733	2762
810.875	2857
811.016	2773
811.158	2762
811.299	2785
811.441	2918
811.582	2906
811.724	2838
811.865	2830
812.007	2948
812.148	2872
812.29	2830
812.431	2891
812.573	2906
812.714	2944
812.855	3039
812.997	3058
813.138	3116
813.279	2986
813.421	2998
813.562	2929
813.703	2887
813.845	2895
813.986	2788
814.127	2743
814.268	2815
814.41	2876
814.551	2826
814.692	2883
814.833	2785
814.974	2899
815.115	2952
815.256	2861
815.397	2781
815.539	2849
815.68	2750
815.821	2796
815.962	2925
816.103	2937
816.244	2876
816.385	2842
816.526	2941
816.666	2937
816.807	2739
816.948	2899
817.089	2914
817.23	2887
817.371	2788
817.512	2785
817.653	2857
817.793	2800
817.934	2880
818.075	2986
818.216	2975
818.356	3070
818.497	2880
818.638	2766
818.778	2815
818.919	2777
819.06	2750
819.2	2876
819.341	2804
819.481	2785
819.622	2933
819.762	3074
819.903	3062
820.043	2899
820.184	2891
820.324	2883
820.465	3024
820.605	2990
820.746	2990
820.886	2944
821.026	3127
821.167	3127
821.307	3260
821.447	3287
821.588	3218
821.728	3211
821.868	3203
822.008	3085
822.149	3180
822.289	3214
822.429	3047
822.569	3055
822.709	3192
822.849	3001
822.99	3058
823.13	3165
823.27	3226
823.41	3112
823.55	3123
823.69	3138
823.83	3214
823.97	3074
824.11	3017
824.25	2975
824.389	3036
824.529	3116
824.669	3104
824.809	3173
824.949	3218
825.089	3199
825.228	3154
825.368	3024
825.508	2975
825.648	2960
825.787	3009
825.927	3051
826.067	2960
826.206	2963
826.346	3100
826.485	3100
826.625	3112
826.765	3233
826.904	3230
827.044	2998
827.183	2956
827.323	2891
827.462	3032
827.601	2956
827.741	2948
827.88	2967
828.02	2891
828.159	2994
828.298	3028
828.437	3089
828.577	3058
828.716	3272
828.855	3135
828.994	2948
829.134	2902
829.273	2906
829.412	2891
829.551	2910
829.69	2922
829.829	3032
829.968	3157
830.107	3051
830.246	3085
830.385	2952
830.524	2918
830.663	2883
830.802	2754
830.941	2678
831.08	2674
831.219	2807
831.357	2807
831.496	2986
831.635	2796
831.774	2689
831.913	2689
832.051	2568
832.19	2625
832.329	2727
832.467	2564
832.606	2503
832.744	2625
832.883	2651
833.022	2640
833.16	2712
833.299	2739
833.437	2766
833.576	2727
833.714	2766
833.852	2807
833.991	2796
834.129	2849
834.267	2883
834.406	2811
834.544	2891
834.682	2914
834.821	2933
834.959	3077
835.097	2922
835.235	3108
835.373	3024
835.511	3047
835.65	3005
835.788	3009
835.926	2853
836.064	2861
836.202	2922
836.34	3116
836.478	3176
836.615	3070
836.753	3188
836.891	3249
837.029	3195
837.167	3127
837.305	3123
837.443	3085
837.58	3020
837.718	3188
837.856	3135
837.993	3070
838.131	3169
838.269	3150
838.406	3142
838.544	3138
838.681	2941
838.819	2960
838.956	2868
839.094	2880
839.231	2933
839.369	3081
839.506	3405
839.643	3264
839.781	3032
839.918	2967
840.055	3077
840.193	3055
840.33	3077
840.467	3108
840.604	3184
840.742	3466
840.879	3074
841.016	3085
841.153	3112
841.29	3374
841.427	3317
841.564	3298
841.701	3329
841.838	3233
841.975	3195
842.112	3211
842.249	3127
842.385	3036
842.522	3313
842.659	3123
842.796	3100
842.933	3119
843.069	3085
843.206	3085
843.343	3222
843.479	3135
843.616	3192
843.752	2918
843.889	2922
844.025	3116
844.162	2918
844.298	3100
844.435	2971
844.571	2952
844.708	3116
844.844	3199
844.98	3294
845.117	3203
845.253	3100
845.389	3039
845.525	3135
845.661	3146
845.798	3043
845.934	3138
846.07	3104
846.206	3237
846.342	3340
846.478	3287
846.614	3116
846.75	3070
846.886	3074
847.022	3283
847.158	3138
847.294	3218
847.429	3294
847.565	3264
847.701	3496
847.837	3039
847.972	3043
848.108	3169
848.244	3127
848.379	3013
848.515	2975
848.65	2990
848.786	3001
848.921	3036
849.057	3112
849.192	3138
849.328	3112
849.463	3135
849.598	3138
849.734	3062
849.869	2986
850.004	2941
850.14	3013
850.275	2929
850.41	2891
850.545	2944
850.68	2929
850.815	2982
850.95	3017
851.085	3237
851.22	3116
851.355	3070
851.49	3009
851.625	3017
851.76	3039
851.895	2971
852.03	2960
852.165	3051
852.299	3157
852.434	3184
852.569	3180
852.703	3192
852.838	3268
852.973	3374
853.107	3386
853.242	3199
853.376	3142
853.511	2982
853.645	3066
853.78	3249
853.914	3127
854.048	3146
854.183	3097
854.317	3142
854.451	3317
854.585	3157
854.72	3093
854.854	3253
854.988	3047
855.122	3119
855.256	2998
855.39	3176
855.524	3207
855.658	3245
855.792	3207
855.926	3222
856.06	3275
856.194	3249
856.327	3157
856.461	3081
856.595	3119
856.729	3135
856.862	3294
856.996	3180
857.13	3207
857.263	3249
857.397	3264
857.53	3123
857.664	3230
857.797	3241
857.931	3260
858.064	3176
858.197	3253
858.331	3131
858.464	3104
858.597	3009
858.731	3154
858.864	3184
858.997	3104
859.13	3169
859.263	3150
859.396	3226
859.529	3093
859.662	3093
859.795	3047
859.928	3157
860.061	3268
860.194	3313
860.327	3142
860.46	3150
860.592	3256
860.725	3294
860.858	3283
860.99	3093
861.123	3093
861.256	3081
861.388	3180
861.521	3888
861.653	3062
861.786	3013
861.918	3032
862.05	3047
862.183	3070
862.315	3142
862.447	3211
862.58	3108
862.712	2994
862.844	2925
862.976	3036
863.108	3070
863.24	3458
863.372	2899
863.504	2998
863.636	2967
863.768	3058
863.9	3017
864.032	2925
864.164	2994
864.296	3051
864.428	3119
864.559	3119
864.691	3116
864.823	3066
864.954	3039
865.086	3058
865.217	3020
865.349	3020
865.48	2982
865.612	3043
865.743	3180
865.875	3013
866.006	2956
866.137	2944
866.269	2990
866.4	2952
866.531	2963
866.662	2899
866.793	2937
866.924	2902
867.055	3001
867.186	2967
867.317	2918
867.448	2842
867.579	2861
867.71	2880
867.841	2876
867.972	2948
868.103	2956
868.233	2895
868.364	2910
868.495	2952
868.625	3108
868.756	3188
868.886	2998
869.017	3074
869.147	3207
869.278	3211
869.408	3085
869.539	3058
869.669	3146
869.799	3043
869.929	3116
870.06	3154
870.19	3321
870.32	3302
870.45	3294
870.58	3412
870.71	3481
870.84	3481
870.97	3279
871.1	3241
871.23	3511
871.36	3454
871.489	3397
871.619	3405
871.749	3389
871.879	3431
872.008	3511
872.138	3332
872.267	3291
872.397	3127
872.526	3119
872.656	3024
872.785	3157
872.915	3294
873.044	3355
873.173	3237
873.303	3272
873.432	3275
873.561	3264
873.69	3173
873.819	3176
873.948	3233
874.077	3112
874.206	3077
874.335	3077
874.464	3203
874.593	3348
874.722	3268
874.851	3401
874.979	3355
875.108	3344
875.237	3226
875.365	3173
875.494	3222
875.623	3245
875.751	3104
875.88	3112
876.008	3218
876.136	3214
876.265	3409
876.393	3523
876.521	3405
876.65	3405
876.778	3344
876.906	3294
877.034	3199
877.162	3272
877.29	3169
877.418	3233
877.546	3226
877.674	3275
877.802	3199
877.93	3245
878.058	3176
878.185	3108
878.313	3207
878.441	3218
878.568	3097
878.696	3180
878.824	3249
878.951	3332
879.079	3500
879.206	3656
879.333	3458
879.461	3409
879.588	3382
879.715	3515
879.842	3584
879.97	3443
880.097	3150
880.224	3108
880.351	3184
880.478	3253
880.605	3249
880.732	3203
880.859	3545
880.986	3325
881.112	3351
881.239	3188
881.366	3161
881.493	3077
881.619	3032
881.746	3070
881.872	3116
881.999	3135
882.125	3150
882.252	3253
882.378	3325
882.505	3439
882.631	3306
882.757	3173
882.883	3249
883.01	3237
883.136	3154
883.262	3146
883.388	3123
883.514	3321
883.64	3416
883.766	3344
883.892	3245
884.018	3260
884.143	3428
884.269	3572
884.395	3214
884.52	3176
884.646	3142
884.772	3150
884.897	3093
885.023	3249
885.148	3340
885.274	3405
885.399	3397
885.524	3287
885.65	3272
885.775	3344
885.9	3291
886.025	3443
886.15	3416
886.275	3340
886.4	3279
886.525	3283
886.65	3294
886.775	3230
886.9	3507
887.025	3679
887.149	3462
887.274	3260
887.399	3195
887.523	3207
887.648	3161
887.773	3180
887.897	3382
888.021	3405
888.146	3287
888.27	3439
888.395	3507
888.519	3458
888.643	3466
888.767	3458
888.891	3348
889.015	3245
889.139	3336
889.263	3230
889.387	3405
889.511	3545
889.635	3458
889.759	3317
889.883	3336
890.006	3378
890.13	3542
890.254	3237
890.377	3386
890.501	3207
890.624	3203
890.748	3291
890.871	3184
890.995	3108
891.118	3051
891.241	3165
891.364	3207
891.488	3348
891.611	3188
891.734	3253
891.857	3321
891.98	3237
892.103	3370
892.226	3275
892.349	3195
892.471	3131
892.594	3268
892.717	3294
892.839	3298
892.962	3332
893.085	3378
893.207	3310
893.33	3207
893.452	3230
893.575	3370
893.697	3279
893.819	3443
893.941	3504
894.064	3435
894.186	3294
894.308	3253
894.43	3420
894.552	3530
894.674	3519
894.796	3340
894.918	3298
895.04	3256
895.161	3447
895.283	3367
895.405	3332
895.526	3344
895.648	3409
895.769	3454
895.891	3466
896.012	3466
896.134	3458
896.255	3386
896.376	3374
896.498	3367
896.619	3443
896.74	3386
896.861	3401
896.982	3690
897.103	3819
897.224	3606
897.345	3485
897.466	3428
897.587	3496
897.708	3663
897.828	3557
897.949	3450
898.07	3344
898.19	3458
898.311	3599
898.431	3443
898.552	3538
898.672	3557
898.792	3591
898.913	3545
899.033	3416
899.153	3302
899.273	3249
899.393	3275
899.513	3313
899.633	3294
899.753	3393
899.873	3306
899.993	3370
900.113	3401
900.232	3412
900.352	3363
900.472	3264
900.591	3230
900.711	3298
900.83	3253
900.95	3439
901.069	3473
901.189	3367
901.308	3165
901.427	3093
901.546	3211
901.665	3306
901.784	3321
901.904	3207
902.023	3116
902.141	3032
902.26	3024
902.379	3165
902.498	3100
902.617	3093
902.735	3214
902.854	3230
902.973	3264
903.091	3081
903.21	3043
903.328	3138
903.446	3116
903.565	3089
903.683	3207
903.801	3135
903.919	3275
904.038	3306
904.156	3154
904.274	3317
904.392	3298
904.51	3287
904.627	3355
904.745	3462
904.863	3500
904.981	3279
905.098	3176
905.216	3233
905.334	3310
905.451	3264
905.569	3268
905.686	3428
905.803	3435
905.921	3306
906.038	3435
906.155	3370
906.272	3298
906.389	3351
906.506	3226
906.623	3260
906.74	3291
906.857	3192
906.974	3264
907.091	3431
907.208	3580
907.324	3473
907.441	3378
907.557	3245
907.674	3211
907.79	3230
907.907	3329
908.023	3378
908.139	3389
908.256	3348
908.372	3397
908.488	3348
908.604	3279
908.72	3237
908.836	3291
908.952	3245
909.068	3351
909.184	3488
909.3	3370
909.415	3492
909.531	3500
909.647	3291
909.762	3294
909.878	3272
909.993	3367
910.108	3344
910.224	3370
910.339	3416
910.454	3332
910.57	3329
910.685	3237
910.8	3618
910.915	3545
911.03	3431
911.145	3256
911.259	3279
911.374	3298
911.489	3230
911.604	3249
911.718	3157
911.833	3192
911.947	3039
912.062	2963
912.176	3184
912.291	3195
912.405	3226
912.519	3466
912.633	3473
912.748	3382
912.862	3279
912.976	3192
913.09	3051
913.204	3135
913.318	3184
913.431	3359
913.545	3355
913.659	3412
913.772	3336
913.886	3207
914	3188
914.113	3329
914.226	3397
914.34	3393
914.453	3188
914.566	3458
914.68	3294
914.793	3298
914.906	3108
915.019	3108
915.132	3089
915.245	3211
915.358	3211
915.47	3199
915.583	3253
915.696	3302
915.809	3428
915.921	3443
916.034	3249
916.146	3256
916.259	3222
916.371	3409
916.483	3386
916.595	3325
916.708	3351
916.82	3329
916.932	3351
917.044	3340
917.156	3370
917.268	3279
917.38	3283
917.491	3287
917.603	3374
917.715	3454
917.826	3462
917.938	3386
918.049	3275
918.161	3439
918.272	3572
918.384	3553
918.495	3447
918.606	3359
918.717	3241
918.828	3332
918.939	3405
919.05	3321
919.161	3367
919.272	3199
919.383	3272
919.494	3488
919.604	3720
919.715	3477
919.826	3405
919.936	3458
920.047	3610
920.157	3561
920.267	3781
920.378	3614
920.488	3561
920.598	3766
920.708	4029
920.818	3789
920.928	3835
921.038	4013
921.148	3991
921.258	3701
921.368	3675
921.477	3545
921.587	3500
921.697	3462
921.806	3603
921.916	3530
922.025	3401
922.134	3370
922.244	3306
922.353	3435
922.462	3272
922.571	3249
922.68	3100
922.789	3112
922.898	3146
923.007	3138
923.116	3237
923.224	3188
923.333	3192
923.442	3093
923.55	3097
923.659	3154
923.767	3211
923.876	3112
923.984	3214
924.092	3104
924.201	3207
924.309	3199
924.417	3237
924.525	3203
924.633	3218
924.741	4120
924.849	3066
924.956	3294
925.064	3100
925.172	3013
925.279	3070
925.387	3203
925.494	3207
925.602	3363
925.709	3355
925.816	3173
925.924	3264
926.031	3348
926.138	3306
926.245	3378
926.352	3241
926.459	3401
926.566	3477
926.673	3340
926.779	3214
926.886	3230
926.993	3165
927.099	3135
927.206	3119
927.312	3100
927.419	3237
927.525	3211
927.631	3275
927.737	3138
927.843	3180
927.95	3051
928.056	3146
928.162	3176
928.267	3245
928.373	3880
928.479	3340
928.585	3070
928.69	3226
928.796	3264
928.901	3169
929.007	3058
929.112	3222
929.218	3176
929.323	3192
929.428	3108
929.533	3264
929.638	3100
929.743	3180
929.848	3310
929.953	3226
930.058	3138
930.163	3001
930.267	3043
930.372	3203
930.477	3036
930.581	3306
930.685	3184
930.79	3020
930.894	3104
930.998	3081
931.103	3256
931.207	2956
931.311	2963
931.415	2891
931.519	2773
931.623	2800
