Data from test_V78500241_1453.txt Node
Date: Fri Mar 25 16:25:16 CST 2022
User: usil
Spectrometer: V785-0024
Trigger mode: 0
Integration Time (sec): 4.000000E-1
Scans to average: 1
Nonlinearity correction enabled: false
Boxcar width: 0
Storing dark spectrum: false
XAxis mode: Wavelengths
Number of Pixels in Spectrum: 1024
>>>>>Begin Spectral Data<<<<<
801.071	2925
801.214	2967
801.356	2914
801.499	2918
801.641	2914
801.783	2971
801.926	3066
802.068	3032
802.211	3036
802.353	3058
802.496	3013
802.638	3005
802.78	3051
802.923	3108
803.065	3028
803.208	2914
803.35	2929
803.492	2941
803.635	2967
803.777	2773
803.919	2902
804.061	3230
804.204	2975
804.346	2933
804.488	2895
804.63	3028
804.773	2906
804.915	2914
805.057	3104
805.199	2952
805.341	2982
805.483	3085
805.626	3047
805.768	2975
805.91	3085
806.052	3138
806.194	3066
806.336	3253
806.478	3024
806.62	2960
806.762	3013
806.904	3070
807.046	3165
807.188	3017
807.33	2910
807.472	3039
807.614	2910
807.756	2982
807.898	2948
808.04	2937
808.182	2998
808.324	2982
808.465	2876
808.607	2880
808.749	2861
808.891	2861
809.033	2960
809.174	3024
809.316	2929
809.458	2895
809.6	2819
809.741	2796
809.883	2762
810.025	2880
810.166	2872
810.308	2872
810.45	2864
810.591	2830
810.733	2769
810.875	2853
811.016	2811
811.158	2792
811.299	2830
811.441	2952
811.582	2944
811.724	2842
811.865	2853
812.007	2891
812.148	2872
812.29	2872
812.431	2914
812.573	2967
812.714	2982
812.855	3081
812.997	3066
813.138	3097
813.279	3036
813.421	2998
813.562	2952
813.703	2899
813.845	2906
813.986	2853
814.127	2762
814.268	2815
814.41	2857
814.551	2807
814.692	2876
814.833	2815
814.974	2918
815.115	2986
815.256	2838
815.397	2815
815.539	2861
815.68	2773
815.821	2857
815.962	2960
816.103	2979
816.244	2902
816.385	2872
816.526	2986
816.666	2899
816.807	2731
816.948	2918
817.089	2941
817.23	2868
817.371	2834
817.512	2819
817.653	2876
817.793	2834
817.934	2895
818.075	3017
818.216	3013
818.356	3017
818.497	2899
818.638	2800
818.778	2838
818.919	2834
819.06	2792
819.2	2887
819.341	2826
819.481	2819
819.622	2941
819.762	3100
819.903	3062
820.043	2937
820.184	2941
820.324	2899
820.465	2998
820.605	3055
820.746	3039
820.886	2963
821.026	3100
821.167	3157
821.307	3306
821.447	3264
821.588	3249
821.728	3230
821.868	3195
822.008	3066
822.149	3195
822.289	3253
822.429	3127
822.569	3104
822.709	3207
822.849	3024
822.99	3077
823.13	3165
823.27	3237
823.41	3116
823.55	3173
823.69	3142
823.83	3199
823.97	3100
824.11	2986
824.25	3032
824.389	3119
824.529	3135
824.669	3097
824.809	3199
824.949	3241
825.089	3226
825.228	3138
825.368	3020
825.508	2952
825.648	3001
825.787	3013
825.927	3055
826.067	2975
826.206	2948
826.346	3062
826.485	3089
826.625	3108
826.765	3275
826.904	3241
827.044	2986
827.183	2944
827.323	2883
827.462	2998
827.601	2925
827.741	2963
827.88	2937
828.02	2887
828.159	2956
828.298	3051
828.437	3138
828.577	3062
828.716	3233
828.855	3085
828.994	2883
829.134	2899
829.273	2975
829.412	2891
829.551	2857
829.69	2918
829.829	2967
829.968	3138
830.107	3043
830.246	3047
830.385	2929
830.524	2910
830.663	2861
830.802	2724
830.941	2655
831.08	2670
831.219	2766
831.357	2758
831.496	2937
831.635	2739
831.774	2686
831.913	2686
832.051	2552
832.19	2606
832.329	2708
832.467	2537
832.606	2503
832.744	2613
832.883	2621
833.022	2598
833.16	2636
833.299	2712
833.437	2705
833.576	2682
833.714	2735
833.852	2746
833.991	2773
834.129	2864
834.267	2845
834.406	2785
834.544	2876
834.682	2914
834.821	2899
834.959	3085
835.097	2925
835.235	3093
835.373	3017
835.511	3009
835.65	2960
835.788	2956
835.926	2845
836.064	2834
836.202	2857
836.34	3097
836.478	3165
836.615	3066
836.753	3157
836.891	3199
837.029	3169
837.167	3104
837.305	3077
837.443	3039
837.58	2998
837.718	3146
837.856	3097
837.993	3066
838.131	3123
838.269	3131
838.406	3097
838.544	3074
838.681	2967
838.819	2910
838.956	2826
839.094	2826
839.231	2933
839.369	3039
839.506	3416
839.643	3237
839.781	3032
839.918	2948
840.055	3047
840.193	3039
840.33	3062
840.467	3104
840.604	3142
840.742	3393
840.879	3047
841.016	3055
841.153	3100
841.29	3363
841.427	3325
841.564	3253
841.701	3291
841.838	3260
841.975	3173
842.112	3241
842.249	3081
842.385	3081
842.522	3249
842.659	3074
842.796	3036
842.933	3085
843.069	3043
843.206	3081
843.343	3173
843.479	3077
843.616	3123
843.752	2910
843.889	2883
844.025	3097
844.162	2861
844.298	3062
844.435	2971
844.571	2952
844.708	3077
844.844	3165
844.98	3192
845.117	3218
845.253	3062
845.389	3005
845.525	3131
845.661	3074
845.798	2990
845.934	3142
846.07	3112
846.206	3188
846.342	3264
846.478	3226
846.614	3089
846.75	3058
846.886	3043
847.022	3241
847.158	3097
847.294	3199
847.429	3241
847.565	3249
847.701	3492
847.837	3032
847.972	3001
848.108	3146
848.244	3119
848.379	2982
848.515	2971
848.65	2941
848.786	2952
848.921	2990
849.057	3123
849.192	3161
849.328	3089
849.463	3119
849.598	3066
849.734	3032
849.869	2994
850.004	2941
850.14	2963
850.275	2944
850.41	2815
850.545	2883
850.68	2975
850.815	3001
850.95	3028
851.085	3180
851.22	3070
851.355	3055
851.49	3001
851.625	3001
851.76	3055
851.895	2944
852.03	2963
852.165	3070
852.299	3173
852.434	3222
852.569	3150
852.703	3173
852.838	3272
852.973	3332
853.107	3378
853.242	3192
853.376	3112
853.511	2994
853.645	3062
853.78	3264
853.914	3119
854.048	3173
854.183	3089
854.317	3138
854.451	3355
854.585	3135
854.72	3138
854.854	3253
854.988	3093
855.122	3146
855.256	3058
855.39	3180
855.524	3287
855.658	3207
855.792	3176
855.926	3230
856.06	3291
856.194	3291
856.327	3135
856.461	3116
856.595	3108
856.729	3131
856.862	3230
856.996	3211
857.13	3218
857.263	3253
857.397	3310
857.53	3138
857.664	3222
857.797	3283
857.931	3298
858.064	3245
858.197	3256
858.331	3176
858.464	3112
858.597	3036
858.731	3169
858.864	3165
858.997	3123
859.13	3203
859.263	3218
859.396	3241
859.529	3104
859.662	3100
859.795	3070
859.928	3173
860.061	3302
860.194	3344
860.327	3138
860.46	3123
860.592	3275
860.725	3272
860.858	3298
860.99	3146
861.123	3066
861.256	3100
861.388	3142
861.521	3850
861.653	3051
861.786	3024
861.918	3043
862.05	3112
862.183	3131
862.315	3165
862.447	3241
862.58	3154
862.712	2998
862.844	2910
862.976	3047
863.108	3066
863.24	3351
863.372	2941
863.504	3009
863.636	2960
863.768	3070
863.9	3009
864.032	2922
864.164	2990
864.296	3024
864.428	3104
864.559	3138
864.691	3108
864.823	3089
864.954	3043
865.086	3077
865.217	2963
865.349	2990
865.48	3013
865.612	3058
865.743	3199
865.875	3001
866.006	2979
866.137	2994
866.269	2956
866.4	2956
866.531	2967
866.662	2933
866.793	2929
866.924	2899
867.055	2982
867.186	2914
867.317	2933
867.448	2861
867.579	2864
867.71	2876
867.841	2899
867.972	2952
868.103	2948
868.233	2922
868.364	2941
868.495	2933
868.625	3100
868.756	3176
868.886	3005
869.017	3051
869.147	3214
869.278	3192
869.408	3070
869.539	3028
869.669	3104
869.799	3051
869.929	3138
870.06	3142
870.19	3344
870.32	3294
870.45	3302
870.58	3397
870.71	3469
870.84	3496
870.97	3302
871.1	3260
871.23	3500
871.36	3473
871.489	3401
871.619	3466
871.749	3454
871.879	3458
872.008	3557
872.138	3355
872.267	3336
872.397	3138
872.526	3142
872.656	3047
872.785	3169
872.915	3237
873.044	3336
873.173	3260
873.303	3264
873.432	3253
873.561	3256
873.69	3195
873.819	3184
873.948	3207
874.077	3173
874.206	3058
874.335	3093
874.464	3226
874.593	3370
874.722	3241
874.851	3428
874.979	3363
875.108	3329
875.237	3188
875.365	3165
875.494	3195
875.623	3283
875.751	3131
875.88	3119
876.008	3226
876.136	3268
876.265	3405
876.393	3538
876.521	3424
876.65	3428
876.778	3363
876.906	3291
877.034	3226
877.162	3245
877.29	3211
877.418	3268
877.546	3302
877.674	3264
877.802	3283
877.93	3279
878.058	3157
878.185	3138
878.313	3233
878.441	3249
878.568	3074
878.696	3169
878.824	3294
878.951	3332
879.079	3488
879.206	3648
879.333	3481
879.461	3359
879.588	3359
879.715	3511
879.842	3595
879.97	3363
880.097	3184
880.224	3161
880.351	3245
880.478	3260
880.605	3222
880.732	3230
880.859	3515
880.986	3317
881.112	3317
881.239	3218
881.366	3123
881.493	3058
881.619	3066
881.746	3097
881.872	3104
881.999	3123
882.125	3146
882.252	3260
882.378	3336
882.505	3435
882.631	3325
882.757	3176
882.883	3233
883.01	3260
883.136	3195
883.262	3093
883.388	3154
883.514	3313
883.64	3370
883.766	3344
883.892	3192
884.018	3279
884.143	3439
884.269	3538
884.395	3241
884.52	3161
884.646	3207
884.772	3142
884.897	3100
885.023	3230
885.148	3332
885.274	3439
885.399	3374
885.524	3336
885.65	3298
885.775	3321
885.9	3298
886.025	3416
886.15	3393
886.275	3291
886.4	3317
886.525	3329
886.65	3291
886.775	3260
886.9	3576
887.025	3641
887.149	3424
887.274	3294
887.399	3226
887.523	3230
887.648	3218
887.773	3226
887.897	3397
888.021	3378
888.146	3325
888.27	3462
888.395	3542
888.519	3435
888.643	3473
888.767	3485
888.891	3321
889.015	3253
889.139	3302
889.263	3272
889.387	3420
889.511	3530
889.635	3462
889.759	3332
889.883	3313
890.006	3431
890.13	3507
890.254	3279
890.377	3370
890.501	3211
890.624	3165
890.748	3310
890.871	3253
890.995	3135
891.118	3138
891.241	3184
891.364	3241
891.488	3329
891.611	3195
891.734	3245
891.857	3344
891.98	3268
892.103	3355
892.226	3279
892.349	3249
892.471	3089
892.594	3226
892.717	3306
892.839	3268
892.962	3313
893.085	3386
893.207	3298
893.33	3169
893.452	3230
893.575	3355
893.697	3253
893.819	3492
893.941	3504
894.064	3431
894.186	3317
894.308	3283
894.43	3473
894.552	3557
894.674	3538
894.796	3237
894.918	3325
895.04	3306
895.161	3435
895.283	3386
895.405	3336
895.526	3374
895.648	3420
895.769	3424
895.891	3447
896.012	3485
896.134	3469
896.255	3409
896.376	3416
896.498	3374
896.619	3469
896.74	3382
896.861	3447
896.982	3675
897.103	3869
897.224	3663
897.345	3584
897.466	3454
897.587	3542
897.708	3648
897.828	3591
897.949	3458
898.07	3344
898.19	3420
898.311	3606
898.431	3477
898.552	3542
898.672	3610
898.792	3599
898.913	3580
899.033	3443
899.153	3302
899.273	3241
899.393	3363
899.513	3336
899.633	3355
899.753	3313
899.873	3321
899.993	3409
900.113	3367
900.232	3416
900.352	3386
900.472	3313
900.591	3222
900.711	3256
900.83	3283
900.95	3412
901.069	3466
901.189	3340
901.308	3180
901.427	3176
901.546	3211
901.665	3268
901.784	3359
901.904	3230
902.023	3135
902.141	3017
902.26	3020
902.379	3142
902.498	3100
902.617	3123
902.735	3230
902.854	3283
902.973	3211
903.091	3097
903.21	3097
903.328	3161
903.446	3085
903.565	3131
903.683	3214
903.801	3127
903.919	3287
904.038	3317
904.156	3184
904.274	3306
904.392	3283
904.51	3287
904.627	3321
904.745	3424
904.863	3496
904.981	3279
905.098	3214
905.216	3264
905.334	3310
905.451	3313
905.569	3325
905.686	3458
905.803	3443
905.921	3313
906.038	3439
906.155	3355
906.272	3321
906.389	3367
906.506	3214
906.623	3294
906.74	3272
906.857	3165
906.974	3291
907.091	3447
907.208	3584
907.324	3492
907.441	3458
907.557	3241
907.674	3233
907.79	3249
907.907	3310
908.023	3382
908.139	3370
908.256	3344
908.372	3420
908.488	3382
908.604	3272
908.72	3260
908.836	3291
908.952	3291
909.068	3363
909.184	3519
909.3	3412
909.415	3477
909.531	3519
909.647	3283
909.762	3283
909.878	3241
909.993	3401
910.108	3348
910.224	3370
910.339	3424
910.454	3306
910.57	3310
910.685	3291
910.8	3603
910.915	3523
911.03	3439
911.145	3294
911.259	3313
911.374	3306
911.489	3264
911.604	3245
911.718	3176
911.833	3176
911.947	3028
912.062	2990
912.176	3146
912.291	3226
912.405	3233
912.519	3409
912.633	3431
912.748	3336
912.862	3279
912.976	3184
913.09	3119
913.204	3135
913.318	3241
913.431	3321
913.545	3351
913.659	3450
913.772	3313
913.886	3214
914	3218
914.113	3329
914.226	3469
914.34	3367
914.453	3222
914.566	3378
914.68	3317
914.793	3332
914.906	3161
915.019	3112
915.132	3089
915.245	3195
915.358	3249
915.47	3241
915.583	3256
915.696	3294
915.809	3409
915.921	3450
916.034	3245
916.146	3317
916.259	3249
916.371	3370
916.483	3382
916.595	3317
916.708	3363
916.82	3374
916.932	3348
917.044	3378
917.156	3389
917.268	3268
917.38	3306
917.491	3313
917.603	3363
917.715	3443
917.826	3458
917.938	3378
918.049	3298
918.161	3397
918.272	3606
918.384	3572
918.495	3515
918.606	3298
918.717	3264
918.828	3401
918.939	3428
919.05	3340
919.161	3386
919.272	3180
919.383	3340
919.494	3507
919.604	3679
919.715	3504
919.826	3378
919.936	3462
920.047	3576
920.157	3526
920.267	3774
920.378	3576
920.488	3610
920.598	3774
920.708	4006
920.818	3831
920.928	3831
921.038	4017
921.148	4029
921.258	3743
921.368	3606
921.477	3603
921.587	3515
921.697	3416
921.806	3644
921.916	3534
922.025	3351
922.134	3389
922.244	3310
922.353	3469
922.462	3256
922.571	3249
922.68	3142
922.789	3074
922.898	3173
923.007	3074
923.116	3249
923.224	3192
923.333	3207
923.442	3135
923.55	3081
923.659	3150
923.767	3199
923.876	3123
923.984	3226
924.092	3108
924.201	3180
924.309	3264
924.417	3226
924.525	3180
924.633	3241
924.741	4200
924.849	3047
924.956	3253
925.064	3112
925.172	3039
925.279	3142
925.387	3199
925.494	3207
925.602	3382
925.709	3348
925.816	3199
925.924	3272
926.031	3363
926.138	3310
926.245	3374
926.352	3226
926.459	3401
926.566	3443
926.673	3306
926.779	3256
926.886	3237
926.993	3157
927.099	3123
927.206	3123
927.312	3119
927.419	3241
927.525	3241
927.631	3272
927.737	3161
927.843	3108
927.95	3051
928.056	3119
928.162	3199
928.267	3260
928.373	3743
928.479	3310
928.585	3058
928.69	3264
928.796	3222
928.901	3169
929.007	3058
929.112	3237
929.218	3211
929.323	3176
929.428	3142
929.533	3313
929.638	3116
929.743	3154
929.848	3268
929.953	3203
930.058	3123
930.163	3039
930.267	2982
930.372	3260
930.477	3020
930.581	3313
930.685	3176
930.79	3032
930.894	3131
930.998	3108
931.103	3253
931.207	2948
931.311	2929
931.415	2941
931.519	2777
931.623	2811
