Data from test_V78500241_1522.txt Node
Date: Fri Mar 25 16:25:44 CST 2022
User: usil
Spectrometer: V785-0024
Trigger mode: 0
Integration Time (sec): 4.000000E-1
Scans to average: 1
Nonlinearity correction enabled: false
Boxcar width: 0
Storing dark spectrum: false
XAxis mode: Wavelengths
Number of Pixels in Spectrum: 1024
>>>>>Begin Spectral Data<<<<<
801.071	2910
801.214	2952
801.356	2861
801.499	2899
801.641	2887
801.783	2910
801.926	3051
802.068	2971
802.211	2986
802.353	3055
802.496	2937
802.638	3020
802.78	3039
802.923	3039
803.065	3024
803.208	2887
803.35	2918
803.492	2937
803.635	2899
803.777	2750
803.919	2834
804.061	3214
804.204	2963
804.346	2906
804.488	2842
804.63	3009
804.773	2895
804.915	2895
805.057	3074
805.199	2918
805.341	2918
805.483	3043
805.626	3001
805.768	2990
805.91	3055
806.052	3123
806.194	3020
806.336	3218
806.478	3009
806.62	2960
806.762	2967
806.904	3005
807.046	3150
807.188	2963
807.33	2922
807.472	3024
807.614	2899
807.756	2994
807.898	2925
808.04	2876
808.182	2986
808.324	2990
808.465	2868
808.607	2864
808.749	2815
808.891	2826
809.033	2952
809.174	2979
809.316	2899
809.458	2891
809.6	2769
809.741	2735
809.883	2743
810.025	2796
810.166	2819
810.308	2849
810.45	2838
810.591	2766
810.733	2743
810.875	2853
811.016	2777
811.158	2769
811.299	2823
811.441	2876
811.582	2864
811.724	2838
811.865	2800
812.007	2952
812.148	2868
812.29	2788
812.431	2845
812.573	2899
812.714	2963
812.855	3051
812.997	3058
813.138	3112
813.279	2986
813.421	2979
813.562	2948
813.703	2868
813.845	2883
813.986	2743
814.127	2746
814.268	2826
814.41	2807
814.551	2792
814.692	2883
814.833	2823
814.974	2876
815.115	2967
815.256	2804
815.397	2826
815.539	2830
815.68	2769
815.821	2807
815.962	2979
816.103	2952
816.244	2922
816.385	2868
816.526	2941
816.666	2906
816.807	2758
816.948	2902
817.089	2880
817.23	2868
817.371	2785
817.512	2777
817.653	2830
817.793	2819
817.934	2857
818.075	2956
818.216	2971
818.356	3028
818.497	2918
818.638	2762
818.778	2826
818.919	2766
819.06	2731
819.2	2895
819.341	2815
819.481	2792
819.622	2941
819.762	3116
819.903	3028
820.043	2902
820.184	2925
820.324	2914
820.465	3009
820.605	2986
820.746	3005
820.886	2933
821.026	3127
821.167	3150
821.307	3275
821.447	3283
821.588	3249
821.728	3226
821.868	3188
822.008	3077
822.149	3207
822.289	3245
822.429	3093
822.569	3070
822.709	3150
822.849	3043
822.99	3085
823.13	3173
823.27	3157
823.41	3119
823.55	3112
823.69	3150
823.83	3161
823.97	3104
824.11	3005
824.25	2986
824.389	3112
824.529	3081
824.669	3024
824.809	3192
824.949	3268
825.089	3203
825.228	3161
825.368	2979
825.508	2933
825.648	2975
825.787	3047
825.927	3009
826.067	2963
826.206	2925
826.346	3062
826.485	3051
826.625	3123
826.765	3253
826.904	3184
827.044	2982
827.183	2933
827.323	2823
827.462	2979
827.601	2929
827.741	2941
827.88	2952
828.02	2823
828.159	2971
828.298	3032
828.437	3112
828.577	3028
828.716	3241
828.855	3093
828.994	2895
829.134	2868
829.273	2918
829.412	2861
829.551	2845
829.69	2895
829.829	2979
829.968	3077
830.107	2975
830.246	2967
830.385	2895
830.524	2861
830.663	2861
830.802	2731
830.941	2632
831.08	2629
831.219	2769
831.357	2739
831.496	2956
831.635	2701
831.774	2648
831.913	2636
832.051	2530
832.19	2598
832.329	2689
832.467	2518
832.606	2469
832.744	2568
832.883	2549
833.022	2560
833.16	2632
833.299	2667
833.437	2682
833.576	2708
833.714	2705
833.852	2731
833.991	2750
834.129	2845
834.267	2826
834.406	2769
834.544	2883
834.682	2876
834.821	2834
834.959	3055
835.097	2899
835.235	3066
835.373	2971
835.511	2979
835.65	2956
835.788	2918
835.926	2815
836.064	2781
836.202	2857
836.34	3089
836.478	3131
836.615	3074
836.753	3138
836.891	3169
837.029	3165
837.167	3100
837.305	3089
837.443	3013
837.58	2971
837.718	3119
837.856	3032
837.993	3024
838.131	3119
838.269	3062
838.406	3066
838.544	3074
838.681	2918
838.819	2918
838.956	2804
839.094	2811
839.231	2929
839.369	2994
839.506	3340
839.643	3188
839.781	3020
839.918	2967
840.055	3028
840.193	3036
840.33	3055
840.467	3085
840.604	3131
840.742	3405
840.879	3028
841.016	3001
841.153	3081
841.29	3336
841.427	3306
841.564	3260
841.701	3272
841.838	3195
841.975	3199
842.112	3203
842.249	3074
842.385	3036
842.522	3230
842.659	3058
842.796	3074
842.933	3131
843.069	3032
843.206	3047
843.343	3176
843.479	3100
843.616	3100
843.752	2876
843.889	2838
844.025	3047
844.162	2861
844.298	3089
844.435	2925
844.571	2910
844.708	3062
844.844	3192
844.98	3222
845.117	3203
845.253	3036
845.389	3005
845.525	3043
845.661	3104
845.798	3013
845.934	3104
846.07	3036
846.206	3226
846.342	3336
846.478	3214
846.614	3055
846.75	3062
846.886	3028
847.022	3253
847.158	3097
847.294	3165
847.429	3245
847.565	3207
847.701	3526
847.837	3013
847.972	3009
848.108	3165
848.244	3146
848.379	2967
848.515	2952
848.65	2941
848.786	2956
848.921	3013
849.057	3085
849.192	3138
849.328	3066
849.463	3116
849.598	3066
849.734	3032
849.869	2979
850.004	2891
850.14	2979
850.275	2887
850.41	2826
850.545	2906
850.68	2929
850.815	2975
850.95	2990
851.085	3161
851.22	3077
851.355	3005
851.49	2960
851.625	2990
851.76	3024
851.895	2944
852.03	2902
852.165	3024
852.299	3093
852.434	3173
852.569	3104
852.703	3154
852.838	3241
852.973	3302
853.107	3313
853.242	3131
853.376	3077
853.511	2918
853.645	3013
853.78	3173
853.914	3123
854.048	3093
854.183	3055
854.317	3176
854.451	3275
854.585	3131
854.72	3077
854.854	3184
854.988	3070
855.122	3100
855.256	2963
855.39	3100
855.524	3230
855.658	3154
855.792	3142
855.926	3176
856.06	3188
856.194	3233
856.327	3135
856.461	3058
856.595	3062
856.729	3047
856.862	3207
856.996	3127
857.13	3192
857.263	3237
857.397	3283
857.53	3138
857.664	3218
857.797	3207
857.931	3253
858.064	3123
858.197	3192
858.331	3146
858.464	3070
858.597	2994
858.731	3108
858.864	3135
858.997	3058
859.13	3127
859.263	3169
859.396	3230
859.529	3085
859.662	3055
859.795	3081
859.928	3176
860.061	3291
860.194	3260
860.327	3100
860.46	3043
860.592	3222
860.725	3214
860.858	3233
860.99	3085
861.123	3039
861.256	3020
861.388	3142
861.521	3888
861.653	3036
861.786	2967
861.918	2975
862.05	3085
862.183	3081
862.315	3146
862.447	3203
862.58	3051
862.712	2929
862.844	2872
862.976	3005
863.108	2998
863.24	3310
863.372	2849
863.504	2963
863.636	2948
863.768	3020
863.9	2963
864.032	2925
864.164	2933
864.296	2998
864.428	3070
864.559	3062
864.691	3043
864.823	3062
864.954	3043
865.086	3017
865.217	3001
865.349	2922
865.48	3013
865.612	2986
865.743	3131
865.875	2963
866.006	2929
866.137	2990
866.269	2925
866.4	2925
866.531	2925
866.662	2891
866.793	2937
866.924	2883
867.055	2963
867.186	2929
867.317	2853
867.448	2842
867.579	2864
867.71	2864
867.841	2819
867.972	2937
868.103	2887
868.233	2895
868.364	2845
868.495	2906
868.625	3028
868.756	3146
868.886	2967
869.017	2990
869.147	3180
869.278	3154
869.408	3051
869.539	3013
869.669	3131
869.799	3024
869.929	3131
870.06	3062
870.19	3306
870.32	3279
870.45	3275
870.58	3351
870.71	3447
870.84	3454
870.97	3264
871.1	3253
871.23	3477
871.36	3424
871.489	3332
871.619	3412
871.749	3401
871.879	3428
872.008	3473
872.138	3332
872.267	3260
872.397	3108
872.526	3074
872.656	3005
872.785	3108
872.915	3195
873.044	3313
873.173	3199
873.303	3256
873.432	3214
873.561	3253
873.69	3131
873.819	3104
873.948	3173
874.077	3108
874.206	3043
874.335	3104
874.464	3169
874.593	3336
874.722	3253
874.851	3359
874.979	3367
875.108	3310
875.237	3180
875.365	3157
875.494	3169
875.623	3241
875.751	3077
875.88	3131
876.008	3154
876.136	3180
876.265	3332
876.393	3488
876.521	3401
876.65	3389
876.778	3355
876.906	3241
877.034	3188
877.162	3233
877.29	3154
877.418	3218
877.546	3214
877.674	3249
877.802	3253
877.93	3226
878.058	3104
878.185	3116
878.313	3180
878.441	3180
878.568	3055
878.696	3123
878.824	3256
878.951	3294
879.079	3428
879.206	3622
879.333	3443
879.461	3348
879.588	3348
879.715	3496
879.842	3580
879.97	3412
880.097	3150
880.224	3085
880.351	3173
880.478	3211
880.605	3176
880.732	3192
880.859	3481
880.986	3264
881.112	3317
881.239	3218
881.366	3055
881.493	3001
881.619	3005
881.746	3089
881.872	3085
881.999	3051
882.125	3112
882.252	3218
882.378	3256
882.505	3420
882.631	3279
882.757	3146
882.883	3203
883.01	3207
883.136	3135
883.262	3104
883.388	3100
883.514	3272
883.64	3355
883.766	3260
883.892	3180
884.018	3253
884.143	3386
884.269	3530
884.395	3180
884.52	3146
884.646	3173
884.772	3100
884.897	3062
885.023	3192
885.148	3313
885.274	3439
885.399	3321
885.524	3260
885.65	3275
885.775	3253
885.9	3264
886.025	3401
886.15	3329
886.275	3279
886.4	3214
886.525	3275
886.65	3268
886.775	3272
886.9	3469
887.025	3606
887.149	3374
887.274	3188
887.399	3173
887.523	3180
887.648	3123
887.773	3180
887.897	3340
888.021	3348
888.146	3283
888.27	3439
888.395	3504
888.519	3397
888.643	3435
888.767	3450
888.891	3313
889.015	3233
889.139	3283
889.263	3233
889.387	3416
889.511	3519
889.635	3439
889.759	3256
889.883	3310
890.006	3336
890.13	3526
890.254	3222
890.377	3321
890.501	3203
890.624	3157
890.748	3260
890.871	3180
890.995	3100
891.118	3077
891.241	3214
891.364	3230
891.488	3313
891.611	3222
891.734	3279
891.857	3313
891.98	3272
892.103	3329
892.226	3264
892.349	3230
892.471	3154
892.594	3260
892.717	3279
892.839	3294
892.962	3291
893.085	3378
893.207	3287
893.33	3211
893.452	3222
893.575	3367
893.697	3283
893.819	3473
893.941	3511
894.064	3519
894.186	3310
894.308	3310
894.43	3454
894.552	3568
894.674	3515
894.796	3325
894.918	3355
895.04	3329
895.161	3443
895.283	3405
895.405	3363
895.526	3386
895.648	3428
895.769	3420
895.891	3492
896.012	3500
896.134	3496
896.255	3420
896.376	3431
896.498	3378
896.619	3439
896.74	3401
896.861	3428
896.982	3671
897.103	3865
897.224	3641
897.345	3549
897.466	3473
897.587	3526
897.708	3698
897.828	3606
897.949	3473
898.07	3370
898.19	3458
898.311	3618
898.431	3458
898.552	3542
898.672	3580
898.792	3561
898.913	3568
899.033	3462
899.153	3321
899.273	3268
899.393	3287
899.513	3359
899.633	3332
899.753	3386
899.873	3355
899.993	3416
900.113	3382
900.232	3435
900.352	3370
900.472	3340
900.591	3230
900.711	3405
900.83	3291
900.95	3454
901.069	3504
901.189	3409
901.308	3203
901.427	3188
901.546	3230
901.665	3332
901.784	3355
901.904	3245
902.023	3195
902.141	3089
902.26	3047
902.379	3195
902.498	3127
902.617	3104
902.735	3268
902.854	3260
902.973	3233
903.091	3070
903.21	3062
903.328	3203
903.446	3104
903.565	3131
903.683	3207
903.801	3108
903.919	3253
904.038	3302
904.156	3214
904.274	3310
904.392	3302
904.51	3306
904.627	3389
904.745	3462
904.863	3526
904.981	3253
905.098	3184
905.216	3222
905.334	3317
905.451	3348
905.569	3348
905.686	3443
905.803	3454
905.921	3332
906.038	3424
906.155	3397
906.272	3321
906.389	3359
906.506	3253
906.623	3256
906.74	3302
906.857	3222
906.974	3291
907.091	3488
907.208	3572
907.324	3504
907.441	3382
907.557	3222
907.674	3272
907.79	3245
907.907	3329
908.023	3409
908.139	3428
908.256	3367
908.372	3439
908.488	3359
908.604	3313
908.72	3245
908.836	3317
908.952	3287
909.068	3378
909.184	3500
909.3	3386
909.415	3530
909.531	3507
909.647	3329
909.762	3306
909.878	3329
909.993	3378
910.108	3355
910.224	3382
910.339	3424
910.454	3378
910.57	3351
910.685	3294
910.8	3652
910.915	3526
911.03	3435
911.145	3294
911.259	3298
911.374	3355
911.489	3291
911.604	3298
911.718	3173
911.833	3165
911.947	3043
912.062	3028
912.176	3195
912.291	3230
912.405	3253
912.519	3485
912.633	3507
912.748	3355
912.862	3272
912.976	3214
913.09	3089
913.204	3180
913.318	3249
913.431	3348
913.545	3370
913.659	3435
913.772	3332
913.886	3291
914	3245
914.113	3374
914.226	3458
914.34	3416
914.453	3218
914.566	3412
914.68	3325
914.793	3344
914.906	3184
915.019	3112
915.132	3116
915.245	3245
915.358	3214
915.47	3260
915.583	3226
915.696	3378
915.809	3416
915.921	3439
916.034	3298
916.146	3256
916.259	3245
916.371	3397
916.483	3393
916.595	3291
916.708	3370
916.82	3374
916.932	3363
917.044	3393
917.156	3378
917.268	3325
917.38	3332
917.491	3313
917.603	3416
917.715	3485
917.826	3523
917.938	3416
918.049	3291
918.161	3466
918.272	3538
918.384	3587
918.495	3504
918.606	3393
918.717	3321
918.828	3401
918.939	3416
919.05	3325
919.161	3401
919.272	3173
919.383	3329
919.494	3538
919.604	3682
919.715	3549
919.826	3450
919.936	3504
920.047	3637
920.157	3572
920.267	3755
920.378	3629
920.488	3572
920.598	3846
920.708	3972
920.818	3854
920.928	3884
921.038	4067
921.148	4002
921.258	3724
921.368	3667
921.477	3644
921.587	3568
921.697	3496
921.806	3625
921.916	3538
922.025	3382
922.134	3374
922.244	3370
922.353	3431
922.462	3275
922.571	3253
922.68	3146
922.789	3138
922.898	3173
923.007	3154
923.116	3241
923.224	3192
923.333	3214
923.442	3150
923.55	3131
923.659	3192
923.767	3291
923.876	3154
923.984	3241
924.092	3119
924.201	3230
924.309	3241
924.417	3256
924.525	3241
924.633	3256
924.741	4158
924.849	3070
924.956	3283
925.064	3150
925.172	3081
925.279	3108
925.387	3195
925.494	3222
925.602	3370
925.709	3374
925.816	3188
925.924	3336
926.031	3405
926.138	3336
926.245	3367
926.352	3294
926.459	3420
926.566	3462
926.673	3336
926.779	3279
926.886	3279
926.993	3184
927.099	3154
927.206	3157
927.312	3161
927.419	3249
927.525	3226
927.631	3306
927.737	3192
927.843	3142
927.95	3001
928.056	3165
928.162	3199
928.267	3249
928.373	3835
928.479	3374
928.585	3097
928.69	3268
928.796	3279
928.901	3211
929.007	3077
929.112	3230
929.218	3203
929.323	3192
929.428	3188
929.533	3332
929.638	3150
929.743	3199
929.848	3279
929.953	3241
930.058	3157
930.163	3051
930.267	3074
930.372	3237
930.477	3066
930.581	3306
930.685	3173
930.79	3077
930.894	3154
930.998	3116
931.103	3272
931.207	2967
931.311	2952
931.415	2944
931.519	2811
931.623	2849
