Data from test_V78500241_547.txt Node
Date: Fri Mar 25 16:18:59 CST 2022
User: usil
Spectrometer: V785-0024
Trigger mode: 0
Integration Time (sec): 4.000000E-1
Scans to average: 1
Nonlinearity correction enabled: false
Boxcar width: 0
Storing dark spectrum: false
XAxis mode: Wavelengths
Number of Pixels in Spectrum: 1024
>>>>>Begin Spectral Data<<<<<
801.071	2922
801.214	2963
801.356	2861
801.499	2902
801.641	2876
801.783	2948
801.926	3039
802.068	2944
802.211	3039
802.353	3017
802.496	2971
802.638	3013
802.78	3020
802.923	3085
803.065	2986
803.208	2887
803.35	2944
803.492	2937
803.635	2937
803.777	2754
803.919	2842
804.061	3165
804.204	2948
804.346	2853
804.488	2853
804.63	2986
804.773	2853
804.915	2906
805.057	3066
805.199	2971
805.341	2929
805.483	3020
805.626	2986
805.768	2971
805.91	3058
806.052	3127
806.194	3070
806.336	3245
806.478	3036
806.62	2982
806.762	2994
806.904	3047
807.046	3192
807.188	2990
807.33	2914
807.472	3009
807.614	2922
807.756	2944
807.898	2933
808.04	2906
808.182	2956
808.324	2925
808.465	2906
808.607	2861
808.749	2777
808.891	2823
809.033	2956
809.174	2975
809.316	2895
809.458	2887
809.6	2788
809.741	2769
809.883	2792
810.025	2845
810.166	2857
810.308	2853
810.45	2834
810.591	2769
810.733	2758
810.875	2838
811.016	2826
811.158	2769
811.299	2807
811.441	2948
811.582	2872
811.724	2792
811.865	2853
812.007	2895
812.148	2902
812.29	2872
812.431	2880
812.573	2925
812.714	2952
812.855	3051
812.997	3047
813.138	3108
813.279	2986
813.421	3013
813.562	2944
813.703	2861
813.845	2906
813.986	2777
814.127	2746
814.268	2769
814.41	2811
814.551	2826
814.692	2876
814.833	2777
814.974	2922
815.115	2952
815.256	2834
815.397	2800
815.539	2853
815.68	2750
815.821	2796
815.962	2918
816.103	2941
816.244	2891
816.385	2853
816.526	2986
816.666	2937
816.807	2754
816.948	2864
817.089	2918
817.23	2834
817.371	2762
817.512	2788
817.653	2811
817.793	2853
817.934	2876
818.075	2963
818.216	2967
818.356	3005
818.497	2857
818.638	2758
818.778	2804
818.919	2788
819.06	2792
819.2	2872
819.341	2849
819.481	2815
819.622	2883
819.762	3116
819.903	3051
820.043	2918
820.184	2880
820.324	2929
820.465	3005
820.605	3051
820.746	3024
820.886	2925
821.026	3055
821.167	3180
821.307	3241
821.447	3253
821.588	3195
821.728	3199
821.868	3203
822.008	3085
822.149	3188
822.289	3218
822.429	3077
822.569	3119
822.709	3199
822.849	3005
822.99	3047
823.13	3146
823.27	3195
823.41	3100
823.55	3112
823.69	3150
823.83	3154
823.97	3100
824.11	3020
824.25	2963
824.389	3085
824.529	3104
824.669	3028
824.809	3180
824.949	3237
825.089	3192
825.228	3184
825.368	3009
825.508	2979
825.648	2979
825.787	3009
825.927	3005
826.067	2975
826.206	2967
826.346	3070
826.485	3051
826.625	3123
826.765	3249
826.904	3188
827.044	2967
827.183	2922
827.323	2849
827.462	2990
827.601	2883
827.741	2944
827.88	2952
828.02	2815
828.159	2948
828.298	3017
828.437	3146
828.577	3051
828.716	3256
828.855	3081
828.994	2925
829.134	2857
829.273	2872
829.412	2849
829.551	2838
829.69	2861
829.829	2971
829.968	3154
830.107	2963
830.246	3009
830.385	2891
830.524	2857
830.663	2823
830.802	2716
830.941	2651
831.08	2636
831.219	2777
831.357	2777
831.496	2952
831.635	2705
831.774	2613
831.913	2651
832.051	2530
832.19	2564
832.329	2689
832.467	2533
832.606	2484
832.744	2537
832.883	2549
833.022	2568
833.16	2644
833.299	2689
833.437	2708
833.576	2674
833.714	2708
833.852	2727
833.991	2762
834.129	2845
834.267	2811
834.406	2750
834.544	2857
834.682	2887
834.821	2834
834.959	3066
835.097	2922
835.235	3058
835.373	3001
835.511	2990
835.65	2956
835.788	2960
835.926	2834
836.064	2819
836.202	2823
836.34	3093
836.478	3154
836.615	3032
836.753	3116
836.891	3184
837.029	3165
837.167	3108
837.305	3066
837.443	3051
837.58	2963
837.718	3123
837.856	3058
837.993	3024
838.131	3131
838.269	3070
838.406	3089
838.544	3131
838.681	2941
838.819	2880
838.956	2830
839.094	2804
839.231	2899
839.369	3009
839.506	3348
839.643	3218
839.781	3017
839.918	2963
840.055	3047
840.193	3055
840.33	3028
840.467	3093
840.604	3119
840.742	3420
840.879	3043
841.016	3028
841.153	3100
841.29	3329
841.427	3291
841.564	3272
841.701	3291
841.838	3195
841.975	3188
842.112	3195
842.249	3100
842.385	3028
842.522	3253
842.659	3047
842.796	3047
842.933	3112
843.069	3043
843.206	3058
843.343	3123
843.479	3104
843.616	3135
843.752	2895
843.889	2849
844.025	3089
844.162	2880
844.298	3062
844.435	2948
844.571	2891
844.708	3062
844.844	3192
844.98	3237
845.117	3173
845.253	3028
845.389	3009
845.525	3070
845.661	3093
845.798	2990
845.934	3089
846.07	3074
846.206	3169
846.342	3313
846.478	3207
846.614	3058
846.75	3070
846.886	3028
847.022	3268
847.158	3108
847.294	3169
847.429	3253
847.565	3222
847.701	3492
847.837	3093
847.972	3005
848.108	3131
848.244	3138
848.379	2948
848.515	2925
848.65	2906
848.786	2952
848.921	3020
849.057	3104
849.192	3127
849.328	3074
849.463	3127
849.598	3024
849.734	3062
849.869	2971
850.004	2933
850.14	2941
850.275	2906
850.41	2842
850.545	2910
850.68	2956
850.815	2948
850.95	2948
851.085	3169
851.22	3051
851.355	3039
851.49	2986
851.625	2975
851.76	2998
851.895	2910
852.03	2918
852.165	3024
852.299	3085
852.434	3207
852.569	3093
852.703	3176
852.838	3214
852.973	3321
853.107	3313
853.242	3135
853.376	3104
853.511	2937
853.645	3062
853.78	3199
853.914	3131
854.048	3093
854.183	3104
854.317	3135
854.451	3298
854.585	3100
854.72	3028
854.854	3192
854.988	3055
855.122	3055
855.256	2982
855.39	3112
855.524	3237
855.658	3146
855.792	3184
855.926	3169
856.06	3180
856.194	3253
856.327	3100
856.461	3077
856.595	3100
856.729	3077
856.862	3233
856.996	3138
857.13	3192
857.263	3214
857.397	3237
857.53	3074
857.664	3211
857.797	3230
857.931	3245
858.064	3165
858.197	3195
858.331	3131
858.464	3112
858.597	3020
858.731	3043
858.864	3112
858.997	3097
859.13	3127
859.263	3169
859.396	3203
859.529	3112
859.662	3066
859.795	3028
859.928	3119
860.061	3275
860.194	3275
860.327	3142
860.46	3051
860.592	3241
860.725	3245
860.858	3214
860.99	3135
861.123	3051
861.256	3070
861.388	3119
861.521	3778
861.653	3005
861.786	3001
861.918	3036
862.05	3062
862.183	3085
862.315	3116
862.447	3173
862.58	3135
862.712	2952
862.844	2872
862.976	3009
863.108	3024
863.24	3420
863.372	2880
863.504	2944
863.636	2910
863.768	3028
863.9	2998
864.032	2891
864.164	2929
864.296	3009
864.428	3097
864.559	3036
864.691	3066
864.823	3062
864.954	3047
865.086	3043
865.217	2990
865.349	2918
865.48	2998
865.612	2979
865.743	3135
865.875	2979
866.006	2929
866.137	2937
866.269	2967
866.4	2910
866.531	2910
866.662	2868
866.793	2864
866.924	2887
867.055	2967
867.186	2933
867.317	2918
867.448	2842
867.579	2823
867.71	2842
867.841	2804
867.972	2891
868.103	2872
868.233	2887
868.364	2864
868.495	2914
868.625	3077
868.756	3142
868.886	2963
869.017	3039
869.147	3135
869.278	3138
869.408	3028
869.539	2986
869.669	3070
869.799	3005
869.929	3131
870.06	3085
870.19	3287
870.32	3287
870.45	3283
870.58	3340
870.71	3416
870.84	3435
870.97	3279
871.1	3222
871.23	3496
871.36	3435
871.489	3351
871.619	3359
871.749	3397
871.879	3420
872.008	3469
872.138	3367
872.267	3294
872.397	3135
872.526	3100
872.656	2998
872.785	3116
872.915	3199
873.044	3306
873.173	3222
873.303	3203
873.432	3211
873.561	3264
873.69	3180
873.819	3165
873.948	3131
874.077	3097
874.206	3066
874.335	3097
874.464	3195
874.593	3329
874.722	3298
874.851	3412
874.979	3340
875.108	3325
875.237	3214
875.365	3154
875.494	3127
875.623	3245
875.751	3104
875.88	3112
876.008	3157
876.136	3199
876.265	3344
876.393	3477
876.521	3386
876.65	3393
876.778	3348
876.906	3237
877.034	3199
877.162	3245
877.29	3192
877.418	3268
877.546	3241
877.674	3154
877.802	3226
877.93	3214
878.058	3108
878.185	3081
878.313	3207
878.441	3211
878.568	3077
878.696	3165
878.824	3230
878.951	3287
879.079	3439
879.206	3587
879.333	3412
879.461	3294
879.588	3325
879.715	3431
879.842	3564
879.97	3401
880.097	3112
880.224	3119
880.351	3173
880.478	3237
880.605	3169
880.732	3150
880.859	3507
880.986	3313
881.112	3294
881.239	3241
881.366	3100
881.493	2982
881.619	3020
881.746	3066
881.872	3062
881.999	3097
882.125	3138
882.252	3253
882.378	3298
882.505	3473
882.631	3256
882.757	3112
882.883	3222
883.01	3241
883.136	3146
883.262	3089
883.388	3146
883.514	3329
883.64	3370
883.766	3317
883.892	3199
884.018	3233
884.143	3409
884.269	3553
884.395	3173
884.52	3184
884.646	3199
884.772	3138
884.897	3116
885.023	3218
885.148	3348
885.274	3370
885.399	3382
885.524	3294
885.65	3279
885.775	3275
885.9	3298
886.025	3389
886.15	3378
886.275	3291
886.4	3264
886.525	3287
886.65	3256
886.775	3245
886.9	3488
887.025	3648
887.149	3439
887.274	3226
887.399	3199
887.523	3207
887.648	3176
887.773	3184
887.897	3374
888.021	3428
888.146	3256
888.27	3389
888.395	3511
888.519	3424
888.643	3469
888.767	3420
888.891	3313
889.015	3249
889.139	3306
889.263	3245
889.387	3389
889.511	3507
889.635	3454
889.759	3313
889.883	3313
890.006	3378
890.13	3481
890.254	3256
890.377	3370
890.501	3226
890.624	3176
890.748	3291
890.871	3176
890.995	3093
891.118	3039
891.241	3135
891.364	3237
891.488	3306
891.611	3165
891.734	3272
891.857	3256
891.98	3249
892.103	3321
892.226	3279
892.349	3195
892.471	3169
892.594	3237
892.717	3291
892.839	3264
892.962	3287
893.085	3344
893.207	3298
893.33	3127
893.452	3211
893.575	3355
893.697	3268
893.819	3458
893.941	3507
894.064	3409
894.186	3256
894.308	3325
894.43	3439
894.552	3545
894.674	3462
894.796	3279
894.918	3302
895.04	3253
895.161	3401
895.283	3359
895.405	3230
895.526	3378
895.648	3424
895.769	3393
895.891	3450
896.012	3462
896.134	3450
896.255	3386
896.376	3344
896.498	3370
896.619	3416
896.74	3401
896.861	3363
896.982	3679
897.103	3827
897.224	3584
897.345	3488
897.466	3431
897.587	3458
897.708	3610
897.828	3534
897.949	3431
898.07	3310
898.19	3397
898.311	3618
898.431	3431
898.552	3496
898.672	3614
898.792	3595
898.913	3538
899.033	3386
899.153	3264
899.273	3226
899.393	3241
899.513	3306
899.633	3275
899.753	3298
899.873	3279
899.993	3351
900.113	3332
900.232	3351
900.352	3351
900.472	3256
900.591	3161
900.711	3291
900.83	3237
900.95	3431
901.069	3492
901.189	3382
901.308	3173
901.427	3097
901.546	3165
901.665	3279
901.784	3313
901.904	3211
902.023	3154
902.141	3028
902.26	3020
902.379	3154
902.498	3070
902.617	3058
902.735	3195
902.854	3230
902.973	3192
903.091	3024
903.21	3085
903.328	3135
903.446	3119
903.565	3112
903.683	3195
903.801	3127
903.919	3241
904.038	3256
904.156	3203
904.274	3256
904.392	3233
904.51	3279
904.627	3336
904.745	3420
904.863	3477
904.981	3226
905.098	3138
905.216	3237
905.334	3272
905.451	3310
905.569	3313
905.686	3412
905.803	3416
905.921	3249
906.038	3409
906.155	3348
906.272	3306
906.389	3355
906.506	3237
906.623	3264
906.74	3272
906.857	3173
906.974	3260
907.091	3469
907.208	3553
907.324	3488
907.441	3397
907.557	3275
907.674	3226
907.79	3203
907.907	3279
908.023	3367
908.139	3351
908.256	3298
908.372	3348
908.488	3344
908.604	3279
908.72	3195
908.836	3249
908.952	3279
909.068	3382
909.184	3481
909.3	3401
909.415	3488
909.531	3500
909.647	3268
909.762	3233
909.878	3233
909.993	3329
910.108	3340
910.224	3344
910.339	3405
910.454	3325
910.57	3260
910.685	3230
910.8	3564
910.915	3530
911.03	3431
911.145	3260
911.259	3256
911.374	3294
911.489	3230
911.604	3226
911.718	3112
911.833	3146
911.947	2998
912.062	2994
912.176	3138
912.291	3184
912.405	3230
912.519	3428
912.633	3481
912.748	3287
912.862	3237
912.976	3150
913.09	3055
913.204	3131
913.318	3203
913.431	3382
913.545	3359
913.659	3439
913.772	3306
913.886	3192
914	3230
914.113	3332
914.226	3412
914.34	3363
914.453	3218
914.566	3378
914.68	3294
914.793	3298
914.906	3131
915.019	3093
915.132	3055
915.245	3161
915.358	3211
915.47	3218
915.583	3245
915.696	3275
915.809	3397
915.921	3420
916.034	3233
916.146	3230
916.259	3207
916.371	3370
916.483	3367
916.595	3283
916.708	3321
916.82	3317
916.932	3329
917.044	3370
917.156	3332
917.268	3237
917.38	3287
917.491	3287
917.603	3382
917.715	3443
917.826	3450
917.938	3370
918.049	3268
918.161	3409
918.272	3572
918.384	3576
918.495	3507
918.606	3287
918.717	3275
918.828	3382
918.939	3370
919.05	3275
919.161	3370
919.272	3176
919.383	3268
919.494	3507
919.604	3660
919.715	3473
919.826	3397
919.936	3439
920.047	3599
920.157	3511
920.267	3724
920.378	3576
920.488	3572
920.598	3762
920.708	3945
920.818	3846
920.928	3823
921.038	3987
921.148	3991
921.258	3736
921.368	3644
921.477	3561
921.587	3492
921.697	3466
921.806	3633
921.916	3519
922.025	3332
922.134	3321
922.244	3321
922.353	3420
922.462	3264
922.571	3241
922.68	3081
922.789	3074
922.898	3142
923.007	3097
923.116	3211
923.224	3150
923.333	3180
923.442	3108
923.55	3119
923.659	3135
923.767	3180
923.876	3135
923.984	3260
924.092	3116
924.201	3233
924.309	3203
924.417	3260
924.525	3173
924.633	3207
924.741	4029
924.849	3005
924.956	3268
925.064	3089
925.172	3032
925.279	3104
925.387	3211
925.494	3192
925.602	3374
925.709	3329
925.816	3154
925.924	3275
926.031	3351
926.138	3313
926.245	3359
926.352	3279
926.459	3416
926.566	3473
926.673	3348
926.779	3256
926.886	3241
926.993	3146
927.099	3089
927.206	3085
927.312	3112
927.419	3260
927.525	3207
927.631	3279
927.737	3119
927.843	3100
927.95	3051
928.056	3150
928.162	3165
928.267	3218
928.373	3797
928.479	3298
928.585	3047
928.69	3195
928.796	3260
928.901	3138
929.007	3039
929.112	3207
929.218	3161
929.323	3112
929.428	3116
929.533	3306
929.638	3097
929.743	3195
929.848	3214
929.953	3207
930.058	3154
930.163	2956
930.267	3009
930.372	3199
930.477	3020
930.581	3302
930.685	3135
930.79	3066
930.894	3097
930.998	3070
931.103	3253
931.207	2914
931.311	2956
931.415	2880
931.519	2769
931.623	2788
