Data from test_V78500241_1293.txt Node
Date: Fri Mar 25 16:24:09 CST 2022
User: usil
Spectrometer: V785-0024
Trigger mode: 0
Integration Time (sec): 4.000000E-1
Scans to average: 1
Nonlinearity correction enabled: false
Boxcar width: 0
Storing dark spectrum: false
XAxis mode: Wavelengths
Number of Pixels in Spectrum: 1024
>>>>>Begin Spectral Data<<<<<
801.071	2914
801.214	2933
801.356	2864
801.499	2857
801.641	2883
801.783	2895
801.926	3070
802.068	2925
802.211	2971
802.353	3051
802.496	2937
802.638	2990
802.78	3043
802.923	3070
803.065	2986
803.208	2929
803.35	2929
803.492	2933
803.635	2944
803.777	2743
803.919	2868
804.061	3222
804.204	2960
804.346	2906
804.488	2845
804.63	2990
804.773	2834
804.915	2891
805.057	3055
805.199	2918
805.341	2952
805.483	3036
805.626	3020
805.768	2967
805.91	3039
806.052	3081
806.194	3009
806.336	3230
806.478	3024
806.62	2963
806.762	2967
806.904	3066
807.046	3142
807.188	2986
807.33	2918
807.472	3017
807.614	2895
807.756	2956
807.898	2914
808.04	2887
808.182	2929
808.324	2941
808.465	2910
808.607	2868
808.749	2769
808.891	2868
809.033	2956
809.174	2956
809.316	2880
809.458	2876
809.6	2807
809.741	2769
809.883	2777
810.025	2861
810.166	2876
810.308	2849
810.45	2811
810.591	2743
810.733	2758
810.875	2830
811.016	2804
811.158	2743
811.299	2823
811.441	2948
811.582	2922
811.724	2849
811.865	2853
812.007	2868
812.148	2880
812.29	2834
812.431	2887
812.573	2963
812.714	2967
812.855	3043
812.997	3055
813.138	3131
813.279	2998
813.421	2948
813.562	2963
813.703	2876
813.845	2864
813.986	2746
814.127	2750
814.268	2807
814.41	2853
814.551	2785
814.692	2887
814.833	2800
814.974	2922
815.115	2937
815.256	2819
815.397	2788
815.539	2838
815.68	2758
815.821	2773
815.962	2937
816.103	2933
816.244	2857
816.385	2861
816.526	2967
816.666	2906
816.807	2724
816.948	2876
817.089	2910
817.23	2872
817.371	2766
817.512	2781
817.653	2834
817.793	2781
817.934	2918
818.075	2971
818.216	2971
818.356	2998
818.497	2872
818.638	2754
818.778	2834
818.919	2826
819.06	2746
819.2	2872
819.341	2811
819.481	2823
819.622	2895
819.762	3100
819.903	3024
820.043	2925
820.184	2887
820.324	2906
820.465	2994
820.605	3017
820.746	3001
820.886	2922
821.026	3093
821.167	3131
821.307	3264
821.447	3245
821.588	3211
821.728	3203
821.868	3211
822.008	3051
822.149	3207
822.289	3184
822.429	3081
822.569	3089
822.709	3180
822.849	3017
822.99	3070
823.13	3131
823.27	3184
823.41	3116
823.55	3135
823.69	3135
823.83	3169
823.97	3104
824.11	2998
824.25	2994
824.389	3081
824.529	3108
824.669	3062
824.809	3195
824.949	3233
825.089	3195
825.228	3135
825.368	3024
825.508	2937
825.648	2941
825.787	3017
825.927	2990
826.067	2918
826.206	2994
826.346	3020
826.485	3047
826.625	3066
826.765	3272
826.904	3253
827.044	2986
827.183	2910
827.323	2864
827.462	2967
827.601	2887
827.741	2906
827.88	2963
828.02	2864
828.159	2979
828.298	3020
828.437	3138
828.577	3024
828.716	3195
828.855	3100
828.994	2918
829.134	2887
829.273	2895
829.412	2883
829.551	2826
829.69	2895
829.829	2967
829.968	3150
830.107	3017
830.246	3032
830.385	2925
830.524	2868
830.663	2800
830.802	2708
830.941	2655
831.08	2655
831.219	2739
831.357	2697
831.496	2933
831.635	2708
831.774	2632
831.913	2636
832.051	2530
832.19	2564
832.329	2674
832.467	2526
832.606	2469
832.744	2541
832.883	2610
833.022	2579
833.16	2640
833.299	2648
833.437	2682
833.576	2724
833.714	2716
833.852	2678
833.991	2754
834.129	2838
834.267	2838
834.406	2811
834.544	2861
834.682	2887
834.821	2857
834.959	3020
835.097	2891
835.235	3039
835.373	2975
835.511	2994
835.65	2960
835.788	2982
835.926	2834
836.064	2807
836.202	2826
836.34	3100
836.478	3142
836.615	3032
836.753	3093
836.891	3176
837.029	3165
837.167	3116
837.305	3058
837.443	3020
837.58	2925
837.718	3138
837.856	3043
837.993	3036
838.131	3097
838.269	3074
838.406	3062
838.544	3089
838.681	2925
838.819	2918
838.956	2785
839.094	2815
839.231	2864
839.369	3017
839.506	3348
839.643	3233
839.781	2998
839.918	2933
840.055	3062
840.193	3032
840.33	3093
840.467	3100
840.604	3154
840.742	3367
840.879	3062
841.016	3047
841.153	3093
841.29	3298
841.427	3298
841.564	3272
841.701	3321
841.838	3249
841.975	3176
842.112	3195
842.249	3077
842.385	3020
842.522	3268
842.659	3062
842.796	3047
842.933	3112
843.069	3047
843.206	2998
843.343	3169
843.479	3100
843.616	3104
843.752	2872
843.889	2872
844.025	3070
844.162	2845
844.298	3093
844.435	2975
844.571	2910
844.708	3047
844.844	3195
844.98	3260
845.117	3176
845.253	3036
845.389	2998
845.525	3077
845.661	3085
845.798	3013
845.934	3112
846.07	3074
846.206	3218
846.342	3294
846.478	3211
846.614	3089
846.75	3036
846.886	3055
847.022	3233
847.158	3157
847.294	3184
847.429	3245
847.565	3188
847.701	3469
847.837	3024
847.972	2963
848.108	3161
848.244	3138
848.379	2960
848.515	2952
848.65	2948
848.786	2994
848.921	3024
849.057	3062
849.192	3131
849.328	3058
849.463	3116
849.598	3036
849.734	3013
849.869	2982
850.004	2887
850.14	2979
850.275	2895
850.41	2864
850.545	2910
850.68	2918
850.815	2948
850.95	2986
851.085	3173
851.22	3093
851.355	3036
851.49	2956
851.625	3032
851.76	2952
851.895	2956
852.03	2872
852.165	3051
852.299	3131
852.434	3207
852.569	3123
852.703	3157
852.838	3237
852.973	3332
853.107	3317
853.242	3119
853.376	3097
853.511	2960
853.645	3055
853.78	3241
853.914	3161
854.048	3070
854.183	3085
854.317	3112
854.451	3268
854.585	3146
854.72	3058
854.854	3184
854.988	3047
855.122	3081
855.256	2967
855.39	3119
855.524	3226
855.658	3188
855.792	3165
855.926	3165
856.06	3199
856.194	3298
856.327	3165
856.461	3089
856.595	3058
856.729	3058
856.862	3188
856.996	3138
857.13	3176
857.263	3180
857.397	3233
857.53	3097
857.664	3188
857.797	3199
857.931	3245
858.064	3161
858.197	3211
858.331	3085
858.464	3085
858.597	2971
858.731	3085
858.864	3108
858.997	3066
859.13	3135
859.263	3184
859.396	3188
859.529	3062
859.662	3062
859.795	3058
859.928	3173
860.061	3256
860.194	3287
860.327	3138
860.46	3112
860.592	3226
860.725	3203
860.858	3245
860.99	3093
861.123	3058
861.256	3047
861.388	3161
861.521	3701
861.653	3001
861.786	2971
861.918	3028
862.05	3051
862.183	3093
862.315	3154
862.447	3146
862.58	3089
862.712	2963
862.844	2838
862.976	2975
863.108	3017
863.24	3332
863.372	2849
863.504	2975
863.636	2937
863.768	3005
863.9	2998
864.032	2864
864.164	2918
864.296	3013
864.428	3058
864.559	3097
864.691	3051
864.823	3055
864.954	3043
865.086	3032
865.217	3017
865.349	2941
865.48	2979
865.612	2994
865.743	3131
865.875	2960
866.006	2922
866.137	2994
866.269	2967
866.4	2933
866.531	2918
866.662	2922
866.793	2895
866.924	2895
867.055	2941
867.186	2902
867.317	2861
867.448	2804
867.579	2834
867.71	2819
867.841	2823
867.972	2925
868.103	2910
868.233	2887
868.364	2861
868.495	2918
868.625	3066
868.756	3157
868.886	2941
869.017	3009
869.147	3169
869.278	3150
869.408	3047
869.539	3001
869.669	3089
869.799	3051
869.929	3123
870.06	3131
870.19	3313
870.32	3272
870.45	3310
870.58	3363
870.71	3481
870.84	3447
870.97	3279
871.1	3214
871.23	3466
871.36	3462
871.489	3374
871.619	3378
871.749	3424
871.879	3382
872.008	3466
872.138	3344
872.267	3294
872.397	3138
872.526	3161
872.656	3017
872.785	3074
872.915	3192
873.044	3336
873.173	3214
873.303	3260
873.432	3203
873.561	3214
873.69	3127
873.819	3150
873.948	3241
874.077	3116
874.206	3043
874.335	3043
874.464	3237
874.593	3329
874.722	3249
874.851	3370
874.979	3336
875.108	3306
875.237	3184
875.365	3173
875.494	3157
875.623	3211
875.751	3093
875.88	3112
876.008	3173
876.136	3203
876.265	3367
876.393	3488
876.521	3401
876.65	3397
876.778	3321
876.906	3287
877.034	3195
877.162	3222
877.29	3211
877.418	3230
877.546	3211
877.674	3230
877.802	3253
877.93	3241
878.058	3154
878.185	3093
878.313	3218
878.441	3207
878.568	3085
878.696	3165
878.824	3226
878.951	3317
879.079	3416
879.206	3644
879.333	3431
879.461	3321
879.588	3355
879.715	3481
879.842	3561
879.97	3374
880.097	3176
880.224	3123
880.351	3161
880.478	3192
880.605	3188
880.732	3188
880.859	3450
880.986	3279
881.112	3340
881.239	3203
881.366	3097
881.493	3047
881.619	3093
881.746	3055
881.872	3085
881.999	3089
882.125	3123
882.252	3260
882.378	3294
882.505	3412
882.631	3245
882.757	3127
882.883	3192
883.01	3195
883.136	3154
883.262	3104
883.388	3138
883.514	3317
883.64	3382
883.766	3302
883.892	3192
884.018	3222
884.143	3397
884.269	3492
884.395	3173
884.52	3157
884.646	3184
884.772	3142
884.897	3074
885.023	3203
885.148	3321
885.274	3420
885.399	3351
885.524	3287
885.65	3230
885.775	3321
885.9	3245
886.025	3367
886.15	3336
886.275	3298
886.4	3214
886.525	3275
886.65	3264
886.775	3260
886.9	3492
887.025	3603
887.149	3424
887.274	3272
887.399	3169
887.523	3230
887.648	3173
887.773	3157
887.897	3370
888.021	3428
888.146	3249
888.27	3412
888.395	3542
888.519	3405
888.643	3424
888.767	3473
888.891	3291
889.015	3253
889.139	3264
889.263	3230
889.387	3374
889.511	3477
889.635	3450
889.759	3294
889.883	3302
890.006	3374
890.13	3507
890.254	3245
890.377	3332
890.501	3199
890.624	3169
890.748	3268
890.871	3169
890.995	3123
891.118	3058
891.241	3222
891.364	3207
891.488	3317
891.611	3146
891.734	3249
891.857	3253
891.98	3245
892.103	3313
892.226	3237
892.349	3207
892.471	3097
892.594	3211
892.717	3268
892.839	3260
892.962	3253
893.085	3355
893.207	3275
893.33	3135
893.452	3192
893.575	3302
893.697	3260
893.819	3439
893.941	3492
894.064	3424
894.186	3249
894.308	3279
894.43	3447
894.552	3545
894.674	3481
894.796	3256
894.918	3313
895.04	3272
895.161	3374
895.283	3386
895.405	3313
895.526	3363
895.648	3393
895.769	3412
895.891	3447
896.012	3454
896.134	3435
896.255	3393
896.376	3389
896.498	3348
896.619	3405
896.74	3329
896.861	3370
896.982	3705
897.103	3819
897.224	3587
897.345	3507
897.466	3420
897.587	3477
897.708	3587
897.828	3519
897.949	3420
898.07	3325
898.19	3412
898.311	3587
898.431	3435
898.552	3530
898.672	3572
898.792	3606
898.913	3488
899.033	3412
899.153	3325
899.273	3180
899.393	3268
899.513	3306
899.633	3306
899.753	3325
899.873	3268
899.993	3386
900.113	3317
900.232	3344
900.352	3325
900.472	3287
900.591	3237
900.711	3294
900.83	3214
900.95	3416
901.069	3488
901.189	3355
901.308	3192
901.427	3154
901.546	3207
901.665	3279
901.784	3317
901.904	3214
902.023	3176
902.141	3009
902.26	2994
902.379	3150
902.498	3081
902.617	3074
902.735	3180
902.854	3237
902.973	3135
903.091	3028
903.21	3077
903.328	3100
903.446	3093
903.565	3116
903.683	3165
903.801	3123
903.919	3283
904.038	3214
904.156	3184
904.274	3291
904.392	3226
904.51	3264
904.627	3310
904.745	3405
904.863	3450
904.981	3260
905.098	3173
905.216	3233
905.334	3310
905.451	3272
905.569	3310
905.686	3435
905.803	3420
905.921	3283
906.038	3389
906.155	3336
906.272	3249
906.389	3351
906.506	3268
906.623	3272
906.74	3294
906.857	3195
906.974	3214
907.091	3492
907.208	3523
907.324	3469
907.441	3355
907.557	3237
907.674	3218
907.79	3176
907.907	3325
908.023	3363
908.139	3378
908.256	3287
908.372	3329
908.488	3332
908.604	3253
908.72	3230
908.836	3287
908.952	3256
909.068	3313
909.184	3500
909.3	3386
909.415	3473
909.531	3481
909.647	3279
909.762	3294
909.878	3222
909.993	3370
910.108	3325
910.224	3317
910.339	3416
910.454	3317
910.57	3310
910.685	3226
910.8	3584
910.915	3530
911.03	3439
911.145	3260
911.259	3287
911.374	3317
911.489	3253
911.604	3214
911.718	3150
911.833	3157
911.947	3017
912.062	2975
912.176	3119
912.291	3188
912.405	3165
912.519	3431
912.633	3477
912.748	3325
912.862	3279
912.976	3173
913.09	3051
913.204	3138
913.318	3184
913.431	3302
913.545	3359
913.659	3351
913.772	3325
913.886	3230
914	3211
914.113	3344
914.226	3397
914.34	3367
914.453	3222
914.566	3439
914.68	3313
914.793	3325
914.906	3150
915.019	3100
915.132	3097
915.245	3154
915.358	3165
915.47	3218
915.583	3256
915.696	3287
915.809	3420
915.921	3393
916.034	3230
916.146	3275
916.259	3233
916.371	3344
916.483	3378
916.595	3218
916.708	3351
916.82	3344
916.932	3344
917.044	3348
917.156	3336
917.268	3241
917.38	3256
917.491	3279
917.603	3389
917.715	3454
917.826	3481
917.938	3424
918.049	3294
918.161	3412
918.272	3599
918.384	3511
918.495	3488
918.606	3363
918.717	3287
918.828	3397
918.939	3420
919.05	3291
919.161	3367
919.272	3184
919.383	3264
919.494	3500
919.604	3660
919.715	3477
919.826	3416
919.936	3439
920.047	3587
920.157	3549
920.267	3770
920.378	3599
920.488	3538
920.598	3755
920.708	3911
920.818	3800
920.928	3835
921.038	4002
921.148	3956
921.258	3694
921.368	3625
921.477	3553
921.587	3485
921.697	3443
921.806	3629
921.916	3530
922.025	3344
922.134	3310
922.244	3264
922.353	3435
922.462	3253
922.571	3211
922.68	3093
922.789	3055
922.898	3119
923.007	3081
923.116	3211
923.224	3180
923.333	3230
923.442	3100
923.55	3104
923.659	3192
923.767	3214
923.876	3123
923.984	3233
924.092	3081
924.201	3199
924.309	3180
924.417	3230
924.525	3184
924.633	3222
924.741	3991
924.849	3028
924.956	3325
925.064	3074
925.172	3058
925.279	3108
925.387	3157
925.494	3211
925.602	3344
925.709	3313
925.816	3180
925.924	3287
926.031	3355
926.138	3321
926.245	3393
926.352	3214
926.459	3393
926.566	3469
926.673	3317
926.779	3245
926.886	3260
926.993	3146
927.099	3119
927.206	3104
927.312	3131
927.419	3199
927.525	3207
927.631	3268
927.737	3108
927.843	3135
927.95	3032
928.056	3112
928.162	3188
928.267	3233
928.373	3838
928.479	3294
928.585	3081
928.69	3226
928.796	3260
928.901	3165
929.007	3024
929.112	3218
929.218	3188
929.323	3097
929.428	3100
929.533	3275
929.638	3161
929.743	3173
929.848	3245
929.953	3199
930.058	3131
930.163	2979
930.267	3066
930.372	3195
930.477	3009
930.581	3313
930.685	3203
930.79	3009
930.894	3112
930.998	3097
931.103	3272
931.207	2952
931.311	2906
931.415	2937
931.519	2792
931.623	2811
