Data from test_V78500241_772.txt Node
Date: Fri Mar 25 16:20:33 CST 2022
User: usil
Spectrometer: V785-0024
Trigger mode: 0
Integration Time (sec): 4.000000E-1
Scans to average: 1
Nonlinearity correction enabled: false
Boxcar width: 0
Storing dark spectrum: false
XAxis mode: Wavelengths
Number of Pixels in Spectrum: 1024
>>>>>Begin Spectral Data<<<<<
801.071	2941
801.214	2971
801.356	2910
801.499	2937
801.641	2902
801.783	2963
801.926	3108
802.068	2982
802.211	3009
802.353	3051
802.496	2952
802.638	3032
802.78	3081
802.923	3074
803.065	3055
803.208	2933
803.35	2960
803.492	2929
803.635	2952
803.777	2777
803.919	2883
804.061	3203
804.204	2986
804.346	2937
804.488	2853
804.63	2979
804.773	2906
804.915	2956
805.057	3123
805.199	2952
805.341	3020
805.483	3047
805.626	2994
805.768	2967
805.91	3119
806.052	3150
806.194	3074
806.336	3253
806.478	3039
806.62	3009
806.762	2967
806.904	3051
807.046	3184
807.188	2998
807.33	2929
807.472	3009
807.614	2918
807.756	3036
807.898	2944
808.04	2876
808.182	2982
808.324	3009
808.465	2944
808.607	2864
808.749	2864
808.891	2872
809.033	3005
809.174	2963
809.316	2922
809.458	2910
809.6	2807
809.741	2762
809.883	2838
810.025	2845
810.166	2876
810.308	2880
810.45	2853
810.591	2777
810.733	2804
810.875	2872
811.016	2773
811.158	2792
811.299	2861
811.441	2937
811.582	2929
811.724	2853
811.865	2868
812.007	2922
812.148	2872
812.29	2902
812.431	2872
812.573	2941
812.714	2971
812.855	3070
812.997	3089
813.138	3112
813.279	3036
813.421	2975
813.562	2963
813.703	2914
813.845	2925
813.986	2796
814.127	2773
814.268	2834
814.41	2842
814.551	2800
814.692	2880
814.833	2845
814.974	2937
815.115	2982
815.256	2845
815.397	2838
815.539	2891
815.68	2796
815.821	2823
815.962	2990
816.103	2941
816.244	2906
816.385	2906
816.526	2948
816.666	2963
816.807	2739
816.948	2925
817.089	2895
817.23	2887
817.371	2785
817.512	2819
817.653	2830
817.793	2845
817.934	2937
818.075	2994
818.216	3009
818.356	3024
818.497	2883
818.638	2823
818.778	2834
818.919	2823
819.06	2781
819.2	2929
819.341	2834
819.481	2796
819.622	2971
819.762	3119
819.903	3081
820.043	2937
820.184	2906
820.324	2895
820.465	3051
820.605	3028
820.746	3032
820.886	2933
821.026	3119
821.167	3207
821.307	3256
821.447	3332
821.588	3260
821.728	3241
821.868	3214
822.008	3104
822.149	3184
822.289	3222
822.429	3116
822.569	3116
822.709	3195
822.849	3097
822.99	3089
823.13	3207
823.27	3184
823.41	3131
823.55	3142
823.69	3150
823.83	3226
823.97	3077
824.11	3039
824.25	3009
824.389	3077
824.529	3119
824.669	3066
824.809	3222
824.949	3275
825.089	3230
825.228	3211
825.368	3020
825.508	2979
825.648	2990
825.787	3051
825.927	3028
826.067	3017
826.206	2963
826.346	3036
826.485	3104
826.625	3161
826.765	3260
826.904	3241
827.044	2994
827.183	2963
827.323	2895
827.462	3009
827.601	2906
827.741	2952
827.88	2998
828.02	2849
828.159	2990
828.298	3062
828.437	3119
828.577	3112
828.716	3260
828.855	3116
828.994	2933
829.134	2902
829.273	2944
829.412	2868
829.551	2876
829.69	2918
829.829	2975
829.968	3104
830.107	2994
830.246	3051
830.385	2933
830.524	2902
830.663	2826
830.802	2712
830.941	2678
831.08	2682
831.219	2823
831.357	2777
831.496	2979
831.635	2739
831.774	2621
831.913	2697
832.051	2560
832.19	2594
832.329	2712
832.467	2556
832.606	2492
832.744	2621
832.883	2613
833.022	2621
833.16	2674
833.299	2663
833.437	2724
833.576	2724
833.714	2731
833.852	2746
833.991	2792
834.129	2819
834.267	2807
834.406	2800
834.544	2899
834.682	2883
834.821	2857
834.959	3051
835.097	2906
835.235	3066
835.373	3005
835.511	3024
835.65	2948
835.788	2971
835.926	2842
836.064	2815
836.202	2853
836.34	3119
836.478	3165
836.615	3070
836.753	3169
836.891	3199
837.029	3104
837.167	3108
837.305	3070
837.443	3039
837.58	2998
837.718	3127
837.856	3085
837.993	3001
838.131	3135
838.269	3131
838.406	3108
838.544	3093
838.681	2910
838.819	2922
838.956	2826
839.094	2857
839.231	2929
839.369	3024
839.506	3393
839.643	3195
839.781	3036
839.918	3001
840.055	3055
840.193	3093
840.33	3081
840.467	3100
840.604	3154
840.742	3416
840.879	3062
841.016	3062
841.153	3154
841.29	3374
841.427	3321
841.564	3298
841.701	3302
841.838	3211
841.975	3233
842.112	3184
842.249	3077
842.385	3081
842.522	3279
842.659	3119
842.796	3055
842.933	3123
843.069	3066
843.206	3020
843.343	3199
843.479	3131
843.616	3146
843.752	2902
843.889	2895
844.025	3074
844.162	2891
844.298	3093
844.435	2956
844.571	2922
844.708	3055
844.844	3173
844.98	3249
845.117	3211
845.253	3062
845.389	3032
845.525	3100
845.661	3131
845.798	3032
845.934	3142
846.07	3089
846.206	3218
846.342	3317
846.478	3268
846.614	3074
846.75	3074
846.886	3047
847.022	3256
847.158	3127
847.294	3207
847.429	3249
847.565	3184
847.701	3534
847.837	3070
847.972	2982
848.108	3165
848.244	3131
848.379	3005
848.515	2956
848.65	2944
848.786	2979
848.921	3032
849.057	3142
849.192	3180
849.328	3077
849.463	3104
849.598	3074
849.734	3051
849.869	2956
850.004	2914
850.14	3009
850.275	2937
850.41	2849
850.545	2906
850.68	2933
850.815	2944
850.95	2982
851.085	3211
851.22	3104
851.355	3005
851.49	2979
851.625	3017
851.76	3020
851.895	2971
852.03	2918
852.165	3055
852.299	3127
852.434	3180
852.569	3146
852.703	3165
852.838	3268
852.973	3321
853.107	3344
853.242	3135
853.376	3066
853.511	2971
853.645	3055
853.78	3260
853.914	3123
854.048	3116
854.183	3081
854.317	3184
854.451	3313
854.585	3119
854.72	3074
854.854	3195
854.988	3081
855.122	3100
855.256	2967
855.39	3116
855.524	3230
855.658	3184
855.792	3207
855.926	3154
856.06	3199
856.194	3260
856.327	3142
856.461	3055
856.595	3119
856.729	3123
856.862	3192
856.996	3123
857.13	3169
857.263	3241
857.397	3226
857.53	3112
857.664	3211
857.797	3241
857.931	3260
858.064	3192
858.197	3237
858.331	3116
858.464	3100
858.597	3009
858.731	3142
858.864	3150
858.997	3081
859.13	3154
859.263	3135
859.396	3230
859.529	3070
859.662	3062
859.795	3028
859.928	3108
860.061	3272
860.194	3291
860.327	3184
860.46	3100
860.592	3260
860.725	3233
860.858	3272
860.99	3085
861.123	3051
861.256	3070
861.388	3165
861.521	3888
861.653	3020
861.786	2998
861.918	2990
862.05	3047
862.183	3070
862.315	3161
862.447	3195
862.58	3131
862.712	2956
862.844	2857
862.976	3032
863.108	3039
863.24	3409
863.372	2864
863.504	2986
863.636	2948
863.768	3055
863.9	3013
864.032	2929
864.164	2967
864.296	3013
864.428	3093
864.559	3116
864.691	3074
864.823	3051
864.954	3032
865.086	3066
865.217	2975
865.349	2979
865.48	2994
865.612	2971
865.743	3131
865.875	2967
866.006	2952
866.137	3001
866.269	2941
866.4	2918
866.531	2922
866.662	2872
866.793	2918
866.924	2864
867.055	2982
867.186	2910
867.317	2895
867.448	2902
867.579	2830
867.71	2857
867.841	2826
867.972	2887
868.103	2929
868.233	2899
868.364	2895
868.495	2910
868.625	3062
868.756	3203
868.886	2918
869.017	3005
869.147	3203
869.278	3169
869.408	3066
869.539	3032
869.669	3081
869.799	3051
869.929	3131
870.06	3146
870.19	3294
870.32	3287
870.45	3340
870.58	3401
870.71	3466
870.84	3458
870.97	3283
871.1	3253
871.23	3447
871.36	3454
871.489	3367
871.619	3374
871.749	3378
871.879	3447
872.008	3443
872.138	3344
872.267	3275
872.397	3150
872.526	3104
872.656	3013
872.785	3097
872.915	3241
873.044	3291
873.173	3253
873.303	3230
873.432	3230
873.561	3279
873.69	3112
873.819	3150
873.948	3169
874.077	3116
874.206	3074
874.335	3104
874.464	3233
874.593	3340
874.722	3279
874.851	3401
874.979	3340
875.108	3359
875.237	3233
875.365	3199
875.494	3176
875.623	3230
875.751	3081
875.88	3138
876.008	3207
876.136	3214
876.265	3393
876.393	3542
876.521	3389
876.65	3393
876.778	3329
876.906	3256
877.034	3222
877.162	3226
877.29	3199
877.418	3253
877.546	3260
877.674	3218
877.802	3233
877.93	3253
878.058	3157
878.185	3142
878.313	3203
878.441	3214
878.568	3081
878.696	3157
878.824	3256
878.951	3272
879.079	3458
879.206	3614
879.333	3431
879.461	3344
879.588	3344
879.715	3477
879.842	3572
879.97	3386
880.097	3192
880.224	3123
880.351	3195
880.478	3222
880.605	3165
880.732	3199
880.859	3488
880.986	3306
881.112	3317
881.239	3218
881.366	3051
881.493	3043
881.619	3017
881.746	3070
881.872	3077
881.999	3089
882.125	3169
882.252	3241
882.378	3253
882.505	3447
882.631	3275
882.757	3180
882.883	3218
883.01	3226
883.136	3165
883.262	3047
883.388	3138
883.514	3313
883.64	3435
883.766	3325
883.892	3154
884.018	3264
884.143	3466
884.269	3530
884.395	3184
884.52	3176
884.646	3173
884.772	3093
884.897	3108
885.023	3237
885.148	3340
885.274	3397
885.399	3367
885.524	3310
885.65	3237
885.775	3306
885.9	3275
886.025	3424
886.15	3351
886.275	3256
886.4	3226
886.525	3302
886.65	3287
886.775	3264
886.9	3507
887.025	3629
887.149	3416
887.274	3253
887.399	3176
887.523	3207
887.648	3211
887.773	3203
887.897	3370
888.021	3405
888.146	3317
888.27	3386
888.395	3523
888.519	3420
888.643	3420
888.767	3469
888.891	3359
889.015	3260
889.139	3313
889.263	3241
889.387	3397
889.511	3500
889.635	3454
889.759	3291
889.883	3302
890.006	3359
890.13	3481
890.254	3310
890.377	3329
890.501	3237
890.624	3180
890.748	3283
890.871	3154
890.995	3093
891.118	3089
891.241	3211
891.364	3199
891.488	3313
891.611	3161
891.734	3222
891.857	3283
891.98	3245
892.103	3253
892.226	3279
892.349	3199
892.471	3150
892.594	3211
892.717	3256
892.839	3245
892.962	3298
893.085	3348
893.207	3272
893.33	3135
893.452	3195
893.575	3291
893.697	3268
893.819	3462
893.941	3519
894.064	3428
894.186	3245
894.308	3291
894.43	3416
894.552	3526
894.674	3507
894.796	3264
894.918	3279
895.04	3283
895.161	3420
895.283	3397
895.405	3302
895.526	3374
895.648	3443
895.769	3412
895.891	3454
896.012	3469
896.134	3488
896.255	3382
896.376	3389
896.498	3351
896.619	3439
896.74	3397
896.861	3409
896.982	3633
897.103	3831
897.224	3618
897.345	3523
897.466	3431
897.587	3481
897.708	3633
897.828	3591
897.949	3420
898.07	3336
898.19	3412
898.311	3591
898.431	3431
898.552	3469
898.672	3591
898.792	3591
898.913	3515
899.033	3389
899.153	3260
899.273	3176
899.393	3291
899.513	3294
899.633	3302
899.753	3302
899.873	3325
899.993	3382
900.113	3348
900.232	3367
900.352	3313
900.472	3245
900.591	3176
900.711	3264
900.83	3226
900.95	3412
901.069	3443
901.189	3367
901.308	3192
901.427	3146
901.546	3214
901.665	3272
901.784	3325
901.904	3226
902.023	3184
902.141	3047
902.26	3028
902.379	3100
902.498	3100
902.617	3077
902.735	3226
902.854	3230
902.973	3207
903.091	3043
903.21	3047
903.328	3116
903.446	3127
903.565	3116
903.683	3203
903.801	3180
903.919	3245
904.038	3298
904.156	3161
904.274	3253
904.392	3268
904.51	3317
904.627	3355
904.745	3401
904.863	3466
904.981	3226
905.098	3131
905.216	3218
905.334	3268
905.451	3294
905.569	3310
905.686	3412
905.803	3443
905.921	3272
906.038	3424
906.155	3310
906.272	3283
906.389	3317
906.506	3218
906.623	3268
906.74	3264
906.857	3195
906.974	3260
907.091	3462
907.208	3549
907.324	3450
907.441	3386
907.557	3207
907.674	3241
907.79	3157
907.907	3279
908.023	3374
908.139	3401
908.256	3336
908.372	3355
908.488	3363
908.604	3222
908.72	3237
908.836	3283
908.952	3249
909.068	3329
909.184	3447
909.3	3374
909.415	3466
909.531	3466
909.647	3283
909.762	3272
909.878	3279
909.993	3355
910.108	3317
910.224	3363
910.339	3412
910.454	3306
910.57	3237
910.685	3260
910.8	3603
910.915	3511
911.03	3428
911.145	3256
911.259	3275
911.374	3302
911.489	3211
911.604	3249
911.718	3135
911.833	3165
911.947	3005
912.062	2986
912.176	3161
912.291	3207
912.405	3180
912.519	3420
912.633	3466
912.748	3313
912.862	3275
912.976	3176
913.09	3058
913.204	3150
913.318	3192
913.431	3348
913.545	3332
913.659	3462
913.772	3340
913.886	3268
914	3214
914.113	3359
914.226	3416
914.34	3367
914.453	3188
914.566	3409
914.68	3268
914.793	3325
914.906	3142
915.019	3131
915.132	3089
915.245	3199
915.358	3195
915.47	3230
915.583	3245
915.696	3298
915.809	3435
915.921	3374
916.034	3268
916.146	3241
916.259	3203
916.371	3389
916.483	3351
916.595	3249
916.708	3344
916.82	3317
916.932	3344
917.044	3348
917.156	3363
917.268	3256
917.38	3306
917.491	3298
917.603	3401
917.715	3454
917.826	3466
917.938	3382
918.049	3279
918.161	3420
918.272	3580
918.384	3584
918.495	3488
918.606	3306
918.717	3249
918.828	3367
918.939	3412
919.05	3306
919.161	3332
919.272	3173
919.383	3294
919.494	3488
919.604	3682
919.715	3526
919.826	3420
919.936	3443
920.047	3561
920.157	3576
920.267	3732
920.378	3580
920.488	3511
920.598	3743
920.708	3945
920.818	3812
920.928	3838
921.038	4029
921.148	4006
921.258	3713
921.368	3644
921.477	3580
921.587	3553
921.697	3450
921.806	3610
921.916	3492
922.025	3370
922.134	3336
922.244	3306
922.353	3416
922.462	3253
922.571	3230
922.68	3104
922.789	3081
922.898	3161
923.007	3077
923.116	3237
923.224	3157
923.333	3184
923.442	3081
923.55	3089
923.659	3127
923.767	3214
923.876	3089
923.984	3192
924.092	3089
924.201	3173
924.309	3199
924.417	3230
924.525	3203
924.633	3214
924.741	4215
924.849	3024
924.956	3256
925.064	3058
925.172	3017
925.279	3085
925.387	3199
925.494	3154
925.602	3363
925.709	3317
925.816	3192
925.924	3264
926.031	3393
926.138	3306
926.245	3374
926.352	3222
926.459	3378
926.566	3488
926.673	3298
926.779	3226
926.886	3241
926.993	3112
927.099	3138
927.206	3081
927.312	3100
927.419	3222
927.525	3184
927.631	3245
927.737	3142
927.843	3089
927.95	3055
928.056	3142
928.162	3173
928.267	3230
928.373	3755
928.479	3245
928.585	3058
928.69	3188
928.796	3272
928.901	3131
929.007	3036
929.112	3230
929.218	3112
929.323	3169
929.428	3119
929.533	3291
929.638	3100
929.743	3150
929.848	3226
929.953	3176
930.058	3138
930.163	2998
930.267	3047
930.372	3211
930.477	3028
930.581	3321
930.685	3157
930.79	3058
930.894	3089
930.998	3074
931.103	3260
931.207	2960
931.311	2952
931.415	2899
931.519	2758
931.623	2792
