Data from test_V78500241_1447.txt Node
Date: Fri Mar 25 16:25:13 CST 2022
User: usil
Spectrometer: V785-0024
Trigger mode: 0
Integration Time (sec): 4.000000E-1
Scans to average: 1
Nonlinearity correction enabled: false
Boxcar width: 0
Storing dark spectrum: false
XAxis mode: Wavelengths
Number of Pixels in Spectrum: 1024
>>>>>Begin Spectral Data<<<<<
801.071	2922
801.214	2929
801.356	2899
801.499	2880
801.641	2861
801.783	2914
801.926	3017
802.068	2948
802.211	2986
802.353	3020
802.496	2971
802.638	2979
802.78	3047
802.923	3066
803.065	2990
803.208	2861
803.35	2910
803.492	2948
803.635	2925
803.777	2773
803.919	2815
804.061	3180
804.204	2914
804.346	2857
804.488	2857
804.63	2948
804.773	2845
804.915	2887
805.057	3039
805.199	2941
805.341	2956
805.483	3039
805.626	2975
805.768	2971
805.91	3036
806.052	3077
806.194	3032
806.336	3176
806.478	3013
806.62	2952
806.762	2982
806.904	3051
807.046	3154
807.188	2979
807.33	2883
807.472	2956
807.614	2887
807.756	2960
807.898	2918
808.04	2895
808.182	2929
808.324	2941
808.465	2887
808.607	2895
808.749	2762
808.891	2853
809.033	2956
809.174	2944
809.316	2868
809.458	2883
809.6	2720
809.741	2762
809.883	2750
810.025	2800
810.166	2891
810.308	2842
810.45	2868
810.591	2773
810.733	2785
810.875	2845
811.016	2746
811.158	2769
811.299	2804
811.441	2899
811.582	2906
811.724	2826
811.865	2785
812.007	2887
812.148	2864
812.29	2811
812.431	2872
812.573	2918
812.714	2929
812.855	3051
812.997	3017
813.138	3100
813.279	2982
813.421	2933
813.562	2956
813.703	2864
813.845	2883
813.986	2781
814.127	2701
814.268	2823
814.41	2834
814.551	2804
814.692	2861
814.833	2815
814.974	2880
815.115	2960
815.256	2796
815.397	2792
815.539	2864
815.68	2781
815.821	2792
815.962	2948
816.103	2956
816.244	2857
816.385	2887
816.526	2998
816.666	2895
816.807	2708
816.948	2880
817.089	2925
817.23	2849
817.371	2781
817.512	2785
817.653	2796
817.793	2826
817.934	2887
818.075	2952
818.216	2998
818.356	2971
818.497	2891
818.638	2792
818.778	2796
818.919	2773
819.06	2754
819.2	2845
819.341	2830
819.481	2788
819.622	2933
819.762	3043
819.903	3055
820.043	2902
820.184	2929
820.324	2872
820.465	2990
820.605	3009
820.746	2990
820.886	2899
821.026	3077
821.167	3097
821.307	3226
821.447	3253
821.588	3207
821.728	3142
821.868	3195
822.008	3070
822.149	3176
822.289	3222
822.429	3043
822.569	3047
822.709	3173
822.849	3036
822.99	3066
823.13	3116
823.27	3173
823.41	3108
823.55	3138
823.69	3123
823.83	3192
823.97	3081
824.11	2979
824.25	2990
824.389	3009
824.529	3097
824.669	3047
824.809	3207
824.949	3230
825.089	3188
825.228	3100
825.368	2929
825.508	2922
825.648	2960
825.787	2979
825.927	2986
826.067	2902
826.206	2933
826.346	3028
826.485	3062
826.625	3119
826.765	3260
826.904	3203
827.044	2998
827.183	2902
827.323	2842
827.462	2960
827.601	2887
827.741	2914
827.88	2937
828.02	2868
828.159	2971
828.298	3028
828.437	3085
828.577	3032
828.716	3256
828.855	3047
828.994	2918
829.134	2902
829.273	2899
829.412	2872
829.551	2872
829.69	2914
829.829	3013
829.968	3123
830.107	3051
830.246	3058
830.385	2967
830.524	2891
830.663	2838
830.802	2762
830.941	2686
831.08	2693
831.219	2750
831.357	2807
831.496	2960
831.635	2762
831.774	2678
831.913	2651
832.051	2571
832.19	2625
832.329	2724
832.467	2560
832.606	2495
832.744	2617
832.883	2629
833.022	2610
833.16	2716
833.299	2724
833.437	2731
833.576	2724
833.714	2758
833.852	2750
833.991	2823
834.129	2864
834.267	2842
834.406	2842
834.544	2941
834.682	2868
834.821	2899
834.959	3108
835.097	2944
835.235	3097
835.373	3055
835.511	3043
835.65	2967
835.788	3005
835.926	2872
836.064	2845
836.202	2887
836.34	3127
836.478	3176
836.615	3070
836.753	3176
836.891	3230
837.029	3195
837.167	3154
837.305	3116
837.443	3066
837.58	3017
837.718	3161
837.856	3127
837.993	3100
838.131	3184
838.269	3146
838.406	3127
838.544	3112
838.681	2967
838.819	2952
838.956	2838
839.094	2918
839.231	2979
839.369	3058
839.506	3359
839.643	3241
839.781	3066
839.918	2982
840.055	3070
840.193	3066
840.33	3081
840.467	3112
840.604	3203
840.742	3412
840.879	3093
841.016	3070
841.153	3116
841.29	3367
841.427	3294
841.564	3298
841.701	3321
841.838	3272
841.975	3195
842.112	3298
842.249	3142
842.385	3039
842.522	3310
842.659	3135
842.796	3066
842.933	3150
843.069	3077
843.206	3097
843.343	3218
843.479	3157
843.616	3157
843.752	2952
843.889	2910
844.025	3074
844.162	2941
844.298	3112
844.435	2975
844.571	2918
844.708	3104
844.844	3237
844.98	3287
845.117	3222
845.253	3081
845.389	3039
845.525	3146
845.661	3131
845.798	3074
845.934	3165
846.07	3093
846.206	3241
846.342	3329
846.478	3260
846.614	3127
846.75	3093
846.886	3043
847.022	3302
847.158	3192
847.294	3241
847.429	3245
847.565	3199
847.701	3530
847.837	3066
847.972	2994
848.108	3199
848.244	3165
848.379	3051
848.515	2967
848.65	2963
848.786	2979
848.921	3051
849.057	3154
849.192	3199
849.328	3112
849.463	3116
849.598	3085
849.734	3043
849.869	3005
850.004	2933
850.14	2994
850.275	2952
850.41	2899
850.545	2887
850.68	2944
850.815	2982
850.95	3013
851.085	3226
851.22	3127
851.355	3032
851.49	3009
851.625	3013
851.76	3062
851.895	2994
852.03	2944
852.165	3108
852.299	3131
852.434	3207
852.569	3203
852.703	3203
852.838	3249
852.973	3336
853.107	3313
853.242	3192
853.376	3138
853.511	3013
853.645	3062
853.78	3253
853.914	3127
854.048	3142
854.183	3100
854.317	3161
854.451	3283
854.585	3169
854.72	3127
854.854	3230
854.988	3104
855.122	3074
855.256	3051
855.39	3123
855.524	3226
855.658	3211
855.792	3211
855.926	3256
856.06	3237
856.194	3298
856.327	3173
856.461	3119
856.595	3142
856.729	3119
856.862	3207
856.996	3195
857.13	3249
857.263	3253
857.397	3291
857.53	3150
857.664	3207
857.797	3264
857.931	3245
858.064	3195
858.197	3253
858.331	3165
858.464	3135
858.597	3055
858.731	3116
858.864	3173
858.997	3127
859.13	3195
859.263	3203
859.396	3199
859.529	3119
859.662	3138
859.795	3089
859.928	3173
860.061	3249
860.194	3298
860.327	3173
860.46	3119
860.592	3279
860.725	3268
860.858	3287
860.99	3104
861.123	3108
861.256	3062
861.388	3157
861.521	3857
861.653	3055
861.786	3013
861.918	3036
862.05	3032
862.183	3097
862.315	3169
862.447	3195
862.58	3131
862.712	2990
862.844	2876
862.976	3024
863.108	3055
863.24	3340
863.372	2910
863.504	3005
863.636	2971
863.768	3043
863.9	3013
864.032	2902
864.164	2971
864.296	3051
864.428	3100
864.559	3104
864.691	3116
864.823	3100
864.954	3024
865.086	3055
865.217	3017
865.349	3017
865.48	2994
865.612	3017
865.743	3150
865.875	3020
866.006	2994
866.137	2975
866.269	2960
866.4	2914
866.531	2944
866.662	2872
866.793	2887
866.924	2899
867.055	2994
867.186	2933
867.317	2914
867.448	2876
867.579	2906
867.71	2853
867.841	2849
867.972	2925
868.103	2910
868.233	2902
868.364	2929
868.495	2929
868.625	3047
868.756	3226
868.886	3001
869.017	3009
869.147	3192
869.278	3180
869.408	3081
869.539	3051
869.669	3116
869.799	3093
869.929	3142
870.06	3119
870.19	3310
870.32	3332
870.45	3317
870.58	3374
870.71	3519
870.84	3454
870.97	3313
871.1	3230
871.23	3492
871.36	3454
871.489	3351
871.619	3431
871.749	3454
871.879	3473
872.008	3519
872.138	3393
872.267	3306
872.397	3176
872.526	3112
872.656	3020
872.785	3112
872.915	3260
873.044	3378
873.173	3222
873.303	3245
873.432	3275
873.561	3253
873.69	3154
873.819	3161
873.948	3245
874.077	3108
874.206	3062
874.335	3070
874.464	3241
874.593	3363
874.722	3260
874.851	3424
874.979	3367
875.108	3325
875.237	3211
875.365	3218
875.494	3165
875.623	3268
875.751	3104
875.88	3169
876.008	3203
876.136	3237
876.265	3401
876.393	3504
876.521	3447
876.65	3393
876.778	3351
876.906	3272
877.034	3207
877.162	3253
877.29	3176
877.418	3249
877.546	3260
877.674	3253
877.802	3180
877.93	3237
878.058	3180
878.185	3135
878.313	3211
878.441	3245
878.568	3074
878.696	3169
878.824	3291
878.951	3306
879.079	3462
879.206	3633
879.333	3439
879.461	3325
879.588	3405
879.715	3530
879.842	3641
879.97	3412
880.097	3161
880.224	3154
880.351	3218
880.478	3249
880.605	3245
880.732	3222
880.859	3477
880.986	3344
881.112	3367
881.239	3226
881.366	3116
881.493	3024
881.619	3024
881.746	3100
881.872	3089
881.999	3097
882.125	3146
882.252	3256
882.378	3283
882.505	3424
882.631	3325
882.757	3161
882.883	3237
883.01	3279
883.136	3176
883.262	3112
883.388	3157
883.514	3344
883.64	3374
883.766	3378
883.892	3199
884.018	3279
884.143	3439
884.269	3538
884.395	3211
884.52	3218
884.646	3195
884.772	3123
884.897	3138
885.023	3241
885.148	3359
885.274	3409
885.399	3420
885.524	3260
885.65	3283
885.775	3355
885.9	3275
886.025	3458
886.15	3382
886.275	3367
886.4	3241
886.525	3317
886.65	3310
886.775	3287
886.9	3504
887.025	3641
887.149	3386
887.274	3260
887.399	3195
887.523	3188
887.648	3199
887.773	3233
887.897	3367
888.021	3420
888.146	3340
888.27	3443
888.395	3534
888.519	3424
888.643	3447
888.767	3397
888.891	3359
889.015	3298
889.139	3317
889.263	3233
889.387	3405
889.511	3553
889.635	3447
889.759	3302
889.883	3302
890.006	3409
890.13	3496
890.254	3283
890.377	3374
890.501	3230
890.624	3214
890.748	3313
890.871	3218
890.995	3089
891.118	3104
891.241	3222
891.364	3230
891.488	3325
891.611	3230
891.734	3214
891.857	3306
891.98	3260
892.103	3382
892.226	3310
892.349	3260
892.471	3089
892.594	3264
892.717	3275
892.839	3298
892.962	3283
893.085	3363
893.207	3313
893.33	3146
893.452	3230
893.575	3355
893.697	3264
893.819	3458
893.941	3488
894.064	3443
894.186	3268
894.308	3302
894.43	3420
894.552	3542
894.674	3443
894.796	3310
894.918	3367
895.04	3298
895.161	3428
895.283	3420
895.405	3291
895.526	3351
895.648	3439
895.769	3439
895.891	3431
896.012	3473
896.134	3450
896.255	3428
896.376	3416
896.498	3344
896.619	3416
896.74	3355
896.861	3431
896.982	3671
897.103	3865
897.224	3606
897.345	3454
897.466	3447
897.587	3481
897.708	3625
897.828	3534
897.949	3466
898.07	3363
898.19	3401
898.311	3629
898.431	3443
898.552	3580
898.672	3564
898.792	3595
898.913	3519
899.033	3367
899.153	3294
899.273	3207
899.393	3279
899.513	3340
899.633	3306
899.753	3321
899.873	3355
899.993	3401
900.113	3329
900.232	3431
900.352	3370
900.472	3291
900.591	3203
900.711	3302
900.83	3253
900.95	3405
901.069	3519
901.189	3340
901.308	3226
901.427	3138
901.546	3199
901.665	3283
901.784	3367
901.904	3199
902.023	3123
902.141	3009
902.26	2982
902.379	3184
902.498	3070
902.617	3024
902.735	3211
902.854	3260
902.973	3245
903.091	3077
903.21	3089
903.328	3138
903.446	3081
903.565	3116
903.683	3253
903.801	3135
903.919	3260
904.038	3283
904.156	3180
904.274	3275
904.392	3294
904.51	3298
904.627	3329
904.745	3462
904.863	3496
904.981	3268
905.098	3169
905.216	3245
905.334	3268
905.451	3340
905.569	3325
905.686	3412
905.803	3481
905.921	3313
906.038	3450
906.155	3367
906.272	3253
906.389	3332
906.506	3230
906.623	3264
906.74	3287
906.857	3180
906.974	3283
907.091	3443
907.208	3553
907.324	3496
907.441	3344
907.557	3226
907.674	3260
907.79	3230
907.907	3317
908.023	3412
908.139	3374
908.256	3351
908.372	3344
908.488	3329
908.604	3279
908.72	3226
908.836	3279
908.952	3268
909.068	3348
909.184	3507
909.3	3370
909.415	3477
909.531	3477
909.647	3268
909.762	3283
909.878	3249
909.993	3321
910.108	3321
910.224	3329
910.339	3454
910.454	3351
910.57	3313
910.685	3218
910.8	3591
910.915	3481
911.03	3428
911.145	3298
911.259	3279
911.374	3329
911.489	3230
911.604	3249
911.718	3131
911.833	3161
911.947	3039
912.062	3001
912.176	3165
912.291	3188
912.405	3203
912.519	3428
912.633	3447
912.748	3336
912.862	3298
912.976	3161
913.09	3081
913.204	3138
913.318	3211
913.431	3367
913.545	3336
913.659	3420
913.772	3351
913.886	3230
914	3192
914.113	3355
914.226	3409
914.34	3393
914.453	3176
914.566	3374
914.68	3332
914.793	3325
914.906	3146
915.019	3104
915.132	3058
915.245	3195
915.358	3211
915.47	3245
915.583	3279
915.696	3298
915.809	3428
915.921	3447
916.034	3233
916.146	3294
916.259	3226
916.371	3386
916.483	3386
916.595	3291
916.708	3348
916.82	3306
916.932	3344
917.044	3355
917.156	3344
917.268	3222
917.38	3329
917.491	3310
917.603	3416
917.715	3458
917.826	3420
917.938	3355
918.049	3256
918.161	3409
918.272	3584
918.384	3561
918.495	3488
918.606	3340
918.717	3302
918.828	3389
918.939	3389
919.05	3249
919.161	3321
919.272	3180
919.383	3275
919.494	3504
919.604	3660
919.715	3462
919.826	3435
919.936	3447
920.047	3557
920.157	3523
920.267	3774
920.378	3622
920.488	3561
920.598	3778
920.708	3994
920.818	3797
920.928	3838
921.038	4036
921.148	4010
921.258	3709
921.368	3610
921.477	3614
921.587	3545
921.697	3443
921.806	3622
921.916	3523
922.025	3340
922.134	3332
922.244	3336
922.353	3447
922.462	3260
922.571	3222
922.68	3089
922.789	3074
922.898	3146
923.007	3108
923.116	3195
923.224	3203
923.333	3184
923.442	3112
923.55	3108
923.659	3135
923.767	3211
923.876	3116
923.984	3275
924.092	3127
924.201	3226
924.309	3241
924.417	3233
924.525	3218
924.633	3245
924.741	4154
924.849	3036
924.956	3268
925.064	3085
925.172	3047
925.279	3089
925.387	3173
925.494	3211
925.602	3344
925.709	3351
925.816	3180
925.924	3245
926.031	3386
926.138	3340
926.245	3363
926.352	3264
926.459	3397
926.566	3424
926.673	3317
926.779	3253
926.886	3275
926.993	3142
927.099	3093
927.206	3116
927.312	3112
927.419	3218
927.525	3173
927.631	3294
927.737	3138
927.843	3154
927.95	3028
928.056	3138
928.162	3180
928.267	3237
928.373	3842
928.479	3313
928.585	3074
928.69	3157
928.796	3245
928.901	3150
929.007	3028
929.112	3226
929.218	3154
929.323	3135
929.428	3127
929.533	3298
929.638	3108
929.743	3188
929.848	3249
929.953	3192
930.058	3138
930.163	2998
930.267	3043
930.372	3188
930.477	3089
930.581	3348
930.685	3211
930.79	3043
930.894	3112
930.998	3104
931.103	3313
931.207	2922
931.311	2944
931.415	2925
931.519	2792
931.623	2823
