Data from test_V78500241_1621.txt Node
Date: Fri Mar 25 16:26:25 CST 2022
User: usil
Spectrometer: V785-0024
Trigger mode: 0
Integration Time (sec): 4.000000E-1
Scans to average: 1
Nonlinearity correction enabled: false
Boxcar width: 0
Storing dark spectrum: false
XAxis mode: Wavelengths
Number of Pixels in Spectrum: 1024
>>>>>Begin Spectral Data<<<<<
801.071	2902
801.214	2982
801.356	2876
801.499	2902
801.641	2876
801.783	2925
801.926	3043
802.068	2963
802.211	2982
802.353	3039
802.496	2975
802.638	3009
802.78	3024
802.923	3108
803.065	3036
803.208	2925
803.35	2902
803.492	2929
803.635	2963
803.777	2777
803.919	2883
804.061	3230
804.204	2948
804.346	2902
804.488	2834
804.63	2979
804.773	2887
804.915	2937
805.057	3077
805.199	2975
805.341	2956
805.483	3055
805.626	3047
805.768	2982
805.91	3112
806.052	3142
806.194	3062
806.336	3241
806.478	3039
806.62	2986
806.762	2979
806.904	3066
807.046	3165
807.188	3013
807.33	2933
807.472	2994
807.614	2952
807.756	3055
807.898	2956
808.04	2941
808.182	3013
808.324	2986
808.465	2929
808.607	2910
808.749	2830
808.891	2887
809.033	3009
809.174	2963
809.316	2899
809.458	2952
809.6	2853
809.741	2819
809.883	2796
810.025	2910
810.166	2887
810.308	2849
810.45	2853
810.591	2792
810.733	2785
810.875	2883
811.016	2838
811.158	2807
811.299	2849
811.441	2994
811.582	2986
811.724	2864
811.865	2857
812.007	2944
812.148	2895
812.29	2857
812.431	2933
812.573	2975
812.714	2994
812.855	3089
812.997	3074
813.138	3169
813.279	3039
813.421	3017
813.562	3005
813.703	2922
813.845	2929
813.986	2800
814.127	2766
814.268	2849
814.41	2853
814.551	2838
814.692	2899
814.833	2845
814.974	2872
815.115	2990
815.256	2872
815.397	2876
815.539	2902
815.68	2815
815.821	2830
815.962	2990
816.103	2990
816.244	2918
816.385	2914
816.526	3039
816.666	2982
816.807	2785
816.948	2910
817.089	2963
817.23	2906
817.371	2815
817.512	2842
817.653	2876
817.793	2880
817.934	2895
818.075	2982
818.216	2982
818.356	3055
818.497	2883
818.638	2807
818.778	2849
818.919	2838
819.06	2796
819.2	2956
819.341	2830
819.481	2811
819.622	2990
819.762	3150
819.903	3104
820.043	2975
820.184	2933
820.324	2925
820.465	3043
820.605	3077
820.746	3093
820.886	2967
821.026	3135
821.167	3211
821.307	3302
821.447	3336
821.588	3279
821.728	3241
821.868	3192
822.008	3097
822.149	3203
822.289	3275
822.429	3112
822.569	3123
822.709	3207
822.849	3066
822.99	3112
823.13	3188
823.27	3230
823.41	3142
823.55	3142
823.69	3195
823.83	3207
823.97	3138
824.11	3032
824.25	3009
824.389	3097
824.529	3104
824.669	3074
824.809	3211
824.949	3279
825.089	3253
825.228	3207
825.368	3009
825.508	2986
825.648	2994
825.787	3055
825.927	3043
826.067	2979
826.206	2982
826.346	3070
826.485	3093
826.625	3142
826.765	3321
826.904	3237
827.044	3028
827.183	3013
827.323	2906
827.462	3028
827.601	2944
827.741	2982
827.88	2956
828.02	2883
828.159	2982
828.298	3028
828.437	3161
828.577	3070
828.716	3249
828.855	3119
828.994	2933
829.134	2922
829.273	2948
829.412	2891
829.551	2891
829.69	2887
829.829	2986
829.968	3154
830.107	3032
830.246	3047
830.385	2967
830.524	2880
830.663	2815
830.802	2758
830.941	2682
831.08	2663
831.219	2766
831.357	2788
831.496	2998
831.635	2758
831.774	2663
831.913	2693
832.051	2598
832.19	2610
832.329	2693
832.467	2526
832.606	2499
832.744	2617
832.883	2598
833.022	2613
833.16	2670
833.299	2746
833.437	2674
833.576	2720
833.714	2766
833.852	2781
833.991	2815
834.129	2853
834.267	2830
834.406	2826
834.544	2883
834.682	2948
834.821	2868
834.959	3058
835.097	2937
835.235	3085
835.373	3032
835.511	3047
835.65	2998
835.788	3020
835.926	2876
836.064	2819
836.202	2887
836.34	3123
836.478	3169
836.615	3085
836.753	3176
836.891	3230
837.029	3161
837.167	3123
837.305	3077
837.443	3089
837.58	2982
837.718	3142
837.856	3108
837.993	3047
838.131	3116
838.269	3150
838.406	3089
838.544	3097
838.681	2948
838.819	2925
838.956	2823
839.094	2823
839.231	2944
839.369	3051
839.506	3386
839.643	3199
839.781	3039
839.918	2994
840.055	3085
840.193	3066
840.33	3119
840.467	3142
840.604	3173
840.742	3412
840.879	3047
841.016	3066
841.153	3123
841.29	3367
841.427	3332
841.564	3279
841.701	3310
841.838	3207
841.975	3218
842.112	3264
842.249	3070
842.385	3032
842.522	3329
842.659	3127
842.796	3081
842.933	3123
843.069	3081
843.206	3051
843.343	3199
843.479	3131
843.616	3169
843.752	2929
843.889	2872
844.025	3089
844.162	2906
844.298	3112
844.435	2956
844.571	2914
844.708	3108
844.844	3199
844.98	3275
845.117	3203
845.253	3051
845.389	3043
845.525	3138
845.661	3127
845.798	2990
845.934	3119
846.07	3081
846.206	3245
846.342	3363
846.478	3275
846.614	3077
846.75	3062
846.886	3047
847.022	3237
847.158	3173
847.294	3214
847.429	3222
847.565	3245
847.701	3469
847.837	3036
847.972	3017
848.108	3165
848.244	3142
848.379	3043
848.515	2971
848.65	2967
848.786	2990
848.921	3055
849.057	3081
849.192	3184
849.328	3146
849.463	3127
849.598	3100
849.734	3047
849.869	2960
850.004	2910
850.14	2960
850.275	2922
850.41	2864
850.545	2891
850.68	2963
850.815	2998
850.95	2982
851.085	3199
851.22	3176
851.355	3039
851.49	2998
851.625	3009
851.76	3032
851.895	2963
852.03	2933
852.165	3070
852.299	3119
852.434	3173
852.569	3165
852.703	3184
852.838	3279
852.973	3397
853.107	3340
853.242	3150
853.376	3119
853.511	2982
853.645	3051
853.78	3241
853.914	3116
854.048	3127
854.183	3116
854.317	3184
854.451	3283
854.585	3131
854.72	3104
854.854	3233
854.988	3077
855.122	3154
855.256	2986
855.39	3123
855.524	3264
855.658	3195
855.792	3173
855.926	3180
856.06	3214
856.194	3310
856.327	3176
856.461	3104
856.595	3058
856.729	3123
856.862	3211
856.996	3165
857.13	3211
857.263	3214
857.397	3336
857.53	3146
857.664	3245
857.797	3283
857.931	3294
858.064	3218
858.197	3249
858.331	3165
858.464	3142
858.597	3055
858.731	3138
858.864	3146
858.997	3131
859.13	3165
859.263	3195
859.396	3218
859.529	3119
859.662	3142
859.795	3089
859.928	3146
860.061	3287
860.194	3329
860.327	3184
860.46	3108
860.592	3245
860.725	3268
860.858	3272
860.99	3123
861.123	3039
861.256	3070
861.388	3173
861.521	3903
861.653	3066
861.786	3005
861.918	3013
862.05	3104
862.183	3123
862.315	3154
862.447	3218
862.58	3146
862.712	2941
862.844	2914
862.976	3047
863.108	3020
863.24	3351
863.372	2910
863.504	2956
863.636	2971
863.768	3051
863.9	3017
864.032	2899
864.164	2971
864.296	3047
864.428	3112
864.559	3112
864.691	3112
864.823	3039
864.954	3032
865.086	3032
865.217	2998
865.349	3001
865.48	2982
865.612	3028
865.743	3165
865.875	3036
866.006	2960
866.137	2979
866.269	2982
866.4	2952
866.531	2963
866.662	2887
866.793	2906
866.924	2895
867.055	3001
867.186	2944
867.317	2883
867.448	2864
867.579	2880
867.71	2868
867.841	2838
867.972	2906
868.103	2872
868.233	2861
868.364	2880
868.495	2899
868.625	3081
868.756	3192
868.886	2990
869.017	3032
869.147	3154
869.278	3180
869.408	3077
869.539	3047
869.669	3097
869.799	3039
869.929	3165
870.06	3123
870.19	3306
870.32	3260
870.45	3279
870.58	3386
870.71	3488
870.84	3454
870.97	3272
871.1	3230
871.23	3477
871.36	3416
871.489	3363
871.619	3393
871.749	3428
871.879	3424
872.008	3488
872.138	3351
872.267	3306
872.397	3138
872.526	3108
872.656	2990
872.785	3146
872.915	3237
873.044	3294
873.173	3279
873.303	3264
873.432	3275
873.561	3237
873.69	3184
873.819	3138
873.948	3211
874.077	3154
874.206	3017
874.335	3058
874.464	3222
874.593	3329
874.722	3264
874.851	3431
874.979	3344
875.108	3287
875.237	3222
875.365	3199
875.494	3161
875.623	3253
875.751	3093
875.88	3123
876.008	3241
876.136	3245
876.265	3344
876.393	3530
876.521	3424
876.65	3389
876.778	3351
876.906	3237
877.034	3165
877.162	3233
877.29	3214
877.418	3272
877.546	3192
877.674	3226
877.802	3253
877.93	3214
878.058	3127
878.185	3116
878.313	3211
878.441	3237
878.568	3077
878.696	3154
878.824	3256
878.951	3321
879.079	3469
879.206	3625
879.333	3443
879.461	3317
879.588	3336
879.715	3447
879.842	3595
879.97	3374
880.097	3157
880.224	3093
880.351	3169
880.478	3230
880.605	3222
880.732	3192
880.859	3492
880.986	3291
881.112	3340
881.239	3233
881.366	3127
881.493	3058
881.619	3047
881.746	3070
881.872	3104
881.999	3123
882.125	3116
882.252	3260
882.378	3275
882.505	3443
882.631	3283
882.757	3135
882.883	3237
883.01	3241
883.136	3184
883.262	3104
883.388	3135
883.514	3329
883.64	3363
883.766	3344
883.892	3195
884.018	3253
884.143	3439
884.269	3534
884.395	3203
884.52	3176
884.646	3138
884.772	3085
884.897	3123
885.023	3207
885.148	3313
885.274	3397
885.399	3397
885.524	3279
885.65	3275
885.775	3336
885.9	3287
886.025	3458
886.15	3348
886.275	3291
886.4	3241
886.525	3283
886.65	3275
886.775	3279
886.9	3519
887.025	3625
887.149	3412
887.274	3249
887.399	3199
887.523	3241
887.648	3176
887.773	3203
887.897	3389
888.021	3416
888.146	3283
888.27	3504
888.395	3572
888.519	3435
888.643	3443
888.767	3473
888.891	3287
889.015	3272
889.139	3294
889.263	3218
889.387	3389
889.511	3523
889.635	3485
889.759	3279
889.883	3329
890.006	3405
890.13	3462
890.254	3211
890.377	3317
890.501	3199
890.624	3222
890.748	3283
890.871	3214
890.995	3116
891.118	3058
891.241	3214
891.364	3260
891.488	3348
891.611	3176
891.734	3226
891.857	3348
891.98	3222
892.103	3367
892.226	3264
892.349	3207
892.471	3135
892.594	3207
892.717	3291
892.839	3283
892.962	3287
893.085	3359
893.207	3306
893.33	3150
893.452	3176
893.575	3287
893.697	3256
893.819	3435
893.941	3511
894.064	3504
894.186	3272
894.308	3245
894.43	3439
894.552	3542
894.674	3481
894.796	3291
894.918	3310
895.04	3279
895.161	3447
895.283	3359
895.405	3298
895.526	3389
895.648	3431
895.769	3401
895.891	3462
896.012	3462
896.134	3466
896.255	3393
896.376	3401
896.498	3374
896.619	3416
896.74	3355
896.861	3439
896.982	3656
897.103	3804
897.224	3591
897.345	3485
897.466	3424
897.587	3519
897.708	3591
897.828	3534
897.949	3416
898.07	3332
898.19	3412
898.311	3603
898.431	3439
898.552	3481
898.672	3641
898.792	3564
898.913	3515
899.033	3397
899.153	3268
899.273	3226
899.393	3268
899.513	3279
899.633	3321
899.753	3351
899.873	3321
899.993	3386
900.113	3310
900.232	3351
900.352	3351
900.472	3275
900.591	3184
900.711	3306
900.83	3256
900.95	3435
901.069	3447
901.189	3317
901.308	3184
901.427	3161
901.546	3127
901.665	3283
901.784	3340
901.904	3173
902.023	3131
902.141	3009
902.26	3009
902.379	3104
902.498	3104
902.617	3077
902.735	3203
902.854	3264
902.973	3165
903.091	3028
903.21	3020
903.328	3112
903.446	3097
903.565	3112
903.683	3165
903.801	3112
903.919	3275
904.038	3256
904.156	3173
904.274	3298
904.392	3268
904.51	3253
904.627	3317
904.745	3454
904.863	3488
904.981	3249
905.098	3127
905.216	3226
905.334	3260
905.451	3313
905.569	3325
905.686	3443
905.803	3473
905.921	3310
906.038	3458
906.155	3321
906.272	3241
906.389	3298
906.506	3214
906.623	3260
906.74	3310
906.857	3180
906.974	3253
907.091	3477
907.208	3530
907.324	3485
907.441	3370
907.557	3249
907.674	3188
907.79	3180
907.907	3283
908.023	3351
908.139	3386
908.256	3279
908.372	3370
908.488	3363
908.604	3268
908.72	3272
908.836	3260
908.952	3291
909.068	3317
909.184	3462
909.3	3397
909.415	3481
909.531	3492
909.647	3264
909.762	3332
909.878	3268
909.993	3374
910.108	3348
910.224	3351
910.339	3397
910.454	3359
910.57	3283
910.685	3264
910.8	3591
910.915	3526
911.03	3435
911.145	3279
911.259	3253
911.374	3298
911.489	3260
911.604	3203
911.718	3119
911.833	3176
911.947	3032
912.062	3009
912.176	3176
912.291	3157
912.405	3195
912.519	3431
912.633	3485
912.748	3287
912.862	3264
912.976	3192
913.09	3066
913.204	3142
913.318	3214
913.431	3397
913.545	3321
913.659	3374
913.772	3302
913.886	3176
914	3199
914.113	3344
914.226	3405
914.34	3332
914.453	3199
914.566	3435
914.68	3306
914.793	3306
914.906	3116
915.019	3108
915.132	3066
915.245	3188
915.358	3211
915.47	3214
915.583	3237
915.696	3260
915.809	3447
915.921	3424
916.034	3253
916.146	3279
916.259	3184
916.371	3409
916.483	3405
916.595	3302
916.708	3378
916.82	3344
916.932	3332
917.044	3359
917.156	3340
917.268	3264
917.38	3298
917.491	3321
917.603	3348
917.715	3416
917.826	3439
917.938	3386
918.049	3272
918.161	3412
918.272	3618
918.384	3606
918.495	3507
918.606	3340
918.717	3317
918.828	3294
918.939	3409
919.05	3317
919.161	3329
919.272	3150
919.383	3275
919.494	3511
919.604	3675
919.715	3492
919.826	3393
919.936	3431
920.047	3564
920.157	3542
920.267	3770
920.378	3610
920.488	3545
920.598	3751
920.708	3960
920.818	3827
920.928	3816
921.038	4017
921.148	4048
921.258	3732
921.368	3622
921.477	3603
921.587	3496
921.697	3469
921.806	3595
921.916	3534
922.025	3374
922.134	3374
922.244	3332
922.353	3401
922.462	3275
922.571	3222
922.68	3131
922.789	3074
922.898	3142
923.007	3066
923.116	3195
923.224	3180
923.333	3199
923.442	3070
923.55	3074
923.659	3112
923.767	3184
923.876	3135
923.984	3226
924.092	3089
924.201	3169
924.309	3165
924.417	3233
924.525	3180
924.633	3222
924.741	4188
924.849	3039
924.956	3222
925.064	3112
925.172	3074
925.279	3055
925.387	3176
925.494	3214
925.602	3351
925.709	3302
925.816	3157
925.924	3279
926.031	3416
926.138	3336
926.245	3348
926.352	3268
926.459	3412
926.566	3492
926.673	3310
926.779	3195
926.886	3260
926.993	3157
927.099	3116
927.206	3104
927.312	3108
927.419	3237
927.525	3199
927.631	3256
927.737	3188
927.843	3119
927.95	3017
928.056	3116
928.162	3169
928.267	3237
928.373	3892
928.479	3287
928.585	3081
928.69	3161
928.796	3283
928.901	3165
929.007	3062
929.112	3203
929.218	3165
929.323	3173
929.428	3169
929.533	3332
929.638	3157
929.743	3127
929.848	3268
929.953	3199
930.058	3146
930.163	2986
930.267	3062
930.372	3184
930.477	3066
930.581	3340
930.685	3195
930.79	3081
930.894	3108
930.998	3108
931.103	3245
931.207	2925
931.311	2922
931.415	2960
931.519	2746
931.623	2796
