Data from test_V78500241_924.txt Node
Date: Fri Mar 25 16:21:36 CST 2022
User: usil
Spectrometer: V785-0024
Trigger mode: 0
Integration Time (sec): 4.000000E-1
Scans to average: 1
Nonlinearity correction enabled: false
Boxcar width: 0
Storing dark spectrum: false
XAxis mode: Wavelengths
Number of Pixels in Spectrum: 1024
>>>>>Begin Spectral Data<<<<<
801.071	2948
801.214	2944
801.356	2849
801.499	2906
801.641	2864
801.783	2906
801.926	3055
802.068	3028
802.211	3001
802.353	3017
802.496	2952
802.638	2982
802.78	3055
802.923	3062
803.065	3020
803.208	2883
803.35	2887
803.492	2952
803.635	2922
803.777	2762
803.919	2880
804.061	3207
804.204	2963
804.346	2887
804.488	2807
804.63	2994
804.773	2857
804.915	2933
805.057	3074
805.199	2933
805.341	2979
805.483	3043
805.626	2979
805.768	2944
805.91	3070
806.052	3131
806.194	3043
806.336	3226
806.478	3058
806.62	2960
806.762	2963
806.904	3062
807.046	3161
807.188	3005
807.33	2910
807.472	3009
807.614	2895
807.756	2994
807.898	2933
808.04	2910
808.182	2971
808.324	2956
808.465	2891
808.607	2880
808.749	2834
808.891	2853
809.033	2956
809.174	2998
809.316	2910
809.458	2914
809.6	2746
809.741	2773
809.883	2758
810.025	2838
810.166	2861
810.308	2845
810.45	2842
810.591	2735
810.733	2754
810.875	2861
811.016	2773
811.158	2766
811.299	2811
811.441	2948
811.582	2902
811.724	2811
811.865	2842
812.007	2922
812.148	2880
812.29	2853
812.431	2883
812.573	2922
812.714	2952
812.855	3028
812.997	3070
813.138	3123
813.279	3013
813.421	2971
813.562	2937
813.703	2861
813.845	2876
813.986	2766
814.127	2743
814.268	2796
814.41	2876
814.551	2781
814.692	2880
814.833	2811
814.974	2902
815.115	2990
815.256	2853
815.397	2788
815.539	2830
815.68	2769
815.821	2762
815.962	2902
816.103	2933
816.244	2868
816.385	2842
816.526	2979
816.666	2906
816.807	2739
816.948	2872
817.089	2895
817.23	2830
817.371	2758
817.512	2807
817.653	2796
817.793	2826
817.934	2883
818.075	2948
818.216	2979
818.356	3043
818.497	2880
818.638	2781
818.778	2849
818.919	2769
819.06	2777
819.2	2845
819.341	2804
819.481	2796
819.622	2902
819.762	3089
819.903	3043
820.043	2929
820.184	2891
820.324	2899
820.465	2963
820.605	3001
820.746	3032
820.886	2925
821.026	3116
821.167	3142
821.307	3298
821.447	3275
821.588	3287
821.728	3230
821.868	3218
822.008	3100
822.149	3214
822.289	3268
822.429	3100
822.569	3108
822.709	3184
822.849	3017
822.99	3070
823.13	3173
823.27	3180
823.41	3131
823.55	3150
823.69	3161
823.83	3211
823.97	3127
824.11	3009
824.25	3039
824.389	3081
824.529	3127
824.669	3077
824.809	3214
824.949	3275
825.089	3218
825.228	3184
825.368	3043
825.508	2971
825.648	3005
825.787	3043
825.927	3051
826.067	2998
826.206	3009
826.346	3093
826.485	3100
826.625	3154
826.765	3317
826.904	3207
827.044	3013
827.183	2944
827.323	2880
827.462	3017
827.601	2963
827.741	2975
827.88	2986
828.02	2918
828.159	2994
828.298	3085
828.437	3146
828.577	3062
828.716	3291
828.855	3119
828.994	2933
829.134	2906
829.273	2982
829.412	2891
829.551	2902
829.69	2914
829.829	3043
829.968	3176
830.107	3020
830.246	3062
830.385	2925
830.524	2941
830.663	2876
830.802	2750
830.941	2701
831.08	2678
831.219	2792
831.357	2807
831.496	2967
831.635	2762
831.774	2648
831.913	2693
832.051	2575
832.19	2625
832.329	2720
832.467	2575
832.606	2552
832.744	2636
832.883	2613
833.022	2594
833.16	2670
833.299	2727
833.437	2758
833.576	2754
833.714	2716
833.852	2758
833.991	2788
834.129	2872
834.267	2868
834.406	2849
834.544	2868
834.682	2902
834.821	2906
834.959	3093
835.097	2944
835.235	3108
835.373	3047
835.511	3055
835.65	3024
835.788	2975
835.926	2861
836.064	2864
836.202	2880
836.34	3138
836.478	3192
836.615	3085
836.753	3142
836.891	3241
837.029	3199
837.167	3085
837.305	3104
837.443	3051
837.58	2979
837.718	3180
837.856	3085
837.993	3024
838.131	3192
838.269	3188
838.406	3154
838.544	3146
838.681	2960
838.819	2910
838.956	2845
839.094	2853
839.231	2922
839.369	3058
839.506	3386
839.643	3249
839.781	3047
839.918	3032
840.055	3066
840.193	3085
840.33	3070
840.467	3131
840.604	3203
840.742	3454
840.879	3100
841.016	3085
841.153	3169
841.29	3370
841.427	3332
841.564	3253
841.701	3313
841.838	3268
841.975	3176
842.112	3249
842.249	3100
842.385	3058
842.522	3302
842.659	3108
842.796	3074
842.933	3165
843.069	3085
843.206	3097
843.343	3211
843.479	3116
843.616	3192
843.752	2937
843.889	2876
844.025	3104
844.162	2906
844.298	3066
844.435	2982
844.571	2922
844.708	3123
844.844	3264
844.98	3207
845.117	3237
845.253	3097
845.389	3017
845.525	3123
845.661	3135
845.798	3066
845.934	3154
846.07	3097
846.206	3249
846.342	3332
846.478	3222
846.614	3093
846.75	3066
846.886	3051
847.022	3291
847.158	3188
847.294	3218
847.429	3245
847.565	3241
847.701	3492
847.837	3066
847.972	3036
848.108	3188
848.244	3188
848.379	3005
848.515	3001
848.65	2956
848.786	2990
848.921	3032
849.057	3131
849.192	3211
849.328	3097
849.463	3108
849.598	3055
849.734	3039
849.869	2982
850.004	2948
850.14	3009
850.275	2933
850.41	2857
850.545	2956
850.68	2944
850.815	2971
850.95	3047
851.085	3199
851.22	3100
851.355	3028
851.49	2975
851.625	3028
851.76	3043
851.895	2967
852.03	2918
852.165	3081
852.299	3135
852.434	3165
852.569	3135
852.703	3203
852.838	3287
852.973	3389
853.107	3344
853.242	3192
853.376	3074
853.511	3028
853.645	3100
853.78	3245
853.914	3135
854.048	3135
854.183	3112
854.317	3176
854.451	3294
854.585	3146
854.72	3093
854.854	3218
854.988	3081
855.122	3142
855.256	3005
855.39	3135
855.524	3279
855.658	3203
855.792	3195
855.926	3222
856.06	3233
856.194	3279
856.327	3154
856.461	3085
856.595	3100
856.729	3093
856.862	3237
856.996	3169
857.13	3214
857.263	3230
857.397	3306
857.53	3142
857.664	3256
857.797	3249
857.931	3298
858.064	3192
858.197	3275
858.331	3119
858.464	3066
858.597	3043
858.731	3127
858.864	3157
858.997	3093
859.13	3184
859.263	3184
859.396	3211
859.529	3097
859.662	3070
859.795	3043
859.928	3157
860.061	3321
860.194	3302
860.327	3169
860.46	3123
860.592	3287
860.725	3310
860.858	3291
860.99	3154
861.123	3074
861.256	3085
861.388	3184
861.521	3819
861.653	3062
861.786	2998
861.918	3032
862.05	3062
862.183	3131
862.315	3203
862.447	3260
862.58	3135
862.712	2944
862.844	2883
862.976	3028
863.108	3047
863.24	3348
863.372	2895
863.504	2963
863.636	2979
863.768	3032
863.9	2982
864.032	2914
864.164	2979
864.296	3028
864.428	3135
864.559	3123
864.691	3112
864.823	3100
864.954	3062
865.086	3047
865.217	3017
865.349	2960
865.48	3020
865.612	3009
865.743	3161
865.875	3020
866.006	2982
866.137	3043
866.269	2941
866.4	2971
866.531	2933
866.662	2922
866.793	2937
866.924	2933
867.055	3005
867.186	2937
867.317	2910
867.448	2845
867.579	2857
867.71	2887
867.841	2796
867.972	2918
868.103	2922
868.233	2910
868.364	2891
868.495	2925
868.625	3089
868.756	3154
868.886	2982
869.017	3001
869.147	3180
869.278	3173
869.408	3070
869.539	3028
869.669	3123
869.799	3036
869.929	3119
870.06	3131
870.19	3363
870.32	3321
870.45	3313
870.58	3397
870.71	3450
870.84	3481
870.97	3302
871.1	3287
871.23	3469
871.36	3462
871.489	3359
871.619	3416
871.749	3420
871.879	3454
872.008	3473
872.138	3386
872.267	3298
872.397	3157
872.526	3142
872.656	3017
872.785	3100
872.915	3272
873.044	3310
873.173	3222
873.303	3256
873.432	3249
873.561	3222
873.69	3157
873.819	3195
873.948	3211
874.077	3119
874.206	3074
874.335	3093
874.464	3237
874.593	3348
874.722	3218
874.851	3401
874.979	3374
875.108	3332
875.237	3211
875.365	3176
875.494	3154
875.623	3237
875.751	3089
875.88	3116
876.008	3154
876.136	3226
876.265	3367
876.393	3523
876.521	3466
876.65	3397
876.778	3351
876.906	3253
877.034	3230
877.162	3222
877.29	3180
877.418	3279
877.546	3241
877.674	3253
877.802	3275
877.93	3283
878.058	3173
878.185	3173
878.313	3176
878.441	3188
878.568	3089
878.696	3203
878.824	3283
878.951	3325
879.079	3458
879.206	3610
879.333	3473
879.461	3348
879.588	3389
879.715	3485
879.842	3580
879.97	3367
880.097	3192
880.224	3119
880.351	3180
880.478	3237
880.605	3199
880.732	3173
880.859	3511
880.986	3302
881.112	3310
881.239	3184
881.366	3100
881.493	3039
881.619	3062
881.746	3062
881.872	3074
881.999	3097
882.125	3131
882.252	3245
882.378	3310
882.505	3454
882.631	3302
882.757	3188
882.883	3222
883.01	3279
883.136	3161
883.262	3131
883.388	3119
883.514	3321
883.64	3412
883.766	3336
883.892	3199
884.018	3237
884.143	3428
884.269	3530
884.395	3222
884.52	3173
884.646	3176
884.772	3127
884.897	3116
885.023	3176
885.148	3348
885.274	3450
885.399	3363
885.524	3317
885.65	3260
885.775	3325
885.9	3279
886.025	3443
886.15	3382
886.275	3359
886.4	3199
886.525	3313
886.65	3275
886.775	3291
886.9	3488
887.025	3644
887.149	3397
887.274	3272
887.399	3195
887.523	3260
887.648	3176
887.773	3222
887.897	3386
888.021	3435
888.146	3306
888.27	3412
888.395	3526
888.519	3466
888.643	3405
888.767	3450
888.891	3340
889.015	3249
889.139	3283
889.263	3249
889.387	3401
889.511	3519
889.635	3450
889.759	3302
889.883	3283
890.006	3412
890.13	3515
890.254	3279
890.377	3348
890.501	3192
890.624	3188
890.748	3287
890.871	3161
890.995	3108
891.118	3085
891.241	3230
891.364	3218
891.488	3336
891.611	3211
891.734	3241
891.857	3321
891.98	3207
892.103	3355
892.226	3294
892.349	3230
892.471	3116
892.594	3245
892.717	3275
892.839	3279
892.962	3260
893.085	3363
893.207	3321
893.33	3180
893.452	3195
893.575	3321
893.697	3241
893.819	3504
893.941	3488
894.064	3454
894.186	3291
894.308	3287
894.43	3428
894.552	3549
894.674	3466
894.796	3260
894.918	3310
895.04	3302
895.161	3374
895.283	3367
895.405	3279
895.526	3401
895.648	3477
895.769	3428
895.891	3481
896.012	3485
896.134	3481
896.255	3416
896.376	3409
896.498	3355
896.619	3454
896.74	3363
896.861	3420
896.982	3667
897.103	3846
897.224	3587
897.345	3526
897.466	3443
897.587	3534
897.708	3652
897.828	3580
897.949	3435
898.07	3374
898.19	3393
898.311	3610
898.431	3469
898.552	3511
898.672	3625
898.792	3595
898.913	3507
899.033	3428
899.153	3294
899.273	3222
899.393	3275
899.513	3313
899.633	3313
899.753	3310
899.873	3317
899.993	3370
900.113	3336
900.232	3382
900.352	3317
900.472	3310
900.591	3180
900.711	3302
900.83	3237
900.95	3420
901.069	3504
901.189	3298
901.308	3188
901.427	3116
901.546	3192
901.665	3298
901.784	3367
901.904	3173
902.023	3150
902.141	3032
902.26	3017
902.379	3116
902.498	3070
902.617	2990
902.735	3218
902.854	3279
902.973	3180
903.091	3024
903.21	3066
903.328	3127
903.446	3123
903.565	3112
903.683	3192
903.801	3154
903.919	3233
904.038	3302
904.156	3138
904.274	3283
904.392	3249
904.51	3279
904.627	3287
904.745	3469
904.863	3534
904.981	3260
905.098	3138
905.216	3245
905.334	3329
905.451	3291
905.569	3344
905.686	3420
905.803	3405
905.921	3283
906.038	3409
906.155	3355
906.272	3275
906.389	3332
906.506	3195
906.623	3245
906.74	3291
906.857	3203
906.974	3222
907.091	3481
907.208	3580
907.324	3485
907.441	3397
907.557	3272
907.674	3218
907.79	3169
907.907	3256
908.023	3416
908.139	3389
908.256	3306
908.372	3374
908.488	3332
908.604	3230
908.72	3260
908.836	3302
908.952	3287
909.068	3367
909.184	3481
909.3	3363
909.415	3523
909.531	3435
909.647	3256
909.762	3294
909.878	3237
909.993	3374
910.108	3310
910.224	3306
910.339	3431
910.454	3336
910.57	3245
910.685	3256
910.8	3599
910.915	3530
911.03	3424
911.145	3256
911.259	3268
911.374	3313
911.489	3275
911.604	3222
911.718	3112
911.833	3138
911.947	3043
912.062	2952
912.176	3135
912.291	3222
912.405	3203
912.519	3420
912.633	3462
912.748	3344
912.862	3214
912.976	3176
913.09	3055
913.204	3146
913.318	3192
913.431	3355
913.545	3351
913.659	3378
913.772	3329
913.886	3211
914	3226
914.113	3386
914.226	3424
914.34	3367
914.453	3230
914.566	3412
914.68	3260
914.793	3310
914.906	3150
915.019	3093
915.132	3077
915.245	3154
915.358	3211
915.47	3214
915.583	3294
915.696	3287
915.809	3428
915.921	3412
916.034	3287
916.146	3241
916.259	3222
916.371	3348
916.483	3389
916.595	3268
916.708	3310
916.82	3359
916.932	3329
917.044	3351
917.156	3355
917.268	3283
917.38	3313
917.491	3279
917.603	3367
917.715	3435
917.826	3458
917.938	3359
918.049	3291
918.161	3416
918.272	3553
918.384	3530
918.495	3534
918.606	3351
918.717	3260
918.828	3386
918.939	3386
919.05	3332
919.161	3367
919.272	3214
919.383	3260
919.494	3473
919.604	3671
919.715	3488
919.826	3428
919.936	3473
920.047	3587
920.157	3542
920.267	3766
920.378	3584
920.488	3603
920.598	3778
920.708	3934
920.818	3797
920.928	3789
921.038	3991
921.148	3975
921.258	3675
921.368	3648
921.477	3580
921.587	3545
921.697	3458
921.806	3633
921.916	3500
922.025	3321
922.134	3374
922.244	3256
922.353	3450
922.462	3256
922.571	3237
922.68	3104
922.789	3066
922.898	3108
923.007	3100
923.116	3207
923.224	3176
923.333	3184
923.442	3070
923.55	3074
923.659	3161
923.767	3199
923.876	3116
923.984	3233
924.092	3116
924.201	3184
924.309	3157
924.417	3245
924.525	3192
924.633	3203
924.741	4131
924.849	3051
924.956	3245
925.064	3074
925.172	3051
925.279	3138
925.387	3184
925.494	3214
925.602	3332
925.709	3310
925.816	3188
925.924	3283
926.031	3355
926.138	3340
926.245	3355
926.352	3279
926.459	3412
926.566	3485
926.673	3336
926.779	3256
926.886	3253
926.993	3138
927.099	3119
927.206	3097
927.312	3112
927.419	3218
927.525	3211
927.631	3272
927.737	3165
927.843	3089
927.95	3028
928.056	3116
928.162	3203
928.267	3241
928.373	3861
928.479	3294
928.585	3028
928.69	3207
928.796	3268
928.901	3157
929.007	3062
929.112	3233
929.218	3150
929.323	3154
929.428	3135
929.533	3310
929.638	3116
929.743	3188
929.848	3230
929.953	3237
930.058	3119
930.163	2967
930.267	3043
930.372	3184
930.477	3028
930.581	3317
930.685	3192
930.79	3066
930.894	3116
930.998	3085
931.103	3298
931.207	2956
931.311	2941
931.415	2925
931.519	2804
931.623	2788
