Data from test_V78500241_1827.txt Node
Date: Fri Mar 25 16:27:51 CST 2022
User: usil
Spectrometer: V785-0024
Trigger mode: 0
Integration Time (sec): 4.000000E-1
Scans to average: 1
Nonlinearity correction enabled: false
Boxcar width: 0
Storing dark spectrum: false
XAxis mode: Wavelengths
Number of Pixels in Spectrum: 1024
>>>>>Begin Spectral Data<<<<<
801.071	2925
801.214	2914
801.356	2857
801.499	2887
801.641	2849
801.783	2910
801.926	3028
802.068	2963
802.211	2990
802.353	3020
802.496	2956
802.638	2952
802.78	3001
802.923	3085
803.065	3017
803.208	2887
803.35	2925
803.492	2948
803.635	2933
803.777	2735
803.919	2849
804.061	3192
804.204	2910
804.346	2914
804.488	2853
804.63	2986
804.773	2849
804.915	2887
805.057	3081
805.199	2929
805.341	2975
805.483	3043
805.626	3017
805.768	2986
805.91	3089
806.052	3108
806.194	3028
806.336	3214
806.478	2979
806.62	2967
806.762	3001
806.904	3058
807.046	3146
807.188	2971
807.33	2895
807.472	3017
807.614	2914
807.756	2986
807.898	2937
808.04	2872
808.182	2956
808.324	2937
808.465	2899
808.607	2864
808.749	2777
808.891	2823
809.033	2990
809.174	2948
809.316	2918
809.458	2857
809.6	2773
809.741	2758
809.883	2766
810.025	2834
810.166	2842
810.308	2823
810.45	2857
810.591	2773
810.733	2777
810.875	2845
811.016	2769
811.158	2746
811.299	2811
811.441	2933
811.582	2880
811.724	2823
811.865	2807
812.007	2883
812.148	2872
812.29	2857
812.431	2857
812.573	2899
812.714	2975
812.855	3070
812.997	3077
813.138	3081
813.279	3028
813.421	2971
813.562	2967
813.703	2853
813.845	2902
813.986	2735
814.127	2720
814.268	2834
814.41	2845
814.551	2792
814.692	2857
814.833	2826
814.974	2906
815.115	2971
815.256	2830
815.397	2845
815.539	2842
815.68	2769
815.821	2800
815.962	2971
816.103	2899
816.244	2857
816.385	2872
816.526	2971
816.666	2948
816.807	2720
816.948	2899
817.089	2910
817.23	2861
817.371	2773
817.512	2807
817.653	2838
817.793	2853
817.934	2861
818.075	3009
818.216	2975
818.356	2998
818.497	2887
818.638	2762
818.778	2819
818.919	2788
819.06	2758
819.2	2872
819.341	2807
819.481	2785
819.622	2925
819.762	3081
819.903	3043
820.043	2941
820.184	2864
820.324	2899
820.465	3024
820.605	3047
820.746	2994
820.886	2918
821.026	3112
821.167	3157
821.307	3230
821.447	3279
821.588	3233
821.728	3214
821.868	3188
822.008	3066
822.149	3157
822.289	3218
822.429	3062
822.569	3100
822.709	3192
822.849	2990
822.99	3039
823.13	3116
823.27	3218
823.41	3085
823.55	3138
823.69	3146
823.83	3157
823.97	3116
824.11	2956
824.25	3013
824.389	3051
824.529	3100
824.669	3074
824.809	3173
824.949	3249
825.089	3218
825.228	3119
825.368	3047
825.508	2986
825.648	2941
825.787	2994
825.927	2990
826.067	2956
826.206	2998
826.346	3055
826.485	3058
826.625	3085
826.765	3245
826.904	3169
827.044	3001
827.183	2925
827.323	2864
827.462	2933
827.601	2941
827.741	2895
827.88	2941
828.02	2819
828.159	2922
828.298	2986
828.437	3116
828.577	3032
828.716	3214
828.855	3097
828.994	2880
829.134	2880
829.273	2933
829.412	2883
829.551	2830
829.69	2883
829.829	2998
829.968	3093
830.107	3017
830.246	3017
830.385	2918
830.524	2845
830.663	2785
830.802	2720
830.941	2648
831.08	2651
831.219	2758
831.357	2777
831.496	2937
831.635	2712
831.774	2655
831.913	2655
832.051	2545
832.19	2575
832.329	2697
832.467	2511
832.606	2461
832.744	2579
832.883	2610
833.022	2556
833.16	2648
833.299	2674
833.437	2689
833.576	2686
833.714	2724
833.852	2754
833.991	2796
834.129	2834
834.267	2826
834.406	2819
834.544	2823
834.682	2887
834.821	2842
834.959	3066
835.097	2864
835.235	3043
835.373	2971
835.511	2994
835.65	2975
835.788	2967
835.926	2819
836.064	2785
836.202	2845
836.34	3089
836.478	3165
836.615	3043
836.753	3135
836.891	3127
837.029	3161
837.167	3074
837.305	3112
837.443	3032
837.58	2937
837.718	3123
837.856	3047
837.993	2998
838.131	3112
838.269	3085
838.406	3093
838.544	3077
838.681	2914
838.819	2910
838.956	2804
839.094	2811
839.231	2906
839.369	3024
839.506	3409
839.643	3192
839.781	2967
839.918	2944
840.055	3032
840.193	3043
840.33	3055
840.467	3074
840.604	3138
840.742	3389
840.879	3051
841.016	3039
841.153	3089
841.29	3332
841.427	3298
841.564	3218
841.701	3283
841.838	3195
841.975	3173
842.112	3226
842.249	3085
842.385	3009
842.522	3241
842.659	3104
842.796	3081
842.933	3127
843.069	3085
843.206	3036
843.343	3203
843.479	3097
843.616	3157
843.752	2880
843.889	2857
844.025	3089
844.162	2880
844.298	3024
844.435	2967
844.571	2902
844.708	3097
844.844	3154
844.98	3230
845.117	3188
845.253	3024
845.389	2990
845.525	3039
845.661	3058
845.798	2986
845.934	3131
846.07	3020
846.206	3214
846.342	3298
846.478	3218
846.614	3104
846.75	3066
846.886	3009
847.022	3180
847.158	3119
847.294	3199
847.429	3214
847.565	3207
847.701	3481
847.837	3024
847.972	2994
848.108	3146
848.244	3146
848.379	2982
848.515	2944
848.65	2952
848.786	2941
848.921	2994
849.057	3157
849.192	3146
849.328	3070
849.463	3108
849.598	3070
849.734	3005
849.869	2967
850.004	2914
850.14	2979
850.275	2887
850.41	2819
850.545	2880
850.68	2914
850.815	2941
850.95	2952
851.085	3211
851.22	3043
851.355	3036
851.49	2979
851.625	2998
851.76	3020
851.895	2914
852.03	2887
852.165	2990
852.299	3100
852.434	3161
852.569	3154
852.703	3203
852.838	3233
852.973	3359
853.107	3310
853.242	3142
853.376	3081
853.511	2918
853.645	3043
853.78	3211
853.914	3100
854.048	3093
854.183	3077
854.317	3146
854.451	3264
854.585	3100
854.72	3047
854.854	3199
854.988	3043
855.122	3097
855.256	2979
855.39	3119
855.524	3230
855.658	3157
855.792	3135
855.926	3192
856.06	3207
856.194	3275
856.327	3093
856.461	3051
856.595	3058
856.729	3077
856.862	3222
856.996	3112
857.13	3195
857.263	3207
857.397	3272
857.53	3100
857.664	3146
857.797	3226
857.931	3214
858.064	3142
858.197	3176
858.331	3150
858.464	3036
858.597	2979
858.731	3085
858.864	3093
858.997	3058
859.13	3116
859.263	3176
859.396	3184
859.529	3070
859.662	3070
859.795	3047
859.928	3127
860.061	3264
860.194	3275
860.327	3104
860.46	3062
860.592	3184
860.725	3211
860.858	3256
860.99	3131
861.123	3028
861.256	3017
861.388	3119
861.521	3838
861.653	2986
861.786	2975
861.918	3028
862.05	3039
862.183	3066
862.315	3127
862.447	3165
862.58	3039
862.712	2933
862.844	2872
862.976	3009
863.108	2963
863.24	3378
863.372	2849
863.504	2941
863.636	2906
863.768	2956
863.9	2998
864.032	2887
864.164	2937
864.296	3020
864.428	3070
864.559	3100
864.691	3047
864.823	3036
864.954	3032
865.086	3009
865.217	2971
865.349	2925
865.48	2948
865.612	2990
865.743	3116
865.875	2948
866.006	2876
866.137	2975
866.269	2910
866.4	2910
866.531	2925
866.662	2883
866.793	2834
866.924	2902
867.055	2925
867.186	2902
867.317	2876
867.448	2819
867.579	2823
867.71	2804
867.841	2796
867.972	2933
868.103	2914
868.233	2883
868.364	2864
868.495	2906
868.625	3062
868.756	3173
868.886	2944
869.017	2971
869.147	3142
869.278	3169
869.408	3074
869.539	2998
869.669	3081
869.799	3036
869.929	3150
870.06	3127
870.19	3291
870.32	3317
870.45	3260
870.58	3367
870.71	3481
870.84	3473
870.97	3329
871.1	3260
871.23	3500
871.36	3492
871.489	3359
871.619	3412
871.749	3443
871.879	3428
872.008	3534
872.138	3409
872.267	3329
872.397	3161
872.526	3108
872.656	3058
872.785	3112
872.915	3283
873.044	3325
873.173	3264
873.303	3253
873.432	3264
873.561	3344
873.69	3180
873.819	3199
873.948	3237
874.077	3138
874.206	3085
874.335	3104
874.464	3256
874.593	3386
874.722	3287
874.851	3447
874.979	3420
875.108	3348
875.237	3230
875.365	3173
875.494	3199
875.623	3279
875.751	3123
875.88	3150
876.008	3241
876.136	3249
876.265	3382
876.393	3557
876.521	3466
876.65	3443
876.778	3336
876.906	3275
877.034	3245
877.162	3268
877.29	3188
877.418	3275
877.546	3272
877.674	3283
877.802	3272
877.93	3230
878.058	3211
878.185	3070
878.313	3233
878.441	3245
878.568	3100
878.696	3226
878.824	3268
878.951	3370
879.079	3454
879.206	3641
879.333	3492
879.461	3378
879.588	3367
879.715	3534
879.842	3656
879.97	3405
880.097	3222
880.224	3188
880.351	3245
880.478	3268
880.605	3237
880.732	3230
880.859	3507
880.986	3348
881.112	3325
881.239	3218
881.366	3116
881.493	3066
881.619	3051
881.746	3093
881.872	3123
881.999	3157
882.125	3161
882.252	3287
882.378	3313
882.505	3428
882.631	3306
882.757	3192
882.883	3230
883.01	3249
883.136	3199
883.262	3123
883.388	3131
883.514	3359
883.64	3382
883.766	3291
883.892	3214
884.018	3291
884.143	3447
884.269	3572
884.395	3176
884.52	3203
884.646	3207
884.772	3180
884.897	3138
885.023	3245
885.148	3382
885.274	3454
885.399	3363
885.524	3287
885.65	3291
885.775	3355
885.9	3336
886.025	3439
886.15	3382
886.275	3351
886.4	3298
886.525	3310
886.65	3279
886.775	3317
886.9	3538
887.025	3690
887.149	3412
887.274	3283
887.399	3222
887.523	3241
887.648	3173
887.773	3199
887.897	3359
888.021	3458
888.146	3321
888.27	3428
888.395	3587
888.519	3458
888.643	3450
888.767	3507
888.891	3310
889.015	3230
889.139	3344
889.263	3233
889.387	3450
889.511	3534
889.635	3481
889.759	3336
889.883	3287
890.006	3374
890.13	3561
890.254	3329
890.377	3355
890.501	3233
890.624	3241
890.748	3336
890.871	3192
890.995	3104
891.118	3097
891.241	3226
891.364	3245
891.488	3367
891.611	3203
891.734	3256
891.857	3275
891.98	3287
892.103	3355
892.226	3325
892.349	3237
892.471	3154
892.594	3275
892.717	3325
892.839	3298
892.962	3298
893.085	3409
893.207	3329
893.33	3157
893.452	3253
893.575	3359
893.697	3264
893.819	3450
893.941	3549
894.064	3473
894.186	3332
894.308	3272
894.43	3473
894.552	3545
894.674	3466
894.796	3325
894.918	3332
895.04	3351
895.161	3435
895.283	3420
895.405	3359
895.526	3401
895.648	3469
895.769	3492
895.891	3458
896.012	3507
896.134	3485
896.255	3431
896.376	3363
896.498	3405
896.619	3424
896.74	3439
896.861	3431
896.982	3717
897.103	3899
897.224	3610
897.345	3545
897.466	3439
897.587	3477
897.708	3679
897.828	3576
897.949	3466
898.07	3378
898.19	3412
898.311	3637
898.431	3450
898.552	3542
898.672	3656
898.792	3614
898.913	3542
899.033	3393
899.153	3348
899.273	3249
899.393	3298
899.513	3332
899.633	3348
899.753	3382
899.873	3386
899.993	3405
900.113	3367
900.232	3386
900.352	3367
900.472	3298
900.591	3233
900.711	3332
900.83	3256
900.95	3481
901.069	3511
901.189	3340
901.308	3199
901.427	3123
901.546	3222
901.665	3340
901.784	3389
901.904	3233
902.023	3184
902.141	3039
902.26	3055
902.379	3127
902.498	3108
902.617	3097
902.735	3184
902.854	3249
902.973	3226
903.091	3066
903.21	3119
903.328	3131
903.446	3146
903.565	3119
903.683	3245
903.801	3180
903.919	3241
904.038	3321
904.156	3207
904.274	3313
904.392	3291
904.51	3317
904.627	3313
904.745	3420
904.863	3485
904.981	3272
905.098	3184
905.216	3226
905.334	3310
905.451	3329
905.569	3344
905.686	3469
905.803	3450
905.921	3272
906.038	3454
906.155	3378
906.272	3321
906.389	3313
906.506	3260
906.623	3268
906.74	3298
906.857	3230
906.974	3268
907.091	3507
907.208	3595
907.324	3488
907.441	3393
907.557	3245
907.674	3241
907.79	3237
907.907	3302
908.023	3355
908.139	3393
908.256	3351
908.372	3393
908.488	3367
908.604	3291
908.72	3272
908.836	3310
908.952	3302
909.068	3363
909.184	3507
909.3	3397
909.415	3526
909.531	3485
909.647	3279
909.762	3321
909.878	3317
909.993	3378
910.108	3351
910.224	3348
910.339	3420
910.454	3325
910.57	3310
910.685	3272
910.8	3606
910.915	3534
911.03	3462
911.145	3313
911.259	3317
911.374	3325
911.489	3253
911.604	3260
911.718	3154
911.833	3146
911.947	3039
912.062	2971
912.176	3161
912.291	3195
912.405	3253
912.519	3469
912.633	3488
912.748	3344
912.862	3268
912.976	3188
913.09	3062
913.204	3211
913.318	3256
913.431	3351
913.545	3325
913.659	3435
913.772	3325
913.886	3230
914	3211
914.113	3378
914.226	3431
914.34	3420
914.453	3253
914.566	3435
914.68	3291
914.793	3317
914.906	3142
915.019	3123
915.132	3127
915.245	3192
915.358	3264
915.47	3230
915.583	3287
915.696	3294
915.809	3409
915.921	3466
916.034	3272
916.146	3279
916.259	3230
916.371	3435
916.483	3405
916.595	3310
916.708	3367
916.82	3340
916.932	3363
917.044	3386
917.156	3348
917.268	3287
917.38	3348
917.491	3287
917.603	3367
917.715	3447
917.826	3488
917.938	3393
918.049	3332
918.161	3466
918.272	3599
918.384	3564
918.495	3526
918.606	3386
918.717	3279
918.828	3386
918.939	3405
919.05	3294
919.161	3370
919.272	3180
919.383	3283
919.494	3530
919.604	3728
919.715	3515
919.826	3431
919.936	3443
920.047	3599
920.157	3561
920.267	3755
920.378	3618
920.488	3564
920.598	3755
920.708	3968
920.818	3804
920.928	3835
921.038	4017
921.148	4029
921.258	3724
921.368	3660
921.477	3587
921.587	3523
921.697	3469
921.806	3629
921.916	3507
922.025	3359
922.134	3355
922.244	3313
922.353	3481
922.462	3272
922.571	3245
922.68	3123
922.789	3116
922.898	3146
923.007	3074
923.116	3226
923.224	3211
923.333	3188
923.442	3135
923.55	3165
923.659	3138
923.767	3192
923.876	3112
923.984	3272
924.092	3135
924.201	3184
924.309	3249
924.417	3241
924.525	3214
924.633	3287
924.741	4177
924.849	3089
924.956	3313
925.064	3112
925.172	3055
925.279	3123
925.387	3192
925.494	3211
925.602	3378
925.709	3367
925.816	3188
925.924	3306
926.031	3420
926.138	3336
926.245	3393
926.352	3230
926.459	3424
926.566	3519
926.673	3332
926.779	3294
926.886	3241
926.993	3180
927.099	3142
927.206	3108
927.312	3150
927.419	3237
927.525	3245
927.631	3291
927.737	3138
927.843	3184
927.95	3017
928.056	3146
928.162	3165
928.267	3249
928.373	3793
928.479	3329
928.585	3077
928.69	3218
928.796	3256
928.901	3169
929.007	3077
929.112	3211
929.218	3195
929.323	3135
929.428	3157
929.533	3291
929.638	3127
929.743	3169
929.848	3253
929.953	3180
930.058	3135
930.163	3005
930.267	3085
930.372	3192
930.477	3077
930.581	3340
930.685	3199
930.79	3051
930.894	3157
930.998	3116
931.103	3291
931.207	2937
931.311	2929
931.415	2922
931.519	2766
931.623	2819
