Data from test_V78500241_455.txt Node
Date: Fri Mar 25 16:18:21 CST 2022
User: usil
Spectrometer: V785-0024
Trigger mode: 0
Integration Time (sec): 4.000000E-1
Scans to average: 1
Nonlinearity correction enabled: false
Boxcar width: 0
Storing dark spectrum: false
XAxis mode: Wavelengths
Number of Pixels in Spectrum: 1024
>>>>>Begin Spectral Data<<<<<
801.071	2918
801.214	2933
801.356	2887
801.499	2925
801.641	2857
801.783	2925
801.926	3093
802.068	2990
802.211	3020
802.353	3039
802.496	3005
802.638	3001
802.78	3043
802.923	3081
803.065	3005
803.208	2864
803.35	2922
803.492	2918
803.635	2956
803.777	2739
803.919	2861
804.061	3195
804.204	2922
804.346	2902
804.488	2861
804.63	2990
804.773	2857
804.915	2937
805.057	3077
805.199	2944
805.341	2933
805.483	3028
805.626	2998
805.768	2948
805.91	3112
806.052	3108
806.194	3051
806.336	3241
806.478	3047
806.62	2918
806.762	2979
806.904	3058
807.046	3150
807.188	2929
807.33	2895
807.472	3001
807.614	2906
807.756	2967
807.898	2914
808.04	2891
808.182	2986
808.324	2925
808.465	2906
808.607	2880
808.749	2769
808.891	2845
809.033	2933
809.174	2956
809.316	2872
809.458	2910
809.6	2792
809.741	2758
809.883	2746
810.025	2861
810.166	2857
810.308	2834
810.45	2864
810.591	2796
810.733	2762
810.875	2849
811.016	2781
811.158	2769
811.299	2815
811.441	2918
811.582	2864
811.724	2811
811.865	2811
812.007	2929
812.148	2861
812.29	2830
812.431	2910
812.573	2933
812.714	2963
812.855	3017
812.997	3017
813.138	3104
813.279	3032
813.421	2990
813.562	2933
813.703	2899
813.845	2929
813.986	2773
814.127	2739
814.268	2796
814.41	2834
814.551	2804
814.692	2868
814.833	2823
814.974	2902
815.115	2971
815.256	2857
815.397	2845
815.539	2853
815.68	2826
815.821	2796
815.962	2910
816.103	2910
816.244	2872
816.385	2872
816.526	2963
816.666	2910
816.807	2731
816.948	2864
817.089	2902
817.23	2872
817.371	2739
817.512	2796
817.653	2823
817.793	2819
817.934	2864
818.075	2963
818.216	2956
818.356	3017
818.497	2845
818.638	2762
818.778	2830
818.919	2769
819.06	2762
819.2	2883
819.341	2811
819.481	2807
819.622	2906
819.762	3077
819.903	3051
820.043	2937
820.184	2845
820.324	2895
820.465	3001
820.605	3001
820.746	3020
820.886	2960
821.026	3085
821.167	3138
821.307	3283
821.447	3256
821.588	3207
821.728	3218
821.868	3169
822.008	3093
822.149	3199
822.289	3214
822.429	3058
822.569	3062
822.709	3157
822.849	3024
822.99	3055
823.13	3146
823.27	3188
823.41	3104
823.55	3154
823.69	3176
823.83	3188
823.97	3058
824.11	3020
824.25	2994
824.389	3009
824.529	3112
824.669	3039
824.809	3176
824.949	3237
825.089	3249
825.228	3104
825.368	3001
825.508	2956
825.648	2971
825.787	2979
825.927	3013
826.067	2979
826.206	2948
826.346	3020
826.485	3062
826.625	3085
826.765	3260
826.904	3184
827.044	2998
827.183	2929
827.323	2861
827.462	2979
827.601	2883
827.741	2910
827.88	2971
828.02	2861
828.159	2975
828.298	3093
828.437	3131
828.577	3017
828.716	3233
828.855	3089
828.994	2929
829.134	2899
829.273	2914
829.412	2853
829.551	2838
829.69	2883
829.829	2967
829.968	3135
830.107	3001
830.246	3066
830.385	2922
830.524	2880
830.663	2811
830.802	2743
830.941	2655
831.08	2629
831.219	2777
831.357	2743
831.496	2941
831.635	2697
831.774	2651
831.913	2659
832.051	2533
832.19	2522
832.329	2708
832.467	2552
832.606	2484
832.744	2579
832.883	2549
833.022	2579
833.16	2606
833.299	2686
833.437	2667
833.576	2655
833.714	2670
833.852	2731
833.991	2766
834.129	2788
834.267	2826
834.406	2804
834.544	2834
834.682	2883
834.821	2868
834.959	3058
835.097	2918
835.235	3074
835.373	3001
835.511	3017
835.65	2975
835.788	2944
835.926	2826
836.064	2800
836.202	2853
836.34	3097
836.478	3169
836.615	3047
836.753	3157
836.891	3173
837.029	3131
837.167	3093
837.305	3062
837.443	3039
837.58	2963
837.718	3131
837.856	3020
837.993	3077
838.131	3062
838.269	3100
838.406	3104
838.544	3062
838.681	2902
838.819	2902
838.956	2811
839.094	2819
839.231	2929
839.369	3001
839.506	3355
839.643	3207
839.781	3009
839.918	2960
840.055	3013
840.193	3047
840.33	3055
840.467	3047
840.604	3100
840.742	3405
840.879	3039
841.016	3020
841.153	3112
841.29	3332
841.427	3336
841.564	3256
841.701	3272
841.838	3203
841.975	3150
842.112	3211
842.249	3066
842.385	3043
842.522	3180
842.659	3097
842.796	3062
842.933	3123
843.069	3070
843.206	3024
843.343	3165
843.479	3112
843.616	3081
843.752	2910
843.889	2880
844.025	3043
844.162	2941
844.298	3066
844.435	2925
844.571	2910
844.708	3074
844.844	3165
844.98	3199
845.117	3173
845.253	3062
845.389	2990
845.525	3077
845.661	3150
845.798	3005
845.934	3093
846.07	2986
846.206	3192
846.342	3321
846.478	3211
846.614	3074
846.75	3028
846.886	3013
847.022	3233
847.158	3142
847.294	3188
847.429	3180
847.565	3199
847.701	3439
847.837	3024
847.972	2994
848.108	3142
848.244	3180
848.379	2979
848.515	2952
848.65	2929
848.786	2929
848.921	2994
849.057	3085
849.192	3119
849.328	3089
849.463	3104
849.598	3036
849.734	3066
849.869	2967
850.004	2899
850.14	2944
850.275	2906
850.41	2838
850.545	2891
850.68	2895
850.815	2952
850.95	2990
851.085	3211
851.22	3074
851.355	3036
851.49	2979
851.625	2979
851.76	2990
851.895	2910
852.03	2914
852.165	2998
852.299	3097
852.434	3157
852.569	3165
852.703	3142
852.838	3218
852.973	3294
853.107	3317
853.242	3161
853.376	3093
853.511	3009
853.645	3032
853.78	3195
853.914	3123
854.048	3104
854.183	3097
854.317	3127
854.451	3275
854.585	3127
854.72	3051
854.854	3195
854.988	3043
855.122	3070
855.256	2952
855.39	3138
855.524	3241
855.658	3207
855.792	3127
855.926	3154
856.06	3214
856.194	3283
856.327	3138
856.461	3062
856.595	3074
856.729	3116
856.862	3203
856.996	3180
857.13	3199
857.263	3203
857.397	3260
857.53	3127
857.664	3165
857.797	3253
857.931	3256
858.064	3203
858.197	3207
858.331	3123
858.464	3100
858.597	3013
858.731	3108
858.864	3116
858.997	3074
859.13	3169
859.263	3192
859.396	3165
859.529	3127
859.662	3051
859.795	3039
859.928	3100
860.061	3233
860.194	3291
860.327	3100
860.46	3077
860.592	3214
860.725	3241
860.858	3222
860.99	3127
861.123	3039
861.256	3039
861.388	3123
861.521	3934
861.653	3017
861.786	2944
861.918	3020
862.05	3036
862.183	3081
862.315	3123
862.447	3165
862.58	3100
862.712	2963
862.844	2883
862.976	2998
863.108	3005
863.24	3317
863.372	2826
863.504	2937
863.636	2952
863.768	3066
863.9	2986
864.032	2876
864.164	2910
864.296	3020
864.428	3070
864.559	3077
864.691	3017
864.823	3062
864.954	3036
865.086	3005
865.217	3005
865.349	2952
865.48	2960
865.612	2998
865.743	3154
865.875	2979
866.006	2914
866.137	2975
866.269	2933
866.4	2952
866.531	2891
866.662	2880
866.793	2910
866.924	2861
867.055	2979
867.186	2944
867.317	2853
867.448	2845
867.579	2842
867.71	2861
867.841	2830
867.972	2864
868.103	2887
868.233	2880
868.364	2864
868.495	2933
868.625	3066
868.756	3131
868.886	2982
869.017	2971
869.147	3161
869.278	3199
869.408	3009
869.539	3024
869.669	3074
869.799	3024
869.929	3108
870.06	3127
870.19	3294
870.32	3264
870.45	3233
870.58	3317
870.71	3458
870.84	3412
870.97	3256
871.1	3256
871.23	3488
871.36	3469
871.489	3370
871.619	3412
871.749	3416
871.879	3420
872.008	3469
872.138	3374
872.267	3230
872.397	3161
872.526	3089
872.656	3028
872.785	3093
872.915	3211
873.044	3351
873.173	3211
873.303	3230
873.432	3237
873.561	3256
873.69	3165
873.819	3138
873.948	3195
874.077	3108
874.206	3024
874.335	3070
874.464	3226
874.593	3321
874.722	3226
874.851	3367
874.979	3325
875.108	3283
875.237	3180
875.365	3116
875.494	3154
875.623	3264
875.751	3081
875.88	3104
876.008	3211
876.136	3203
876.265	3348
876.393	3485
876.521	3439
876.65	3386
876.778	3321
876.906	3218
877.034	3188
877.162	3241
877.29	3150
877.418	3195
877.546	3211
877.674	3256
877.802	3230
877.93	3188
878.058	3097
878.185	3119
878.313	3192
878.441	3184
878.568	3066
878.696	3150
878.824	3233
878.951	3291
879.079	3397
879.206	3625
879.333	3424
879.461	3306
879.588	3348
879.715	3458
879.842	3591
879.97	3382
880.097	3127
880.224	3119
880.351	3176
880.478	3176
880.605	3176
880.732	3173
880.859	3485
880.986	3294
881.112	3294
881.239	3176
881.366	3097
881.493	3001
881.619	2971
881.746	3051
881.872	3058
881.999	3089
882.125	3112
882.252	3203
882.378	3275
882.505	3393
882.631	3268
882.757	3116
882.883	3199
883.01	3188
883.136	3119
883.262	3058
883.388	3062
883.514	3268
883.64	3317
883.766	3283
883.892	3138
884.018	3222
884.143	3382
884.269	3504
884.395	3203
884.52	3161
884.646	3138
884.772	3119
884.897	3081
885.023	3222
885.148	3302
885.274	3382
885.399	3367
885.524	3253
885.65	3260
885.775	3310
885.9	3287
886.025	3412
886.15	3412
886.275	3298
886.4	3298
886.525	3283
886.65	3294
886.775	3310
886.9	3481
887.025	3652
887.149	3386
887.274	3264
887.399	3199
887.523	3188
887.648	3211
887.773	3241
887.897	3378
888.021	3424
888.146	3336
888.27	3469
888.395	3538
888.519	3447
888.643	3469
888.767	3488
888.891	3325
889.015	3275
889.139	3306
889.263	3264
889.387	3447
889.511	3572
889.635	3458
889.759	3291
889.883	3340
890.006	3409
890.13	3538
890.254	3317
890.377	3386
890.501	3230
890.624	3211
890.748	3336
890.871	3203
890.995	3154
891.118	3146
891.241	3226
891.364	3253
891.488	3336
891.611	3230
891.734	3264
891.857	3329
891.98	3241
892.103	3370
892.226	3313
892.349	3253
892.471	3188
892.594	3268
892.717	3313
892.839	3306
892.962	3340
893.085	3355
893.207	3378
893.33	3176
893.452	3218
893.575	3370
893.697	3279
893.819	3473
893.941	3584
894.064	3469
894.186	3313
894.308	3298
894.43	3515
894.552	3629
894.674	3443
894.796	3336
894.918	3329
895.04	3302
895.161	3431
895.283	3431
895.405	3359
895.526	3443
895.648	3447
895.769	3458
895.891	3496
896.012	3496
896.134	3481
896.255	3447
896.376	3378
896.498	3382
896.619	3439
896.74	3397
896.861	3447
896.982	3751
897.103	3884
897.224	3644
897.345	3534
897.466	3462
897.587	3545
897.708	3686
897.828	3561
897.949	3481
898.07	3317
898.19	3435
898.311	3663
898.431	3454
898.552	3545
898.672	3606
898.792	3622
898.913	3564
899.033	3450
899.153	3351
899.273	3245
899.393	3329
899.513	3367
899.633	3348
899.753	3389
899.873	3332
899.993	3420
900.113	3367
900.232	3431
900.352	3348
900.472	3355
900.591	3256
900.711	3302
900.83	3260
900.95	3431
901.069	3485
901.189	3351
901.308	3230
901.427	3135
901.546	3233
901.665	3321
901.784	3374
901.904	3272
902.023	3173
902.141	2998
902.26	3005
902.379	3176
902.498	3089
902.617	3116
902.735	3245
902.854	3260
902.973	3233
903.091	3119
903.21	3070
903.328	3154
903.446	3165
903.565	3138
903.683	3222
903.801	3142
903.919	3249
904.038	3287
904.156	3192
904.274	3329
904.392	3272
904.51	3329
904.627	3351
904.745	3435
904.863	3500
904.981	3294
905.098	3203
905.216	3268
905.334	3321
905.451	3351
905.569	3302
905.686	3416
905.803	3481
905.921	3321
906.038	3462
906.155	3428
906.272	3275
906.389	3340
906.506	3241
906.623	3272
906.74	3329
906.857	3176
906.974	3310
907.091	3466
907.208	3564
907.324	3481
907.441	3405
907.557	3218
907.674	3287
907.79	3264
907.907	3332
908.023	3409
908.139	3389
908.256	3344
908.372	3435
908.488	3386
908.604	3325
908.72	3230
908.836	3317
908.952	3317
909.068	3340
909.184	3542
909.3	3458
909.415	3496
909.531	3488
909.647	3287
909.762	3325
909.878	3298
909.993	3435
910.108	3378
910.224	3405
910.339	3431
910.454	3363
910.57	3317
910.685	3291
910.8	3641
910.915	3584
911.03	3450
911.145	3302
911.259	3317
911.374	3336
911.489	3249
911.604	3230
911.718	3138
911.833	3214
911.947	3081
912.062	3020
912.176	3207
912.291	3241
912.405	3237
912.519	3443
912.633	3523
912.748	3344
912.862	3351
912.976	3249
913.09	3104
913.204	3112
913.318	3279
913.431	3332
913.545	3336
913.659	3435
913.772	3355
913.886	3279
914	3245
914.113	3359
914.226	3424
914.34	3435
914.453	3249
914.566	3469
914.68	3363
914.793	3332
914.906	3184
915.019	3161
915.132	3116
915.245	3180
915.358	3264
915.47	3249
915.583	3279
915.696	3340
915.809	3435
915.921	3469
916.034	3287
916.146	3272
916.259	3241
916.371	3401
916.483	3416
916.595	3313
916.708	3351
916.82	3367
916.932	3374
917.044	3367
917.156	3363
917.268	3237
917.38	3310
917.491	3351
917.603	3374
917.715	3481
917.826	3511
917.938	3428
918.049	3313
918.161	3458
918.272	3561
918.384	3584
918.495	3507
918.606	3367
918.717	3310
918.828	3393
918.939	3424
919.05	3321
919.161	3370
919.272	3218
919.383	3340
919.494	3530
919.604	3679
919.715	3488
919.826	3435
919.936	3488
920.047	3637
920.157	3545
920.267	3789
920.378	3629
920.488	3591
920.598	3797
920.708	3994
920.818	3896
920.928	3842
921.038	4044
921.148	4036
921.258	3717
921.368	3656
921.477	3603
921.587	3591
921.697	3477
921.806	3679
921.916	3530
922.025	3359
922.134	3386
922.244	3310
922.353	3458
922.462	3264
922.571	3272
922.68	3123
922.789	3108
922.898	3192
923.007	3116
923.116	3226
923.224	3184
923.333	3222
923.442	3093
923.55	3093
923.659	3195
923.767	3230
923.876	3112
923.984	3283
924.092	3104
924.201	3230
924.309	3237
924.417	3279
924.525	3169
924.633	3241
924.741	4006
924.849	3070
924.956	3268
925.064	3131
925.172	3062
925.279	3119
925.387	3233
925.494	3214
925.602	3386
925.709	3336
925.816	3207
925.924	3355
926.031	3378
926.138	3302
926.245	3351
926.352	3268
926.459	3420
926.566	3504
926.673	3313
926.779	3256
926.886	3287
926.993	3169
927.099	3180
927.206	3142
927.312	3146
927.419	3260
927.525	3230
927.631	3302
927.737	3142
927.843	3150
927.95	3055
928.056	3180
928.162	3180
928.267	3298
928.373	3789
928.479	3310
928.585	3097
928.69	3226
928.796	3268
928.901	3199
929.007	3055
929.112	3253
929.218	3211
929.323	3176
929.428	3169
929.533	3348
929.638	3165
929.743	3161
929.848	3310
929.953	3218
930.058	3131
930.163	3024
930.267	3112
930.372	3218
930.477	3043
930.581	3336
930.685	3230
930.79	3074
930.894	3112
930.998	3089
931.103	3298
931.207	2963
931.311	2971
931.415	2941
931.519	2792
931.623	2811
