Data from test_V78500241_481.txt Node
Date: Fri Mar 25 16:18:32 CST 2022
User: usil
Spectrometer: V785-0024
Trigger mode: 0
Integration Time (sec): 4.000000E-1
Scans to average: 1
Nonlinearity correction enabled: false
Boxcar width: 0
Storing dark spectrum: false
XAxis mode: Wavelengths
Number of Pixels in Spectrum: 1024
>>>>>Begin Spectral Data<<<<<
801.071	2887
801.214	2948
801.356	2899
801.499	2902
801.641	2864
801.783	2891
801.926	3032
802.068	2922
802.211	2990
802.353	3036
802.496	2948
802.638	2982
802.78	3043
802.923	3085
803.065	2990
803.208	2891
803.35	2933
803.492	2914
803.635	2944
803.777	2746
803.919	2876
804.061	3211
804.204	2960
804.346	2887
804.488	2823
804.63	2944
804.773	2868
804.915	2906
805.057	3081
805.199	2937
805.341	2971
805.483	3032
805.626	2963
805.768	2956
805.91	3066
806.052	3097
806.194	3081
806.336	3211
806.478	3043
806.62	2952
806.762	2979
806.904	3047
807.046	3176
807.188	2982
807.33	2887
807.472	2941
807.614	2902
807.756	2971
807.898	2887
808.04	2880
808.182	2979
808.324	2910
808.465	2861
808.607	2861
808.749	2804
808.891	2788
809.033	2967
809.174	2967
809.316	2864
809.458	2876
809.6	2781
809.741	2785
809.883	2758
810.025	2876
810.166	2868
810.308	2872
810.45	2838
810.591	2792
810.733	2758
810.875	2823
811.016	2754
811.158	2716
811.299	2842
811.441	2918
811.582	2891
811.724	2811
811.865	2807
812.007	2895
812.148	2857
812.29	2842
812.431	2906
812.573	2956
812.714	2956
812.855	3039
812.997	3058
813.138	3100
813.279	2982
813.421	2941
813.562	2963
813.703	2880
813.845	2922
813.986	2762
814.127	2743
814.268	2811
814.41	2842
814.551	2796
814.692	2853
814.833	2804
814.974	2887
815.115	2956
815.256	2826
815.397	2804
815.539	2815
815.68	2804
815.821	2785
815.962	2922
816.103	2914
816.244	2872
816.385	2883
816.526	2986
816.666	2922
816.807	2697
816.948	2853
817.089	2864
817.23	2849
817.371	2754
817.512	2819
817.653	2830
817.793	2815
817.934	2883
818.075	2971
818.216	2986
818.356	3028
818.497	2876
818.638	2773
818.778	2853
818.919	2800
819.06	2743
819.2	2922
819.341	2815
819.481	2815
819.622	2979
819.762	3062
819.903	3051
820.043	2910
820.184	2918
820.324	2883
820.465	3001
820.605	3013
820.746	3017
820.886	2918
821.026	3093
821.167	3157
821.307	3260
821.447	3279
821.588	3283
821.728	3157
821.868	3173
822.008	3085
822.149	3184
822.289	3241
822.429	3066
822.569	3089
822.709	3207
822.849	3013
822.99	3051
823.13	3176
823.27	3199
823.41	3070
823.55	3161
823.69	3157
823.83	3211
823.97	3127
824.11	3039
824.25	3001
824.389	3089
824.529	3135
824.669	3058
824.809	3192
824.949	3222
825.089	3203
825.228	3154
825.368	3036
825.508	2956
825.648	2948
825.787	3013
825.927	3001
826.067	2952
826.206	2998
826.346	3047
826.485	3085
826.625	3104
826.765	3275
826.904	3184
827.044	2986
827.183	2948
827.323	2876
827.462	2994
827.601	2891
827.741	2944
827.88	2937
828.02	2842
828.159	2925
828.298	3039
828.437	3104
828.577	3093
828.716	3211
828.855	3104
828.994	2925
829.134	2868
829.273	2925
829.412	2861
829.551	2883
829.69	2902
829.829	2967
829.968	3173
830.107	2975
830.246	3036
830.385	2895
830.524	2849
830.663	2815
830.802	2716
830.941	2636
831.08	2613
831.219	2758
831.357	2762
831.496	2956
831.635	2727
831.774	2610
831.913	2640
832.051	2587
832.19	2541
832.329	2663
832.467	2541
832.606	2492
832.744	2587
832.883	2598
833.022	2617
833.16	2625
833.299	2678
833.437	2716
833.576	2697
833.714	2727
833.852	2735
833.991	2769
834.129	2807
834.267	2815
834.406	2796
834.544	2876
834.682	2842
834.821	2857
834.959	3009
835.097	2902
835.235	3043
835.373	3009
835.511	3028
835.65	2922
835.788	2990
835.926	2811
836.064	2800
836.202	2857
836.34	3066
836.478	3123
836.615	3051
836.753	3142
836.891	3211
837.029	3150
837.167	3077
837.305	3032
837.443	3043
837.58	2956
837.718	3138
837.856	3055
837.993	3032
838.131	3055
838.269	3081
838.406	3077
838.544	3081
838.681	2933
838.819	2887
838.956	2807
839.094	2857
839.231	2902
839.369	2990
839.506	3332
839.643	3218
839.781	2971
839.918	2948
840.055	3009
840.193	3055
840.33	3047
840.467	3085
840.604	3146
840.742	3401
840.879	3062
841.016	3077
841.153	3112
841.29	3340
841.427	3260
841.564	3241
841.701	3283
841.838	3230
841.975	3150
842.112	3184
842.249	3039
842.385	3062
842.522	3214
842.659	3131
842.796	3051
842.933	3093
843.069	3058
843.206	2998
843.343	3150
843.479	3112
843.616	3131
843.752	2902
843.889	2872
844.025	3089
844.162	2876
844.298	3051
844.435	2922
844.571	2944
844.708	3024
844.844	3188
844.98	3233
845.117	3214
845.253	3051
845.389	2990
845.525	3127
845.661	3081
845.798	2971
845.934	3123
846.07	3028
846.206	3195
846.342	3287
846.478	3199
846.614	3066
846.75	3028
846.886	2986
847.022	3222
847.158	3100
847.294	3188
847.429	3233
847.565	3169
847.701	3492
847.837	2990
847.972	3013
848.108	3142
848.244	3146
848.379	2948
848.515	2941
848.65	2960
848.786	2967
848.921	2994
849.057	3062
849.192	3161
849.328	3058
849.463	3127
849.598	3032
849.734	3013
849.869	2982
850.004	2868
850.14	2956
850.275	2895
850.41	2819
850.545	2880
850.68	2929
850.815	2948
850.95	2925
851.085	3230
851.22	3074
851.355	3051
851.49	2948
851.625	2990
851.76	3017
851.895	2933
852.03	2864
852.165	2979
852.299	3077
852.434	3218
852.569	3146
852.703	3119
852.838	3214
852.973	3321
853.107	3298
853.242	3116
853.376	3077
853.511	2929
853.645	3047
853.78	3199
853.914	3093
854.048	3093
854.183	3089
854.317	3146
854.451	3325
854.585	3104
854.72	3093
854.854	3195
854.988	3013
855.122	3108
855.256	2941
855.39	3100
855.524	3245
855.658	3157
855.792	3157
855.926	3188
856.06	3211
856.194	3279
856.327	3180
856.461	3081
856.595	3074
856.729	3066
856.862	3192
856.996	3142
857.13	3123
857.263	3192
857.397	3245
857.53	3085
857.664	3176
857.797	3222
857.931	3306
858.064	3150
858.197	3211
858.331	3154
858.464	3123
858.597	2979
858.731	3081
858.864	3116
858.997	3119
859.13	3142
859.263	3154
859.396	3214
859.529	3112
859.662	3055
859.795	3028
859.928	3112
860.061	3264
860.194	3279
860.327	3127
860.46	3055
860.592	3245
860.725	3256
860.858	3275
860.99	3051
861.123	3039
861.256	3055
861.388	3108
861.521	3850
861.653	3001
861.786	3051
861.918	3028
862.05	3039
862.183	3085
862.315	3104
862.447	3188
862.58	3093
862.712	2929
862.844	2842
862.976	3001
863.108	2986
863.24	3340
863.372	2872
863.504	2967
863.636	2956
863.768	2998
863.9	2994
864.032	2891
864.164	2937
864.296	3017
864.428	3085
864.559	3085
864.691	3058
864.823	3074
864.954	2967
865.086	3043
865.217	2941
865.349	2906
865.48	2975
865.612	2986
865.743	3135
865.875	2979
866.006	2941
866.137	2956
866.269	2910
866.4	2922
866.531	2872
866.662	2868
866.793	2880
866.924	2880
867.055	2967
867.186	2887
867.317	2861
867.448	2807
867.579	2849
867.71	2792
867.841	2785
867.972	2845
868.103	2883
868.233	2861
868.364	2845
868.495	2872
868.625	3017
868.756	3119
868.886	2952
869.017	2982
869.147	3123
869.278	3108
869.408	3043
869.539	2994
869.669	3108
869.799	3020
869.929	3112
870.06	3058
870.19	3332
870.32	3302
870.45	3233
870.58	3348
870.71	3443
870.84	3431
870.97	3298
871.1	3195
871.23	3477
871.36	3431
871.489	3351
871.619	3336
871.749	3389
871.879	3431
872.008	3466
872.138	3393
872.267	3279
872.397	3142
872.526	3089
872.656	3005
872.785	3104
872.915	3253
873.044	3336
873.173	3226
873.303	3207
873.432	3203
873.561	3256
873.69	3154
873.819	3154
873.948	3241
874.077	3108
874.206	3070
874.335	3119
874.464	3203
874.593	3370
874.722	3268
874.851	3420
874.979	3378
875.108	3363
875.237	3211
875.365	3165
875.494	3165
875.623	3283
875.751	3100
875.88	3154
876.008	3237
876.136	3253
876.265	3443
876.393	3584
876.521	3412
876.65	3401
876.778	3363
876.906	3264
877.034	3237
877.162	3260
877.29	3203
877.418	3298
877.546	3275
877.674	3291
877.802	3287
877.93	3222
878.058	3184
878.185	3165
878.313	3268
878.441	3222
878.568	3104
878.696	3218
878.824	3272
878.951	3329
879.079	3473
879.206	3625
879.333	3458
879.461	3344
879.588	3401
879.715	3488
879.842	3622
879.97	3458
880.097	3203
880.224	3173
880.351	3214
880.478	3291
880.605	3207
880.732	3195
880.859	3526
880.986	3351
881.112	3340
881.239	3241
881.366	3119
881.493	3058
881.619	3097
881.746	3146
881.872	3112
881.999	3173
882.125	3192
882.252	3306
882.378	3310
882.505	3473
882.631	3291
882.757	3199
882.883	3260
883.01	3264
883.136	3203
883.262	3131
883.388	3176
883.514	3359
883.64	3416
883.766	3336
883.892	3203
884.018	3195
884.143	3431
884.269	3549
884.395	3226
884.52	3173
884.646	3241
884.772	3157
884.897	3146
885.023	3241
885.148	3386
885.274	3481
885.399	3435
885.524	3317
885.65	3321
885.775	3283
885.9	3321
886.025	3447
886.15	3401
886.275	3336
886.4	3291
886.525	3348
886.65	3321
886.775	3275
886.9	3549
887.025	3686
887.149	3409
887.274	3279
887.399	3211
887.523	3260
887.648	3218
887.773	3222
887.897	3389
888.021	3428
888.146	3332
888.27	3488
888.395	3561
888.519	3466
888.643	3477
888.767	3504
888.891	3351
889.015	3256
889.139	3332
889.263	3226
889.387	3450
889.511	3530
889.635	3462
889.759	3302
889.883	3310
890.006	3393
890.13	3504
890.254	3306
890.377	3416
890.501	3245
890.624	3214
890.748	3321
890.871	3207
890.995	3104
891.118	3058
891.241	3203
891.364	3211
891.488	3325
891.611	3203
891.734	3294
891.857	3310
891.98	3249
892.103	3378
892.226	3283
892.349	3279
892.471	3150
892.594	3264
892.717	3321
892.839	3298
892.962	3302
893.085	3374
893.207	3344
893.33	3176
893.452	3241
893.575	3382
893.697	3298
893.819	3515
893.941	3542
894.064	3496
894.186	3287
894.308	3310
894.43	3492
894.552	3591
894.674	3492
894.796	3291
894.918	3367
895.04	3294
895.161	3469
895.283	3428
895.405	3325
895.526	3378
895.648	3477
895.769	3469
895.891	3469
896.012	3500
896.134	3485
896.255	3424
896.376	3389
896.498	3382
896.619	3416
896.74	3401
896.861	3435
896.982	3724
897.103	3831
897.224	3603
897.345	3587
897.466	3447
897.587	3549
897.708	3637
897.828	3584
897.949	3477
898.07	3351
898.19	3397
898.311	3622
898.431	3469
898.552	3572
898.672	3610
898.792	3580
898.913	3564
899.033	3458
899.153	3317
899.273	3245
899.393	3310
899.513	3344
899.633	3397
899.753	3378
899.873	3370
899.993	3447
900.113	3370
900.232	3435
900.352	3363
900.472	3317
900.591	3241
900.711	3310
900.83	3260
900.95	3424
901.069	3507
901.189	3374
901.308	3207
901.427	3138
901.546	3203
901.665	3344
901.784	3344
901.904	3188
902.023	3165
902.141	3039
902.26	3005
902.379	3176
902.498	3119
902.617	3100
902.735	3211
902.854	3275
902.973	3226
903.091	3047
903.21	3085
903.328	3173
903.446	3131
903.565	3176
903.683	3233
903.801	3188
903.919	3268
904.038	3344
904.156	3192
904.274	3321
904.392	3272
904.51	3340
904.627	3359
904.745	3481
904.863	3519
904.981	3291
905.098	3211
905.216	3260
905.334	3310
905.451	3310
905.569	3336
905.686	3447
905.803	3485
905.921	3321
906.038	3473
906.155	3363
906.272	3298
906.389	3321
906.506	3298
906.623	3317
906.74	3306
906.857	3214
906.974	3317
907.091	3507
907.208	3599
907.324	3492
907.441	3435
907.557	3256
907.674	3268
907.79	3245
907.907	3291
908.023	3431
908.139	3409
908.256	3325
908.372	3409
908.488	3416
908.604	3237
908.72	3230
908.836	3317
908.952	3313
909.068	3386
909.184	3504
909.3	3412
909.415	3530
909.531	3485
909.647	3298
909.762	3344
909.878	3302
909.993	3386
910.108	3374
910.224	3355
910.339	3473
910.454	3389
910.57	3298
910.685	3287
910.8	3603
910.915	3549
911.03	3485
911.145	3294
911.259	3363
911.374	3329
911.489	3233
911.604	3253
911.718	3161
911.833	3180
911.947	3024
912.062	3036
912.176	3199
912.291	3211
912.405	3211
912.519	3416
912.633	3500
912.748	3321
912.862	3291
912.976	3211
913.09	3097
913.204	3173
913.318	3230
913.431	3317
913.545	3386
913.659	3405
913.772	3378
913.886	3298
914	3222
914.113	3351
914.226	3435
914.34	3393
914.453	3249
914.566	3466
914.68	3302
914.793	3374
914.906	3138
915.019	3123
915.132	3077
915.245	3195
915.358	3226
915.47	3260
915.583	3237
915.696	3294
915.809	3420
915.921	3481
916.034	3256
916.146	3275
916.259	3283
916.371	3431
916.483	3367
916.595	3283
916.708	3363
916.82	3363
916.932	3351
917.044	3317
917.156	3382
917.268	3313
917.38	3348
917.491	3344
917.603	3355
917.715	3473
917.826	3458
917.938	3428
918.049	3317
918.161	3428
918.272	3603
918.384	3587
918.495	3488
918.606	3332
918.717	3302
918.828	3367
918.939	3409
919.05	3336
919.161	3405
919.272	3214
919.383	3336
919.494	3500
919.604	3720
919.715	3496
919.826	3458
919.936	3496
920.047	3618
920.157	3557
920.267	3797
920.378	3641
920.488	3591
920.598	3781
920.708	3979
920.818	3831
920.928	3865
921.038	4040
921.148	4067
921.258	3701
921.368	3633
921.477	3580
921.587	3542
921.697	3511
921.806	3663
921.916	3549
922.025	3348
922.134	3397
922.244	3336
922.353	3443
922.462	3264
922.571	3272
922.68	3150
922.789	3100
922.898	3165
923.007	3104
923.116	3237
923.224	3180
923.333	3192
923.442	3093
923.55	3077
923.659	3176
923.767	3222
923.876	3142
923.984	3268
924.092	3093
924.201	3188
924.309	3233
924.417	3260
924.525	3222
924.633	3222
924.741	4036
924.849	3070
924.956	3294
925.064	3104
925.172	3081
925.279	3116
925.387	3214
925.494	3207
925.602	3332
925.709	3359
925.816	3195
925.924	3310
926.031	3409
926.138	3325
926.245	3382
926.352	3245
926.459	3447
926.566	3504
926.673	3344
926.779	3279
926.886	3268
926.993	3138
927.099	3138
927.206	3165
927.312	3161
927.419	3237
927.525	3214
927.631	3298
927.737	3127
927.843	3119
927.95	3070
928.056	3161
928.162	3161
928.267	3241
928.373	3827
928.479	3272
928.585	3051
928.69	3214
928.796	3283
928.901	3176
929.007	3062
929.112	3214
929.218	3192
929.323	3173
929.428	3150
929.533	3310
929.638	3116
929.743	3157
929.848	3294
929.953	3192
930.058	3199
930.163	3032
930.267	3077
930.372	3226
930.477	3055
930.581	3332
930.685	3188
930.79	3077
930.894	3150
930.998	3089
931.103	3283
931.207	2960
931.311	2941
931.415	2952
931.519	2807
931.623	2838
