Data from test_V78500241_1885.txt Node
Date: Fri Mar 25 16:28:15 CST 2022
User: usil
Spectrometer: V785-0024
Trigger mode: 0
Integration Time (sec): 4.000000E-1
Scans to average: 1
Nonlinearity correction enabled: false
Boxcar width: 0
Storing dark spectrum: false
XAxis mode: Wavelengths
Number of Pixels in Spectrum: 1024
>>>>>Begin Spectral Data<<<<<
801.071	2925
801.214	2941
801.356	2845
801.499	2918
801.641	2868
801.783	2952
801.926	3032
802.068	2990
802.211	2975
802.353	3036
802.496	2971
802.638	3005
802.78	3062
802.923	3074
803.065	3020
803.208	2887
803.35	2914
803.492	2925
803.635	2933
803.777	2743
803.919	2872
804.061	3176
804.204	2929
804.346	2899
804.488	2834
804.63	2998
804.773	2876
804.915	2922
805.057	3066
805.199	2922
805.341	2990
805.483	3062
805.626	2990
805.768	2975
805.91	3077
806.052	3093
806.194	3036
806.336	3199
806.478	3020
806.62	2960
806.762	2971
806.904	3043
807.046	3169
807.188	2952
807.33	2895
807.472	2982
807.614	2910
807.756	2982
807.898	2941
808.04	2883
808.182	2967
808.324	2929
808.465	2918
808.607	2868
808.749	2781
808.891	2819
809.033	2967
809.174	2967
809.316	2887
809.458	2876
809.6	2731
809.741	2724
809.883	2739
810.025	2876
810.166	2857
810.308	2868
810.45	2895
810.591	2766
810.733	2769
810.875	2819
811.016	2800
811.158	2788
811.299	2807
811.441	2929
811.582	2876
811.724	2796
811.865	2815
812.007	2929
812.148	2899
812.29	2830
812.431	2880
812.573	2914
812.714	2925
812.855	3058
812.997	3009
813.138	3127
813.279	3001
813.421	2956
813.562	2986
813.703	2891
813.845	2880
813.986	2758
814.127	2735
814.268	2804
814.41	2857
814.551	2792
814.692	2823
814.833	2815
814.974	2853
815.115	2982
815.256	2830
815.397	2804
815.539	2876
815.68	2792
815.821	2785
815.962	2944
816.103	2918
816.244	2887
816.385	2864
816.526	2952
816.666	2899
816.807	2727
816.948	2887
817.089	2887
817.23	2845
817.371	2746
817.512	2785
817.653	2842
817.793	2777
817.934	2861
818.075	2952
818.216	3020
818.356	3043
818.497	2902
818.638	2792
818.778	2807
818.919	2807
819.06	2746
819.2	2906
819.341	2796
819.481	2785
819.622	2891
819.762	3085
819.903	3051
820.043	2925
820.184	2899
820.324	2910
820.465	3036
820.605	3017
820.746	3058
820.886	2929
821.026	3104
821.167	3161
821.307	3241
821.447	3260
821.588	3264
821.728	3203
821.868	3184
822.008	3047
822.149	3195
822.289	3211
822.429	3097
822.569	3104
822.709	3157
822.849	3036
822.99	3024
823.13	3135
823.27	3199
823.41	3104
823.55	3157
823.69	3146
823.83	3169
823.97	3089
824.11	3005
824.25	2998
824.389	3043
824.529	3146
824.669	3017
824.809	3192
824.949	3275
825.089	3199
825.228	3154
825.368	2998
825.508	3001
825.648	2948
825.787	3020
825.927	3024
826.067	2948
826.206	2944
826.346	3036
826.485	3036
826.625	3116
826.765	3253
826.904	3222
827.044	2975
827.183	2914
827.323	2823
827.462	2956
827.601	2918
827.741	2906
827.88	2937
828.02	2845
828.159	2986
828.298	3024
828.437	3085
828.577	3077
828.716	3180
828.855	3062
828.994	2944
829.134	2861
829.273	2918
829.412	2864
829.551	2861
829.69	2872
829.829	2952
829.968	3100
830.107	3001
830.246	3017
830.385	2899
830.524	2838
830.663	2819
830.802	2743
830.941	2667
831.08	2625
831.219	2781
831.357	2777
831.496	2967
831.635	2743
831.774	2625
831.913	2644
832.051	2564
832.19	2564
832.329	2727
832.467	2518
832.606	2492
832.744	2571
832.883	2552
833.022	2598
833.16	2659
833.299	2682
833.437	2712
833.576	2693
833.714	2686
833.852	2758
833.991	2758
834.129	2849
834.267	2819
834.406	2792
834.544	2883
834.682	2883
834.821	2880
834.959	3074
835.097	2887
835.235	3028
835.373	2986
835.511	3047
835.65	2925
835.788	2982
835.926	2834
836.064	2826
836.202	2853
836.34	3108
836.478	3142
836.615	3047
836.753	3154
836.891	3195
837.029	3146
837.167	3108
837.305	3062
837.443	3043
837.58	2937
837.718	3089
837.856	3062
837.993	3055
838.131	3112
838.269	3085
838.406	3085
838.544	3074
838.681	2944
838.819	2899
838.956	2807
839.094	2804
839.231	2925
839.369	3013
839.506	3389
839.643	3230
839.781	2990
839.918	2963
840.055	3081
840.193	3032
840.33	3039
840.467	3085
840.604	3108
840.742	3393
840.879	3058
841.016	3036
841.153	3108
841.29	3363
841.427	3287
841.564	3249
841.701	3306
841.838	3188
841.975	3176
842.112	3169
842.249	3077
842.385	3039
842.522	3253
842.659	3081
842.796	3032
842.933	3116
843.069	3017
843.206	3009
843.343	3146
843.479	3062
843.616	3112
843.752	2857
843.889	2838
844.025	3100
844.162	2853
844.298	3081
844.435	2918
844.571	2895
844.708	3051
844.844	3176
844.98	3260
845.117	3135
845.253	3039
845.389	2971
845.525	3108
845.661	3070
845.798	3001
845.934	3100
846.07	3028
846.206	3214
846.342	3310
846.478	3218
846.614	3119
846.75	3020
846.886	3024
847.022	3230
847.158	3138
847.294	3192
847.429	3233
847.565	3226
847.701	3443
847.837	3024
847.972	2998
848.108	3165
848.244	3138
848.379	2994
848.515	2948
848.65	2922
848.786	2960
848.921	3009
849.057	3112
849.192	3112
849.328	3089
849.463	3108
849.598	3051
849.734	3047
849.869	2967
850.004	2883
850.14	2922
850.275	2941
850.41	2796
850.545	2883
850.68	2948
850.815	2963
850.95	2967
851.085	3195
851.22	3089
851.355	3013
851.49	2956
851.625	3013
851.76	2979
851.895	2944
852.03	2933
852.165	3043
852.299	3127
852.434	3199
852.569	3085
852.703	3131
852.838	3249
852.973	3363
853.107	3348
853.242	3157
853.376	3077
853.511	2971
853.645	3055
853.78	3233
853.914	3150
854.048	3119
854.183	3077
854.317	3165
854.451	3306
854.585	3119
854.72	3074
854.854	3169
854.988	3058
855.122	3066
855.256	2952
855.39	3154
855.524	3237
855.658	3165
855.792	3138
855.926	3203
856.06	3195
856.194	3233
856.327	3157
856.461	3081
856.595	3077
856.729	3116
856.862	3226
856.996	3116
857.13	3154
857.263	3207
857.397	3260
857.53	3097
857.664	3180
857.797	3253
857.931	3218
858.064	3146
858.197	3176
858.331	3142
858.464	3104
858.597	2979
858.731	3100
858.864	3119
858.997	3077
859.13	3180
859.263	3184
859.396	3188
859.529	3119
859.662	3085
859.795	3001
859.928	3142
860.061	3253
860.194	3302
860.327	3100
860.46	3047
860.592	3245
860.725	3249
860.858	3241
860.99	3066
861.123	3028
861.256	3036
861.388	3154
861.521	3770
861.653	3005
861.786	2971
861.918	2990
862.05	3043
862.183	3104
862.315	3135
862.447	3207
862.58	3077
862.712	2937
862.844	2864
862.976	2982
863.108	2986
863.24	3283
863.372	2887
863.504	2979
863.636	2982
863.768	3009
863.9	2944
864.032	2910
864.164	2971
864.296	3009
864.428	3097
864.559	3074
864.691	3047
864.823	3051
864.954	3020
865.086	3039
865.217	2929
865.349	2952
865.48	2975
865.612	3020
865.743	3165
865.875	2998
866.006	2918
866.137	2956
866.269	2967
866.4	2914
866.531	2883
866.662	2868
866.793	2880
866.924	2887
867.055	2963
867.186	2929
867.317	2864
867.448	2845
867.579	2834
867.71	2872
867.841	2800
867.972	2868
868.103	2883
868.233	2861
868.364	2891
868.495	2891
868.625	3051
868.756	3184
868.886	2952
869.017	2994
869.147	3169
869.278	3142
869.408	3028
869.539	3001
869.669	3097
869.799	3047
869.929	3097
870.06	3157
870.19	3302
870.32	3298
870.45	3283
870.58	3367
870.71	3428
870.84	3435
870.97	3287
871.1	3237
871.23	3458
871.36	3473
871.489	3370
871.619	3397
871.749	3412
871.879	3439
872.008	3443
872.138	3393
872.267	3298
872.397	3169
872.526	3108
872.656	2982
872.785	3062
872.915	3233
873.044	3283
873.173	3241
873.303	3218
873.432	3207
873.561	3218
873.69	3097
873.819	3135
873.948	3188
874.077	3089
874.206	3051
874.335	3108
874.464	3192
874.593	3317
874.722	3230
874.851	3389
874.979	3367
875.108	3302
875.237	3207
875.365	3169
875.494	3100
875.623	3214
875.751	3108
875.88	3131
876.008	3146
876.136	3188
876.265	3382
876.393	3507
876.521	3378
876.65	3401
876.778	3272
876.906	3233
877.034	3184
877.162	3237
877.29	3165
877.418	3275
877.546	3214
877.674	3237
877.802	3218
877.93	3211
878.058	3142
878.185	3127
878.313	3165
878.441	3192
878.568	3081
878.696	3150
878.824	3249
878.951	3317
879.079	3397
879.206	3599
879.333	3424
879.461	3298
879.588	3310
879.715	3416
879.842	3538
879.97	3370
880.097	3176
880.224	3112
880.351	3211
880.478	3203
880.605	3161
880.732	3192
880.859	3439
880.986	3294
881.112	3298
881.239	3195
881.366	3062
881.493	3028
881.619	3036
881.746	3085
881.872	3097
881.999	3089
882.125	3116
882.252	3211
882.378	3253
882.505	3450
882.631	3264
882.757	3112
882.883	3207
883.01	3256
883.136	3142
883.262	3119
883.388	3108
883.514	3306
883.64	3351
883.766	3256
883.892	3188
884.018	3283
884.143	3405
884.269	3526
884.395	3226
884.52	3135
884.646	3173
884.772	3135
884.897	3112
885.023	3173
885.148	3329
885.274	3409
885.399	3344
885.524	3253
885.65	3264
885.775	3317
885.9	3241
886.025	3443
886.15	3359
886.275	3279
886.4	3245
886.525	3279
886.65	3249
886.775	3260
886.9	3450
887.025	3629
887.149	3378
887.274	3214
887.399	3184
887.523	3188
887.648	3188
887.773	3226
887.897	3340
888.021	3401
888.146	3283
888.27	3397
888.395	3488
888.519	3458
888.643	3428
888.767	3454
888.891	3272
889.015	3230
889.139	3249
889.263	3268
889.387	3386
889.511	3488
889.635	3447
889.759	3260
889.883	3275
890.006	3401
890.13	3454
890.254	3279
890.377	3329
890.501	3184
890.624	3146
890.748	3294
890.871	3222
890.995	3062
891.118	3043
891.241	3188
891.364	3233
891.488	3302
891.611	3146
891.734	3180
891.857	3279
891.98	3226
892.103	3291
892.226	3260
892.349	3199
892.471	3142
892.594	3260
892.717	3283
892.839	3249
892.962	3291
893.085	3313
893.207	3272
893.33	3199
893.452	3188
893.575	3340
893.697	3203
893.819	3469
893.941	3507
894.064	3420
894.186	3233
894.308	3275
894.43	3439
894.552	3511
894.674	3431
894.796	3237
894.918	3291
895.04	3302
895.161	3401
895.283	3386
895.405	3272
895.526	3367
895.648	3431
895.769	3370
895.891	3466
896.012	3462
896.134	3420
896.255	3348
896.376	3359
896.498	3351
896.619	3412
896.74	3359
896.861	3386
896.982	3633
897.103	3869
897.224	3568
897.345	3462
897.466	3409
897.587	3477
897.708	3637
897.828	3496
897.949	3412
898.07	3321
898.19	3359
898.311	3587
898.431	3424
898.552	3462
898.672	3564
898.792	3542
898.913	3481
899.033	3424
899.153	3241
899.273	3218
899.393	3237
899.513	3302
899.633	3275
899.753	3272
899.873	3302
899.993	3405
900.113	3313
900.232	3355
900.352	3310
900.472	3298
900.591	3199
900.711	3279
900.83	3222
900.95	3416
901.069	3492
901.189	3340
901.308	3230
901.427	3135
901.546	3195
901.665	3310
901.784	3321
901.904	3218
902.023	3161
902.141	3005
902.26	2979
902.379	3169
902.498	3123
902.617	3085
902.735	3237
902.854	3245
902.973	3199
903.091	3051
903.21	3089
903.328	3138
903.446	3131
903.565	3123
903.683	3203
903.801	3173
903.919	3237
904.038	3302
904.156	3218
904.274	3294
904.392	3275
904.51	3310
904.627	3355
904.745	3466
904.863	3519
904.981	3275
905.098	3161
905.216	3230
905.334	3348
905.451	3348
905.569	3382
905.686	3450
905.803	3443
905.921	3332
906.038	3454
906.155	3397
906.272	3344
906.389	3367
906.506	3253
906.623	3291
906.74	3306
906.857	3226
906.974	3272
907.091	3500
907.208	3591
907.324	3496
907.441	3412
907.557	3287
907.674	3283
907.79	3260
907.907	3310
908.023	3397
908.139	3420
908.256	3363
908.372	3389
908.488	3378
908.604	3268
908.72	3298
908.836	3355
908.952	3268
909.068	3355
909.184	3492
909.3	3389
909.415	3538
909.531	3523
909.647	3317
909.762	3355
909.878	3294
909.993	3370
910.108	3359
910.224	3393
910.339	3412
910.454	3367
910.57	3344
910.685	3302
910.8	3648
910.915	3538
911.03	3515
911.145	3302
911.259	3325
911.374	3378
911.489	3283
911.604	3268
911.718	3161
911.833	3195
911.947	3093
912.062	3024
912.176	3165
912.291	3245
912.405	3253
912.519	3523
912.633	3485
912.748	3348
912.862	3264
912.976	3211
913.09	3104
913.204	3188
913.318	3230
913.431	3367
913.545	3378
913.659	3439
913.772	3401
913.886	3241
914	3245
914.113	3397
914.226	3431
914.34	3431
914.453	3241
914.566	3473
914.68	3260
914.793	3336
914.906	3169
915.019	3169
915.132	3062
915.245	3214
915.358	3253
915.47	3260
915.583	3325
915.696	3317
915.809	3401
915.921	3447
916.034	3256
916.146	3302
916.259	3245
916.371	3431
916.483	3363
916.595	3298
916.708	3344
916.82	3386
916.932	3355
917.044	3378
917.156	3363
917.268	3272
917.38	3329
917.491	3313
917.603	3370
917.715	3481
917.826	3466
917.938	3409
918.049	3306
918.161	3447
918.272	3603
918.384	3576
918.495	3477
918.606	3348
918.717	3287
918.828	3336
918.939	3431
919.05	3351
919.161	3401
919.272	3241
919.383	3317
919.494	3523
919.604	3720
919.715	3492
919.826	3443
919.936	3504
920.047	3633
920.157	3599
920.267	3789
920.378	3622
920.488	3599
920.598	3785
920.708	3945
920.818	3846
920.928	3850
921.038	4051
921.148	4017
921.258	3705
921.368	3709
921.477	3622
921.587	3584
921.697	3492
921.806	3641
921.916	3553
922.025	3370
922.134	3355
922.244	3329
922.353	3435
922.462	3294
922.571	3287
922.68	3161
922.789	3112
922.898	3165
923.007	3116
923.116	3233
923.224	3241
923.333	3184
923.442	3112
923.55	3100
923.659	3199
923.767	3256
923.876	3138
923.984	3256
924.092	3138
924.201	3218
924.309	3253
924.417	3275
924.525	3237
924.633	3264
924.741	4082
924.849	3074
924.956	3298
925.064	3123
925.172	3062
925.279	3085
925.387	3230
925.494	3230
925.602	3393
925.709	3370
925.816	3192
925.924	3306
926.031	3439
926.138	3363
926.245	3397
926.352	3264
926.459	3424
926.566	3481
926.673	3313
926.779	3264
926.886	3260
926.993	3173
927.099	3131
927.206	3135
927.312	3119
927.419	3245
927.525	3249
927.631	3298
927.737	3157
927.843	3165
927.95	3074
928.056	3146
928.162	3237
928.267	3291
928.373	3896
928.479	3355
928.585	3123
928.69	3245
928.796	3302
928.901	3165
929.007	3097
929.112	3226
929.218	3207
929.323	3150
929.428	3142
929.533	3378
929.638	3146
929.743	3203
929.848	3291
929.953	3233
930.058	3165
930.163	2986
930.267	3093
930.372	3214
930.477	3066
930.581	3313
930.685	3192
930.79	3047
930.894	3138
930.998	3142
931.103	3294
931.207	2963
931.311	3005
931.415	2933
931.519	2785
931.623	2849
