Data from test_V78500241_1807.txt Node
Date: Fri Mar 25 16:27:43 CST 2022
User: usil
Spectrometer: V785-0024
Trigger mode: 0
Integration Time (sec): 4.000000E-1
Scans to average: 1
Nonlinearity correction enabled: false
Boxcar width: 0
Storing dark spectrum: false
XAxis mode: Wavelengths
Number of Pixels in Spectrum: 1024
>>>>>Begin Spectral Data<<<<<
801.071	2868
801.214	2910
801.356	2868
801.499	2895
801.641	2899
801.783	2937
801.926	3020
802.068	2979
802.211	2975
802.353	3036
802.496	2933
802.638	3013
802.78	3032
802.923	3081
803.065	3013
803.208	2914
803.35	2887
803.492	2944
803.635	2941
803.777	2769
803.919	2868
804.061	3188
804.204	2941
804.346	2880
804.488	2868
804.63	2979
804.773	2864
804.915	2910
805.057	3074
805.199	2918
805.341	2979
805.483	3020
805.626	2990
805.768	2944
805.91	3051
806.052	3112
806.194	2998
806.336	3214
806.478	3013
806.62	2944
806.762	2986
806.904	3066
807.046	3150
807.188	2982
807.33	2902
807.472	2994
807.614	2914
807.756	2990
807.898	2929
808.04	2883
808.182	2952
808.324	2975
808.465	2864
808.607	2887
808.749	2746
808.891	2838
809.033	2967
809.174	2941
809.316	2902
809.458	2899
809.6	2750
809.741	2750
809.883	2777
810.025	2872
810.166	2876
810.308	2842
810.45	2857
810.591	2750
810.733	2773
810.875	2826
811.016	2785
811.158	2785
811.299	2807
811.441	2941
811.582	2906
811.724	2834
811.865	2842
812.007	2910
812.148	2880
812.29	2872
812.431	2857
812.573	2933
812.714	2941
812.855	3043
812.997	3085
813.138	3089
813.279	3013
813.421	3005
813.562	2967
813.703	2861
813.845	2910
813.986	2762
814.127	2750
814.268	2796
814.41	2842
814.551	2834
814.692	2864
814.833	2849
814.974	2887
815.115	2929
815.256	2807
815.397	2796
815.539	2872
815.68	2796
815.821	2769
815.962	2910
816.103	2929
816.244	2849
816.385	2876
816.526	2967
816.666	2922
816.807	2781
816.948	2845
817.089	2918
817.23	2861
817.371	2766
817.512	2796
817.653	2842
817.793	2804
817.934	2880
818.075	2941
818.216	3028
818.356	2994
818.497	2906
818.638	2762
818.778	2804
818.919	2777
819.06	2746
819.2	2899
819.341	2804
819.481	2826
819.622	2899
819.762	3085
819.903	3032
820.043	2933
820.184	2910
820.324	2902
820.465	3039
820.605	3020
820.746	3001
820.886	2906
821.026	3108
821.167	3135
821.307	3268
821.447	3283
821.588	3192
821.728	3218
821.868	3184
822.008	3074
822.149	3169
822.289	3192
822.429	3066
822.569	3036
822.709	3180
822.849	3047
822.99	3093
823.13	3131
823.27	3199
823.41	3146
823.55	3150
823.69	3135
823.83	3226
823.97	3108
824.11	2986
824.25	2990
824.389	3077
824.529	3085
824.669	3043
824.809	3199
824.949	3245
825.089	3218
825.228	3135
825.368	3009
825.508	2979
825.648	3013
825.787	3036
825.927	3009
826.067	2944
826.206	2960
826.346	3028
826.485	3085
826.625	3123
826.765	3233
826.904	3222
827.044	2971
827.183	2937
827.323	2807
827.462	2994
827.601	2868
827.741	2910
827.88	2941
828.02	2838
828.159	2952
828.298	2994
828.437	3150
828.577	3001
828.716	3230
828.855	3077
828.994	2918
829.134	2880
829.273	2914
829.412	2834
829.551	2853
829.69	2883
829.829	2982
829.968	3112
830.107	3017
830.246	3013
830.385	2929
830.524	2868
830.663	2792
830.802	2705
830.941	2613
831.08	2667
831.219	2777
831.357	2743
831.496	2933
831.635	2705
831.774	2632
831.913	2655
832.051	2556
832.19	2549
832.329	2667
832.467	2511
832.606	2442
832.744	2610
832.883	2568
833.022	2579
833.16	2659
833.299	2697
833.437	2678
833.576	2720
833.714	2724
833.852	2712
833.991	2735
834.129	2815
834.267	2838
834.406	2804
834.544	2902
834.682	2861
834.821	2887
834.959	3028
835.097	2872
835.235	3036
835.373	2994
835.511	3017
835.65	2956
835.788	2937
835.926	2823
836.064	2826
836.202	2857
836.34	3089
836.478	3135
836.615	3058
836.753	3116
836.891	3161
837.029	3173
837.167	3123
837.305	3047
837.443	3043
837.58	2963
837.718	3135
837.856	3066
837.993	3036
838.131	3100
838.269	3123
838.406	3116
838.544	3058
838.681	2922
838.819	2922
838.956	2815
839.094	2796
839.231	2925
839.369	3024
839.506	3416
839.643	3233
839.781	3024
839.918	2937
840.055	3036
840.193	3051
840.33	3020
840.467	3058
840.604	3123
840.742	3424
840.879	3043
841.016	3062
841.153	3104
841.29	3329
841.427	3264
841.564	3264
841.701	3291
841.838	3230
841.975	3165
842.112	3218
842.249	3066
842.385	3028
842.522	3230
842.659	3074
842.796	3089
842.933	3085
843.069	3047
843.206	3005
843.343	3195
843.479	3100
843.616	3119
843.752	2895
843.889	2876
844.025	3039
844.162	2842
844.298	3062
844.435	2914
844.571	2891
844.708	3081
844.844	3169
844.98	3176
845.117	3199
845.253	3047
845.389	2986
845.525	3116
845.661	3123
845.798	3001
845.934	3127
846.07	3009
846.206	3199
846.342	3344
846.478	3230
846.614	3055
846.75	3066
846.886	3013
847.022	3214
847.158	3127
847.294	3188
847.429	3245
847.565	3203
847.701	3462
847.837	3036
847.972	2990
848.108	3146
848.244	3180
848.379	2982
848.515	2910
848.65	2933
848.786	2941
848.921	3013
849.057	3108
849.192	3127
849.328	3062
849.463	3123
849.598	3032
849.734	3020
849.869	2971
850.004	2941
850.14	2944
850.275	2880
850.41	2826
850.545	2880
850.68	2922
850.815	2963
850.95	2963
851.085	3207
851.22	3058
851.355	3009
851.49	2998
851.625	3020
851.76	3017
851.895	2960
852.03	2906
852.165	3017
852.299	3123
852.434	3176
852.569	3131
852.703	3161
852.838	3211
852.973	3332
853.107	3310
853.242	3119
853.376	3077
853.511	2967
853.645	3032
853.78	3237
853.914	3138
854.048	3138
854.183	3077
854.317	3112
854.451	3256
854.585	3100
854.72	3062
854.854	3180
854.988	3032
855.122	3074
855.256	2952
855.39	3131
855.524	3233
855.658	3173
855.792	3165
855.926	3211
856.06	3188
856.194	3253
856.327	3116
856.461	3077
856.595	3070
856.729	3085
856.862	3230
856.996	3154
857.13	3150
857.263	3176
857.397	3272
857.53	3093
857.664	3157
857.797	3241
857.931	3294
858.064	3131
858.197	3188
858.331	3116
858.464	3070
858.597	2979
858.731	3100
858.864	3142
858.997	3070
859.13	3161
859.263	3188
859.396	3176
859.529	3085
859.662	3097
859.795	3047
859.928	3135
860.061	3226
860.194	3294
860.327	3119
860.46	3051
860.592	3241
860.725	3233
860.858	3211
860.99	3081
861.123	3077
861.256	3043
861.388	3173
861.521	3838
861.653	2994
861.786	2948
861.918	2994
862.05	3058
862.183	3074
862.315	3146
862.447	3173
862.58	3077
862.712	2982
862.844	2891
862.976	3017
863.108	2967
863.24	3405
863.372	2899
863.504	2922
863.636	2933
863.768	2998
863.9	2971
864.032	2857
864.164	2944
864.296	3013
864.428	3089
864.559	3116
864.691	3024
864.823	3104
864.954	3020
865.086	3032
865.217	2967
865.349	2929
865.48	2994
865.612	3066
865.743	3150
865.875	2986
866.006	2948
866.137	2967
866.269	2887
866.4	2922
866.531	2910
866.662	2872
866.793	2906
866.924	2891
867.055	2971
867.186	2910
867.317	2887
867.448	2849
867.579	2842
867.71	2857
867.841	2845
867.972	2914
868.103	2902
868.233	2895
868.364	2883
868.495	2868
868.625	3070
868.756	3108
868.886	2960
869.017	3058
869.147	3157
869.278	3138
869.408	3074
869.539	3024
869.669	3104
869.799	3051
869.929	3135
870.06	3112
870.19	3302
870.32	3306
870.45	3321
870.58	3359
870.71	3439
870.84	3450
870.97	3298
871.1	3214
871.23	3450
871.36	3416
871.489	3348
871.619	3355
871.749	3420
871.879	3416
872.008	3469
872.138	3374
872.267	3272
872.397	3169
872.526	3146
872.656	2975
872.785	3116
872.915	3214
873.044	3249
873.173	3199
873.303	3260
873.432	3214
873.561	3203
873.69	3112
873.819	3146
873.948	3173
874.077	3097
874.206	3055
874.335	3077
874.464	3203
874.593	3313
874.722	3256
874.851	3397
874.979	3374
875.108	3298
875.237	3207
875.365	3127
875.494	3169
875.623	3241
875.751	3070
875.88	3119
876.008	3146
876.136	3230
876.265	3367
876.393	3454
876.521	3409
876.65	3378
876.778	3351
876.906	3230
877.034	3173
877.162	3222
877.29	3169
877.418	3268
877.546	3233
877.674	3203
877.802	3222
877.93	3192
878.058	3131
878.185	3108
878.313	3188
878.441	3207
878.568	3055
878.696	3116
878.824	3256
878.951	3287
879.079	3420
879.206	3599
879.333	3431
879.461	3340
879.588	3363
879.715	3485
879.842	3557
879.97	3348
880.097	3195
880.224	3097
880.351	3184
880.478	3218
880.605	3226
880.732	3150
880.859	3473
880.986	3302
881.112	3313
881.239	3176
881.366	3112
881.493	3009
881.619	3005
881.746	3062
881.872	3074
881.999	3108
882.125	3089
882.252	3226
882.378	3272
882.505	3397
882.631	3317
882.757	3131
882.883	3203
883.01	3203
883.136	3135
883.262	3112
883.388	3085
883.514	3283
883.64	3344
883.766	3306
883.892	3169
884.018	3264
884.143	3409
884.269	3515
884.395	3161
884.52	3142
884.646	3195
884.772	3093
884.897	3089
885.023	3207
885.148	3298
885.274	3378
885.399	3363
885.524	3264
885.65	3249
885.775	3291
885.9	3226
886.025	3416
886.15	3355
886.275	3306
886.4	3230
886.525	3291
886.65	3268
886.775	3245
886.9	3511
887.025	3618
887.149	3412
887.274	3237
887.399	3154
887.523	3169
887.648	3192
887.773	3154
887.897	3355
888.021	3428
888.146	3317
888.27	3416
888.395	3504
888.519	3412
888.643	3469
888.767	3462
888.891	3317
889.015	3230
889.139	3233
889.263	3233
889.387	3393
889.511	3454
889.635	3473
889.759	3283
889.883	3275
890.006	3348
890.13	3504
890.254	3298
890.377	3355
890.501	3176
890.624	3154
890.748	3283
890.871	3165
890.995	3119
891.118	3032
891.241	3207
891.364	3218
891.488	3298
891.611	3169
891.734	3226
891.857	3287
891.98	3203
892.103	3344
892.226	3268
892.349	3233
892.471	3100
892.594	3230
892.717	3336
892.839	3241
892.962	3268
893.085	3351
893.207	3275
893.33	3146
893.452	3173
893.575	3306
893.697	3253
893.819	3431
893.941	3469
894.064	3431
894.186	3237
894.308	3283
894.43	3435
894.552	3481
894.674	3477
894.796	3298
894.918	3313
895.04	3249
895.161	3401
895.283	3389
895.405	3249
895.526	3374
895.648	3386
895.769	3435
895.891	3428
896.012	3447
896.134	3462
896.255	3416
896.376	3378
896.498	3325
896.619	3393
896.74	3329
896.861	3401
896.982	3682
897.103	3835
897.224	3564
897.345	3557
897.466	3397
897.587	3481
897.708	3610
897.828	3534
897.949	3416
898.07	3336
898.19	3367
898.311	3599
898.431	3469
898.552	3485
898.672	3572
898.792	3557
898.913	3473
899.033	3409
899.153	3287
899.273	3207
899.393	3264
899.513	3291
899.633	3298
899.753	3294
899.873	3348
899.993	3386
900.113	3348
900.232	3393
900.352	3325
900.472	3268
900.591	3199
900.711	3264
900.83	3245
900.95	3405
901.069	3431
901.189	3321
901.308	3207
901.427	3154
901.546	3218
901.665	3298
901.784	3351
901.904	3195
902.023	3165
902.141	3051
902.26	3032
902.379	3138
902.498	3097
902.617	3058
902.735	3207
902.854	3226
902.973	3184
903.091	3047
903.21	3116
903.328	3161
903.446	3116
903.565	3116
903.683	3245
903.801	3127
903.919	3264
904.038	3340
904.156	3207
904.274	3332
904.392	3279
904.51	3310
904.627	3382
904.745	3466
904.863	3519
904.981	3306
905.098	3218
905.216	3291
905.334	3310
905.451	3363
905.569	3332
905.686	3473
905.803	3473
905.921	3298
906.038	3431
906.155	3428
906.272	3321
906.389	3367
906.506	3272
906.623	3298
906.74	3336
906.857	3237
906.974	3272
907.091	3504
907.208	3625
907.324	3507
907.441	3435
907.557	3253
907.674	3233
907.79	3256
907.907	3336
908.023	3401
908.139	3393
908.256	3378
908.372	3431
908.488	3447
908.604	3283
908.72	3302
908.836	3321
908.952	3348
909.068	3382
909.184	3515
909.3	3454
909.415	3515
909.531	3545
909.647	3275
909.762	3363
909.878	3325
909.993	3370
910.108	3340
910.224	3348
910.339	3447
910.454	3370
910.57	3344
910.685	3283
910.8	3648
910.915	3591
911.03	3485
911.145	3317
911.259	3279
911.374	3321
911.489	3287
911.604	3275
911.718	3161
911.833	3184
911.947	3074
912.062	3043
912.176	3180
912.291	3237
912.405	3241
912.519	3485
912.633	3496
912.748	3389
912.862	3302
912.976	3222
913.09	3123
913.204	3180
913.318	3222
913.431	3363
913.545	3355
913.659	3386
913.772	3374
913.886	3241
914	3218
914.113	3386
914.226	3477
914.34	3378
914.453	3226
914.566	3416
914.68	3351
914.793	3355
914.906	3169
915.019	3123
915.132	3097
915.245	3230
915.358	3211
915.47	3218
915.583	3298
915.696	3321
915.809	3435
915.921	3504
916.034	3287
916.146	3272
916.259	3245
916.371	3431
916.483	3393
916.595	3245
916.708	3355
916.82	3378
916.932	3359
917.044	3420
917.156	3359
917.268	3302
917.38	3355
917.491	3306
917.603	3405
917.715	3488
917.826	3450
917.938	3405
918.049	3291
918.161	3473
918.272	3606
918.384	3606
918.495	3500
918.606	3378
918.717	3298
918.828	3374
918.939	3485
919.05	3336
919.161	3374
919.272	3218
919.383	3275
919.494	3534
919.604	3751
919.715	3530
919.826	3435
919.936	3496
920.047	3545
920.157	3564
920.267	3823
920.378	3629
920.488	3599
920.598	3808
920.708	3994
920.818	3838
920.928	3861
921.038	4036
921.148	4082
921.258	3732
921.368	3675
921.477	3606
921.587	3572
921.697	3488
921.806	3671
921.916	3538
922.025	3401
922.134	3401
922.244	3336
922.353	3477
922.462	3291
922.571	3245
922.68	3127
922.789	3097
922.898	3146
923.007	3108
923.116	3245
923.224	3188
923.333	3199
923.442	3104
923.55	3154
923.659	3165
923.767	3245
923.876	3142
923.984	3264
924.092	3176
924.201	3199
924.309	3268
924.417	3275
924.525	3192
924.633	3241
924.741	4059
924.849	3089
924.956	3279
925.064	3131
925.172	3108
925.279	3112
925.387	3226
925.494	3218
925.602	3382
925.709	3409
925.816	3237
925.924	3302
926.031	3382
926.138	3336
926.245	3412
926.352	3249
926.459	3420
926.566	3526
926.673	3378
926.779	3253
926.886	3298
926.993	3211
927.099	3192
927.206	3123
927.312	3142
927.419	3287
927.525	3283
927.631	3268
927.737	3173
927.843	3135
927.95	3097
928.056	3165
928.162	3188
928.267	3287
928.373	3800
928.479	3325
928.585	3135
928.69	3253
928.796	3310
928.901	3180
929.007	3085
929.112	3260
929.218	3226
929.323	3169
929.428	3203
929.533	3340
929.638	3169
929.743	3176
929.848	3302
929.953	3241
930.058	3146
930.163	3024
930.267	3089
930.372	3233
930.477	3074
930.581	3355
930.685	3207
930.79	3066
930.894	3154
930.998	3154
931.103	3321
931.207	2960
931.311	2963
931.415	2929
931.519	2834
931.623	2830
