Data from test_V78500241_725.txt Node
Date: Fri Mar 25 16:20:13 CST 2022
User: usil
Spectrometer: V785-0024
Trigger mode: 0
Integration Time (sec): 4.000000E-1
Scans to average: 1
Nonlinearity correction enabled: false
Boxcar width: 0
Storing dark spectrum: false
XAxis mode: Wavelengths
Number of Pixels in Spectrum: 1024
>>>>>Begin Spectral Data<<<<<
801.071	2891
801.214	2944
801.356	2883
801.499	2910
801.641	2845
801.783	2941
801.926	3051
802.068	2979
802.211	2982
802.353	3039
802.496	2937
802.638	2979
802.78	3062
802.923	3047
803.065	3020
803.208	2876
803.35	2872
803.492	2925
803.635	2910
803.777	2773
803.919	2853
804.061	3218
804.204	2971
804.346	2933
804.488	2857
804.63	2967
804.773	2857
804.915	2922
805.057	3062
805.199	2918
805.341	2956
805.483	3017
805.626	3009
805.768	2944
805.91	3047
806.052	3058
806.194	3032
806.336	3203
806.478	3024
806.62	2933
806.762	2929
806.904	3066
807.046	3154
807.188	2979
807.33	2895
807.472	2998
807.614	2906
807.756	2979
807.898	2899
808.04	2883
808.182	2975
808.324	2963
808.465	2872
808.607	2849
808.749	2807
808.891	2861
809.033	2982
809.174	2952
809.316	2902
809.458	2914
809.6	2773
809.741	2750
809.883	2754
810.025	2807
810.166	2849
810.308	2823
810.45	2823
810.591	2800
810.733	2773
810.875	2815
811.016	2773
811.158	2766
811.299	2815
811.441	2891
811.582	2899
811.724	2792
811.865	2819
812.007	2914
812.148	2864
812.29	2891
812.431	2853
812.573	2914
812.714	2937
812.855	3051
812.997	3051
813.138	3135
813.279	3013
813.421	2982
813.562	2971
813.703	2880
813.845	2876
813.986	2777
814.127	2746
814.268	2800
814.41	2853
814.551	2826
814.692	2883
814.833	2823
814.974	2914
815.115	2986
815.256	2842
815.397	2804
815.539	2876
815.68	2762
815.821	2815
815.962	2910
816.103	2918
816.244	2849
816.385	2899
816.526	2986
816.666	2929
816.807	2750
816.948	2876
817.089	2914
817.23	2864
817.371	2811
817.512	2792
817.653	2834
817.793	2864
817.934	2910
818.075	2967
818.216	3020
818.356	3020
818.497	2899
818.638	2800
818.778	2819
818.919	2777
819.06	2739
819.2	2857
819.341	2781
819.481	2781
819.622	2971
819.762	3104
819.903	3009
820.043	2914
820.184	2902
820.324	2891
820.465	3001
820.605	2994
820.746	3013
820.886	2933
821.026	3085
821.167	3150
821.307	3241
821.447	3294
821.588	3226
821.728	3214
821.868	3188
822.008	3074
822.149	3195
822.289	3214
822.429	3074
822.569	3097
822.709	3135
822.849	3013
822.99	3074
823.13	3131
823.27	3169
823.41	3123
823.55	3127
823.69	3135
823.83	3169
823.97	3066
824.11	3001
824.25	2979
824.389	3077
824.529	3116
824.669	3055
824.809	3207
824.949	3233
825.089	3253
825.228	3127
825.368	2986
825.508	2967
825.648	2952
825.787	3001
825.927	3036
826.067	2963
826.206	2922
826.346	3039
826.485	3074
826.625	3089
826.765	3268
826.904	3218
827.044	2986
827.183	2941
827.323	2872
827.462	2956
827.601	2922
827.741	2944
827.88	2944
828.02	2811
828.159	3005
828.298	3039
828.437	3051
828.577	3043
828.716	3237
828.855	3039
828.994	2910
829.134	2872
829.273	2914
829.412	2815
829.551	2857
829.69	2902
829.829	2971
829.968	3161
830.107	3043
830.246	2986
830.385	2914
830.524	2880
830.663	2819
830.802	2758
830.941	2659
831.08	2606
831.219	2746
831.357	2739
831.496	2967
831.635	2724
831.774	2651
831.913	2644
832.051	2526
832.19	2579
832.329	2663
832.467	2552
832.606	2488
832.744	2602
832.883	2602
833.022	2571
833.16	2636
833.299	2651
833.437	2678
833.576	2697
833.714	2731
833.852	2731
833.991	2754
834.129	2823
834.267	2838
834.406	2777
834.544	2868
834.682	2864
834.821	2872
834.959	3055
835.097	2902
835.235	3036
835.373	3020
835.511	2990
835.65	2941
835.788	2948
835.926	2819
836.064	2804
836.202	2864
836.34	3074
836.478	3127
836.615	3058
836.753	3146
836.891	3207
837.029	3146
837.167	3104
837.305	3070
837.443	3036
837.58	2956
837.718	3112
837.856	3077
837.993	3017
838.131	3116
838.269	3100
838.406	3058
838.544	3074
838.681	2902
838.819	2891
838.956	2796
839.094	2842
839.231	2910
839.369	3039
839.506	3359
839.643	3192
839.781	3024
839.918	2948
840.055	3043
840.193	3020
840.33	3055
840.467	3077
840.604	3146
840.742	3412
840.879	3043
841.016	3043
841.153	3112
841.29	3348
841.427	3302
841.564	3279
841.701	3294
841.838	3226
841.975	3157
842.112	3180
842.249	3058
842.385	3020
842.522	3237
842.659	3116
842.796	3028
842.933	3100
843.069	3036
843.206	3013
843.343	3176
843.479	3108
843.616	3093
843.752	2910
843.889	2880
844.025	3062
844.162	2876
844.298	3070
844.435	2918
844.571	2887
844.708	3051
844.844	3180
844.98	3222
845.117	3173
845.253	3062
845.389	3001
845.525	3055
845.661	3150
845.798	2990
845.934	3112
846.07	3058
846.206	3211
846.342	3275
846.478	3214
846.614	3074
846.75	3051
846.886	3028
847.022	3230
847.158	3131
847.294	3218
847.429	3253
847.565	3207
847.701	3462
847.837	3017
847.972	3020
848.108	3180
848.244	3142
848.379	2975
848.515	2922
848.65	2941
848.786	2956
848.921	3024
849.057	3116
849.192	3131
849.328	3051
849.463	3066
849.598	3009
849.734	3039
849.869	2979
850.004	2922
850.14	2925
850.275	2933
850.41	2845
850.545	2868
850.68	2963
850.815	2944
850.95	2941
851.085	3157
851.22	3085
851.355	3043
851.49	2975
851.625	2956
851.76	2986
851.895	2948
852.03	2895
852.165	3051
852.299	3089
852.434	3195
852.569	3131
852.703	3138
852.838	3245
852.973	3348
853.107	3329
853.242	3127
853.376	3062
853.511	2944
853.645	3047
853.78	3245
853.914	3112
854.048	3066
854.183	3066
854.317	3135
854.451	3294
854.585	3142
854.72	3138
854.854	3184
854.988	3051
855.122	3055
855.256	2967
855.39	3116
855.524	3226
855.658	3157
855.792	3146
855.926	3165
856.06	3226
856.194	3226
856.327	3154
856.461	3058
856.595	3047
856.729	3081
856.862	3264
856.996	3146
857.13	3214
857.263	3203
857.397	3279
857.53	3089
857.664	3169
857.797	3203
857.931	3226
858.064	3169
858.197	3226
858.331	3108
858.464	3119
858.597	3001
858.731	3138
858.864	3135
858.997	3070
859.13	3138
859.263	3161
859.396	3176
859.529	3058
859.662	3066
859.795	3070
859.928	3146
860.061	3275
860.194	3260
860.327	3161
860.46	3108
860.592	3218
860.725	3230
860.858	3256
860.99	3097
861.123	3039
861.256	3024
861.388	3123
861.521	3873
861.653	3028
861.786	2979
861.918	3009
862.05	3036
862.183	3097
862.315	3138
862.447	3192
862.58	3097
862.712	2994
862.844	2849
862.976	3009
863.108	3024
863.24	3420
863.372	2849
863.504	2937
863.636	2910
863.768	3058
863.9	2941
864.032	2914
864.164	2914
864.296	3032
864.428	3070
864.559	3100
864.691	3028
864.823	3043
864.954	3055
865.086	3024
865.217	2952
865.349	2952
865.48	2975
865.612	3020
865.743	3146
865.875	2967
866.006	2933
866.137	2967
866.269	2948
866.4	2952
866.531	2925
866.662	2910
866.793	2876
866.924	2914
867.055	2979
867.186	2929
867.317	2857
867.448	2838
867.579	2826
867.71	2853
867.841	2834
867.972	2853
868.103	2880
868.233	2895
868.364	2845
868.495	2910
868.625	3036
868.756	3192
868.886	2982
869.017	3001
869.147	3173
869.278	3199
869.408	3043
869.539	3058
869.669	3039
869.799	3047
869.929	3173
870.06	3108
870.19	3302
870.32	3249
870.45	3317
870.58	3378
870.71	3462
870.84	3458
870.97	3287
871.1	3253
871.23	3454
871.36	3447
871.489	3359
871.619	3367
871.749	3363
871.879	3405
872.008	3458
872.138	3359
872.267	3245
872.397	3161
872.526	3112
872.656	3001
872.785	3066
872.915	3256
873.044	3302
873.173	3222
873.303	3264
873.432	3226
873.561	3233
873.69	3131
873.819	3135
873.948	3184
874.077	3085
874.206	3024
874.335	3077
874.464	3211
874.593	3302
874.722	3211
874.851	3363
874.979	3298
875.108	3344
875.237	3192
875.365	3184
875.494	3180
875.623	3256
875.751	3089
875.88	3135
876.008	3207
876.136	3214
876.265	3351
876.393	3519
876.521	3389
876.65	3382
876.778	3310
876.906	3245
877.034	3176
877.162	3237
877.29	3157
877.418	3233
877.546	3226
877.674	3222
877.802	3230
877.93	3203
878.058	3176
878.185	3093
878.313	3184
878.441	3165
878.568	3066
878.696	3154
878.824	3222
878.951	3298
879.079	3458
879.206	3584
879.333	3435
879.461	3344
879.588	3313
879.715	3450
879.842	3591
879.97	3325
880.097	3173
880.224	3123
880.351	3188
880.478	3207
880.605	3199
880.732	3184
880.859	3500
880.986	3302
881.112	3291
881.239	3192
881.366	3093
881.493	3017
881.619	2990
881.746	3055
881.872	3081
881.999	3093
882.125	3123
882.252	3249
882.378	3306
882.505	3401
882.631	3253
882.757	3142
882.883	3211
883.01	3199
883.136	3165
883.262	3081
883.388	3165
883.514	3321
883.64	3382
883.766	3344
883.892	3180
884.018	3214
884.143	3412
884.269	3561
884.395	3199
884.52	3127
884.646	3211
884.772	3108
884.897	3142
885.023	3203
885.148	3287
885.274	3450
885.399	3336
885.524	3241
885.65	3275
885.775	3306
885.9	3256
886.025	3431
886.15	3344
886.275	3291
886.4	3203
886.525	3325
886.65	3253
886.775	3237
886.9	3492
887.025	3648
887.149	3389
887.274	3230
887.399	3199
887.523	3230
887.648	3142
887.773	3169
887.897	3325
888.021	3401
888.146	3253
888.27	3416
888.395	3504
888.519	3454
888.643	3420
888.767	3462
888.891	3313
889.015	3237
889.139	3264
889.263	3218
889.387	3405
889.511	3496
889.635	3454
889.759	3306
889.883	3283
890.006	3367
890.13	3477
890.254	3249
890.377	3355
890.501	3264
890.624	3211
890.748	3268
890.871	3169
890.995	3089
891.118	3036
891.241	3184
891.364	3195
891.488	3298
891.611	3161
891.734	3214
891.857	3279
891.98	3260
892.103	3348
892.226	3264
892.349	3176
892.471	3116
892.594	3245
892.717	3310
892.839	3272
892.962	3275
893.085	3340
893.207	3313
893.33	3146
893.452	3211
893.575	3313
893.697	3218
893.819	3462
893.941	3485
894.064	3416
894.186	3268
894.308	3256
894.43	3458
894.552	3507
894.674	3416
894.796	3287
894.918	3310
895.04	3272
895.161	3447
895.283	3382
895.405	3325
895.526	3344
895.648	3409
895.769	3386
895.891	3443
896.012	3466
896.134	3488
896.255	3450
896.376	3367
896.498	3340
896.619	3424
896.74	3355
896.861	3386
896.982	3682
897.103	3785
897.224	3587
897.345	3515
897.466	3416
897.587	3469
897.708	3610
897.828	3519
897.949	3462
898.07	3321
898.19	3420
898.311	3549
898.431	3447
898.552	3500
898.672	3606
898.792	3572
898.913	3504
899.033	3435
899.153	3294
899.273	3203
899.393	3272
899.513	3256
899.633	3321
899.753	3336
899.873	3336
899.993	3374
900.113	3332
900.232	3420
900.352	3313
900.472	3298
900.591	3173
900.711	3283
900.83	3211
900.95	3431
901.069	3481
901.189	3363
901.308	3165
901.427	3146
901.546	3192
901.665	3302
901.784	3378
901.904	3180
902.023	3119
902.141	3020
902.26	2979
902.379	3161
902.498	3036
902.617	3051
902.735	3180
902.854	3226
902.973	3199
903.091	3005
903.21	3062
903.328	3131
903.446	3138
903.565	3089
903.683	3188
903.801	3157
903.919	3268
904.038	3256
904.156	3157
904.274	3283
904.392	3260
904.51	3275
904.627	3332
904.745	3428
904.863	3485
904.981	3256
905.098	3146
905.216	3218
905.334	3336
905.451	3291
905.569	3302
905.686	3454
905.803	3466
905.921	3283
906.038	3397
906.155	3310
906.272	3226
906.389	3283
906.506	3241
906.623	3264
906.74	3241
906.857	3176
906.974	3260
907.091	3420
907.208	3545
907.324	3462
907.441	3363
907.557	3230
907.674	3184
907.79	3207
907.907	3279
908.023	3344
908.139	3409
908.256	3317
908.372	3389
908.488	3340
908.604	3241
908.72	3313
908.836	3253
908.952	3279
909.068	3325
909.184	3515
909.3	3389
909.415	3511
909.531	3447
909.647	3275
909.762	3294
909.878	3233
909.993	3367
910.108	3340
910.224	3306
910.339	3397
910.454	3351
910.57	3249
910.685	3268
910.8	3538
910.915	3511
911.03	3409
911.145	3287
911.259	3298
911.374	3336
911.489	3264
911.604	3245
911.718	3146
911.833	3138
911.947	3043
912.062	2975
912.176	3127
912.291	3207
912.405	3195
912.519	3428
912.633	3416
912.748	3325
912.862	3275
912.976	3142
913.09	3074
913.204	3146
913.318	3203
913.431	3359
913.545	3332
913.659	3397
913.772	3321
913.886	3188
914	3161
914.113	3325
914.226	3412
914.34	3348
914.453	3207
914.566	3397
914.68	3226
914.793	3313
914.906	3157
915.019	3077
915.132	3013
915.245	3161
915.358	3211
915.47	3214
915.583	3256
915.696	3294
915.809	3416
915.921	3405
916.034	3268
916.146	3222
916.259	3245
916.371	3397
916.483	3340
916.595	3245
916.708	3329
916.82	3355
916.932	3329
917.044	3367
917.156	3359
917.268	3264
917.38	3310
917.491	3298
917.603	3329
917.715	3424
917.826	3485
917.938	3374
918.049	3302
918.161	3447
918.272	3572
918.384	3580
918.495	3481
918.606	3351
918.717	3279
918.828	3367
918.939	3416
919.05	3279
919.161	3336
919.272	3176
919.383	3268
919.494	3481
919.604	3698
919.715	3462
919.826	3409
919.936	3443
920.047	3549
920.157	3549
920.267	3747
920.378	3603
920.488	3500
920.598	3762
920.708	3915
920.818	3770
920.928	3846
921.038	3994
921.148	3949
921.258	3698
921.368	3660
921.477	3595
921.587	3496
921.697	3443
921.806	3603
921.916	3507
922.025	3325
922.134	3329
922.244	3329
922.353	3401
922.462	3294
922.571	3230
922.68	3112
922.789	3058
922.898	3135
923.007	3100
923.116	3218
923.224	3138
923.333	3161
923.442	3138
923.55	3104
923.659	3131
923.767	3233
923.876	3108
923.984	3241
924.092	3066
924.201	3199
924.309	3226
924.417	3256
924.525	3218
924.633	3226
924.741	4188
924.849	3032
924.956	3245
925.064	3070
925.172	3074
925.279	3100
925.387	3188
925.494	3169
925.602	3363
925.709	3317
925.816	3180
925.924	3283
926.031	3393
926.138	3321
926.245	3359
926.352	3237
926.459	3424
926.566	3515
926.673	3313
926.779	3211
926.886	3241
926.993	3146
927.099	3108
927.206	3119
927.312	3097
927.419	3245
927.525	3214
927.631	3245
927.737	3108
927.843	3077
927.95	3020
928.056	3157
928.162	3214
928.267	3264
928.373	3827
928.479	3325
928.585	3104
928.69	3184
928.796	3268
928.901	3176
929.007	3039
929.112	3176
929.218	3203
929.323	3127
929.428	3150
929.533	3313
929.638	3093
929.743	3195
929.848	3241
929.953	3233
930.058	3154
930.163	2998
930.267	3043
930.372	3157
930.477	3036
930.581	3264
930.685	3157
930.79	3058
930.894	3097
930.998	3100
931.103	3268
931.207	2979
931.311	2948
931.415	2902
931.519	2807
931.623	2792
