Data from test_V78500241_1239.txt Node
Date: Fri Mar 25 16:23:47 CST 2022
User: usil
Spectrometer: V785-0024
Trigger mode: 0
Integration Time (sec): 4.000000E-1
Scans to average: 1
Nonlinearity correction enabled: false
Boxcar width: 0
Storing dark spectrum: false
XAxis mode: Wavelengths
Number of Pixels in Spectrum: 1024
>>>>>Begin Spectral Data<<<<<
801.071	2929
801.214	3001
801.356	2918
801.499	2918
801.641	2918
801.783	2948
801.926	3093
802.068	3017
802.211	3020
802.353	3089
802.496	3013
802.638	3062
802.78	3051
802.923	3062
803.065	3024
803.208	2925
803.35	2948
803.492	2990
803.635	2960
803.777	2781
803.919	2868
804.061	3199
804.204	2922
804.346	2922
804.488	2891
804.63	3020
804.773	2899
804.915	2952
805.057	3135
805.199	2937
805.341	2979
805.483	3036
805.626	2979
805.768	2956
805.91	3104
806.052	3127
806.194	3051
806.336	3283
806.478	3013
806.62	2967
806.762	2990
806.904	3070
807.046	3199
807.188	3013
807.33	2902
807.472	3024
807.614	2925
807.756	2994
807.898	2963
808.04	2937
808.182	2998
808.324	2956
808.465	2922
808.607	2933
808.749	2815
808.891	2876
809.033	3013
809.174	2986
809.316	2906
809.458	2883
809.6	2773
809.741	2807
809.883	2788
810.025	2883
810.166	2891
810.308	2849
810.45	2887
810.591	2826
810.733	2815
810.875	2876
811.016	2804
811.158	2769
811.299	2811
811.441	2975
811.582	2910
811.724	2853
811.865	2853
812.007	2941
812.148	2902
812.29	2868
812.431	2933
812.573	2929
812.714	2963
812.855	3089
812.997	3085
813.138	3154
813.279	3051
813.421	2986
813.562	2982
813.703	2899
813.845	2929
813.986	2788
814.127	2743
814.268	2861
814.41	2857
814.551	2804
814.692	2937
814.833	2842
814.974	2895
815.115	2952
815.256	2849
815.397	2819
815.539	2857
815.68	2823
815.821	2804
815.962	2990
816.103	2918
816.244	2883
816.385	2902
816.526	3017
816.666	2914
816.807	2777
816.948	2914
817.089	2933
817.23	2868
817.371	2811
817.512	2792
817.653	2842
817.793	2819
817.934	2883
818.075	2975
818.216	2990
818.356	3066
818.497	2891
818.638	2804
818.778	2826
818.919	2838
819.06	2800
819.2	2910
819.341	2834
819.481	2826
819.622	2971
819.762	3116
819.903	3119
820.043	2922
820.184	2910
820.324	2891
820.465	3047
820.605	3028
820.746	3017
820.886	2922
821.026	3108
821.167	3180
821.307	3264
821.447	3294
821.588	3256
821.728	3226
821.868	3230
822.008	3135
822.149	3226
822.289	3233
822.429	3097
822.569	3085
822.709	3222
822.849	3036
822.99	3070
823.13	3157
823.27	3241
823.41	3157
823.55	3135
823.69	3180
823.83	3184
823.97	3089
824.11	3039
824.25	3013
824.389	3081
824.529	3142
824.669	3070
824.809	3199
824.949	3253
825.089	3241
825.228	3203
825.368	3013
825.508	3005
825.648	2971
825.787	3009
825.927	3047
826.067	2944
826.206	2979
826.346	3062
826.485	3112
826.625	3150
826.765	3283
826.904	3230
827.044	3024
827.183	2982
827.323	2876
827.462	2998
827.601	2910
827.741	2933
827.88	2963
828.02	2853
828.159	2986
828.298	3047
828.437	3142
828.577	3058
828.716	3279
828.855	3077
828.994	2906
829.134	2883
829.273	2937
829.412	2941
829.551	2876
829.69	2952
829.829	3005
829.968	3169
830.107	3017
830.246	3043
830.385	2922
830.524	2910
830.663	2800
830.802	2739
830.941	2689
831.08	2644
831.219	2758
831.357	2754
831.496	2971
831.635	2735
831.774	2697
831.913	2697
832.051	2533
832.19	2621
832.329	2682
832.467	2564
832.606	2499
832.744	2587
832.883	2590
833.022	2629
833.16	2655
833.299	2716
833.437	2705
833.576	2731
833.714	2743
833.852	2739
833.991	2766
834.129	2845
834.267	2849
834.406	2811
834.544	2906
834.682	2906
834.821	2880
834.959	3070
835.097	2902
835.235	3066
835.373	3001
835.511	3051
835.65	2986
835.788	2948
835.926	2842
836.064	2792
836.202	2849
836.34	3093
836.478	3157
836.615	3070
836.753	3192
836.891	3165
837.029	3157
837.167	3104
837.305	3085
837.443	3055
837.58	2960
837.718	3146
837.856	3097
837.993	2998
838.131	3119
838.269	3108
838.406	3104
838.544	3089
838.681	2971
838.819	2914
838.956	2853
839.094	2823
839.231	2922
839.369	3013
839.506	3405
839.643	3237
839.781	2990
839.918	2941
840.055	3058
840.193	3097
840.33	3112
840.467	3093
840.604	3169
840.742	3363
840.879	3043
841.016	3070
841.153	3127
841.29	3363
841.427	3310
841.564	3329
841.701	3302
841.838	3241
841.975	3154
842.112	3214
842.249	3070
842.385	3017
842.522	3256
842.659	3085
842.796	3051
842.933	3089
843.069	3070
843.206	3062
843.343	3176
843.479	3112
843.616	3154
843.752	2906
843.889	2910
844.025	3058
844.162	2876
844.298	3089
844.435	2952
844.571	2914
844.708	3100
844.844	3203
844.98	3249
845.117	3207
845.253	3089
845.389	2982
845.525	3135
845.661	3123
845.798	3017
845.934	3169
846.07	3100
846.206	3203
846.342	3329
846.478	3245
846.614	3108
846.75	3070
846.886	3032
847.022	3279
847.158	3138
847.294	3218
847.429	3249
847.565	3218
847.701	3488
847.837	3043
847.972	3028
848.108	3135
848.244	3150
848.379	2994
848.515	2941
848.65	2933
848.786	2941
848.921	3013
849.057	3146
849.192	3154
849.328	3081
849.463	3119
849.598	3055
849.734	3055
849.869	3017
850.004	2922
850.14	2975
850.275	2914
850.41	2857
850.545	2895
850.68	2937
850.815	2952
850.95	3005
851.085	3203
851.22	3119
851.355	3020
851.49	3020
851.625	2994
851.76	3005
851.895	2982
852.03	2956
852.165	3051
852.299	3127
852.434	3176
852.569	3142
852.703	3176
852.838	3268
852.973	3351
853.107	3332
853.242	3142
853.376	3077
853.511	3039
853.645	3070
853.78	3214
853.914	3104
854.048	3123
854.183	3066
854.317	3154
854.451	3302
854.585	3112
854.72	3058
854.854	3256
854.988	3089
855.122	3119
855.256	2982
855.39	3112
855.524	3226
855.658	3222
855.792	3154
855.926	3233
856.06	3214
856.194	3233
856.327	3135
856.461	3077
856.595	3112
856.729	3066
856.862	3226
856.996	3161
857.13	3203
857.263	3176
857.397	3287
857.53	3146
857.664	3188
857.797	3260
857.931	3264
858.064	3165
858.197	3233
858.331	3074
858.464	3135
858.597	3001
858.731	3074
858.864	3123
858.997	3116
859.13	3146
859.263	3157
859.396	3203
859.529	3051
859.662	3089
859.795	3032
859.928	3131
860.061	3233
860.194	3302
860.327	3119
860.46	3116
860.592	3218
860.725	3245
860.858	3253
860.99	3097
861.123	3074
861.256	3070
861.388	3146
861.521	3694
861.653	2998
861.786	2975
861.918	3024
862.05	3081
862.183	3100
862.315	3142
862.447	3188
862.58	3062
862.712	2922
862.844	2922
862.976	3039
863.108	3017
863.24	3332
863.372	2872
863.504	2998
863.636	2971
863.768	3009
863.9	3001
864.032	2933
864.164	2956
864.296	3047
864.428	3085
864.559	3104
864.691	3055
864.823	3043
864.954	3043
865.086	3055
865.217	2990
865.349	2971
865.48	2994
865.612	3017
865.743	3165
865.875	2982
866.006	2963
866.137	2982
866.269	2956
866.4	2914
866.531	2918
866.662	2902
866.793	2902
866.924	2872
867.055	2971
867.186	2933
867.317	2872
867.448	2838
867.579	2842
867.71	2868
867.841	2811
867.972	2883
868.103	2929
868.233	2880
868.364	2872
868.495	2887
868.625	3089
868.756	3161
868.886	2967
869.017	3070
869.147	3184
869.278	3157
869.408	3032
869.539	3036
869.669	3108
869.799	3047
869.929	3142
870.06	3097
870.19	3279
870.32	3291
870.45	3291
870.58	3329
870.71	3431
870.84	3454
870.97	3310
871.1	3245
871.23	3443
871.36	3492
871.489	3374
871.619	3378
871.749	3405
871.879	3386
872.008	3462
872.138	3386
872.267	3291
872.397	3165
872.526	3097
872.656	2982
872.785	3097
872.915	3268
873.044	3287
873.173	3237
873.303	3230
873.432	3214
873.561	3237
873.69	3169
873.819	3135
873.948	3188
874.077	3131
874.206	3066
874.335	3089
874.464	3230
874.593	3351
874.722	3272
874.851	3359
874.979	3332
875.108	3279
875.237	3214
875.365	3157
875.494	3138
875.623	3214
875.751	3047
875.88	3081
876.008	3157
876.136	3207
876.265	3370
876.393	3500
876.521	3401
876.65	3378
876.778	3359
876.906	3222
877.034	3154
877.162	3214
877.29	3211
877.418	3256
877.546	3245
877.674	3253
877.802	3211
877.93	3218
878.058	3131
878.185	3116
878.313	3184
878.441	3176
878.568	3085
878.696	3188
878.824	3260
878.951	3313
879.079	3458
879.206	3591
879.333	3424
879.461	3313
879.588	3393
879.715	3450
879.842	3618
879.97	3367
880.097	3142
880.224	3138
880.351	3214
880.478	3207
880.605	3184
880.732	3150
880.859	3500
880.986	3306
881.112	3344
881.239	3233
881.366	3062
881.493	3039
881.619	3032
881.746	3070
881.872	3070
881.999	3074
882.125	3135
882.252	3264
882.378	3329
882.505	3466
882.631	3260
882.757	3180
882.883	3233
883.01	3253
883.136	3138
883.262	3085
883.388	3146
883.514	3298
883.64	3363
883.766	3313
883.892	3169
884.018	3249
884.143	3458
884.269	3538
884.395	3199
884.52	3176
884.646	3195
884.772	3146
884.897	3085
885.023	3184
885.148	3302
885.274	3401
885.399	3336
885.524	3272
885.65	3241
885.775	3336
885.9	3249
886.025	3420
886.15	3351
886.275	3287
886.4	3230
886.525	3283
886.65	3298
886.775	3264
886.9	3443
887.025	3595
887.149	3386
887.274	3241
887.399	3169
887.523	3203
887.648	3165
887.773	3169
887.897	3386
888.021	3401
888.146	3264
888.27	3397
888.395	3515
888.519	3443
888.643	3458
888.767	3534
888.891	3336
889.015	3226
889.139	3287
889.263	3260
889.387	3374
889.511	3477
889.635	3420
889.759	3287
889.883	3313
890.006	3393
890.13	3466
890.254	3287
890.377	3336
890.501	3207
890.624	3188
890.748	3302
890.871	3203
890.995	3089
891.118	3043
891.241	3211
891.364	3199
891.488	3306
891.611	3173
891.734	3241
891.857	3264
891.98	3226
892.103	3306
892.226	3256
892.349	3188
892.471	3119
892.594	3222
892.717	3310
892.839	3272
892.962	3275
893.085	3359
893.207	3306
893.33	3119
893.452	3192
893.575	3348
893.697	3260
893.819	3435
893.941	3496
894.064	3481
894.186	3241
894.308	3294
894.43	3450
894.552	3603
894.674	3500
894.796	3291
894.918	3298
895.04	3260
895.161	3466
895.283	3351
895.405	3298
895.526	3363
895.648	3420
895.769	3382
895.891	3420
896.012	3469
896.134	3439
896.255	3412
896.376	3401
896.498	3348
896.619	3450
896.74	3370
896.861	3389
896.982	3648
897.103	3880
897.224	3568
897.345	3515
897.466	3454
897.587	3458
897.708	3618
897.828	3542
897.949	3428
898.07	3329
898.19	3424
898.311	3557
898.431	3458
898.552	3542
898.672	3584
898.792	3591
898.913	3526
899.033	3405
899.153	3233
899.273	3203
899.393	3264
899.513	3275
899.633	3302
899.753	3329
899.873	3302
899.993	3367
900.113	3313
900.232	3370
900.352	3367
900.472	3283
900.591	3173
900.711	3298
900.83	3245
900.95	3405
901.069	3511
901.189	3329
901.308	3207
901.427	3123
901.546	3199
901.665	3245
901.784	3351
901.904	3230
902.023	3116
902.141	3062
902.26	2998
902.379	3116
902.498	3058
902.617	3039
902.735	3218
902.854	3188
902.973	3169
903.091	3028
903.21	3077
903.328	3195
903.446	3089
903.565	3127
903.683	3173
903.801	3135
903.919	3233
904.038	3283
904.156	3150
904.274	3272
904.392	3237
904.51	3291
904.627	3306
904.745	3424
904.863	3481
904.981	3275
905.098	3192
905.216	3272
905.334	3268
905.451	3256
905.569	3306
905.686	3401
905.803	3431
905.921	3283
906.038	3382
906.155	3363
906.272	3218
906.389	3313
906.506	3268
906.623	3253
906.74	3283
906.857	3195
906.974	3294
907.091	3431
907.208	3587
907.324	3477
907.441	3367
907.557	3253
907.674	3218
907.79	3222
907.907	3287
908.023	3393
908.139	3382
908.256	3344
908.372	3367
908.488	3359
908.604	3260
908.72	3211
908.836	3241
908.952	3279
909.068	3329
909.184	3481
909.3	3378
909.415	3488
909.531	3447
909.647	3272
909.762	3310
909.878	3245
909.993	3298
910.108	3313
910.224	3351
910.339	3401
910.454	3374
910.57	3237
910.685	3203
910.8	3587
910.915	3526
911.03	3450
911.145	3241
911.259	3268
911.374	3317
911.489	3268
911.604	3226
911.718	3146
911.833	3135
911.947	3074
912.062	2990
912.176	3157
912.291	3207
912.405	3218
912.519	3420
912.633	3450
912.748	3291
912.862	3279
912.976	3127
913.09	3070
913.204	3169
913.318	3207
913.431	3332
913.545	3325
913.659	3431
913.772	3317
913.886	3218
914	3203
914.113	3359
914.226	3424
914.34	3355
914.453	3207
914.566	3420
914.68	3253
914.793	3317
914.906	3135
915.019	3116
915.132	3055
915.245	3176
915.358	3222
915.47	3214
915.583	3260
915.696	3275
915.809	3397
915.921	3409
916.034	3253
916.146	3237
916.259	3226
916.371	3370
916.483	3336
916.595	3253
916.708	3336
916.82	3351
916.932	3348
917.044	3310
917.156	3378
917.268	3230
917.38	3283
917.491	3283
917.603	3355
917.715	3420
917.826	3443
917.938	3351
918.049	3310
918.161	3477
918.272	3580
918.384	3561
918.495	3511
918.606	3306
918.717	3291
918.828	3370
918.939	3397
919.05	3272
919.161	3367
919.272	3184
919.383	3256
919.494	3447
919.604	3686
919.715	3492
919.826	3416
919.936	3424
920.047	3580
920.157	3530
920.267	3819
920.378	3629
920.488	3553
920.598	3789
920.708	3918
920.818	3838
920.928	3816
921.038	3964
921.148	3956
921.258	3709
921.368	3610
921.477	3580
921.587	3504
921.697	3428
921.806	3629
921.916	3515
922.025	3317
922.134	3332
922.244	3321
922.353	3420
922.462	3268
922.571	3222
922.68	3081
922.789	3062
922.898	3150
923.007	3097
923.116	3222
923.224	3116
923.333	3226
923.442	3089
923.55	3032
923.659	3154
923.767	3214
923.876	3077
923.984	3199
924.092	3097
924.201	3207
924.309	3211
924.417	3211
924.525	3165
924.633	3260
924.741	3994
924.849	3055
924.956	3230
925.064	3085
925.172	3020
925.279	3116
925.387	3214
925.494	3230
925.602	3348
925.709	3336
925.816	3195
925.924	3249
926.031	3382
926.138	3367
926.245	3367
926.352	3253
926.459	3401
926.566	3424
926.673	3302
926.779	3233
926.886	3245
926.993	3154
927.099	3123
927.206	3108
927.312	3146
927.419	3230
927.525	3195
927.631	3294
927.737	3116
927.843	3123
927.95	2998
928.056	3150
928.162	3195
928.267	3241
928.373	3869
928.479	3264
928.585	3081
928.69	3195
928.796	3211
928.901	3169
929.007	3039
929.112	3176
929.218	3169
929.323	3142
929.428	3138
929.533	3287
929.638	3127
929.743	3180
929.848	3211
929.953	3222
930.058	3135
930.163	2967
930.267	3039
930.372	3176
930.477	3043
930.581	3291
930.685	3131
930.79	3047
930.894	3108
930.998	3093
931.103	3291
931.207	2944
931.311	2929
931.415	2929
931.519	2750
931.623	2811
