Data from test_V78500241_471.txt Node
Date: Fri Mar 25 16:18:28 CST 2022
User: usil
Spectrometer: V785-0024
Trigger mode: 0
Integration Time (sec): 4.000000E-1
Scans to average: 1
Nonlinearity correction enabled: false
Boxcar width: 0
Storing dark spectrum: false
XAxis mode: Wavelengths
Number of Pixels in Spectrum: 1024
>>>>>Begin Spectral Data<<<<<
801.071	2914
801.214	2929
801.356	2857
801.499	2925
801.641	2883
801.783	2933
801.926	3058
802.068	3009
802.211	2986
802.353	3051
802.496	2960
802.638	2998
802.78	3039
802.923	3089
803.065	3017
803.208	2899
803.35	2918
803.492	2876
803.635	2937
803.777	2792
803.919	2872
804.061	3192
804.204	2925
804.346	2918
804.488	2883
804.63	2967
804.773	2823
804.915	2929
805.057	3093
805.199	2899
805.341	2963
805.483	3001
805.626	3017
805.768	2986
805.91	3108
806.052	3085
806.194	3017
806.336	3233
806.478	3028
806.62	2956
806.762	2967
806.904	3020
807.046	3176
807.188	2979
807.33	2914
807.472	2963
807.614	2941
807.756	2998
807.898	2918
808.04	2876
808.182	2963
808.324	2975
808.465	2876
808.607	2857
808.749	2796
808.891	2823
809.033	3001
809.174	2944
809.316	2910
809.458	2830
809.6	2777
809.741	2773
809.883	2773
810.025	2811
810.166	2868
810.308	2883
810.45	2864
810.591	2735
810.733	2762
810.875	2826
811.016	2781
811.158	2781
811.299	2796
811.441	2902
811.582	2891
811.724	2823
811.865	2853
812.007	2956
812.148	2834
812.29	2872
812.431	2872
812.573	2929
812.714	2952
812.855	3058
812.997	3028
813.138	3112
813.279	2990
813.421	2975
813.562	2944
813.703	2891
813.845	2868
813.986	2785
814.127	2708
814.268	2819
814.41	2838
814.551	2788
814.692	2872
814.833	2811
814.974	2899
815.115	2975
815.256	2823
815.397	2811
815.539	2857
815.68	2781
815.821	2766
815.962	2925
816.103	2914
816.244	2876
816.385	2902
816.526	3009
816.666	2914
816.807	2716
816.948	2902
817.089	2876
817.23	2796
817.371	2800
817.512	2796
817.653	2853
817.793	2811
817.934	2895
818.075	2956
818.216	2967
818.356	3032
818.497	2887
818.638	2781
818.778	2788
818.919	2766
819.06	2762
819.2	2887
819.341	2838
819.481	2849
819.622	2918
819.762	3131
819.903	3047
820.043	2941
820.184	2918
820.324	2891
820.465	2994
820.605	2963
820.746	3024
820.886	2948
821.026	3127
821.167	3180
821.307	3249
821.447	3287
821.588	3272
821.728	3218
821.868	3203
822.008	3074
822.149	3180
822.289	3260
822.429	3135
822.569	3123
822.709	3211
822.849	3066
822.99	3112
823.13	3142
823.27	3249
823.41	3146
823.55	3173
823.69	3165
823.83	3214
823.97	3104
824.11	3055
824.25	3013
824.389	3135
824.529	3195
824.669	3081
824.809	3222
824.949	3245
825.089	3291
825.228	3169
825.368	3043
825.508	2994
825.648	3036
825.787	3055
825.927	3013
826.067	3032
826.206	2990
826.346	3043
826.485	3131
826.625	3173
826.765	3294
826.904	3275
827.044	3058
827.183	2990
827.323	2906
827.462	3020
827.601	2948
827.741	2982
827.88	2994
828.02	2906
828.159	3036
828.298	3081
828.437	3173
828.577	3070
828.716	3272
828.855	3116
828.994	2956
829.134	2933
829.273	2948
829.412	2925
829.551	2891
829.69	2891
829.829	3036
829.968	3184
830.107	3074
830.246	3062
830.385	2979
830.524	2902
830.663	2891
830.802	2758
830.941	2689
831.08	2682
831.219	2842
831.357	2804
831.496	3005
831.635	2785
831.774	2720
831.913	2720
832.051	2583
832.19	2587
832.329	2727
832.467	2579
832.606	2495
832.744	2613
832.883	2606
833.022	2625
833.16	2667
833.299	2727
833.437	2739
833.576	2705
833.714	2750
833.852	2811
833.991	2796
834.129	2887
834.267	2876
834.406	2811
834.544	2918
834.682	2895
834.821	2902
834.959	3093
835.097	2967
835.235	3104
835.373	3036
835.511	3001
835.65	3017
835.788	3009
835.926	2868
836.064	2796
836.202	2861
836.34	3100
836.478	3192
836.615	3077
836.753	3180
836.891	3253
837.029	3180
837.167	3127
837.305	3104
837.443	3077
837.58	3001
837.718	3161
837.856	3062
837.993	3062
838.131	3142
838.269	3127
838.406	3108
838.544	3112
838.681	2952
838.819	2944
838.956	2861
839.094	2849
839.231	2971
839.369	3047
839.506	3443
839.643	3291
839.781	3051
839.918	2990
840.055	3119
840.193	3077
840.33	3108
840.467	3116
840.604	3161
840.742	3397
840.879	3077
841.016	3074
841.153	3150
841.29	3344
841.427	3291
841.564	3340
841.701	3317
841.838	3279
841.975	3203
842.112	3218
842.249	3100
842.385	3119
842.522	3329
842.659	3108
842.796	3081
842.933	3123
843.069	3074
843.206	3089
843.343	3211
843.479	3135
843.616	3157
843.752	2929
843.889	2861
844.025	3116
844.162	2914
844.298	3108
844.435	2944
844.571	2929
844.708	3135
844.844	3214
844.98	3256
845.117	3188
845.253	3081
845.389	3047
845.525	3131
845.661	3123
845.798	3024
845.934	3146
846.07	3070
846.206	3233
846.342	3359
846.478	3214
846.614	3123
846.75	3093
846.886	3062
847.022	3291
847.158	3142
847.294	3260
847.429	3253
847.565	3241
847.701	3485
847.837	3043
847.972	3020
848.108	3203
848.244	3157
848.379	2998
848.515	2941
848.65	2956
848.786	2994
848.921	2990
849.057	3150
849.192	3188
849.328	3085
849.463	3146
849.598	3104
849.734	3058
849.869	2998
850.004	2914
850.14	2979
850.275	2948
850.41	2902
850.545	2906
850.68	2956
850.815	2971
850.95	3001
851.085	3222
851.22	3108
851.355	3066
851.49	2990
851.625	3017
851.76	3047
851.895	2975
852.03	2952
852.165	3077
852.299	3150
852.434	3203
852.569	3173
852.703	3199
852.838	3279
852.973	3332
853.107	3325
853.242	3157
853.376	3097
853.511	3005
853.645	3062
853.78	3241
853.914	3127
854.048	3131
854.183	3093
854.317	3161
854.451	3317
854.585	3123
854.72	3127
854.854	3207
854.988	3097
855.122	3100
855.256	3013
855.39	3123
855.524	3264
855.658	3207
855.792	3176
855.926	3184
856.06	3233
856.194	3321
856.327	3176
856.461	3085
856.595	3112
856.729	3093
856.862	3237
856.996	3176
857.13	3192
857.263	3256
857.397	3306
857.53	3138
857.664	3154
857.797	3298
857.931	3283
858.064	3195
858.197	3226
858.331	3150
858.464	3085
858.597	3039
858.731	3104
858.864	3150
858.997	3097
859.13	3165
859.263	3226
859.396	3218
859.529	3074
859.662	3081
859.795	3131
859.928	3157
860.061	3287
860.194	3329
860.327	3154
860.46	3161
860.592	3211
860.725	3260
860.858	3218
860.99	3123
861.123	3097
861.256	3093
861.388	3157
861.521	3975
861.653	3039
861.786	2998
861.918	3020
862.05	3104
862.183	3146
862.315	3180
862.447	3237
862.58	3116
862.712	2944
862.844	2887
862.976	3047
863.108	3013
863.24	3313
863.372	2906
863.504	2982
863.636	2956
863.768	3032
863.9	3024
864.032	2933
864.164	2967
864.296	3009
864.428	3104
864.559	3154
864.691	3100
864.823	3043
864.954	3081
865.086	3074
865.217	3032
865.349	2960
865.48	3028
865.612	3043
865.743	3165
865.875	3036
866.006	2982
866.137	3028
866.269	2902
866.4	2941
866.531	2960
866.662	2883
866.793	2944
866.924	2922
867.055	2967
867.186	2948
867.317	2918
867.448	2872
867.579	2849
867.71	2876
867.841	2842
867.972	2914
868.103	2910
868.233	2876
868.364	2880
868.495	2937
868.625	3116
868.756	3203
868.886	2986
869.017	3066
869.147	3176
869.278	3157
869.408	3051
869.539	3085
869.669	3100
869.799	3062
869.929	3157
870.06	3142
870.19	3351
870.32	3325
870.45	3310
870.58	3374
870.71	3488
870.84	3496
870.97	3321
871.1	3283
871.23	3496
871.36	3431
871.489	3351
871.619	3431
871.749	3428
871.879	3447
872.008	3477
872.138	3401
872.267	3283
872.397	3173
872.526	3100
872.656	3020
872.785	3116
872.915	3264
873.044	3355
873.173	3241
873.303	3256
873.432	3260
873.561	3233
873.69	3146
873.819	3199
873.948	3188
874.077	3119
874.206	3074
874.335	3074
874.464	3222
874.593	3298
874.722	3268
874.851	3412
874.979	3382
875.108	3329
875.237	3192
875.365	3188
875.494	3195
875.623	3249
875.751	3104
875.88	3119
876.008	3214
876.136	3211
876.265	3374
876.393	3530
876.521	3469
876.65	3382
876.778	3332
876.906	3245
877.034	3214
877.162	3241
877.29	3188
877.418	3291
877.546	3253
877.674	3237
877.802	3249
877.93	3253
878.058	3169
878.185	3127
878.313	3226
878.441	3249
878.568	3104
878.696	3169
878.824	3264
878.951	3302
879.079	3424
879.206	3610
879.333	3462
879.461	3325
879.588	3378
879.715	3477
879.842	3614
879.97	3393
880.097	3176
880.224	3135
880.351	3195
880.478	3150
880.605	3226
880.732	3203
880.859	3496
880.986	3317
881.112	3344
881.239	3203
881.366	3108
881.493	3077
881.619	3036
881.746	3077
881.872	3089
881.999	3093
882.125	3146
882.252	3230
882.378	3332
882.505	3458
882.631	3302
882.757	3161
882.883	3230
883.01	3230
883.136	3176
883.262	3070
883.388	3146
883.514	3370
883.64	3401
883.766	3272
883.892	3199
884.018	3260
884.143	3412
884.269	3530
884.395	3249
884.52	3154
884.646	3199
884.772	3127
884.897	3104
885.023	3214
885.148	3325
885.274	3424
885.399	3393
885.524	3260
885.65	3237
885.775	3302
885.9	3275
886.025	3420
886.15	3409
886.275	3332
886.4	3260
886.525	3287
886.65	3294
886.775	3272
886.9	3500
887.025	3629
887.149	3405
887.274	3218
887.399	3180
887.523	3214
887.648	3218
887.773	3203
887.897	3355
888.021	3344
888.146	3313
888.27	3424
888.395	3538
888.519	3431
888.643	3443
888.767	3431
888.891	3329
889.015	3256
889.139	3310
889.263	3256
889.387	3431
889.511	3515
889.635	3454
889.759	3298
889.883	3313
890.006	3382
890.13	3557
890.254	3302
890.377	3374
890.501	3218
890.624	3192
890.748	3351
890.871	3161
890.995	3108
891.118	3085
891.241	3211
891.364	3241
891.488	3378
891.611	3161
891.734	3222
891.857	3294
891.98	3214
892.103	3355
892.226	3317
892.349	3249
892.471	3089
892.594	3253
892.717	3329
892.839	3287
892.962	3306
893.085	3348
893.207	3291
893.33	3176
893.452	3245
893.575	3336
893.697	3214
893.819	3473
893.941	3511
894.064	3469
894.186	3310
894.308	3268
894.43	3477
894.552	3553
894.674	3473
894.796	3291
894.918	3313
895.04	3253
895.161	3431
895.283	3393
895.405	3268
895.526	3340
895.648	3447
895.769	3473
895.891	3428
896.012	3534
896.134	3473
896.255	3431
896.376	3393
896.498	3321
896.619	3443
896.74	3386
896.861	3428
896.982	3694
897.103	3842
897.224	3587
897.345	3504
897.466	3443
897.587	3515
897.708	3587
897.828	3542
897.949	3481
898.07	3306
898.19	3397
898.311	3618
898.431	3466
898.552	3492
898.672	3595
898.792	3584
898.913	3500
899.033	3389
899.153	3294
899.273	3195
899.393	3256
899.513	3329
899.633	3325
899.753	3359
899.873	3329
899.993	3378
900.113	3363
900.232	3397
900.352	3313
900.472	3306
900.591	3211
900.711	3317
900.83	3283
900.95	3397
901.069	3515
901.189	3317
901.308	3184
901.427	3135
901.546	3253
901.665	3317
901.784	3355
901.904	3230
902.023	3161
902.141	3024
902.26	2986
902.379	3131
902.498	3062
902.617	3047
902.735	3207
902.854	3207
902.973	3199
903.091	3062
903.21	3077
903.328	3150
903.446	3104
903.565	3085
903.683	3233
903.801	3116
903.919	3260
904.038	3275
904.156	3131
904.274	3264
904.392	3245
904.51	3298
904.627	3351
904.745	3424
904.863	3507
904.981	3253
905.098	3161
905.216	3218
905.334	3287
905.451	3233
905.569	3264
905.686	3382
905.803	3481
905.921	3291
906.038	3420
906.155	3344
906.272	3283
906.389	3332
906.506	3264
906.623	3253
906.74	3253
906.857	3199
906.974	3249
907.091	3458
907.208	3564
907.324	3485
907.441	3378
907.557	3195
907.674	3218
907.79	3214
907.907	3294
908.023	3386
908.139	3363
908.256	3329
908.372	3382
908.488	3386
908.604	3245
908.72	3237
908.836	3287
908.952	3272
909.068	3298
909.184	3477
909.3	3447
909.415	3481
909.531	3466
909.647	3275
909.762	3260
909.878	3272
909.993	3344
910.108	3310
910.224	3329
910.339	3409
910.454	3367
910.57	3283
910.685	3222
910.8	3591
910.915	3534
911.03	3416
911.145	3283
911.259	3302
911.374	3310
911.489	3268
911.604	3211
911.718	3116
911.833	3135
911.947	3013
912.062	2960
912.176	3154
912.291	3214
912.405	3222
912.519	3450
912.633	3450
912.748	3359
912.862	3298
912.976	3161
913.09	3077
913.204	3146
913.318	3249
913.431	3340
913.545	3359
913.659	3443
913.772	3325
913.886	3233
914	3192
914.113	3416
914.226	3405
914.34	3370
914.453	3207
914.566	3397
914.68	3294
914.793	3310
914.906	3116
915.019	3123
915.132	3036
915.245	3142
915.358	3184
915.47	3268
915.583	3294
915.696	3287
915.809	3386
915.921	3443
916.034	3233
916.146	3245
916.259	3218
916.371	3416
916.483	3374
916.595	3283
916.708	3367
916.82	3348
916.932	3302
917.044	3374
917.156	3344
917.268	3203
917.38	3291
917.491	3344
917.603	3363
917.715	3443
917.826	3485
917.938	3363
918.049	3279
918.161	3420
918.272	3576
918.384	3568
918.495	3477
918.606	3302
918.717	3287
918.828	3374
918.939	3386
919.05	3321
919.161	3397
919.272	3108
919.383	3253
919.494	3439
919.604	3709
919.715	3488
919.826	3416
919.936	3450
920.047	3595
920.157	3507
920.267	3831
920.378	3595
920.488	3564
920.598	3800
920.708	3949
920.818	3812
920.928	3823
921.038	4036
921.148	4055
921.258	3736
921.368	3667
921.477	3553
921.587	3526
921.697	3435
921.806	3633
921.916	3561
922.025	3397
922.134	3317
922.244	3294
922.353	3405
922.462	3321
922.571	3260
922.68	3100
922.789	3058
922.898	3108
923.007	3093
923.116	3241
923.224	3195
923.333	3150
923.442	3116
923.55	3093
923.659	3135
923.767	3233
923.876	3135
923.984	3211
924.092	3108
924.201	3192
924.309	3241
924.417	3241
924.525	3165
924.633	3253
924.741	4029
924.849	3062
924.956	3260
925.064	3093
925.172	3024
925.279	3104
925.387	3165
925.494	3199
925.602	3294
925.709	3325
925.816	3211
925.924	3321
926.031	3401
926.138	3321
926.245	3374
926.352	3253
926.459	3447
926.566	3428
926.673	3367
926.779	3226
926.886	3272
926.993	3157
927.099	3119
927.206	3119
927.312	3138
927.419	3226
927.525	3203
927.631	3275
927.737	3157
927.843	3154
927.95	2994
928.056	3165
928.162	3165
928.267	3241
928.373	3766
928.479	3283
928.585	3081
928.69	3184
928.796	3264
928.901	3188
929.007	3047
929.112	3180
929.218	3169
929.323	3112
929.428	3123
929.533	3306
929.638	3150
929.743	3176
929.848	3253
929.953	3222
930.058	3112
930.163	2963
930.267	3051
930.372	3192
930.477	3036
930.581	3317
930.685	3146
930.79	3066
930.894	3085
930.998	3112
931.103	3218
931.207	2922
931.311	2948
931.415	2956
931.519	2758
931.623	2781
