Data from test_V78500241_126.txt Node
Date: Fri Mar 25 16:16:04 CST 2022
User: usil
Spectrometer: V785-0024
Trigger mode: 0
Integration Time (sec): 4.000000E-1
Scans to average: 1
Nonlinearity correction enabled: false
Boxcar width: 0
Storing dark spectrum: false
XAxis mode: Wavelengths
Number of Pixels in Spectrum: 1024
>>>>>Begin Spectral Data<<<<<
801.071	2960
801.214	2979
801.356	2941
801.499	2933
801.641	2929
801.783	2963
801.926	3070
802.068	2986
802.211	3005
802.353	3089
802.496	3001
802.638	3074
802.78	3070
802.923	3116
803.065	3024
803.208	2967
803.35	2979
803.492	2952
803.635	2944
803.777	2819
803.919	2876
804.061	3272
804.204	2990
804.346	2941
804.488	2861
804.63	3043
804.773	2906
804.915	2963
805.057	3127
805.199	2975
805.341	2994
805.483	3123
805.626	3039
805.768	2982
805.91	3112
806.052	3203
806.194	3058
806.336	3291
806.478	3043
806.62	2998
806.762	2990
806.904	3089
807.046	3199
807.188	3024
807.33	2948
807.472	3005
807.614	2899
807.756	2971
807.898	2963
808.04	2929
808.182	2971
808.324	3001
808.465	2925
808.607	2902
808.749	2830
808.891	2883
809.033	3009
809.174	3020
809.316	2948
809.458	2948
809.6	2785
809.741	2807
809.883	2815
810.025	2880
810.166	2902
810.308	2880
810.45	2876
810.591	2826
810.733	2773
810.875	2861
811.016	2796
811.158	2815
811.299	2876
811.441	2963
811.582	2952
811.724	2826
811.865	2906
812.007	2922
812.148	2914
812.29	2872
812.431	2895
812.573	2956
812.714	2990
812.855	3097
812.997	3047
813.138	3161
813.279	3047
813.421	3001
813.562	2982
813.703	2910
813.845	2906
813.986	2800
814.127	2769
814.268	2929
814.41	2895
814.551	2823
814.692	2918
814.833	2853
814.974	2914
815.115	2971
815.256	2864
815.397	2849
815.539	2872
815.68	2796
815.821	2815
815.962	3001
816.103	2971
816.244	2895
816.385	2906
816.526	3036
816.666	2990
816.807	2766
816.948	2918
817.089	2922
817.23	2895
817.371	2823
817.512	2788
817.653	2868
817.793	2838
817.934	2929
818.075	2998
818.216	3039
818.356	3047
818.497	2925
818.638	2834
818.778	2830
818.919	2811
819.06	2792
819.2	2925
819.341	2861
819.481	2815
819.622	2975
819.762	3123
819.903	3070
820.043	2952
820.184	2948
820.324	2952
820.465	3055
820.605	3032
820.746	3039
820.886	2990
821.026	3116
821.167	3203
821.307	3275
821.447	3313
821.588	3253
821.728	3260
821.868	3226
822.008	3116
822.149	3199
822.289	3287
822.429	3116
822.569	3142
822.709	3207
822.849	3077
822.99	3100
823.13	3165
823.27	3260
823.41	3123
823.55	3180
823.69	3173
823.83	3203
823.97	3100
824.11	3028
824.25	3024
824.389	3131
824.529	3199
824.669	3085
824.809	3218
824.949	3268
825.089	3268
825.228	3199
825.368	3039
825.508	2986
825.648	2994
825.787	3058
825.927	3062
826.067	2975
826.206	2994
826.346	3051
826.485	3112
826.625	3150
826.765	3256
826.904	3233
827.044	3055
827.183	3013
827.323	2880
827.462	3001
827.601	2963
827.741	2948
827.88	2975
828.02	2891
828.159	3013
828.298	3081
828.437	3165
828.577	3074
828.716	3283
828.855	3093
828.994	2952
829.134	2925
829.273	2960
829.412	2906
829.551	2868
829.69	2956
829.829	3017
829.968	3138
830.107	3058
830.246	3062
830.385	2960
830.524	2929
830.663	2830
830.802	2777
830.941	2651
831.08	2701
831.219	2777
831.357	2792
831.496	2948
831.635	2773
831.774	2686
831.913	2678
832.051	2552
832.19	2602
832.329	2682
832.467	2545
832.606	2522
832.744	2571
832.883	2644
833.022	2590
833.16	2693
833.299	2689
833.437	2708
833.576	2720
833.714	2777
833.852	2766
833.991	2796
834.129	2849
834.267	2823
834.406	2792
834.544	2929
834.682	2914
834.821	2899
834.959	3081
835.097	2925
835.235	3066
835.373	3028
835.511	3062
835.65	3001
835.788	3005
835.926	2880
836.064	2811
836.202	2868
836.34	3116
836.478	3188
836.615	3047
836.753	3192
836.891	3211
837.029	3176
837.167	3135
837.305	3127
837.443	3058
837.58	2982
837.718	3131
837.856	3104
837.993	3055
838.131	3150
838.269	3074
838.406	3127
838.544	3108
838.681	2990
838.819	2933
838.956	2868
839.094	2853
839.231	2956
839.369	3024
839.506	3393
839.643	3230
839.781	3043
839.918	2994
840.055	3081
840.193	3085
840.33	3085
840.467	3123
840.604	3154
840.742	3431
840.879	3039
841.016	3070
841.153	3131
841.29	3367
841.427	3325
841.564	3291
841.701	3359
841.838	3237
841.975	3222
842.112	3211
842.249	3097
842.385	3070
842.522	3310
842.659	3116
842.796	3104
842.933	3104
843.069	3104
843.206	3074
843.343	3203
843.479	3119
843.616	3154
843.752	2929
843.889	2937
844.025	3089
844.162	2906
844.298	3104
844.435	2990
844.571	2929
844.708	3119
844.844	3237
844.98	3287
845.117	3233
845.253	3074
845.389	3039
845.525	3104
845.661	3123
845.798	3005
845.934	3165
846.07	3051
846.206	3279
846.342	3348
846.478	3275
846.614	3116
846.75	3089
846.886	3028
847.022	3260
847.158	3146
847.294	3245
847.429	3283
847.565	3260
847.701	3492
847.837	3089
847.972	3017
848.108	3207
848.244	3157
848.379	3005
848.515	2944
848.65	2963
848.786	2960
848.921	3039
849.057	3100
849.192	3138
849.328	3108
849.463	3161
849.598	3100
849.734	3100
849.869	3024
850.004	2941
850.14	3028
850.275	2914
850.41	2857
850.545	2895
850.68	2910
850.815	3005
850.95	2998
851.085	3188
851.22	3165
851.355	3058
851.49	2975
851.625	3020
851.76	3058
851.895	2967
852.03	2948
852.165	3058
852.299	3146
852.434	3188
852.569	3195
852.703	3226
852.838	3226
852.973	3397
853.107	3325
853.242	3157
853.376	3138
853.511	3005
853.645	3058
853.78	3256
853.914	3127
854.048	3081
854.183	3108
854.317	3180
854.451	3340
854.585	3180
854.72	3112
854.854	3207
854.988	3070
855.122	3081
855.256	2990
855.39	3100
855.524	3287
855.658	3188
855.792	3169
855.926	3245
856.06	3249
856.194	3264
856.327	3169
856.461	3070
856.595	3093
856.729	3097
856.862	3226
856.996	3157
857.13	3218
857.263	3260
857.397	3310
857.53	3123
857.664	3199
857.797	3264
857.931	3279
858.064	3180
858.197	3245
858.331	3165
858.464	3142
858.597	3013
858.731	3176
858.864	3165
858.997	3074
859.13	3192
859.263	3218
859.396	3207
859.529	3123
859.662	3104
859.795	3047
859.928	3157
860.061	3287
860.194	3291
860.327	3150
860.46	3104
860.592	3264
860.725	3310
860.858	3302
860.99	3093
861.123	3100
861.256	3066
861.388	3169
861.521	3789
861.653	3062
861.786	2990
861.918	3043
862.05	3097
862.183	3138
862.315	3169
862.447	3203
862.58	3116
862.712	2975
862.844	2887
862.976	3024
863.108	3036
863.24	3469
863.372	2948
863.504	2937
863.636	2922
863.768	3062
863.9	2979
864.032	2929
864.164	2944
864.296	3005
864.428	3074
864.559	3135
864.691	3081
864.823	3116
864.954	3036
865.086	3055
865.217	3013
865.349	2944
865.48	3001
865.612	3058
865.743	3150
865.875	3024
866.006	2944
866.137	2960
866.269	2971
866.4	2956
866.531	2925
866.662	2891
866.793	2891
866.924	2929
867.055	2994
867.186	2979
867.317	2899
867.448	2895
867.579	2880
867.71	2868
867.841	2823
867.972	2899
868.103	2925
868.233	2887
868.364	2902
868.495	2948
868.625	3112
868.756	3169
868.886	2963
869.017	3032
869.147	3188
869.278	3169
869.408	3058
869.539	3001
869.669	3119
869.799	3051
869.929	3154
870.06	3119
870.19	3340
870.32	3325
870.45	3329
870.58	3416
870.71	3496
870.84	3504
870.97	3351
871.1	3310
871.23	3526
871.36	3462
871.489	3386
871.619	3431
871.749	3420
871.879	3504
872.008	3485
872.138	3393
872.267	3279
872.397	3195
872.526	3119
872.656	3028
872.785	3116
872.915	3272
873.044	3336
873.173	3230
873.303	3253
873.432	3253
873.561	3279
873.69	3161
873.819	3150
873.948	3233
874.077	3123
874.206	3062
874.335	3112
874.464	3230
874.593	3378
874.722	3256
874.851	3359
874.979	3325
875.108	3291
875.237	3207
875.365	3195
875.494	3161
875.623	3283
875.751	3104
875.88	3138
876.008	3195
876.136	3249
876.265	3389
876.393	3530
876.521	3462
876.65	3378
876.778	3348
876.906	3256
877.034	3226
877.162	3253
877.29	3226
877.418	3264
877.546	3294
877.674	3256
877.802	3260
877.93	3233
878.058	3142
878.185	3161
878.313	3192
878.441	3233
878.568	3070
878.696	3188
878.824	3279
878.951	3317
879.079	3481
879.206	3663
879.333	3500
879.461	3336
879.588	3348
879.715	3561
879.842	3584
879.97	3401
880.097	3214
880.224	3108
880.351	3199
880.478	3226
880.605	3245
880.732	3203
880.859	3561
880.986	3332
881.112	3363
881.239	3199
881.366	3070
881.493	3055
881.619	3039
881.746	3108
881.872	3062
881.999	3089
882.125	3146
882.252	3298
882.378	3344
882.505	3447
882.631	3332
882.757	3154
882.883	3211
883.01	3272
883.136	3214
883.262	3077
883.388	3123
883.514	3306
883.64	3382
883.766	3374
883.892	3203
884.018	3260
884.143	3416
884.269	3610
884.395	3207
884.52	3199
884.646	3180
884.772	3135
884.897	3119
885.023	3253
885.148	3382
885.274	3450
885.399	3344
885.524	3256
885.65	3260
885.775	3325
885.9	3298
886.025	3458
886.15	3367
886.275	3306
886.4	3279
886.525	3332
886.65	3310
886.775	3329
886.9	3511
887.025	3660
887.149	3401
887.274	3291
887.399	3222
887.523	3249
887.648	3195
887.773	3253
887.897	3382
888.021	3428
888.146	3325
888.27	3428
888.395	3572
888.519	3454
888.643	3515
888.767	3492
888.891	3359
889.015	3298
889.139	3329
889.263	3272
889.387	3420
889.511	3526
889.635	3428
889.759	3298
889.883	3317
890.006	3355
890.13	3515
890.254	3298
890.377	3412
890.501	3192
890.624	3211
890.748	3302
890.871	3195
890.995	3138
891.118	3138
891.241	3230
891.364	3249
891.488	3344
891.611	3195
891.734	3233
891.857	3298
891.98	3313
892.103	3389
892.226	3283
892.349	3241
892.471	3154
892.594	3275
892.717	3313
892.839	3294
892.962	3313
893.085	3428
893.207	3302
893.33	3165
893.452	3218
893.575	3344
893.697	3294
893.819	3511
893.941	3500
894.064	3466
894.186	3302
894.308	3279
894.43	3435
894.552	3530
894.674	3477
894.796	3256
894.918	3306
895.04	3310
895.161	3416
895.283	3454
895.405	3325
895.526	3374
895.648	3485
895.769	3473
895.891	3466
896.012	3534
896.134	3492
896.255	3447
896.376	3378
896.498	3374
896.619	3454
896.74	3348
896.861	3416
896.982	3724
897.103	3800
897.224	3610
897.345	3523
897.466	3469
897.587	3538
897.708	3637
897.828	3591
897.949	3473
898.07	3344
898.19	3378
898.311	3610
898.431	3469
898.552	3542
898.672	3622
898.792	3572
898.913	3564
899.033	3466
899.153	3340
899.273	3245
899.393	3279
899.513	3340
899.633	3340
899.753	3393
899.873	3310
899.993	3378
900.113	3367
900.232	3420
900.352	3344
900.472	3302
900.591	3214
900.711	3294
900.83	3264
900.95	3469
901.069	3507
901.189	3382
901.308	3192
901.427	3138
901.546	3195
901.665	3310
901.784	3367
901.904	3253
902.023	3184
902.141	3039
902.26	3020
902.379	3127
902.498	3058
902.617	3081
902.735	3291
902.854	3233
902.973	3195
903.091	3077
903.21	3081
903.328	3184
903.446	3085
903.565	3138
903.683	3214
903.801	3127
903.919	3287
904.038	3287
904.156	3157
904.274	3313
904.392	3249
904.51	3325
904.627	3310
904.745	3462
904.863	3519
904.981	3283
905.098	3161
905.216	3249
905.334	3329
905.451	3329
905.569	3329
905.686	3428
905.803	3469
905.921	3294
906.038	3458
906.155	3382
906.272	3310
906.389	3355
906.506	3260
906.623	3256
906.74	3310
906.857	3207
906.974	3260
907.091	3477
907.208	3606
907.324	3466
907.441	3405
907.557	3230
907.674	3233
907.79	3256
907.907	3298
908.023	3424
908.139	3393
908.256	3325
908.372	3393
908.488	3302
908.604	3253
908.72	3268
908.836	3344
908.952	3317
909.068	3386
909.184	3462
909.3	3431
909.415	3542
909.531	3488
909.647	3325
909.762	3298
909.878	3321
909.993	3412
910.108	3348
910.224	3389
910.339	3439
910.454	3389
910.57	3291
910.685	3264
910.8	3580
910.915	3561
911.03	3473
911.145	3264
911.259	3298
911.374	3329
911.489	3279
911.604	3226
911.718	3146
911.833	3184
911.947	3024
912.062	3028
912.176	3241
912.291	3222
912.405	3268
912.519	3416
912.633	3519
912.748	3393
912.862	3313
912.976	3233
913.09	3097
913.204	3173
913.318	3268
913.431	3363
913.545	3363
913.659	3397
913.772	3313
913.886	3237
914	3249
914.113	3367
914.226	3409
914.34	3389
914.453	3237
914.566	3431
914.68	3321
914.793	3378
914.906	3161
915.019	3135
915.132	3077
915.245	3256
915.358	3264
915.47	3249
915.583	3310
915.696	3325
915.809	3409
915.921	3447
916.034	3279
916.146	3260
916.259	3275
916.371	3405
916.483	3401
916.595	3310
916.708	3332
916.82	3374
916.932	3351
917.044	3378
917.156	3355
917.268	3264
917.38	3306
917.491	3313
917.603	3397
917.715	3443
917.826	3485
917.938	3409
918.049	3310
918.161	3435
918.272	3587
918.384	3644
918.495	3488
918.606	3386
918.717	3298
918.828	3386
918.939	3447
919.05	3336
919.161	3424
919.272	3203
919.383	3321
919.494	3496
919.604	3736
919.715	3481
919.826	3458
919.936	3504
920.047	3587
920.157	3610
920.267	3808
920.378	3641
920.488	3606
920.598	3778
920.708	3975
920.818	3865
920.928	3850
921.038	4071
921.148	4017
921.258	3740
921.368	3656
921.477	3603
921.587	3572
921.697	3523
921.806	3648
921.916	3553
922.025	3378
922.134	3405
922.244	3329
922.353	3443
922.462	3298
922.571	3256
922.68	3157
922.789	3108
922.898	3176
923.007	3150
923.116	3222
923.224	3188
923.333	3207
923.442	3142
923.55	3116
923.659	3142
923.767	3237
923.876	3173
923.984	3272
924.092	3123
924.201	3241
924.309	3237
924.417	3249
924.525	3249
924.633	3249
924.741	4196
924.849	3100
924.956	3302
925.064	3150
925.172	3062
925.279	3127
925.387	3222
925.494	3226
925.602	3370
925.709	3363
925.816	3184
925.924	3287
926.031	3416
926.138	3329
926.245	3332
926.352	3268
926.459	3454
926.566	3492
926.673	3336
926.779	3279
926.886	3256
926.993	3142
927.099	3146
927.206	3154
927.312	3142
927.419	3253
927.525	3230
927.631	3287
927.737	3165
927.843	3146
927.95	3047
928.056	3173
928.162	3176
928.267	3230
928.373	3816
928.479	3329
928.585	3089
928.69	3249
928.796	3275
928.901	3165
929.007	3074
929.112	3222
929.218	3195
929.323	3161
929.428	3188
929.533	3321
929.638	3131
929.743	3146
929.848	3264
929.953	3233
930.058	3150
930.163	3055
930.267	3085
930.372	3222
930.477	3093
930.581	3370
930.685	3214
930.79	3055
930.894	3211
930.998	3131
931.103	3344
931.207	3009
931.311	2941
931.415	2941
931.519	2800
931.623	2826
