Data from test_V78500241_207.txt Node
Date: Fri Mar 25 16:16:38 CST 2022
User: usil
Spectrometer: V785-0024
Trigger mode: 0
Integration Time (sec): 4.000000E-1
Scans to average: 1
Nonlinearity correction enabled: false
Boxcar width: 0
Storing dark spectrum: false
XAxis mode: Wavelengths
Number of Pixels in Spectrum: 1024
>>>>>Begin Spectral Data<<<<<
801.071	2933
801.214	2941
801.356	2868
801.499	2902
801.641	2872
801.783	2944
801.926	3039
802.068	2994
802.211	3001
802.353	3036
802.496	3005
802.638	3058
802.78	3055
802.923	3081
803.065	3051
803.208	2853
803.35	2929
803.492	2937
803.635	2925
803.777	2800
803.919	2864
804.061	3214
804.204	2948
804.346	2910
804.488	2838
804.63	2986
804.773	2876
804.915	2937
805.057	3055
805.199	2899
805.341	2975
805.483	3047
805.626	3024
805.768	2979
805.91	3070
806.052	3127
806.194	3081
806.336	3230
806.478	3032
806.62	2944
806.762	2960
806.904	3089
807.046	3173
807.188	3001
807.33	2929
807.472	2994
807.614	2883
807.756	2956
807.898	2941
808.04	2883
808.182	2952
808.324	2933
808.465	2872
808.607	2918
808.749	2800
808.891	2872
809.033	2979
809.174	2971
809.316	2895
809.458	2887
809.6	2830
809.741	2796
809.883	2785
810.025	2853
810.166	2853
810.308	2861
810.45	2868
810.591	2766
810.733	2815
810.875	2823
811.016	2788
811.158	2754
811.299	2788
811.441	2948
811.582	2902
811.724	2857
811.865	2842
812.007	2887
812.148	2876
812.29	2876
812.431	2895
812.573	2971
812.714	3001
812.855	3036
812.997	3058
813.138	3127
813.279	3020
813.421	3020
813.562	2963
813.703	2906
813.845	2872
813.986	2758
814.127	2743
814.268	2861
814.41	2838
814.551	2792
814.692	2868
814.833	2849
814.974	2899
815.115	2937
815.256	2834
815.397	2857
815.539	2887
815.68	2785
815.821	2769
815.962	2944
816.103	2967
816.244	2891
816.385	2819
816.526	2982
816.666	2925
816.807	2735
816.948	2899
817.089	2944
817.23	2838
817.371	2830
817.512	2785
817.653	2876
817.793	2826
817.934	2918
818.075	2979
818.216	2986
818.356	3039
818.497	2899
818.638	2792
818.778	2853
818.919	2807
819.06	2792
819.2	2906
819.341	2819
819.481	2807
819.622	2925
819.762	3146
819.903	3039
820.043	2952
820.184	2891
820.324	2922
820.465	3020
820.605	3032
820.746	3062
820.886	2918
821.026	3104
821.167	3199
821.307	3279
821.447	3291
821.588	3195
821.728	3226
821.868	3218
822.008	3077
822.149	3199
822.289	3230
822.429	3123
822.569	3093
822.709	3188
822.849	3058
822.99	3058
823.13	3165
823.27	3176
823.41	3108
823.55	3173
823.69	3176
823.83	3199
823.97	3116
824.11	3024
824.25	3017
824.389	3089
824.529	3085
824.669	3051
824.809	3199
824.949	3283
825.089	3279
825.228	3157
825.368	3039
825.508	2948
825.648	2944
825.787	3028
825.927	3051
826.067	2998
826.206	2960
826.346	3055
826.485	3077
826.625	3100
826.765	3264
826.904	3264
827.044	2998
827.183	2963
827.323	2849
827.462	2998
827.601	2922
827.741	2941
827.88	2975
828.02	2876
828.159	3001
828.298	3058
828.437	3108
828.577	3062
828.716	3233
828.855	3055
828.994	2929
829.134	2876
829.273	2948
829.412	2891
829.551	2868
829.69	2880
829.829	3009
829.968	3112
830.107	2998
830.246	3032
830.385	2910
830.524	2868
830.663	2823
830.802	2720
830.941	2648
831.08	2632
831.219	2746
831.357	2781
831.496	2937
831.635	2689
831.774	2655
831.913	2686
832.051	2537
832.19	2598
832.329	2739
832.467	2533
832.606	2465
832.744	2621
832.883	2598
833.022	2594
833.16	2651
833.299	2697
833.437	2678
833.576	2689
833.714	2716
833.852	2712
833.991	2773
834.129	2868
834.267	2800
834.406	2777
834.544	2883
834.682	2895
834.821	2887
834.959	3074
835.097	2929
835.235	3066
835.373	2998
835.511	3001
835.65	2967
835.788	2990
835.926	2849
836.064	2804
836.202	2838
836.34	3108
836.478	3112
836.615	3070
836.753	3142
836.891	3211
837.029	3180
837.167	3127
837.305	3055
837.443	3036
837.58	2952
837.718	3150
837.856	3066
837.993	3020
838.131	3119
838.269	3112
838.406	3116
838.544	3127
838.681	2963
838.819	2937
838.956	2807
839.094	2815
839.231	2910
839.369	3058
839.506	3378
839.643	3192
839.781	3032
839.918	2986
840.055	3043
840.193	3024
840.33	3062
840.467	3127
840.604	3150
840.742	3416
840.879	3036
841.016	3081
841.153	3150
841.29	3294
841.427	3321
841.564	3245
841.701	3310
841.838	3199
841.975	3192
842.112	3226
842.249	3100
842.385	3058
842.522	3207
842.659	3093
842.796	3036
842.933	3097
843.069	3028
843.206	3047
843.343	3199
843.479	3074
843.616	3142
843.752	2883
843.889	2864
844.025	3070
844.162	2845
844.298	3119
844.435	2933
844.571	2925
844.708	3104
844.844	3203
844.98	3245
845.117	3230
845.253	3066
845.389	3009
845.525	3085
845.661	3089
845.798	3020
845.934	3123
846.07	3077
846.206	3233
846.342	3283
846.478	3230
846.614	3066
846.75	3058
846.886	3047
847.022	3287
847.158	3150
847.294	3214
847.429	3268
847.565	3256
847.701	3515
847.837	3051
847.972	3039
848.108	3188
848.244	3157
848.379	3001
848.515	2975
848.65	2944
848.786	2990
848.921	3020
849.057	3142
849.192	3138
849.328	3074
849.463	3157
849.598	3032
849.734	2998
849.869	3001
850.004	2918
850.14	2963
850.275	2937
850.41	2868
850.545	2891
850.68	2975
850.815	3001
850.95	2986
851.085	3195
851.22	3131
851.355	3017
851.49	2994
851.625	2990
851.76	3036
851.895	2899
852.03	2933
852.165	3047
852.299	3157
852.434	3203
852.569	3169
852.703	3173
852.838	3214
852.973	3283
853.107	3325
853.242	3169
853.376	3116
853.511	2975
853.645	3055
853.78	3253
853.914	3131
854.048	3119
854.183	3066
854.317	3154
854.451	3287
854.585	3135
854.72	3081
854.854	3222
854.988	3085
855.122	3062
855.256	2979
855.39	3100
855.524	3260
855.658	3176
855.792	3173
855.926	3222
856.06	3237
856.194	3256
856.327	3173
856.461	3062
856.595	3089
856.729	3108
856.862	3207
856.996	3188
857.13	3207
857.263	3230
857.397	3302
857.53	3138
857.664	3214
857.797	3264
857.931	3233
858.064	3188
858.197	3207
858.331	3138
858.464	3154
858.597	3024
858.731	3123
858.864	3150
858.997	3123
859.13	3154
859.263	3176
859.396	3222
859.529	3135
859.662	3055
859.795	3051
859.928	3135
860.061	3275
860.194	3279
860.327	3127
860.46	3112
860.592	3241
860.725	3275
860.858	3291
860.99	3116
861.123	3077
861.256	3074
861.388	3176
861.521	3876
861.653	3036
861.786	3005
861.918	3043
862.05	3093
862.183	3093
862.315	3154
862.447	3218
862.58	3108
862.712	2941
862.844	2933
862.976	3032
863.108	3009
863.24	3317
863.372	2876
863.504	2956
863.636	2967
863.768	3047
863.9	3009
864.032	2929
864.164	2944
864.296	3028
864.428	3104
864.559	3108
864.691	3070
864.823	3112
864.954	3009
865.086	3039
865.217	3017
865.349	3001
865.48	2956
865.612	3051
865.743	3165
865.875	3009
866.006	2933
866.137	2952
866.269	2944
866.4	2941
866.531	2948
866.662	2895
866.793	2922
866.924	2902
867.055	2979
867.186	2941
867.317	2906
867.448	2819
867.579	2868
867.71	2819
867.841	2868
867.972	2922
868.103	2914
868.233	2887
868.364	2838
868.495	2880
868.625	3085
868.756	3138
868.886	2979
869.017	3043
869.147	3157
869.278	3184
869.408	3036
869.539	3036
869.669	3051
869.799	3062
869.929	3131
870.06	3131
870.19	3329
870.32	3313
870.45	3306
870.58	3416
870.71	3443
870.84	3458
870.97	3302
871.1	3260
871.23	3473
871.36	3450
871.489	3382
871.619	3409
871.749	3439
871.879	3439
872.008	3485
872.138	3351
872.267	3283
872.397	3142
872.526	3104
872.656	3005
872.785	3097
872.915	3245
873.044	3298
873.173	3188
873.303	3287
873.432	3272
873.561	3264
873.69	3157
873.819	3135
873.948	3241
874.077	3116
874.206	3047
874.335	3123
874.464	3218
874.593	3340
874.722	3245
874.851	3378
874.979	3336
875.108	3317
875.237	3184
875.365	3188
875.494	3184
875.623	3222
875.751	3077
875.88	3089
876.008	3180
876.136	3222
876.265	3340
876.393	3519
876.521	3431
876.65	3431
876.778	3393
876.906	3249
877.034	3222
877.162	3245
877.29	3195
877.418	3268
877.546	3233
877.674	3256
877.802	3203
877.93	3233
878.058	3176
878.185	3104
878.313	3180
878.441	3230
878.568	3070
878.696	3188
878.824	3268
878.951	3310
879.079	3435
879.206	3603
879.333	3424
879.461	3329
879.588	3344
879.715	3477
879.842	3587
879.97	3412
880.097	3157
880.224	3150
880.351	3211
880.478	3264
880.605	3203
880.732	3184
880.859	3538
880.986	3287
881.112	3310
881.239	3218
881.366	3123
881.493	3024
881.619	3024
881.746	3077
881.872	3074
881.999	3123
882.125	3135
882.252	3222
882.378	3287
882.505	3447
882.631	3275
882.757	3104
882.883	3188
883.01	3253
883.136	3131
883.262	3081
883.388	3123
883.514	3325
883.64	3393
883.766	3329
883.892	3199
884.018	3233
884.143	3428
884.269	3545
884.395	3214
884.52	3127
884.646	3131
884.772	3123
884.897	3097
885.023	3188
885.148	3325
885.274	3435
885.399	3340
885.524	3272
885.65	3275
885.775	3340
885.9	3275
886.025	3439
886.15	3355
886.275	3298
886.4	3237
886.525	3329
886.65	3313
886.775	3275
886.9	3545
887.025	3656
887.149	3428
887.274	3253
887.399	3192
887.523	3188
887.648	3180
887.773	3214
887.897	3397
888.021	3386
888.146	3317
888.27	3431
888.395	3500
888.519	3450
888.643	3424
888.767	3450
888.891	3310
889.015	3302
889.139	3310
889.263	3241
889.387	3374
889.511	3534
889.635	3481
889.759	3359
889.883	3313
890.006	3409
890.13	3477
890.254	3260
890.377	3363
890.501	3230
890.624	3233
890.748	3348
890.871	3207
890.995	3123
891.118	3051
891.241	3207
891.364	3253
891.488	3325
891.611	3176
891.734	3272
891.857	3279
891.98	3249
892.103	3359
892.226	3287
892.349	3226
892.471	3097
892.594	3226
892.717	3272
892.839	3287
892.962	3310
893.085	3420
893.207	3294
893.33	3157
893.452	3241
893.575	3306
893.697	3264
893.819	3485
893.941	3481
894.064	3447
894.186	3241
894.308	3291
894.43	3439
894.552	3549
894.674	3458
894.796	3291
894.918	3329
895.04	3260
895.161	3435
895.283	3393
895.405	3275
895.526	3321
895.648	3424
895.769	3431
895.891	3412
896.012	3526
896.134	3477
896.255	3431
896.376	3374
896.498	3370
896.619	3447
896.74	3393
896.861	3401
896.982	3686
897.103	3876
897.224	3610
897.345	3545
897.466	3466
897.587	3530
897.708	3633
897.828	3545
897.949	3473
898.07	3344
898.19	3397
898.311	3576
898.431	3462
898.552	3485
898.672	3618
898.792	3629
898.913	3515
899.033	3416
899.153	3287
899.273	3222
899.393	3287
899.513	3268
899.633	3294
899.753	3363
899.873	3317
899.993	3386
900.113	3336
900.232	3389
900.352	3298
900.472	3264
900.591	3192
900.711	3294
900.83	3199
900.95	3428
901.069	3511
901.189	3359
901.308	3188
901.427	3138
901.546	3199
901.665	3291
901.784	3325
901.904	3218
902.023	3135
902.141	3001
902.26	3001
902.379	3154
902.498	3097
902.617	3058
902.735	3199
902.854	3195
902.973	3226
903.091	3024
903.21	3104
903.328	3123
903.446	3123
903.565	3108
903.683	3211
903.801	3154
903.919	3291
904.038	3325
904.156	3165
904.274	3313
904.392	3233
904.51	3317
904.627	3351
904.745	3458
904.863	3515
904.981	3272
905.098	3195
905.216	3268
905.334	3310
905.451	3317
905.569	3317
905.686	3454
905.803	3481
905.921	3291
906.038	3454
906.155	3401
906.272	3275
906.389	3397
906.506	3237
906.623	3294
906.74	3298
906.857	3199
906.974	3298
907.091	3473
907.208	3610
907.324	3492
907.441	3454
907.557	3298
907.674	3279
907.79	3272
907.907	3329
908.023	3416
908.139	3462
908.256	3344
908.372	3458
908.488	3428
908.604	3260
908.72	3283
908.836	3351
908.952	3348
909.068	3428
909.184	3511
909.3	3412
909.415	3584
909.531	3473
909.647	3348
909.762	3374
909.878	3325
909.993	3428
910.108	3397
910.224	3431
910.339	3492
910.454	3431
910.57	3359
910.685	3325
910.8	3637
910.915	3595
911.03	3454
911.145	3336
911.259	3351
911.374	3378
911.489	3283
911.604	3287
911.718	3154
911.833	3214
911.947	3089
912.062	3020
912.176	3188
912.291	3249
912.405	3268
912.519	3462
912.633	3534
912.748	3397
912.862	3302
912.976	3226
913.09	3123
913.204	3214
913.318	3302
913.431	3393
913.545	3397
913.659	3439
913.772	3420
913.886	3268
914	3256
914.113	3397
914.226	3504
914.34	3405
914.453	3253
914.566	3450
914.68	3336
914.793	3393
914.906	3184
915.019	3154
915.132	3112
915.245	3233
915.358	3237
915.47	3313
915.583	3294
915.696	3340
915.809	3473
915.921	3477
916.034	3287
916.146	3298
916.259	3264
916.371	3431
916.483	3420
916.595	3325
916.708	3405
916.82	3401
916.932	3447
917.044	3405
917.156	3340
917.268	3283
917.38	3336
917.491	3374
917.603	3428
917.715	3492
917.826	3519
917.938	3447
918.049	3313
918.161	3485
918.272	3633
918.384	3629
918.495	3526
918.606	3386
918.717	3336
918.828	3397
918.939	3447
919.05	3359
919.161	3401
919.272	3214
919.383	3370
919.494	3545
919.604	3728
919.715	3545
919.826	3450
919.936	3507
920.047	3625
920.157	3622
920.267	3835
920.378	3641
920.488	3641
920.598	3816
920.708	3953
920.818	3857
920.928	3918
921.038	4048
921.148	4032
921.258	3793
921.368	3656
921.477	3599
921.587	3557
921.697	3511
921.806	3713
921.916	3564
922.025	3389
922.134	3405
922.244	3344
922.353	3473
922.462	3313
922.571	3260
922.68	3146
922.789	3100
922.898	3165
923.007	3123
923.116	3264
923.224	3256
923.333	3230
923.442	3138
923.55	3116
923.659	3192
923.767	3268
923.876	3146
923.984	3279
924.092	3150
924.201	3253
924.309	3237
924.417	3291
924.525	3237
924.633	3348
924.741	4223
924.849	3089
924.956	3317
925.064	3104
925.172	3081
925.279	3123
925.387	3245
925.494	3260
925.602	3439
925.709	3397
925.816	3272
925.924	3336
926.031	3389
926.138	3401
926.245	3401
926.352	3310
926.459	3431
926.566	3526
926.673	3367
926.779	3275
926.886	3321
926.993	3180
927.099	3218
927.206	3123
927.312	3138
927.419	3279
927.525	3253
927.631	3325
927.737	3176
927.843	3203
927.95	3077
928.056	3161
928.162	3272
928.267	3287
928.373	3903
928.479	3348
928.585	3135
928.69	3268
928.796	3283
928.901	3199
929.007	3108
929.112	3230
929.218	3249
929.323	3211
929.428	3199
929.533	3340
929.638	3157
929.743	3214
929.848	3310
929.953	3264
930.058	3135
930.163	3028
930.267	3104
930.372	3226
930.477	3123
930.581	3363
930.685	3218
930.79	3104
930.894	3157
930.998	3112
931.103	3272
931.207	2994
931.311	2994
931.415	2986
931.519	2796
931.623	2861
