Data from test_V78500241_152.txt Node
Date: Fri Mar 25 16:16:15 CST 2022
User: usil
Spectrometer: V785-0024
Trigger mode: 0
Integration Time (sec): 4.000000E-1
Scans to average: 1
Nonlinearity correction enabled: false
Boxcar width: 0
Storing dark spectrum: false
XAxis mode: Wavelengths
Number of Pixels in Spectrum: 1024
>>>>>Begin Spectral Data<<<<<
801.071	2887
801.214	2960
801.356	2910
801.499	2906
801.641	2887
801.783	2952
801.926	3051
802.068	2971
802.211	3005
802.353	3055
802.496	2994
802.638	3047
802.78	3043
802.923	3093
803.065	2994
803.208	2880
803.35	2887
803.492	2960
803.635	2952
803.777	2788
803.919	2883
804.061	3230
804.204	2990
804.346	2937
804.488	2853
804.63	3013
804.773	2902
804.915	2933
805.057	3085
805.199	2929
805.341	2994
805.483	3058
805.626	2998
805.768	2967
805.91	3070
806.052	3093
806.194	3005
806.336	3226
806.478	3032
806.62	2979
806.762	2963
806.904	3097
807.046	3188
807.188	2982
807.33	2925
807.472	3005
807.614	2891
807.756	2998
807.898	2933
808.04	2971
808.182	3024
808.324	2994
808.465	2891
808.607	2880
808.749	2819
808.891	2868
809.033	3017
809.174	2971
809.316	2895
809.458	2910
809.6	2800
809.741	2804
809.883	2804
810.025	2887
810.166	2883
810.308	2815
810.45	2899
810.591	2811
810.733	2758
810.875	2826
811.016	2758
811.158	2754
811.299	2838
811.441	2922
811.582	2902
811.724	2872
811.865	2880
812.007	2918
812.148	2906
812.29	2857
812.431	2895
812.573	2944
812.714	2967
812.855	3043
812.997	3085
813.138	3157
813.279	3028
813.421	2994
813.562	2960
813.703	2880
813.845	2914
813.986	2792
814.127	2739
814.268	2849
814.41	2883
814.551	2826
814.692	2876
814.833	2838
814.974	2918
815.115	2979
815.256	2857
815.397	2853
815.539	2883
815.68	2800
815.821	2819
815.962	2960
816.103	2941
816.244	2883
816.385	2902
816.526	2990
816.666	2933
816.807	2769
816.948	2914
817.089	2918
817.23	2883
817.371	2792
817.512	2823
817.653	2842
817.793	2826
817.934	2906
818.075	3013
818.216	3001
818.356	3062
818.497	2883
818.638	2796
818.778	2849
818.919	2819
819.06	2769
819.2	2906
819.341	2849
819.481	2819
819.622	2922
819.762	3081
819.903	3081
820.043	2956
820.184	2895
820.324	2918
820.465	3077
820.605	3051
820.746	3028
820.886	2948
821.026	3127
821.167	3192
821.307	3256
821.447	3256
821.588	3237
821.728	3222
821.868	3214
822.008	3077
822.149	3226
822.289	3260
822.429	3097
822.569	3116
822.709	3218
822.849	3036
822.99	3066
823.13	3173
823.27	3264
823.41	3127
823.55	3188
823.69	3157
823.83	3199
823.97	3176
824.11	3020
824.25	2998
824.389	3070
824.529	3119
824.669	3081
824.809	3199
824.949	3253
825.089	3253
825.228	3169
825.368	2998
825.508	2925
825.648	2982
825.787	3047
825.927	3062
826.067	3009
826.206	2990
826.346	3017
826.485	3051
826.625	3123
826.765	3317
826.904	3237
827.044	2982
827.183	2979
827.323	2891
827.462	3005
827.601	2952
827.741	2960
827.88	2979
828.02	2864
828.159	2994
828.298	3058
828.437	3104
828.577	3066
828.716	3249
828.855	3123
828.994	2963
829.134	2895
829.273	2902
829.412	2872
829.551	2853
829.69	2948
829.829	3005
829.968	3108
830.107	3028
830.246	3055
830.385	2960
830.524	2880
830.663	2811
830.802	2750
830.941	2667
831.08	2678
831.219	2807
831.357	2777
831.496	2975
831.635	2758
831.774	2636
831.913	2678
832.051	2568
832.19	2571
832.329	2682
832.467	2571
832.606	2488
832.744	2598
832.883	2625
833.022	2568
833.16	2678
833.299	2693
833.437	2701
833.576	2731
833.714	2743
833.852	2785
833.991	2796
834.129	2845
834.267	2834
834.406	2815
834.544	2895
834.682	2899
834.821	2857
834.959	3066
835.097	2868
835.235	3093
835.373	2990
835.511	2994
835.65	2952
835.788	2967
835.926	2864
836.064	2804
836.202	2887
836.34	3116
836.478	3150
836.615	3055
836.753	3161
836.891	3207
837.029	3207
837.167	3100
837.305	3062
837.443	3017
837.58	2963
837.718	3119
837.856	3100
837.993	3036
838.131	3135
838.269	3131
838.406	3100
838.544	3047
838.681	2998
838.819	2922
838.956	2815
839.094	2838
839.231	2960
839.369	3051
839.506	3401
839.643	3192
839.781	3001
839.918	2982
840.055	3062
840.193	3093
840.33	3100
840.467	3142
840.604	3184
840.742	3424
840.879	3047
841.016	3081
841.153	3100
841.29	3359
841.427	3336
841.564	3272
841.701	3302
841.838	3214
841.975	3165
842.112	3173
842.249	3097
842.385	3085
842.522	3275
842.659	3119
842.796	3039
842.933	3119
843.069	3070
843.206	3039
843.343	3222
843.479	3077
843.616	3184
843.752	2910
843.889	2887
844.025	3036
844.162	2899
844.298	3123
844.435	2960
844.571	2929
844.708	3093
844.844	3176
844.98	3222
845.117	3222
845.253	3055
845.389	3013
845.525	3108
845.661	3112
845.798	3005
845.934	3142
846.07	3024
846.206	3222
846.342	3336
846.478	3275
846.614	3074
846.75	3058
846.886	3043
847.022	3222
847.158	3169
847.294	3222
847.429	3249
847.565	3222
847.701	3466
847.837	3032
847.972	2990
848.108	3146
848.244	3146
848.379	2998
848.515	2963
848.65	2956
848.786	2975
848.921	3020
849.057	3135
849.192	3184
849.328	3051
849.463	3119
849.598	3108
849.734	3074
849.869	2982
850.004	2929
850.14	2982
850.275	2929
850.41	2864
850.545	2906
850.68	2960
850.815	3005
850.95	3020
851.085	3203
851.22	3138
851.355	3066
851.49	2975
851.625	3024
851.76	3017
851.895	2948
852.03	2902
852.165	3036
852.299	3146
852.434	3245
852.569	3173
852.703	3188
852.838	3253
852.973	3359
853.107	3351
853.242	3176
853.376	3104
853.511	2994
853.645	3039
853.78	3241
853.914	3108
854.048	3138
854.183	3097
854.317	3154
854.451	3294
854.585	3135
854.72	3131
854.854	3222
854.988	3055
855.122	3123
855.256	3017
855.39	3127
855.524	3264
855.658	3233
855.792	3138
855.926	3207
856.06	3192
856.194	3298
856.327	3157
856.461	3074
856.595	3070
856.729	3100
856.862	3241
856.996	3188
857.13	3180
857.263	3214
857.397	3306
857.53	3138
857.664	3203
857.797	3256
857.931	3249
858.064	3161
858.197	3214
858.331	3157
858.464	3116
858.597	3020
858.731	3100
858.864	3157
858.997	3070
859.13	3165
859.263	3176
859.396	3214
859.529	3108
859.662	3146
859.795	3043
859.928	3180
860.061	3272
860.194	3336
860.327	3127
860.46	3081
860.592	3241
860.725	3279
860.858	3256
860.99	3154
861.123	3066
861.256	3108
861.388	3176
861.521	3759
861.653	3005
861.786	3005
861.918	3020
862.05	3077
862.183	3127
862.315	3154
862.447	3211
862.58	3123
862.712	2952
862.844	2857
862.976	3058
863.108	3043
863.24	3329
863.372	2880
863.504	2994
863.636	2982
863.768	3051
863.9	3009
864.032	2929
864.164	2937
864.296	3024
864.428	3100
864.559	3058
864.691	3119
864.823	3097
864.954	3047
865.086	3081
865.217	3024
865.349	2944
865.48	2986
865.612	3055
865.743	3169
865.875	2990
866.006	2979
866.137	2998
866.269	2948
866.4	2944
866.531	2925
866.662	2895
866.793	2914
866.924	2910
867.055	2975
867.186	2956
867.317	2895
867.448	2895
867.579	2823
867.71	2845
867.841	2838
867.972	2922
868.103	2925
868.233	2868
868.364	2853
868.495	2944
868.625	3089
868.756	3192
868.886	2986
869.017	3036
869.147	3192
869.278	3192
869.408	3066
869.539	3047
869.669	3119
869.799	3024
869.929	3154
870.06	3135
870.19	3363
870.32	3283
870.45	3329
870.58	3397
870.71	3466
870.84	3466
870.97	3310
871.1	3237
871.23	3485
871.36	3477
871.489	3382
871.619	3412
871.749	3466
871.879	3450
872.008	3488
872.138	3367
872.267	3313
872.397	3138
872.526	3112
872.656	3032
872.785	3104
872.915	3249
873.044	3313
873.173	3245
873.303	3264
873.432	3249
873.561	3272
873.69	3195
873.819	3207
873.948	3192
874.077	3138
874.206	3074
874.335	3138
874.464	3256
874.593	3348
874.722	3245
874.851	3389
874.979	3378
875.108	3321
875.237	3222
875.365	3135
875.494	3195
875.623	3218
875.751	3108
875.88	3165
876.008	3203
876.136	3279
876.265	3386
876.393	3534
876.521	3420
876.65	3424
876.778	3378
876.906	3237
877.034	3195
877.162	3272
877.29	3211
877.418	3226
877.546	3275
877.674	3256
877.802	3279
877.93	3211
878.058	3176
878.185	3123
878.313	3230
878.441	3222
878.568	3085
878.696	3184
878.824	3268
878.951	3325
879.079	3466
879.206	3610
879.333	3488
879.461	3363
879.588	3382
879.715	3500
879.842	3633
879.97	3401
880.097	3203
880.224	3173
880.351	3176
880.478	3218
880.605	3237
880.732	3169
880.859	3462
880.986	3321
881.112	3321
881.239	3169
881.366	3131
881.493	3036
881.619	3055
881.746	3100
881.872	3097
881.999	3138
882.125	3142
882.252	3256
882.378	3275
882.505	3393
882.631	3260
882.757	3207
882.883	3214
883.01	3237
883.136	3173
883.262	3123
883.388	3131
883.514	3332
883.64	3405
883.766	3317
883.892	3192
884.018	3302
884.143	3454
884.269	3492
884.395	3207
884.52	3218
884.646	3207
884.772	3142
884.897	3108
885.023	3222
885.148	3336
885.274	3431
885.399	3378
885.524	3306
885.65	3291
885.775	3382
885.9	3325
886.025	3439
886.15	3351
886.275	3336
886.4	3310
886.525	3283
886.65	3302
886.775	3283
886.9	3523
887.025	3656
887.149	3412
887.274	3283
887.399	3211
887.523	3222
887.648	3173
887.773	3233
887.897	3374
888.021	3439
888.146	3283
888.27	3416
888.395	3534
888.519	3428
888.643	3473
888.767	3481
888.891	3321
889.015	3230
889.139	3325
889.263	3291
889.387	3428
889.511	3530
889.635	3466
889.759	3317
889.883	3291
890.006	3386
890.13	3504
890.254	3287
890.377	3355
890.501	3226
890.624	3203
890.748	3351
890.871	3180
890.995	3138
891.118	3097
891.241	3230
891.364	3249
891.488	3351
891.611	3233
891.734	3237
891.857	3275
891.98	3245
892.103	3351
892.226	3329
892.349	3245
892.471	3138
892.594	3287
892.717	3302
892.839	3264
892.962	3291
893.085	3355
893.207	3306
893.33	3199
893.452	3214
893.575	3374
893.697	3241
893.819	3488
893.941	3523
894.064	3450
894.186	3275
894.308	3291
894.43	3435
894.552	3584
894.674	3496
894.796	3256
894.918	3329
895.04	3344
895.161	3435
895.283	3428
895.405	3317
895.526	3397
895.648	3431
895.769	3450
895.891	3466
896.012	3469
896.134	3466
896.255	3389
896.376	3382
896.498	3393
896.619	3443
896.74	3363
896.861	3435
896.982	3755
897.103	3865
897.224	3641
897.345	3553
897.466	3439
897.587	3507
897.708	3618
897.828	3576
897.949	3488
898.07	3367
898.19	3439
898.311	3625
898.431	3450
898.552	3545
898.672	3587
898.792	3553
898.913	3538
899.033	3458
899.153	3298
899.273	3256
899.393	3268
899.513	3329
899.633	3325
899.753	3382
899.873	3332
899.993	3351
900.113	3336
900.232	3420
900.352	3355
900.472	3310
900.591	3241
900.711	3325
900.83	3279
900.95	3496
901.069	3553
901.189	3401
901.308	3199
901.427	3135
901.546	3188
901.665	3306
901.784	3367
901.904	3291
902.023	3161
902.141	3024
902.26	3036
902.379	3138
902.498	3100
902.617	3058
902.735	3222
902.854	3241
902.973	3222
903.091	3043
903.21	3097
903.328	3146
903.446	3108
903.565	3157
903.683	3203
903.801	3135
903.919	3298
904.038	3310
904.156	3199
904.274	3298
904.392	3260
904.51	3329
904.627	3344
904.745	3443
904.863	3515
904.981	3241
905.098	3207
905.216	3241
905.334	3321
905.451	3302
905.569	3348
905.686	3412
905.803	3477
905.921	3325
906.038	3466
906.155	3378
906.272	3306
906.389	3355
906.506	3260
906.623	3306
906.74	3279
906.857	3165
906.974	3253
907.091	3496
907.208	3591
907.324	3469
907.441	3412
907.557	3230
907.674	3291
907.79	3237
907.907	3283
908.023	3409
908.139	3382
908.256	3348
908.372	3355
908.488	3367
908.604	3287
908.72	3233
908.836	3306
908.952	3329
909.068	3405
909.184	3511
909.3	3412
909.415	3538
909.531	3481
909.647	3302
909.762	3306
909.878	3344
909.993	3397
910.108	3378
910.224	3363
910.339	3450
910.454	3355
910.57	3298
910.685	3275
910.8	3610
910.915	3538
911.03	3492
911.145	3279
911.259	3306
911.374	3329
911.489	3245
911.604	3241
911.718	3146
911.833	3169
911.947	3020
912.062	2990
912.176	3180
912.291	3230
912.405	3249
912.519	3447
912.633	3519
912.748	3332
912.862	3279
912.976	3176
913.09	3081
913.204	3169
913.318	3214
913.431	3344
913.545	3321
913.659	3485
913.772	3370
913.886	3237
914	3233
914.113	3348
914.226	3409
914.34	3348
914.453	3237
914.566	3416
914.68	3283
914.793	3302
914.906	3161
915.019	3119
915.132	3104
915.245	3188
915.358	3226
915.47	3233
915.583	3317
915.696	3310
915.809	3428
915.921	3466
916.034	3287
916.146	3249
916.259	3279
916.371	3428
916.483	3412
916.595	3264
916.708	3355
916.82	3367
916.932	3351
917.044	3359
917.156	3386
917.268	3253
917.38	3306
917.491	3332
917.603	3412
917.715	3447
917.826	3469
917.938	3382
918.049	3294
918.161	3458
918.272	3587
918.384	3610
918.495	3496
918.606	3351
918.717	3325
918.828	3329
918.939	3420
919.05	3325
919.161	3420
919.272	3192
919.383	3332
919.494	3526
919.604	3675
919.715	3530
919.826	3416
919.936	3458
920.047	3614
920.157	3572
920.267	3755
920.378	3633
920.488	3644
920.598	3819
920.708	3979
920.818	3892
920.928	3850
921.038	3994
921.148	3998
921.258	3743
921.368	3671
921.477	3576
921.587	3564
921.697	3435
921.806	3644
921.916	3568
922.025	3397
922.134	3409
922.244	3370
922.353	3473
922.462	3287
922.571	3211
922.68	3119
922.789	3085
922.898	3142
923.007	3108
923.116	3241
923.224	3195
923.333	3192
923.442	3100
923.55	3097
923.659	3154
923.767	3195
923.876	3131
923.984	3291
924.092	3097
924.201	3203
924.309	3199
924.417	3256
924.525	3195
924.633	3253
924.741	4200
924.849	3093
924.956	3283
925.064	3127
925.172	3055
925.279	3127
925.387	3188
925.494	3192
925.602	3374
925.709	3325
925.816	3173
925.924	3294
926.031	3378
926.138	3401
926.245	3386
926.352	3287
926.459	3462
926.566	3450
926.673	3336
926.779	3291
926.886	3249
926.993	3150
927.099	3150
927.206	3165
927.312	3138
927.419	3260
927.525	3218
927.631	3310
927.737	3135
927.843	3176
927.95	3036
928.056	3173
928.162	3184
928.267	3260
928.373	3888
928.479	3344
928.585	3123
928.69	3230
928.796	3279
928.901	3154
929.007	3047
929.112	3214
929.218	3173
929.323	3161
929.428	3150
929.533	3367
929.638	3108
929.743	3176
929.848	3272
929.953	3214
930.058	3222
930.163	3051
930.267	3081
930.372	3237
930.477	3070
930.581	3317
930.685	3173
930.79	3081
930.894	3116
930.998	3119
931.103	3329
931.207	2982
931.311	2948
931.415	2925
931.519	2758
931.623	2861
