Data from test_V78500241_261.txt Node
Date: Fri Mar 25 16:17:00 CST 2022
User: usil
Spectrometer: V785-0024
Trigger mode: 0
Integration Time (sec): 4.000000E-1
Scans to average: 1
Nonlinearity correction enabled: false
Boxcar width: 0
Storing dark spectrum: false
XAxis mode: Wavelengths
Number of Pixels in Spectrum: 1024
>>>>>Begin Spectral Data<<<<<
801.071	2910
801.214	3020
801.356	2910
801.499	2918
801.641	2963
801.783	2975
801.926	3070
802.068	3036
802.211	3017
802.353	3051
802.496	2998
802.638	3001
802.78	3062
802.923	3135
803.065	3039
803.208	2899
803.35	2941
803.492	2941
803.635	2948
803.777	2792
803.919	2861
804.061	3241
804.204	3001
804.346	2929
804.488	2849
804.63	3017
804.773	2861
804.915	2910
805.057	3081
805.199	2929
805.341	2994
805.483	3058
805.626	3009
805.768	2952
805.91	3112
806.052	3123
806.194	3062
806.336	3275
806.478	3058
806.62	2948
806.762	3020
806.904	3104
807.046	3218
807.188	2994
807.33	2902
807.472	3028
807.614	2933
807.756	3024
807.898	2948
808.04	2952
808.182	3017
808.324	2994
808.465	2902
808.607	2906
808.749	2857
808.891	2857
809.033	3013
809.174	3005
809.316	2876
809.458	2872
809.6	2807
809.741	2754
809.883	2807
810.025	2868
810.166	2868
810.308	2845
810.45	2906
810.591	2781
810.733	2762
810.875	2853
811.016	2796
811.158	2777
811.299	2811
811.441	2952
811.582	2929
811.724	2823
811.865	2819
812.007	2937
812.148	2922
812.29	2880
812.431	2891
812.573	2967
812.714	2990
812.855	3066
812.997	3055
813.138	3116
813.279	3051
813.421	2986
813.562	2998
813.703	2887
813.845	2933
813.986	2800
814.127	2743
814.268	2815
814.41	2880
814.551	2834
814.692	2876
814.833	2834
814.974	2952
815.115	2960
815.256	2883
815.397	2834
815.539	2899
815.68	2769
815.821	2800
815.962	2967
816.103	2929
816.244	2887
816.385	2902
816.526	2998
816.666	2944
816.807	2762
816.948	2925
817.089	2922
817.23	2899
817.371	2773
817.512	2796
817.653	2872
817.793	2868
817.934	2899
818.075	2986
818.216	3005
818.356	3036
818.497	2906
818.638	2792
818.778	2811
818.919	2826
819.06	2766
819.2	2887
819.341	2849
819.481	2815
819.622	2956
819.762	3097
819.903	3081
820.043	2941
820.184	2914
820.324	2922
820.465	3043
820.605	3032
820.746	3005
820.886	2948
821.026	3093
821.167	3184
821.307	3275
821.447	3287
821.588	3302
821.728	3207
821.868	3230
822.008	3081
822.149	3192
822.289	3222
822.429	3119
822.569	3104
822.709	3176
822.849	3013
822.99	3051
823.13	3203
823.27	3207
823.41	3135
823.55	3123
823.69	3180
823.83	3173
823.97	3108
824.11	3020
824.25	3013
824.389	3066
824.529	3157
824.669	3077
824.809	3214
824.949	3260
825.089	3203
825.228	3184
825.368	3017
825.508	2967
825.648	2967
825.787	3036
825.927	3017
826.067	2937
826.206	2994
826.346	3062
826.485	3108
826.625	3165
826.765	3313
826.904	3230
827.044	2990
827.183	2971
827.323	2872
827.462	3039
827.601	2899
827.741	2941
827.88	2941
828.02	2899
828.159	3013
828.298	3013
828.437	3127
828.577	3032
828.716	3275
828.855	3100
828.994	2918
829.134	2895
829.273	2922
829.412	2864
829.551	2826
829.69	2887
829.829	3005
829.968	3150
830.107	3020
830.246	3036
830.385	2929
830.524	2880
830.663	2826
830.802	2758
830.941	2701
831.08	2648
831.219	2773
831.357	2762
831.496	2937
831.635	2712
831.774	2655
831.913	2670
832.051	2564
832.19	2575
832.329	2648
832.467	2533
832.606	2511
832.744	2590
832.883	2587
833.022	2617
833.16	2674
833.299	2686
833.437	2697
833.576	2720
833.714	2716
833.852	2766
833.991	2807
834.129	2819
834.267	2864
834.406	2804
834.544	2857
834.682	2883
834.821	2880
834.959	3043
835.097	2925
835.235	3058
835.373	2982
835.511	3036
835.65	2994
835.788	2956
835.926	2830
836.064	2807
836.202	2849
836.34	3085
836.478	3135
836.615	3077
836.753	3116
836.891	3218
837.029	3169
837.167	3127
837.305	3085
837.443	3074
837.58	2986
837.718	3146
837.856	3070
837.993	3028
838.131	3112
838.269	3089
838.406	3085
838.544	3119
838.681	2918
838.819	2937
838.956	2857
839.094	2845
839.231	2891
839.369	3036
839.506	3367
839.643	3218
839.781	3017
839.918	2979
840.055	3062
840.193	3051
840.33	3100
840.467	3085
840.604	3146
840.742	3386
840.879	3039
841.016	3062
841.153	3138
841.29	3298
841.427	3317
841.564	3226
841.701	3298
841.838	3199
841.975	3176
842.112	3203
842.249	3070
842.385	3081
842.522	3298
842.659	3108
842.796	3081
842.933	3150
843.069	3077
843.206	3005
843.343	3241
843.479	3081
843.616	3169
843.752	2891
843.889	2853
844.025	3077
844.162	2914
844.298	3097
844.435	2971
844.571	2941
844.708	3077
844.844	3222
844.98	3283
845.117	3207
845.253	3085
845.389	3047
845.525	3104
845.661	3123
845.798	3013
845.934	3093
846.07	3100
846.206	3233
846.342	3313
846.478	3260
846.614	3100
846.75	3043
846.886	3066
847.022	3214
847.158	3142
847.294	3233
847.429	3226
847.565	3214
847.701	3500
847.837	3036
847.972	3001
848.108	3131
848.244	3169
848.379	3020
848.515	2937
848.65	2914
848.786	2952
848.921	3001
849.057	3116
849.192	3161
849.328	3085
849.463	3150
849.598	3043
849.734	3055
849.869	3024
850.004	2941
850.14	2967
850.275	2902
850.41	2819
850.545	2918
850.68	2944
850.815	2963
850.95	2994
851.085	3230
851.22	3123
851.355	3032
851.49	2963
851.625	3020
851.76	3039
851.895	2975
852.03	2922
852.165	3047
852.299	3100
852.434	3169
852.569	3138
852.703	3184
852.838	3249
852.973	3351
853.107	3348
853.242	3127
853.376	3074
853.511	2971
853.645	3058
853.78	3218
853.914	3112
854.048	3123
854.183	3085
854.317	3157
854.451	3291
854.585	3127
854.72	3097
854.854	3169
854.988	3039
855.122	3089
855.256	2979
855.39	3123
855.524	3241
855.658	3233
855.792	3161
855.926	3195
856.06	3237
856.194	3260
856.327	3188
856.461	3104
856.595	3077
856.729	3119
856.862	3264
856.996	3165
857.13	3207
857.263	3245
857.397	3291
857.53	3169
857.664	3241
857.797	3241
857.931	3256
858.064	3150
858.197	3230
858.331	3100
858.464	3112
858.597	2998
858.731	3112
858.864	3131
858.997	3062
859.13	3157
859.263	3195
859.396	3214
859.529	3089
859.662	3070
859.795	3089
859.928	3176
860.061	3310
860.194	3264
860.327	3173
860.46	3097
860.592	3241
860.725	3268
860.858	3241
860.99	3150
861.123	3047
861.256	3039
861.388	3131
861.521	3888
861.653	3036
861.786	2998
861.918	3017
862.05	3077
862.183	3112
862.315	3150
862.447	3195
862.58	3100
862.712	2922
862.844	2883
862.976	3058
863.108	2998
863.24	3336
863.372	2857
863.504	2963
863.636	2956
863.768	3009
863.9	2986
864.032	2906
864.164	2944
864.296	3058
864.428	3066
864.559	3062
864.691	3043
864.823	3062
864.954	3013
865.086	3001
865.217	2979
865.349	2941
865.48	3001
865.612	3028
865.743	3127
865.875	2963
866.006	2956
866.137	2990
866.269	2933
866.4	2982
866.531	2925
866.662	2918
866.793	2872
866.924	2941
867.055	2952
867.186	2941
867.317	2891
867.448	2830
867.579	2891
867.71	2861
867.841	2849
867.972	2918
868.103	2883
868.233	2868
868.364	2902
868.495	2895
868.625	3077
868.756	3180
868.886	2971
869.017	3032
869.147	3123
869.278	3150
869.408	3055
869.539	3017
869.669	3062
869.799	3043
869.929	3146
870.06	3108
870.19	3310
870.32	3268
870.45	3313
870.58	3363
870.71	3481
870.84	3473
870.97	3298
871.1	3233
871.23	3481
871.36	3450
871.489	3355
871.619	3401
871.749	3450
871.879	3431
872.008	3458
872.138	3405
872.267	3237
872.397	3138
872.526	3097
872.656	3013
872.785	3097
872.915	3245
873.044	3291
873.173	3230
873.303	3211
873.432	3203
873.561	3272
873.69	3165
873.819	3169
873.948	3173
874.077	3097
874.206	3039
874.335	3070
874.464	3188
874.593	3382
874.722	3249
874.851	3355
874.979	3359
875.108	3317
875.237	3157
875.365	3150
875.494	3207
875.623	3222
875.751	3047
875.88	3089
876.008	3214
876.136	3226
876.265	3363
876.393	3534
876.521	3412
876.65	3382
876.778	3348
876.906	3275
877.034	3218
877.162	3218
877.29	3173
877.418	3245
877.546	3226
877.674	3226
877.802	3211
877.93	3237
878.058	3150
878.185	3119
878.313	3222
878.441	3184
878.568	3047
878.696	3176
878.824	3264
878.951	3321
879.079	3466
879.206	3663
879.333	3458
879.461	3310
879.588	3344
879.715	3485
879.842	3572
879.97	3401
880.097	3146
880.224	3131
880.351	3176
880.478	3218
880.605	3249
880.732	3203
880.859	3504
880.986	3291
881.112	3336
881.239	3241
881.366	3077
881.493	3039
881.619	3028
881.746	3039
881.872	3089
881.999	3104
882.125	3150
882.252	3249
882.378	3279
882.505	3439
882.631	3275
882.757	3180
882.883	3211
883.01	3203
883.136	3176
883.262	3097
883.388	3131
883.514	3393
883.64	3401
883.766	3317
883.892	3184
884.018	3245
884.143	3401
884.269	3496
884.395	3241
884.52	3161
884.646	3184
884.772	3150
884.897	3066
885.023	3195
885.148	3332
885.274	3431
885.399	3382
885.524	3272
885.65	3237
885.775	3348
885.9	3306
886.025	3424
886.15	3351
886.275	3332
886.4	3264
886.525	3291
886.65	3264
886.775	3268
886.9	3504
887.025	3606
887.149	3397
887.274	3275
887.399	3184
887.523	3176
887.648	3211
887.773	3211
887.897	3386
888.021	3389
888.146	3287
888.27	3431
888.395	3534
888.519	3469
888.643	3477
888.767	3469
888.891	3298
889.015	3230
889.139	3317
889.263	3253
889.387	3420
889.511	3538
889.635	3412
889.759	3332
889.883	3283
890.006	3389
890.13	3504
890.254	3283
890.377	3329
890.501	3226
890.624	3165
890.748	3279
890.871	3207
890.995	3127
891.118	3055
891.241	3192
891.364	3230
891.488	3310
891.611	3203
891.734	3253
891.857	3287
891.98	3233
892.103	3332
892.226	3272
892.349	3233
892.471	3135
892.594	3199
892.717	3298
892.839	3279
892.962	3272
893.085	3378
893.207	3279
893.33	3157
893.452	3241
893.575	3359
893.697	3287
893.819	3469
893.941	3538
894.064	3450
894.186	3287
894.308	3287
894.43	3443
894.552	3553
894.674	3485
894.796	3264
894.918	3298
895.04	3268
895.161	3439
895.283	3428
895.405	3336
895.526	3370
895.648	3378
895.769	3389
895.891	3428
896.012	3469
896.134	3447
896.255	3428
896.376	3378
896.498	3325
896.619	3405
896.74	3374
896.861	3428
896.982	3701
897.103	3835
897.224	3618
897.345	3507
897.466	3416
897.587	3450
897.708	3538
897.828	3538
897.949	3435
898.07	3325
898.19	3420
898.311	3606
898.431	3504
898.552	3553
898.672	3587
898.792	3580
898.913	3534
899.033	3466
899.153	3302
899.273	3192
899.393	3321
899.513	3268
899.633	3302
899.753	3336
899.873	3332
899.993	3401
900.113	3287
900.232	3378
900.352	3374
900.472	3279
900.591	3222
900.711	3306
900.83	3222
900.95	3428
901.069	3526
901.189	3340
901.308	3211
901.427	3116
901.546	3184
901.665	3256
901.784	3329
901.904	3211
902.023	3169
902.141	3066
902.26	2944
902.379	3154
902.498	3142
902.617	3039
902.735	3218
902.854	3233
902.973	3195
903.091	3085
903.21	3058
903.328	3154
903.446	3127
903.565	3142
903.683	3173
903.801	3123
903.919	3214
904.038	3275
904.156	3150
904.274	3298
904.392	3233
904.51	3283
904.627	3336
904.745	3466
904.863	3496
904.981	3222
905.098	3184
905.216	3230
905.334	3313
905.451	3279
905.569	3306
905.686	3466
905.803	3439
905.921	3298
906.038	3416
906.155	3359
906.272	3260
906.389	3325
906.506	3233
906.623	3264
906.74	3306
906.857	3203
906.974	3272
907.091	3443
907.208	3580
907.324	3481
907.441	3401
907.557	3218
907.674	3264
907.79	3203
907.907	3298
908.023	3367
908.139	3405
908.256	3329
908.372	3355
908.488	3370
908.604	3233
908.72	3230
908.836	3298
908.952	3287
909.068	3344
909.184	3481
909.3	3405
909.415	3515
909.531	3450
909.647	3298
909.762	3355
909.878	3268
909.993	3344
910.108	3336
910.224	3351
910.339	3401
910.454	3321
910.57	3294
910.685	3249
910.8	3587
910.915	3542
911.03	3416
911.145	3302
911.259	3272
911.374	3302
911.489	3226
911.604	3195
911.718	3150
911.833	3169
911.947	3085
912.062	3024
912.176	3127
912.291	3180
912.405	3211
912.519	3443
912.633	3469
912.748	3355
912.862	3256
912.976	3218
913.09	3085
913.204	3161
913.318	3249
913.431	3363
913.545	3367
913.659	3409
913.772	3321
913.886	3214
914	3173
914.113	3344
914.226	3443
914.34	3382
914.453	3268
914.566	3397
914.68	3313
914.793	3355
914.906	3127
915.019	3116
915.132	3089
915.245	3180
915.358	3256
915.47	3211
915.583	3260
915.696	3321
915.809	3393
915.921	3424
916.034	3218
916.146	3237
916.259	3233
916.371	3401
916.483	3401
916.595	3279
916.708	3340
916.82	3317
916.932	3344
917.044	3393
917.156	3386
917.268	3222
917.38	3313
917.491	3294
917.603	3355
917.715	3462
917.826	3473
917.938	3393
918.049	3294
918.161	3412
918.272	3595
918.384	3564
918.495	3492
918.606	3367
918.717	3275
918.828	3382
918.939	3428
919.05	3298
919.161	3439
919.272	3192
919.383	3310
919.494	3485
919.604	3679
919.715	3534
919.826	3469
919.936	3477
920.047	3587
920.157	3568
920.267	3819
920.378	3595
920.488	3538
920.598	3778
920.708	3979
920.818	3831
920.928	3838
921.038	4048
921.148	3991
921.258	3720
921.368	3606
921.477	3610
921.587	3568
921.697	3431
921.806	3652
921.916	3515
922.025	3367
922.134	3389
922.244	3313
922.353	3431
922.462	3268
922.571	3218
922.68	3104
922.789	3055
922.898	3138
923.007	3074
923.116	3230
923.224	3184
923.333	3173
923.442	3108
923.55	3112
923.659	3138
923.767	3192
923.876	3146
923.984	3214
924.092	3100
924.201	3192
924.309	3211
924.417	3256
924.525	3192
924.633	3233
924.741	4177
924.849	3051
924.956	3260
925.064	3077
925.172	3039
925.279	3100
925.387	3169
925.494	3203
925.602	3378
925.709	3348
925.816	3222
925.924	3298
926.031	3355
926.138	3317
926.245	3367
926.352	3264
926.459	3447
926.566	3500
926.673	3332
926.779	3260
926.886	3233
926.993	3169
927.099	3150
927.206	3150
927.312	3146
927.419	3245
927.525	3214
927.631	3287
927.737	3146
927.843	3184
927.95	3058
928.056	3146
928.162	3207
928.267	3268
928.373	3865
928.479	3294
928.585	3089
928.69	3195
928.796	3256
928.901	3169
929.007	3036
929.112	3203
929.218	3180
929.323	3131
929.428	3161
929.533	3351
929.638	3104
929.743	3161
929.848	3275
929.953	3180
930.058	3146
930.163	2982
930.267	3055
930.372	3214
930.477	3062
930.581	3313
930.685	3169
930.79	3093
930.894	3131
930.998	3116
931.103	3298
931.207	2933
931.311	2941
931.415	2937
931.519	2773
931.623	2807
