Data from test_V78500241_749.txt Node
Date: Fri Mar 25 16:20:23 CST 2022
User: usil
Spectrometer: V785-0024
Trigger mode: 0
Integration Time (sec): 4.000000E-1
Scans to average: 1
Nonlinearity correction enabled: false
Boxcar width: 0
Storing dark spectrum: false
XAxis mode: Wavelengths
Number of Pixels in Spectrum: 1024
>>>>>Begin Spectral Data<<<<<
801.071	2967
801.214	2986
801.356	2868
801.499	2948
801.641	2922
801.783	2925
801.926	3070
802.068	2982
802.211	3043
802.353	3097
802.496	3009
802.638	3047
802.78	3100
802.923	3097
803.065	3039
803.208	2956
803.35	2960
803.492	2956
803.635	2960
803.777	2796
803.919	2880
804.061	3211
804.204	2990
804.346	2922
804.488	2880
804.63	3028
804.773	2922
804.915	2929
805.057	3085
805.199	2952
805.341	3028
805.483	3081
805.626	3028
805.768	3009
805.91	3104
806.052	3154
806.194	3024
806.336	3226
806.478	3055
806.62	2994
806.762	2986
806.904	3077
807.046	3233
807.188	3020
807.33	2975
807.472	3005
807.614	2952
807.756	3013
807.898	2971
808.04	2925
808.182	2994
808.324	2948
808.465	2910
808.607	2918
808.749	2796
808.891	2849
809.033	2982
809.174	2982
809.316	2933
809.458	2929
809.6	2853
809.741	2769
809.883	2819
810.025	2861
810.166	2895
810.308	2842
810.45	2876
810.591	2830
810.733	2785
810.875	2880
811.016	2788
811.158	2766
811.299	2838
811.441	2982
811.582	2895
811.724	2826
811.865	2861
812.007	2914
812.148	2910
812.29	2902
812.431	2906
812.573	2944
812.714	2998
812.855	3116
812.997	3123
813.138	3142
813.279	3058
813.421	2982
813.562	2960
813.703	2883
813.845	2895
813.986	2785
814.127	2754
814.268	2853
814.41	2861
814.551	2811
814.692	2941
814.833	2819
814.974	2922
815.115	2994
815.256	2883
815.397	2823
815.539	2838
815.68	2804
815.821	2823
815.962	2986
816.103	2960
816.244	2895
816.385	2914
816.526	3017
816.666	2914
816.807	2762
816.948	2906
817.089	2948
817.23	2868
817.371	2785
817.512	2830
817.653	2849
817.793	2830
817.934	2906
818.075	2986
818.216	3005
818.356	3017
818.497	2902
818.638	2830
818.778	2823
818.919	2815
819.06	2838
819.2	2857
819.341	2834
819.481	2845
819.622	2922
819.762	3138
819.903	3055
820.043	2929
820.184	2906
820.324	2918
820.465	3001
820.605	3020
820.746	3043
820.886	2979
821.026	3081
821.167	3173
821.307	3283
821.447	3310
821.588	3245
821.728	3249
821.868	3195
822.008	3074
822.149	3207
822.289	3241
822.429	3097
822.569	3119
822.709	3211
822.849	3047
822.99	3085
823.13	3165
823.27	3237
823.41	3123
823.55	3135
823.69	3195
823.83	3195
823.97	3100
824.11	3028
824.25	3005
824.389	3066
824.529	3135
824.669	3119
824.809	3230
824.949	3272
825.089	3253
825.228	3192
825.368	3024
825.508	3020
825.648	2994
825.787	3017
825.927	3036
826.067	2986
826.206	2990
826.346	3043
826.485	3074
826.625	3131
826.765	3279
826.904	3207
827.044	2994
827.183	2990
827.323	2891
827.462	3024
827.601	2933
827.741	2952
827.88	2990
828.02	2902
828.159	2979
828.298	3039
828.437	3127
828.577	3066
828.716	3279
828.855	3116
828.994	2952
829.134	2872
829.273	2929
829.412	2887
829.551	2883
829.69	2891
829.829	3013
829.968	3161
830.107	3005
830.246	3032
830.385	2933
830.524	2883
830.663	2834
830.802	2735
830.941	2689
831.08	2648
831.219	2773
831.357	2758
831.496	2941
831.635	2762
831.774	2686
831.913	2678
832.051	2545
832.19	2606
832.329	2689
832.467	2537
832.606	2507
832.744	2598
832.883	2625
833.022	2598
833.16	2625
833.299	2670
833.437	2705
833.576	2735
833.714	2724
833.852	2716
833.991	2766
834.129	2861
834.267	2857
834.406	2838
834.544	2842
834.682	2914
834.821	2910
834.959	3066
835.097	2914
835.235	3089
835.373	2960
835.511	3020
835.65	2998
835.788	2948
835.926	2815
836.064	2842
836.202	2868
836.34	3085
836.478	3176
836.615	3077
836.753	3173
836.891	3226
837.029	3188
837.167	3097
837.305	3039
837.443	3066
837.58	2994
837.718	3154
837.856	3089
837.993	3020
838.131	3142
838.269	3097
838.406	3138
838.544	3138
838.681	2963
838.819	2925
838.956	2815
839.094	2872
839.231	2933
839.369	3055
839.506	3374
839.643	3230
839.781	3047
839.918	2994
840.055	3058
840.193	3062
840.33	3085
840.467	3127
840.604	3150
840.742	3431
840.879	3051
841.016	3036
841.153	3138
841.29	3321
841.427	3348
841.564	3272
841.701	3336
841.838	3226
841.975	3203
842.112	3222
842.249	3089
842.385	3024
842.522	3264
842.659	3112
842.796	3066
842.933	3150
843.069	3032
843.206	3039
843.343	3207
843.479	3116
843.616	3146
843.752	2910
843.889	2876
844.025	3135
844.162	2910
844.298	3089
844.435	2944
844.571	2944
844.708	3074
844.844	3192
844.98	3218
845.117	3169
845.253	3100
845.389	3020
845.525	3097
845.661	3154
845.798	3009
845.934	3131
846.07	3039
846.206	3233
846.342	3332
846.478	3264
846.614	3085
846.75	3047
846.886	3020
847.022	3253
847.158	3154
847.294	3169
847.429	3302
847.565	3222
847.701	3504
847.837	3058
847.972	3024
848.108	3154
848.244	3157
848.379	3043
848.515	3001
848.65	2948
848.786	2998
848.921	3039
849.057	3100
849.192	3157
849.328	3055
849.463	3104
849.598	3058
849.734	3058
849.869	2998
850.004	2906
850.14	3001
850.275	2910
850.41	2849
850.545	2887
850.68	2967
850.815	2971
850.95	2960
851.085	3199
851.22	3097
851.355	3039
851.49	2994
851.625	3001
851.76	3020
851.895	2941
852.03	2895
852.165	3020
852.299	3116
852.434	3203
852.569	3142
852.703	3184
852.838	3272
852.973	3306
853.107	3340
853.242	3112
853.376	3100
853.511	2975
853.645	3043
853.78	3233
853.914	3138
854.048	3135
854.183	3085
854.317	3127
854.451	3291
854.585	3138
854.72	3104
854.854	3214
854.988	3074
855.122	3097
855.256	2956
855.39	3104
855.524	3268
855.658	3192
855.792	3207
855.926	3195
856.06	3226
856.194	3306
856.327	3169
856.461	3100
856.595	3089
856.729	3108
856.862	3214
856.996	3173
857.13	3195
857.263	3233
857.397	3268
857.53	3123
857.664	3233
857.797	3260
857.931	3241
858.064	3173
858.197	3256
858.331	3104
858.464	3070
858.597	3055
858.731	3100
858.864	3131
858.997	3108
859.13	3150
859.263	3184
859.396	3226
859.529	3104
859.662	3104
859.795	3047
859.928	3104
860.061	3264
860.194	3310
860.327	3161
860.46	3070
860.592	3230
860.725	3230
860.858	3260
860.99	3093
861.123	3055
861.256	3036
861.388	3176
861.521	3918
861.653	3009
861.786	2982
861.918	3024
862.05	3055
862.183	3062
862.315	3138
862.447	3180
862.58	3089
862.712	2956
862.844	2883
862.976	3070
863.108	3024
863.24	3409
863.372	2887
863.504	2998
863.636	2979
863.768	3036
863.9	2994
864.032	2902
864.164	2902
864.296	3009
864.428	3097
864.559	3093
864.691	3066
864.823	3047
864.954	3009
865.086	3047
865.217	2971
865.349	2982
865.48	2986
865.612	3017
865.743	3123
865.875	2960
866.006	2944
866.137	2971
866.269	2929
866.4	2933
866.531	2914
866.662	2929
866.793	2922
866.924	2899
867.055	2956
867.186	2910
867.317	2906
867.448	2872
867.579	2864
867.71	2849
867.841	2834
867.972	2857
868.103	2910
868.233	2891
868.364	2861
868.495	2925
868.625	3131
868.756	3157
868.886	2948
869.017	3013
869.147	3123
869.278	3169
869.408	3070
869.539	3032
869.669	3108
869.799	3058
869.929	3119
870.06	3108
870.19	3329
870.32	3272
870.45	3313
870.58	3374
870.71	3443
870.84	3439
870.97	3268
871.1	3268
871.23	3492
871.36	3447
871.489	3348
871.619	3374
871.749	3428
871.879	3382
872.008	3481
872.138	3363
872.267	3302
872.397	3119
872.526	3062
872.656	3009
872.785	3100
872.915	3253
873.044	3302
873.173	3222
873.303	3245
873.432	3199
873.561	3233
873.69	3112
873.819	3165
873.948	3207
874.077	3089
874.206	3017
874.335	3077
874.464	3226
874.593	3370
874.722	3279
874.851	3412
874.979	3321
875.108	3321
875.237	3203
875.365	3165
875.494	3169
875.623	3233
875.751	3058
875.88	3085
876.008	3180
876.136	3237
876.265	3367
876.393	3523
876.521	3431
876.65	3374
876.778	3351
876.906	3245
877.034	3180
877.162	3211
877.29	3173
877.418	3237
877.546	3260
877.674	3211
877.802	3233
877.93	3214
878.058	3165
878.185	3077
878.313	3199
878.441	3226
878.568	3077
878.696	3142
878.824	3230
878.951	3253
879.079	3439
879.206	3618
879.333	3462
879.461	3317
879.588	3325
879.715	3488
879.842	3584
879.97	3351
880.097	3207
880.224	3119
880.351	3211
880.478	3195
880.605	3203
880.732	3146
880.859	3500
880.986	3325
881.112	3325
881.239	3195
881.366	3123
881.493	3051
881.619	3036
881.746	3055
881.872	3089
881.999	3112
882.125	3119
882.252	3230
882.378	3287
882.505	3424
882.631	3321
882.757	3142
882.883	3226
883.01	3226
883.136	3173
883.262	3089
883.388	3100
883.514	3294
883.64	3359
883.766	3302
883.892	3245
884.018	3233
884.143	3412
884.269	3504
884.395	3165
884.52	3176
884.646	3150
884.772	3119
884.897	3085
885.023	3176
885.148	3325
885.274	3420
885.399	3302
885.524	3283
885.65	3256
885.775	3298
885.9	3279
886.025	3420
886.15	3382
886.275	3287
886.4	3199
886.525	3279
886.65	3287
886.775	3245
886.9	3538
887.025	3618
887.149	3374
887.274	3253
887.399	3157
887.523	3169
887.648	3173
887.773	3157
887.897	3348
888.021	3401
888.146	3294
888.27	3397
888.395	3504
888.519	3428
888.643	3458
888.767	3420
888.891	3310
889.015	3264
889.139	3249
889.263	3230
889.387	3397
889.511	3511
889.635	3409
889.759	3264
889.883	3291
890.006	3359
890.13	3439
890.254	3287
890.377	3306
890.501	3161
890.624	3188
890.748	3291
890.871	3192
890.995	3138
891.118	3032
891.241	3192
891.364	3226
891.488	3332
891.611	3157
891.734	3245
891.857	3279
891.98	3184
892.103	3336
892.226	3253
892.349	3192
892.471	3093
892.594	3233
892.717	3313
892.839	3264
892.962	3306
893.085	3340
893.207	3279
893.33	3135
893.452	3180
893.575	3363
893.697	3230
893.819	3439
893.941	3507
894.064	3431
894.186	3275
894.308	3268
894.43	3447
894.552	3519
894.674	3443
894.796	3237
894.918	3302
895.04	3230
895.161	3412
895.283	3389
895.405	3283
895.526	3340
895.648	3420
895.769	3435
895.891	3477
896.012	3420
896.134	3496
896.255	3393
896.376	3332
896.498	3348
896.619	3412
896.74	3348
896.861	3424
896.982	3652
897.103	3842
897.224	3584
897.345	3561
897.466	3401
897.587	3473
897.708	3618
897.828	3511
897.949	3466
898.07	3351
898.19	3359
898.311	3629
898.431	3428
898.552	3549
898.672	3622
898.792	3580
898.913	3492
899.033	3439
899.153	3291
899.273	3180
899.393	3291
899.513	3302
899.633	3329
899.753	3344
899.873	3310
899.993	3416
900.113	3363
900.232	3397
900.352	3329
900.472	3275
900.591	3203
900.711	3317
900.83	3195
900.95	3412
901.069	3496
901.189	3370
901.308	3157
901.427	3157
901.546	3218
901.665	3245
901.784	3329
901.904	3188
902.023	3150
902.141	2986
902.26	2975
902.379	3135
902.498	3104
902.617	3036
902.735	3195
902.854	3222
902.973	3188
903.091	3017
903.21	3066
903.328	3161
903.446	3089
903.565	3116
903.683	3161
903.801	3142
903.919	3237
904.038	3306
904.156	3157
904.274	3302
904.392	3211
904.51	3321
904.627	3332
904.745	3401
904.863	3473
904.981	3245
905.098	3154
905.216	3188
905.334	3302
905.451	3264
905.569	3279
905.686	3393
905.803	3454
905.921	3298
906.038	3458
906.155	3355
906.272	3245
906.389	3348
906.506	3241
906.623	3226
906.74	3275
906.857	3173
906.974	3260
907.091	3454
907.208	3549
907.324	3481
907.441	3374
907.557	3237
907.674	3207
907.79	3161
907.907	3279
908.023	3378
908.139	3378
908.256	3325
908.372	3355
908.488	3355
908.604	3237
908.72	3253
908.836	3294
908.952	3302
909.068	3336
909.184	3469
909.3	3416
909.415	3511
909.531	3477
909.647	3241
909.762	3287
909.878	3199
909.993	3332
910.108	3325
910.224	3329
910.339	3424
910.454	3340
910.57	3272
910.685	3230
910.8	3568
910.915	3481
911.03	3443
911.145	3268
911.259	3230
911.374	3321
911.489	3275
911.604	3207
911.718	3108
911.833	3142
911.947	3032
912.062	2982
912.176	3150
912.291	3199
912.405	3203
912.519	3435
912.633	3469
912.748	3310
912.862	3291
912.976	3127
913.09	3058
913.204	3127
913.318	3207
913.431	3302
913.545	3298
913.659	3412
913.772	3340
913.886	3207
914	3226
914.113	3382
914.226	3370
914.34	3367
914.453	3195
914.566	3401
914.68	3283
914.793	3302
914.906	3154
915.019	3127
915.132	3077
915.245	3203
915.358	3226
915.47	3218
915.583	3245
915.696	3298
915.809	3389
915.921	3405
916.034	3275
916.146	3291
916.259	3222
916.371	3382
916.483	3363
916.595	3230
916.708	3336
916.82	3321
916.932	3336
917.044	3310
917.156	3302
917.268	3237
917.38	3279
917.491	3287
917.603	3370
917.715	3424
917.826	3450
917.938	3378
918.049	3260
918.161	3435
918.272	3526
918.384	3595
918.495	3466
918.606	3340
918.717	3268
918.828	3344
918.939	3393
919.05	3332
919.161	3359
919.272	3173
919.383	3287
919.494	3485
919.604	3694
919.715	3454
919.826	3405
919.936	3447
920.047	3557
920.157	3561
920.267	3770
920.378	3595
920.488	3545
920.598	3789
920.708	3998
920.818	3831
920.928	3808
921.038	4002
921.148	4032
921.258	3743
921.368	3610
921.477	3549
921.587	3519
921.697	3458
921.806	3637
921.916	3515
922.025	3336
922.134	3389
922.244	3329
922.353	3420
922.462	3294
922.571	3230
922.68	3123
922.789	3081
922.898	3131
923.007	3089
923.116	3165
923.224	3157
923.333	3165
923.442	3131
923.55	3070
923.659	3112
923.767	3207
923.876	3116
923.984	3237
924.092	3062
924.201	3176
924.309	3214
924.417	3264
924.525	3184
924.633	3218
924.741	4185
924.849	3074
924.956	3256
925.064	3108
925.172	3032
925.279	3097
925.387	3199
925.494	3176
925.602	3340
925.709	3313
925.816	3184
925.924	3253
926.031	3355
926.138	3351
926.245	3332
926.352	3260
926.459	3389
926.566	3439
926.673	3302
926.779	3230
926.886	3207
926.993	3192
927.099	3165
927.206	3097
927.312	3116
927.419	3199
927.525	3203
927.631	3279
927.737	3195
927.843	3104
927.95	3024
928.056	3165
928.162	3176
928.267	3253
928.373	3854
928.479	3272
928.585	3058
928.69	3211
928.796	3275
928.901	3131
929.007	3047
929.112	3195
929.218	3226
929.323	3150
929.428	3154
929.533	3294
929.638	3135
929.743	3207
929.848	3249
929.953	3161
930.058	3176
930.163	3001
930.267	3024
930.372	3173
930.477	3017
930.581	3340
930.685	3188
930.79	3028
930.894	3089
930.998	3108
931.103	3260
931.207	2960
931.311	2975
931.415	2876
931.519	2758
931.623	2811
