Data from test_V78500241_429.txt Node
Date: Fri Mar 25 16:18:10 CST 2022
User: usil
Spectrometer: V785-0024
Trigger mode: 0
Integration Time (sec): 4.000000E-1
Scans to average: 1
Nonlinearity correction enabled: false
Boxcar width: 0
Storing dark spectrum: false
XAxis mode: Wavelengths
Number of Pixels in Spectrum: 1024
>>>>>Begin Spectral Data<<<<<
801.071	2910
801.214	2944
801.356	2872
801.499	2887
801.641	2872
801.783	2895
801.926	3001
802.068	2956
802.211	2971
802.353	3005
802.496	2933
802.638	3024
802.78	3047
802.923	3020
803.065	2963
803.208	2864
803.35	2918
803.492	2941
803.635	2918
803.777	2731
803.919	2834
804.061	3195
804.204	2937
804.346	2891
804.488	2819
804.63	2979
804.773	2880
804.915	2902
805.057	3104
805.199	2918
805.341	2948
805.483	3032
805.626	3013
805.768	2956
805.91	3036
806.052	3097
806.194	3043
806.336	3214
806.478	3005
806.62	2933
806.762	2975
806.904	3032
807.046	3165
807.188	2994
807.33	2941
807.472	2963
807.614	2880
807.756	2994
807.898	2918
808.04	2883
808.182	2971
808.324	2960
808.465	2857
808.607	2902
808.749	2792
808.891	2849
809.033	2937
809.174	2979
809.316	2895
809.458	2883
809.6	2766
809.741	2762
809.883	2773
810.025	2853
810.166	2826
810.308	2838
810.45	2872
810.591	2785
810.733	2727
810.875	2804
811.016	2773
811.158	2781
811.299	2826
811.441	2914
811.582	2872
811.724	2838
811.865	2830
812.007	2925
812.148	2895
812.29	2853
812.431	2876
812.573	2986
812.714	2941
812.855	3039
812.997	3062
813.138	3089
813.279	3032
813.421	2979
813.562	2952
813.703	2868
813.845	2891
813.986	2777
814.127	2731
814.268	2838
814.41	2853
814.551	2800
814.692	2864
814.833	2861
814.974	2895
815.115	2956
815.256	2811
815.397	2842
815.539	2880
815.68	2754
815.821	2819
815.962	2941
816.103	2944
816.244	2883
816.385	2887
816.526	2948
816.666	2899
816.807	2762
816.948	2864
817.089	2876
817.23	2868
817.371	2804
817.512	2781
817.653	2857
817.793	2842
817.934	2902
818.075	2960
818.216	3001
818.356	3028
818.497	2883
818.638	2781
818.778	2804
818.919	2788
819.06	2750
819.2	2883
819.341	2804
819.481	2807
819.622	2933
819.762	3100
819.903	3055
820.043	2929
820.184	2872
820.324	2910
820.465	2998
820.605	2998
820.746	3020
820.886	2918
821.026	3135
821.167	3116
821.307	3245
821.447	3291
821.588	3214
821.728	3218
821.868	3165
822.008	3074
822.149	3188
822.289	3237
822.429	3112
822.569	3066
822.709	3180
822.849	3001
822.99	3074
823.13	3169
823.27	3195
823.41	3112
823.55	3150
823.69	3161
823.83	3184
823.97	3093
824.11	2971
824.25	2998
824.389	3055
824.529	3100
824.669	3024
824.809	3226
824.949	3245
825.089	3192
825.228	3203
825.368	3013
825.508	2963
825.648	2967
825.787	3028
825.927	3028
826.067	2944
826.206	2899
826.346	3051
826.485	3058
826.625	3085
826.765	3249
826.904	3188
827.044	3009
827.183	2941
827.323	2899
827.462	2963
827.601	2883
827.741	2933
827.88	2922
828.02	2857
828.159	2967
828.298	3032
828.437	3112
828.577	3024
828.716	3245
828.855	3097
828.994	2910
829.134	2918
829.273	2937
829.412	2857
829.551	2838
829.69	2861
829.829	3009
829.968	3112
830.107	2998
830.246	3013
830.385	2929
830.524	2880
830.663	2815
830.802	2750
830.941	2648
831.08	2644
831.219	2788
831.357	2739
831.496	2971
831.635	2712
831.774	2651
831.913	2678
832.051	2537
832.19	2571
832.329	2686
832.467	2541
832.606	2530
832.744	2564
832.883	2571
833.022	2594
833.16	2670
833.299	2670
833.437	2693
833.576	2705
833.714	2697
833.852	2735
833.991	2746
834.129	2834
834.267	2838
834.406	2777
834.544	2883
834.682	2887
834.821	2872
834.959	3089
835.097	2906
835.235	3032
835.373	2963
835.511	3009
835.65	2967
835.788	2967
835.926	2845
836.064	2796
836.202	2857
836.34	3081
836.478	3154
836.615	3013
836.753	3123
836.891	3207
837.029	3154
837.167	3100
837.305	3051
837.443	3020
837.58	2979
837.718	3127
837.856	3074
837.993	3039
838.131	3104
838.269	3123
838.406	3097
838.544	3131
838.681	2967
838.819	2941
838.956	2815
839.094	2811
839.231	2880
839.369	3005
839.506	3332
839.643	3192
839.781	3032
839.918	2956
840.055	3058
840.193	3028
840.33	3055
840.467	3093
840.604	3146
840.742	3382
840.879	3062
841.016	3032
841.153	3100
841.29	3332
841.427	3291
841.564	3283
841.701	3374
841.838	3207
841.975	3154
842.112	3154
842.249	3112
842.385	2982
842.522	3287
842.659	3093
842.796	3043
842.933	3127
843.069	3020
843.206	3051
843.343	3184
843.479	3112
843.616	3142
843.752	2918
843.889	2857
844.025	3066
844.162	2887
844.298	3104
844.435	2948
844.571	2925
844.708	3070
844.844	3161
844.98	3218
845.117	3195
845.253	3028
845.389	3036
845.525	3089
845.661	3093
845.798	3043
845.934	3112
846.07	3020
846.206	3264
846.342	3294
846.478	3264
846.614	3108
846.75	3028
846.886	3043
847.022	3230
847.158	3146
847.294	3169
847.429	3211
847.565	3245
847.701	3500
847.837	3028
847.972	3020
848.108	3161
848.244	3142
848.379	2952
848.515	2941
848.65	2941
848.786	2994
848.921	2990
849.057	3081
849.192	3131
849.328	3066
849.463	3131
849.598	3058
849.734	3024
849.869	2960
850.004	2937
850.14	3001
850.275	2937
850.41	2819
850.545	2838
850.68	2941
850.815	2929
850.95	2933
851.085	3180
851.22	3089
851.355	3009
851.49	2975
851.625	3028
851.76	3013
851.895	2944
852.03	2895
852.165	3036
852.299	3104
852.434	3157
852.569	3142
852.703	3138
852.838	3241
852.973	3329
853.107	3313
853.242	3135
853.376	3085
853.511	2979
853.645	2994
853.78	3218
853.914	3119
854.048	3104
854.183	3081
854.317	3131
854.451	3283
854.585	3104
854.72	3074
854.854	3188
854.988	3070
855.122	3032
855.256	2975
855.39	3104
855.524	3203
855.658	3199
855.792	3154
855.926	3161
856.06	3226
856.194	3275
856.327	3119
856.461	3039
856.595	3070
856.729	3070
856.862	3150
856.996	3154
857.13	3192
857.263	3207
857.397	3272
857.53	3138
857.664	3176
857.797	3211
857.931	3253
858.064	3142
858.197	3222
858.331	3142
858.464	3074
858.597	3036
858.731	3142
858.864	3135
858.997	3070
859.13	3161
859.263	3207
859.396	3192
859.529	3055
859.662	3093
859.795	3089
859.928	3112
860.061	3287
860.194	3298
860.327	3146
860.46	3055
860.592	3249
860.725	3260
860.858	3260
860.99	3093
861.123	3032
861.256	3028
861.388	3104
861.521	3915
861.653	3017
861.786	2986
861.918	2971
862.05	3062
862.183	3070
862.315	3123
862.447	3207
862.58	3077
862.712	2933
862.844	2880
862.976	3009
863.108	2998
863.24	3389
863.372	2883
863.504	2952
863.636	2941
863.768	3043
863.9	2941
864.032	2883
864.164	2952
864.296	2998
864.428	3085
864.559	3066
864.691	3062
864.823	3032
864.954	3024
865.086	3055
865.217	2986
865.349	2929
865.48	2971
865.612	2990
865.743	3123
865.875	2971
866.006	2918
866.137	2952
866.269	2952
866.4	2948
866.531	2914
866.662	2864
866.793	2872
866.924	2868
867.055	2956
867.186	2937
867.317	2872
867.448	2807
867.579	2899
867.71	2864
867.841	2800
867.972	2902
868.103	2910
868.233	2891
868.364	2880
868.495	2902
868.625	3028
868.756	3176
868.886	2971
869.017	3013
869.147	3135
869.278	3150
869.408	3058
869.539	3032
869.669	3093
869.799	3028
869.929	3104
870.06	3123
870.19	3344
870.32	3287
870.45	3279
870.58	3363
870.71	3420
870.84	3447
870.97	3249
871.1	3237
871.23	3473
871.36	3477
871.489	3336
871.619	3447
871.749	3370
871.879	3435
872.008	3504
872.138	3355
872.267	3272
872.397	3142
872.526	3077
872.656	3009
872.785	3077
872.915	3203
873.044	3283
873.173	3199
873.303	3249
873.432	3237
873.561	3253
873.69	3161
873.819	3138
873.948	3188
874.077	3066
874.206	3036
874.335	3100
874.464	3218
874.593	3340
874.722	3237
874.851	3374
874.979	3332
875.108	3359
875.237	3154
875.365	3150
875.494	3169
875.623	3241
875.751	3089
875.88	3131
876.008	3157
876.136	3249
876.265	3325
876.393	3496
876.521	3386
876.65	3409
876.778	3313
876.906	3256
877.034	3184
877.162	3233
877.29	3165
877.418	3279
877.546	3260
877.674	3218
877.802	3230
877.93	3214
878.058	3154
878.185	3108
878.313	3192
878.441	3195
878.568	3074
878.696	3116
878.824	3241
878.951	3298
879.079	3443
879.206	3644
879.333	3431
879.461	3359
879.588	3359
879.715	3454
879.842	3572
879.97	3355
880.097	3157
880.224	3131
880.351	3214
880.478	3222
880.605	3188
880.732	3184
880.859	3485
880.986	3279
881.112	3306
881.239	3233
881.366	3112
881.493	2998
881.619	3024
881.746	3066
881.872	3085
881.999	3097
882.125	3127
882.252	3256
882.378	3336
882.505	3454
882.631	3306
882.757	3157
882.883	3214
883.01	3241
883.136	3154
883.262	3100
883.388	3089
883.514	3313
883.64	3382
883.766	3332
883.892	3207
884.018	3249
884.143	3424
884.269	3500
884.395	3241
884.52	3135
884.646	3222
884.772	3081
884.897	3119
885.023	3218
885.148	3336
885.274	3386
885.399	3359
885.524	3279
885.65	3272
885.775	3325
885.9	3249
886.025	3443
886.15	3367
886.275	3302
886.4	3192
886.525	3287
886.65	3272
886.775	3283
886.9	3469
887.025	3595
887.149	3401
887.274	3287
887.399	3192
887.523	3199
887.648	3188
887.773	3203
887.897	3386
888.021	3378
888.146	3241
888.27	3439
888.395	3553
888.519	3409
888.643	3450
888.767	3481
888.891	3298
889.015	3279
889.139	3237
889.263	3260
889.387	3401
889.511	3477
889.635	3450
889.759	3283
889.883	3321
890.006	3367
890.13	3469
890.254	3245
890.377	3363
890.501	3173
890.624	3195
890.748	3237
890.871	3184
890.995	3077
891.118	3047
891.241	3165
891.364	3226
891.488	3321
891.611	3169
891.734	3218
891.857	3260
891.98	3233
892.103	3351
892.226	3298
892.349	3203
892.471	3127
892.594	3245
892.717	3291
892.839	3291
892.962	3329
893.085	3378
893.207	3321
893.33	3150
893.452	3226
893.575	3310
893.697	3272
893.819	3462
893.941	3485
894.064	3435
894.186	3287
894.308	3325
894.43	3420
894.552	3530
894.674	3481
894.796	3275
894.918	3253
895.04	3275
895.161	3428
895.283	3332
895.405	3310
895.526	3382
895.648	3439
895.769	3393
895.891	3496
896.012	3485
896.134	3458
896.255	3401
896.376	3393
896.498	3386
896.619	3374
896.74	3401
896.861	3409
896.982	3648
897.103	3854
897.224	3584
897.345	3481
897.466	3458
897.587	3515
897.708	3595
897.828	3545
897.949	3424
898.07	3370
898.19	3416
898.311	3587
898.431	3439
898.552	3492
898.672	3618
898.792	3584
898.913	3481
899.033	3401
899.153	3298
899.273	3192
899.393	3275
899.513	3310
899.633	3294
899.753	3306
899.873	3272
899.993	3359
900.113	3348
900.232	3401
900.352	3332
900.472	3313
900.591	3226
900.711	3283
900.83	3237
900.95	3386
901.069	3477
901.189	3329
901.308	3192
901.427	3123
901.546	3184
901.665	3294
901.784	3298
901.904	3218
902.023	3119
902.141	3013
902.26	2994
902.379	3150
902.498	3066
902.617	3062
902.735	3214
902.854	3211
902.973	3199
903.091	3024
903.21	3058
903.328	3142
903.446	3097
903.565	3081
903.683	3203
903.801	3119
903.919	3264
904.038	3294
904.156	3176
904.274	3310
904.392	3272
904.51	3264
904.627	3351
904.745	3447
904.863	3504
904.981	3245
905.098	3146
905.216	3268
905.334	3313
905.451	3344
905.569	3313
905.686	3409
905.803	3424
905.921	3272
906.038	3397
906.155	3336
906.272	3260
906.389	3313
906.506	3218
906.623	3275
906.74	3207
906.857	3154
906.974	3253
907.091	3431
907.208	3557
907.324	3500
907.441	3378
907.557	3218
907.674	3275
907.79	3211
907.907	3256
908.023	3378
908.139	3363
908.256	3317
908.372	3389
908.488	3351
908.604	3253
908.72	3230
908.836	3275
908.952	3291
909.068	3370
909.184	3466
909.3	3386
909.415	3462
909.531	3443
909.647	3287
909.762	3329
909.878	3253
909.993	3355
910.108	3340
910.224	3340
910.339	3420
910.454	3283
910.57	3260
910.685	3218
910.8	3591
910.915	3542
911.03	3443
911.145	3268
911.259	3272
911.374	3294
911.489	3272
911.604	3226
911.718	3093
911.833	3173
911.947	3028
912.062	2990
912.176	3154
912.291	3165
912.405	3249
912.519	3397
912.633	3466
912.748	3329
912.862	3306
912.976	3169
913.09	3104
913.204	3104
913.318	3192
913.431	3313
913.545	3317
913.659	3431
913.772	3336
913.886	3230
914	3195
914.113	3355
914.226	3363
914.34	3397
914.453	3214
914.566	3416
914.68	3306
914.793	3321
914.906	3142
915.019	3112
915.132	3070
915.245	3150
915.358	3195
915.47	3230
915.583	3233
915.696	3283
915.809	3378
915.921	3439
916.034	3245
916.146	3272
916.259	3233
916.371	3405
916.483	3405
916.595	3294
916.708	3321
916.82	3332
916.932	3294
917.044	3351
917.156	3348
917.268	3207
917.38	3275
917.491	3268
917.603	3348
917.715	3458
917.826	3469
917.938	3382
918.049	3218
918.161	3397
918.272	3534
918.384	3564
918.495	3488
918.606	3291
918.717	3249
918.828	3378
918.939	3363
919.05	3306
919.161	3317
919.272	3199
919.383	3298
919.494	3500
919.604	3663
919.715	3523
919.826	3386
919.936	3507
920.047	3587
920.157	3584
920.267	3778
920.378	3599
920.488	3553
920.598	3831
920.708	3918
920.818	3842
920.928	3842
921.038	4051
921.148	3964
921.258	3686
921.368	3648
921.477	3587
921.587	3542
921.697	3488
921.806	3606
921.916	3507
922.025	3363
922.134	3355
922.244	3294
922.353	3450
922.462	3287
922.571	3211
922.68	3142
922.789	3047
922.898	3161
923.007	3097
923.116	3203
923.224	3184
923.333	3207
923.442	3097
923.55	3085
923.659	3157
923.767	3211
923.876	3131
923.984	3275
924.092	3089
924.201	3180
924.309	3249
924.417	3264
924.525	3169
924.633	3279
924.741	4147
924.849	3036
924.956	3283
925.064	3081
925.172	3039
925.279	3100
925.387	3180
925.494	3203
925.602	3340
925.709	3317
925.816	3203
925.924	3272
926.031	3405
926.138	3306
926.245	3351
926.352	3260
926.459	3401
926.566	3488
926.673	3283
926.779	3230
926.886	3230
926.993	3150
927.099	3112
927.206	3116
927.312	3100
927.419	3218
927.525	3192
927.631	3287
927.737	3142
927.843	3131
927.95	3020
928.056	3127
928.162	3161
928.267	3256
928.373	3861
928.479	3332
928.585	3066
928.69	3241
928.796	3260
928.901	3135
929.007	3024
929.112	3214
929.218	3146
929.323	3138
929.428	3123
929.533	3294
929.638	3176
929.743	3138
929.848	3268
929.953	3184
930.058	3154
930.163	2986
930.267	3077
930.372	3203
930.477	3005
930.581	3302
930.685	3138
930.79	3089
930.894	3146
930.998	3081
931.103	3264
931.207	2971
931.311	2963
931.415	2902
931.519	2777
931.623	2834
