Data from test_V78500241_533.txt Node
Date: Fri Mar 25 16:18:53 CST 2022
User: usil
Spectrometer: V785-0024
Trigger mode: 0
Integration Time (sec): 4.000000E-1
Scans to average: 1
Nonlinearity correction enabled: false
Boxcar width: 0
Storing dark spectrum: false
XAxis mode: Wavelengths
Number of Pixels in Spectrum: 1024
>>>>>Begin Spectral Data<<<<<
801.071	2883
801.214	2956
801.356	2899
801.499	2872
801.641	2872
801.783	2925
801.926	2998
802.068	2975
802.211	2998
802.353	3036
802.496	2967
802.638	3017
802.78	3028
802.923	3081
803.065	2986
803.208	2899
803.35	2933
803.492	2910
803.635	2929
803.777	2777
803.919	2857
804.061	3165
804.204	2967
804.346	2925
804.488	2823
804.63	2990
804.773	2891
804.915	2960
805.057	3074
805.199	2952
805.341	2963
805.483	3009
805.626	2990
805.768	2982
805.91	3077
806.052	3081
806.194	3028
806.336	3249
806.478	3005
806.62	2944
806.762	2982
806.904	3074
807.046	3127
807.188	2956
807.33	2887
807.472	2998
807.614	2906
807.756	3001
807.898	2944
808.04	2872
808.182	2963
808.324	2963
808.465	2887
808.607	2883
808.749	2766
808.891	2838
809.033	2960
809.174	2963
809.316	2895
809.458	2880
809.6	2769
809.741	2781
809.883	2750
810.025	2834
810.166	2853
810.308	2838
810.45	2876
810.591	2796
810.733	2807
810.875	2819
811.016	2800
811.158	2792
811.299	2800
811.441	2941
811.582	2918
811.724	2815
811.865	2819
812.007	2910
812.148	2845
812.29	2830
812.431	2914
812.573	2960
812.714	2975
812.855	3039
812.997	3039
813.138	3097
813.279	2967
813.421	2967
813.562	2963
813.703	2899
813.845	2895
813.986	2769
814.127	2727
814.268	2807
814.41	2864
814.551	2823
814.692	2880
814.833	2769
814.974	2857
815.115	2902
815.256	2849
815.397	2826
815.539	2914
815.68	2773
815.821	2804
815.962	2899
816.103	2914
816.244	2876
816.385	2914
816.526	2963
816.666	2929
816.807	2743
816.948	2868
817.089	2914
817.23	2857
817.371	2762
817.512	2777
817.653	2838
817.793	2807
817.934	2899
818.075	2941
818.216	2963
818.356	3043
818.497	2868
818.638	2792
818.778	2815
818.919	2777
819.06	2792
819.2	2891
819.341	2823
819.481	2804
819.622	2914
819.762	3100
819.903	3036
820.043	2967
820.184	2902
820.324	2883
820.465	3032
820.605	2982
820.746	3047
820.886	2922
821.026	3074
821.167	3176
821.307	3214
821.447	3287
821.588	3233
821.728	3218
821.868	3192
822.008	3104
822.149	3173
822.289	3214
822.429	3093
822.569	3055
822.709	3180
822.849	3047
822.99	3066
823.13	3173
823.27	3207
823.41	3104
823.55	3104
823.69	3142
823.83	3142
823.97	3093
824.11	2998
824.25	2941
824.389	3001
824.529	3146
824.669	3074
824.809	3192
824.949	3218
825.089	3226
825.228	3157
825.368	2994
825.508	2963
825.648	2990
825.787	3001
825.927	3001
826.067	2975
826.206	2944
826.346	2994
826.485	3043
826.625	3097
826.765	3253
826.904	3230
827.044	2998
827.183	2883
827.323	2849
827.462	2971
827.601	2902
827.741	2956
827.88	2971
828.02	2845
828.159	3001
828.298	3020
828.437	3112
828.577	3032
828.716	3237
828.855	3039
828.994	2876
829.134	2902
829.273	2887
829.412	2845
829.551	2838
829.69	2861
829.829	2979
829.968	3081
830.107	3024
830.246	2994
830.385	2918
830.524	2861
830.663	2800
830.802	2727
830.941	2659
831.08	2621
831.219	2739
831.357	2762
831.496	2960
831.635	2735
831.774	2655
831.913	2617
832.051	2545
832.19	2579
832.329	2678
832.467	2530
832.606	2442
832.744	2560
832.883	2579
833.022	2598
833.16	2655
833.299	2670
833.437	2705
833.576	2693
833.714	2693
833.852	2712
833.991	2781
834.129	2826
834.267	2834
834.406	2792
834.544	2845
834.682	2830
834.821	2876
834.959	3055
835.097	2868
835.235	3058
835.373	3001
835.511	3032
835.65	2914
835.788	2979
835.926	2823
836.064	2807
836.202	2823
836.34	3104
836.478	3161
836.615	3074
836.753	3112
836.891	3192
837.029	3173
837.167	3089
837.305	3066
837.443	3058
837.58	2933
837.718	3135
837.856	3081
837.993	2986
838.131	3100
838.269	3089
838.406	3100
838.544	3085
838.681	2956
838.819	2922
838.956	2826
839.094	2815
839.231	2899
839.369	2979
839.506	3340
839.643	3184
839.781	3020
839.918	2971
840.055	3017
840.193	3001
840.33	3081
840.467	3108
840.604	3142
840.742	3393
840.879	3055
841.016	3028
841.153	3142
841.29	3340
841.427	3310
841.564	3260
841.701	3291
841.838	3211
841.975	3176
842.112	3222
842.249	3028
842.385	3001
842.522	3218
842.659	3077
842.796	3032
842.933	3077
843.069	3058
843.206	3020
843.343	3192
843.479	3104
843.616	3135
843.752	2861
843.889	2857
844.025	3074
844.162	2872
844.298	3036
844.435	2929
844.571	2876
844.708	3013
844.844	3199
844.98	3237
845.117	3199
845.253	3036
845.389	2986
845.525	3154
845.661	3093
845.798	2994
845.934	3123
846.07	3024
846.206	3211
846.342	3287
846.478	3237
846.614	3058
846.75	3036
846.886	2971
847.022	3214
847.158	3104
847.294	3207
847.429	3218
847.565	3226
847.701	3458
847.837	3055
847.972	2990
848.108	3157
848.244	3135
848.379	2952
848.515	2960
848.65	2906
848.786	2956
848.921	3005
849.057	3093
849.192	3123
849.328	3028
849.463	3119
849.598	3074
849.734	3066
849.869	2925
850.004	2933
850.14	2941
850.275	2902
850.41	2834
850.545	2906
850.68	2918
850.815	2960
850.95	2960
851.085	3161
851.22	3097
851.355	3039
851.49	2979
851.625	2956
851.76	2986
851.895	2933
852.03	2899
852.165	3024
852.299	3077
852.434	3214
852.569	3138
852.703	3123
852.838	3249
852.973	3382
853.107	3294
853.242	3176
853.376	3097
853.511	2944
853.645	3047
853.78	3192
853.914	3119
854.048	3123
854.183	3089
854.317	3123
854.451	3260
854.585	3119
854.72	3081
854.854	3165
854.988	3055
855.122	3093
855.256	2963
855.39	3127
855.524	3226
855.658	3165
855.792	3184
855.926	3199
856.06	3237
856.194	3237
856.327	3131
856.461	3081
856.595	3081
856.729	3085
856.862	3237
856.996	3154
857.13	3173
857.263	3272
857.397	3275
857.53	3085
857.664	3165
857.797	3203
857.931	3230
858.064	3180
858.197	3211
858.331	3150
858.464	3074
858.597	3020
858.731	3104
858.864	3089
858.997	3123
859.13	3127
859.263	3112
859.396	3154
859.529	3070
859.662	3066
859.795	3043
859.928	3138
860.061	3287
860.194	3298
860.327	3093
860.46	3074
860.592	3214
860.725	3241
860.858	3264
860.99	3081
861.123	3039
861.256	3024
861.388	3176
861.521	3899
861.653	2998
861.786	3013
861.918	3020
862.05	3051
862.183	3093
862.315	3138
862.447	3195
862.58	3032
862.712	2902
862.844	2876
862.976	3017
863.108	2982
863.24	3431
863.372	2853
863.504	2956
863.636	2933
863.768	3001
863.9	2948
864.032	2910
864.164	2918
864.296	3013
864.428	3077
864.559	3108
864.691	3032
864.823	3055
864.954	3020
865.086	3036
865.217	3017
865.349	2948
865.48	2971
865.612	2963
865.743	3157
865.875	2975
866.006	2952
866.137	2982
866.269	2925
866.4	2902
866.531	2906
866.662	2872
866.793	2887
866.924	2891
867.055	2960
867.186	2922
867.317	2895
867.448	2845
867.579	2861
867.71	2887
867.841	2830
867.972	2902
868.103	2891
868.233	2891
868.364	2891
868.495	2883
868.625	3077
868.756	3161
868.886	2956
869.017	3039
869.147	3146
869.278	3161
869.408	2990
869.539	2994
869.669	3131
869.799	3043
869.929	3097
870.06	3131
870.19	3310
870.32	3283
870.45	3306
870.58	3363
870.71	3412
870.84	3443
870.97	3287
871.1	3214
871.23	3485
871.36	3450
871.489	3325
871.619	3336
871.749	3370
871.879	3412
872.008	3443
872.138	3382
872.267	3287
872.397	3157
872.526	3100
872.656	2990
872.785	3081
872.915	3203
873.044	3340
873.173	3214
873.303	3253
873.432	3222
873.561	3222
873.69	3157
873.819	3116
873.948	3192
874.077	3039
874.206	3028
874.335	3097
874.464	3222
874.593	3340
874.722	3241
874.851	3363
874.979	3378
875.108	3317
875.237	3138
875.365	3138
875.494	3169
875.623	3253
875.751	3058
875.88	3116
876.008	3176
876.136	3218
876.265	3378
876.393	3481
876.521	3431
876.65	3374
876.778	3325
876.906	3230
877.034	3188
877.162	3264
877.29	3192
877.418	3268
877.546	3260
877.674	3233
877.802	3230
877.93	3192
878.058	3119
878.185	3100
878.313	3188
878.441	3184
878.568	3066
878.696	3142
878.824	3222
878.951	3317
879.079	3473
879.206	3603
879.333	3393
879.461	3340
879.588	3359
879.715	3473
879.842	3572
879.97	3397
880.097	3157
880.224	3119
880.351	3188
880.478	3241
880.605	3188
880.732	3154
880.859	3500
880.986	3272
881.112	3340
881.239	3199
881.366	3089
881.493	3032
881.619	3043
881.746	3055
881.872	3081
881.999	3127
882.125	3138
882.252	3253
882.378	3241
882.505	3428
882.631	3268
882.757	3108
882.883	3249
883.01	3230
883.136	3138
883.262	3135
883.388	3123
883.514	3294
883.64	3389
883.766	3298
883.892	3154
884.018	3222
884.143	3409
884.269	3595
884.395	3249
884.52	3154
884.646	3173
884.772	3127
884.897	3062
885.023	3211
885.148	3313
885.274	3439
885.399	3378
885.524	3249
885.65	3249
885.775	3325
885.9	3268
886.025	3424
886.15	3351
886.275	3317
886.4	3218
886.525	3283
886.65	3268
886.775	3256
886.9	3488
887.025	3610
887.149	3412
887.274	3230
887.399	3195
887.523	3214
887.648	3188
887.773	3150
887.897	3397
888.021	3424
888.146	3279
888.27	3420
888.395	3481
888.519	3454
888.643	3458
888.767	3435
888.891	3313
889.015	3245
889.139	3298
889.263	3268
889.387	3405
889.511	3500
889.635	3458
889.759	3313
889.883	3268
890.006	3363
890.13	3466
890.254	3291
890.377	3332
890.501	3192
890.624	3192
890.748	3306
890.871	3176
890.995	3131
891.118	3039
891.241	3192
891.364	3188
891.488	3332
891.611	3180
891.734	3222
891.857	3294
891.98	3264
892.103	3283
892.226	3287
892.349	3173
892.471	3123
892.594	3237
892.717	3313
892.839	3279
892.962	3272
893.085	3367
893.207	3283
893.33	3127
893.452	3218
893.575	3344
893.697	3233
893.819	3450
893.941	3511
894.064	3428
894.186	3260
894.308	3272
894.43	3450
894.552	3488
894.674	3492
894.796	3298
894.918	3275
895.04	3306
895.161	3431
895.283	3370
895.405	3321
895.526	3336
895.648	3443
895.769	3428
895.891	3447
896.012	3458
896.134	3443
896.255	3431
896.376	3367
896.498	3367
896.619	3447
896.74	3313
896.861	3367
896.982	3679
897.103	3850
897.224	3580
897.345	3481
897.466	3420
897.587	3462
897.708	3606
897.828	3523
897.949	3409
898.07	3397
898.19	3374
898.311	3618
898.431	3469
898.552	3538
898.672	3610
898.792	3580
898.913	3542
899.033	3397
899.153	3272
899.273	3218
899.393	3268
899.513	3287
899.633	3302
899.753	3310
899.873	3279
899.993	3382
900.113	3302
900.232	3374
900.352	3329
900.472	3287
900.591	3211
900.711	3283
900.83	3283
900.95	3386
901.069	3481
901.189	3359
901.308	3192
901.427	3100
901.546	3195
901.665	3260
901.784	3310
901.904	3184
902.023	3127
902.141	2971
902.26	2994
902.379	3097
902.498	3074
902.617	3070
902.735	3161
902.854	3218
902.973	3169
903.091	3081
903.21	3093
903.328	3127
903.446	3097
903.565	3100
903.683	3199
903.801	3127
903.919	3230
904.038	3260
904.156	3146
904.274	3260
904.392	3230
904.51	3287
904.627	3329
904.745	3428
904.863	3488
904.981	3249
905.098	3165
905.216	3226
905.334	3275
905.451	3268
905.569	3325
905.686	3443
905.803	3420
905.921	3283
906.038	3424
906.155	3355
906.272	3272
906.389	3317
906.506	3211
906.623	3256
906.74	3298
906.857	3192
906.974	3241
907.091	3435
907.208	3606
907.324	3496
907.441	3393
907.557	3218
907.674	3222
907.79	3237
907.907	3283
908.023	3332
908.139	3363
908.256	3283
908.372	3359
908.488	3359
908.604	3249
908.72	3249
908.836	3272
908.952	3241
909.068	3325
909.184	3454
909.3	3424
909.415	3511
909.531	3424
909.647	3260
909.762	3272
909.878	3195
909.993	3355
910.108	3325
910.224	3378
910.339	3401
910.454	3302
910.57	3275
910.685	3249
910.8	3557
910.915	3572
911.03	3416
911.145	3241
911.259	3245
911.374	3317
911.489	3268
911.604	3211
911.718	3100
911.833	3150
911.947	3024
912.062	2994
912.176	3176
912.291	3230
912.405	3184
912.519	3393
912.633	3477
912.748	3313
912.862	3260
912.976	3165
913.09	3093
913.204	3138
913.318	3207
913.431	3321
913.545	3348
913.659	3458
913.772	3325
913.886	3230
914	3207
914.113	3332
914.226	3405
914.34	3355
914.453	3192
914.566	3401
914.68	3275
914.793	3317
914.906	3135
915.019	3108
915.132	3032
915.245	3165
915.358	3199
915.47	3218
915.583	3245
915.696	3279
915.809	3428
915.921	3409
916.034	3302
916.146	3260
916.259	3188
916.371	3336
916.483	3351
916.595	3283
916.708	3321
916.82	3321
916.932	3336
917.044	3382
917.156	3359
917.268	3256
917.38	3298
917.491	3222
917.603	3382
917.715	3420
917.826	3447
917.938	3393
918.049	3275
918.161	3420
918.272	3568
918.384	3572
918.495	3454
918.606	3348
918.717	3310
918.828	3386
918.939	3439
919.05	3264
919.161	3389
919.272	3161
919.383	3268
919.494	3473
919.604	3682
919.715	3500
919.826	3397
919.936	3473
920.047	3591
920.157	3568
920.267	3781
920.378	3584
920.488	3580
920.598	3778
920.708	3964
920.818	3816
920.928	3842
921.038	3972
921.148	4002
921.258	3682
921.368	3633
921.477	3610
921.587	3523
921.697	3462
921.806	3625
921.916	3545
922.025	3367
922.134	3321
922.244	3329
922.353	3424
922.462	3249
922.571	3195
922.68	3112
922.789	3104
922.898	3157
923.007	3097
923.116	3188
923.224	3169
923.333	3188
923.442	3093
923.55	3085
923.659	3154
923.767	3195
923.876	3119
923.984	3218
924.092	3100
924.201	3214
924.309	3241
924.417	3218
924.525	3188
924.633	3249
924.741	4173
924.849	3036
924.956	3275
925.064	3112
925.172	3062
925.279	3093
925.387	3180
925.494	3173
925.602	3310
925.709	3336
925.816	3195
925.924	3268
926.031	3370
926.138	3317
926.245	3374
926.352	3211
926.459	3420
926.566	3481
926.673	3332
926.779	3218
926.886	3237
926.993	3169
927.099	3131
927.206	3112
927.312	3089
927.419	3226
927.525	3188
927.631	3237
927.737	3112
927.843	3085
927.95	2990
928.056	3169
928.162	3150
928.267	3241
928.373	3762
928.479	3298
928.585	3051
928.69	3211
928.796	3279
928.901	3169
929.007	3074
929.112	3222
929.218	3180
929.323	3150
929.428	3131
929.533	3310
929.638	3093
929.743	3165
929.848	3279
929.953	3249
930.058	3119
930.163	2982
930.267	3028
930.372	3161
930.477	3005
930.581	3275
930.685	3165
930.79	3055
930.894	3108
930.998	3116
931.103	3241
931.207	2952
931.311	2925
931.415	2918
931.519	2773
931.623	2826
