Data from test_V78500241_1022.txt Node
Date: Fri Mar 25 16:22:16 CST 2022
User: usil
Spectrometer: V785-0024
Trigger mode: 0
Integration Time (sec): 4.000000E-1
Scans to average: 1
Nonlinearity correction enabled: false
Boxcar width: 0
Storing dark spectrum: false
XAxis mode: Wavelengths
Number of Pixels in Spectrum: 1024
>>>>>Begin Spectral Data<<<<<
801.071	2906
801.214	2922
801.356	2876
801.499	2887
801.641	2864
801.783	2922
801.926	3070
802.068	2979
802.211	2990
802.353	3009
802.496	2944
802.638	3028
802.78	3039
802.923	3066
803.065	2971
803.208	2883
803.35	2914
803.492	2914
803.635	2929
803.777	2769
803.919	2842
804.061	3176
804.204	2960
804.346	2883
804.488	2826
804.63	2963
804.773	2834
804.915	2895
805.057	3055
805.199	2925
805.341	3017
805.483	3047
805.626	2998
805.768	2990
805.91	3089
806.052	3104
806.194	3043
806.336	3230
806.478	2998
806.62	2944
806.762	2960
806.904	3039
807.046	3142
807.188	3005
807.33	2918
807.472	2994
807.614	2906
807.756	2975
807.898	2895
808.04	2902
808.182	2941
808.324	2937
808.465	2887
808.607	2899
808.749	2811
808.891	2864
809.033	2971
809.174	2963
809.316	2876
809.458	2891
809.6	2758
809.741	2758
809.883	2766
810.025	2845
810.166	2891
810.308	2872
810.45	2853
810.591	2773
810.733	2758
810.875	2838
811.016	2769
811.158	2750
811.299	2796
811.441	2944
811.582	2922
811.724	2823
811.865	2815
812.007	2929
812.148	2876
812.29	2861
812.431	2876
812.573	2956
812.714	2963
812.855	3039
812.997	3047
813.138	3142
813.279	2994
813.421	2975
813.562	2956
813.703	2853
813.845	2895
813.986	2781
814.127	2754
814.268	2834
814.41	2845
814.551	2838
814.692	2899
814.833	2830
814.974	2872
815.115	2979
815.256	2811
815.397	2815
815.539	2868
815.68	2796
815.821	2762
815.962	2902
816.103	2948
816.244	2910
816.385	2891
816.526	2998
816.666	2895
816.807	2743
816.948	2902
817.089	2925
817.23	2880
817.371	2766
817.512	2785
817.653	2842
817.793	2819
817.934	2872
818.075	2963
818.216	2971
818.356	2982
818.497	2902
818.638	2792
818.778	2823
818.919	2785
819.06	2754
819.2	2899
819.341	2830
819.481	2811
819.622	2933
819.762	3085
819.903	3047
820.043	2956
820.184	2906
820.324	2902
820.465	3036
820.605	3013
820.746	3051
820.886	2937
821.026	3089
821.167	3127
821.307	3268
821.447	3253
821.588	3245
821.728	3226
821.868	3154
822.008	3066
822.149	3180
822.289	3260
822.429	3093
822.569	3085
822.709	3173
822.849	3013
822.99	3074
823.13	3131
823.27	3188
823.41	3127
823.55	3116
823.69	3161
823.83	3173
823.97	3077
824.11	2948
824.25	3013
824.389	3085
824.529	3131
824.669	3089
824.809	3188
824.949	3279
825.089	3184
825.228	3146
825.368	2994
825.508	2937
825.648	2948
825.787	3013
825.927	3017
826.067	2963
826.206	2944
826.346	3055
826.485	3070
826.625	3100
826.765	3245
826.904	3188
827.044	2990
827.183	2918
827.323	2838
827.462	2990
827.601	2925
827.741	2922
827.88	2960
828.02	2838
828.159	2990
828.298	3032
828.437	3142
828.577	3043
828.716	3283
828.855	3062
828.994	2929
829.134	2880
829.273	2891
829.412	2891
829.551	2834
829.69	2891
829.829	3005
829.968	3142
830.107	3001
830.246	3013
830.385	2933
830.524	2883
830.663	2823
830.802	2720
830.941	2617
831.08	2625
831.219	2731
831.357	2785
831.496	2944
831.635	2712
831.774	2655
831.913	2632
832.051	2571
832.19	2590
832.329	2663
832.467	2522
832.606	2507
832.744	2613
832.883	2571
833.022	2621
833.16	2651
833.299	2686
833.437	2727
833.576	2705
833.714	2735
833.852	2720
833.991	2746
834.129	2864
834.267	2815
834.406	2750
834.544	2868
834.682	2883
834.821	2872
834.959	3047
835.097	2906
835.235	3039
835.373	3005
835.511	3009
835.65	2956
835.788	2944
835.926	2823
836.064	2785
836.202	2849
836.34	3077
836.478	3169
836.615	3070
836.753	3150
836.891	3256
837.029	3157
837.167	3093
837.305	3028
837.443	3043
837.58	2948
837.718	3123
837.856	3028
837.993	3036
838.131	3131
838.269	3112
838.406	3104
838.544	3081
838.681	2922
838.819	2876
838.956	2811
839.094	2807
839.231	2910
839.369	3013
839.506	3340
839.643	3218
839.781	3020
839.918	2975
840.055	3028
840.193	3070
840.33	3085
840.467	3123
840.604	3157
840.742	3382
840.879	3043
841.016	3017
841.153	3104
841.29	3359
841.427	3294
841.564	3245
841.701	3317
841.838	3211
841.975	3165
842.112	3203
842.249	3062
842.385	3032
842.522	3260
842.659	3047
842.796	3032
842.933	3108
843.069	3039
843.206	3013
843.343	3169
843.479	3085
843.616	3138
843.752	2902
843.889	2883
844.025	3058
844.162	2876
844.298	3062
844.435	2922
844.571	2876
844.708	3051
844.844	3218
844.98	3245
845.117	3150
845.253	3039
845.389	3001
845.525	3070
845.661	3066
845.798	3039
845.934	3119
846.07	3020
846.206	3188
846.342	3283
846.478	3260
846.614	3062
846.75	3013
846.886	2994
847.022	3222
847.158	3077
847.294	3184
847.429	3233
847.565	3165
847.701	3488
847.837	3074
847.972	2994
848.108	3154
848.244	3146
848.379	2956
848.515	2941
848.65	2906
848.786	2956
848.921	3005
849.057	3097
849.192	3131
849.328	3062
849.463	3081
849.598	3020
849.734	3058
849.869	2952
850.004	2914
850.14	3005
850.275	2880
850.41	2804
850.545	2845
850.68	2906
850.815	2963
850.95	2982
851.085	3169
851.22	3055
851.355	3062
851.49	2948
851.625	3028
851.76	3032
851.895	2937
852.03	2922
852.165	3028
852.299	3085
852.434	3165
852.569	3135
852.703	3199
852.838	3241
852.973	3382
853.107	3321
853.242	3146
853.376	3112
853.511	2979
853.645	3047
853.78	3245
853.914	3135
854.048	3081
854.183	3119
854.317	3154
854.451	3264
854.585	3127
854.72	3055
854.854	3222
854.988	3039
855.122	3062
855.256	2979
855.39	3108
855.524	3241
855.658	3161
855.792	3161
855.926	3233
856.06	3165
856.194	3256
856.327	3135
856.461	3047
856.595	3077
856.729	3058
856.862	3173
856.996	3112
857.13	3214
857.263	3222
857.397	3245
857.53	3112
857.664	3211
857.797	3192
857.931	3218
858.064	3142
858.197	3192
858.331	3123
858.464	3043
858.597	2963
858.731	3123
858.864	3135
858.997	3066
859.13	3127
859.263	3154
859.396	3192
859.529	3066
859.662	3036
859.795	3043
859.928	3131
860.061	3275
860.194	3264
860.327	3058
860.46	3104
860.592	3237
860.725	3253
860.858	3310
860.99	3081
861.123	3047
861.256	3013
861.388	3135
861.521	3842
861.653	3013
861.786	2933
861.918	3001
862.05	3051
862.183	3066
862.315	3150
862.447	3211
862.58	3077
862.712	2944
862.844	2857
862.976	3032
863.108	3001
863.24	3435
863.372	2887
863.504	2967
863.636	2941
863.768	3005
863.9	2971
864.032	2906
864.164	2944
864.296	3009
864.428	3051
864.559	3081
864.691	3066
864.823	3032
864.954	3020
865.086	3028
865.217	2998
865.349	2956
865.48	2971
865.612	3017
865.743	3135
865.875	2998
866.006	2956
866.137	3024
866.269	2914
866.4	2914
866.531	2899
866.662	2845
866.793	2857
866.924	2918
867.055	2941
867.186	2956
867.317	2864
867.448	2857
867.579	2864
867.71	2880
867.841	2819
867.972	2910
868.103	2910
868.233	2906
868.364	2830
868.495	2929
868.625	3058
868.756	3184
868.886	2956
869.017	3036
869.147	3184
869.278	3192
869.408	3032
869.539	2979
869.669	3100
869.799	3062
869.929	3142
870.06	3074
870.19	3313
870.32	3256
870.45	3291
870.58	3370
870.71	3409
870.84	3450
870.97	3268
871.1	3222
871.23	3431
871.36	3450
871.489	3355
871.619	3367
871.749	3405
871.879	3401
872.008	3450
872.138	3340
872.267	3264
872.397	3173
872.526	3085
872.656	3017
872.785	3097
872.915	3214
873.044	3291
873.173	3233
873.303	3256
873.432	3249
873.561	3237
873.69	3131
873.819	3104
873.948	3211
874.077	3100
874.206	3028
874.335	3077
874.464	3233
874.593	3298
874.722	3230
874.851	3420
874.979	3329
875.108	3325
875.237	3180
875.365	3161
875.494	3161
875.623	3245
875.751	3085
875.88	3104
876.008	3211
876.136	3203
876.265	3389
876.393	3511
876.521	3405
876.65	3428
876.778	3332
876.906	3214
877.034	3176
877.162	3192
877.29	3195
877.418	3256
877.546	3256
877.674	3245
877.802	3241
877.93	3211
878.058	3123
878.185	3100
878.313	3218
878.441	3211
878.568	3058
878.696	3123
878.824	3230
878.951	3260
879.079	3458
879.206	3663
879.333	3450
879.461	3351
879.588	3378
879.715	3458
879.842	3587
879.97	3389
880.097	3169
880.224	3085
880.351	3150
880.478	3207
880.605	3199
880.732	3211
880.859	3511
880.986	3302
881.112	3310
881.239	3211
881.366	3116
881.493	3032
881.619	3036
881.746	3066
881.872	3093
881.999	3123
882.125	3127
882.252	3230
882.378	3249
882.505	3409
882.631	3310
882.757	3157
882.883	3233
883.01	3218
883.136	3192
883.262	3081
883.388	3085
883.514	3298
883.64	3355
883.766	3321
883.892	3131
884.018	3230
884.143	3439
884.269	3530
884.395	3207
884.52	3127
884.646	3142
884.772	3116
884.897	3066
885.023	3230
885.148	3344
885.274	3412
885.399	3329
885.524	3264
885.65	3218
885.775	3287
885.9	3302
886.025	3412
886.15	3382
886.275	3317
886.4	3245
886.525	3317
886.65	3260
886.775	3249
886.9	3523
887.025	3576
887.149	3420
887.274	3249
887.399	3150
887.523	3184
887.648	3157
887.773	3199
887.897	3386
888.021	3393
888.146	3256
888.27	3386
888.395	3542
888.519	3397
888.643	3424
888.767	3466
888.891	3294
889.015	3241
889.139	3279
889.263	3253
889.387	3412
889.511	3519
889.635	3428
889.759	3294
889.883	3253
890.006	3382
890.13	3458
890.254	3275
890.377	3313
890.501	3192
890.624	3218
890.748	3329
890.871	3199
890.995	3104
891.118	3070
891.241	3142
891.364	3214
891.488	3287
891.611	3169
891.734	3245
891.857	3249
891.98	3249
892.103	3351
892.226	3253
892.349	3226
892.471	3062
892.594	3237
892.717	3294
892.839	3230
892.962	3275
893.085	3340
893.207	3294
893.33	3195
893.452	3150
893.575	3317
893.697	3176
893.819	3454
893.941	3511
894.064	3435
894.186	3294
894.308	3283
894.43	3431
894.552	3523
894.674	3439
894.796	3272
894.918	3287
895.04	3310
895.161	3431
895.283	3401
895.405	3306
895.526	3355
895.648	3374
895.769	3416
895.891	3409
896.012	3473
896.134	3435
896.255	3405
896.376	3367
896.498	3348
896.619	3431
896.74	3336
896.861	3401
896.982	3675
897.103	3880
897.224	3564
897.345	3523
897.466	3435
897.587	3485
897.708	3644
897.828	3553
897.949	3454
898.07	3302
898.19	3409
898.311	3568
898.431	3454
898.552	3545
898.672	3599
898.792	3568
898.913	3534
899.033	3367
899.153	3275
899.273	3211
899.393	3268
899.513	3344
899.633	3310
899.753	3313
899.873	3306
899.993	3386
900.113	3294
900.232	3370
900.352	3336
900.472	3310
900.591	3188
900.711	3313
900.83	3241
900.95	3420
901.069	3504
901.189	3363
901.308	3169
901.427	3142
901.546	3154
901.665	3279
901.784	3332
901.904	3237
902.023	3112
902.141	3066
902.26	3001
902.379	3116
902.498	3066
902.617	3032
902.735	3218
902.854	3256
902.973	3192
903.091	3043
903.21	3089
903.328	3123
903.446	3116
903.565	3135
903.683	3188
903.801	3112
903.919	3214
904.038	3283
904.156	3169
904.274	3272
904.392	3253
904.51	3241
904.627	3317
904.745	3443
904.863	3492
904.981	3268
905.098	3165
905.216	3241
905.334	3306
905.451	3310
905.569	3279
905.686	3412
905.803	3412
905.921	3260
906.038	3397
906.155	3329
906.272	3256
906.389	3306
906.506	3214
906.623	3218
906.74	3233
906.857	3184
906.974	3222
907.091	3435
907.208	3553
907.324	3473
907.441	3397
907.557	3233
907.674	3222
907.79	3188
907.907	3275
908.023	3367
908.139	3351
908.256	3294
908.372	3317
908.488	3348
908.604	3279
908.72	3230
908.836	3275
908.952	3268
909.068	3321
909.184	3469
909.3	3397
909.415	3492
909.531	3447
909.647	3260
909.762	3329
909.878	3268
909.993	3382
910.108	3359
910.224	3291
910.339	3435
910.454	3329
910.57	3245
910.685	3237
910.8	3587
910.915	3534
911.03	3454
911.145	3249
911.259	3275
911.374	3310
911.489	3249
911.604	3237
911.718	3112
911.833	3161
911.947	3036
912.062	2986
912.176	3165
912.291	3214
912.405	3214
912.519	3393
912.633	3458
912.748	3329
912.862	3275
912.976	3195
913.09	3028
913.204	3104
913.318	3256
913.431	3348
913.545	3317
913.659	3389
913.772	3310
913.886	3230
914	3203
914.113	3325
914.226	3424
914.34	3344
914.453	3207
914.566	3393
914.68	3279
914.793	3313
914.906	3127
915.019	3138
915.132	3077
915.245	3150
915.358	3203
915.47	3230
915.583	3218
915.696	3317
915.809	3370
915.921	3401
916.034	3249
916.146	3249
916.259	3222
916.371	3386
916.483	3370
916.595	3253
916.708	3348
916.82	3348
916.932	3310
917.044	3306
917.156	3340
917.268	3233
917.38	3298
917.491	3287
917.603	3386
917.715	3420
917.826	3401
917.938	3393
918.049	3275
918.161	3405
918.272	3561
918.384	3564
918.495	3477
918.606	3329
918.717	3245
918.828	3374
918.939	3389
919.05	3287
919.161	3348
919.272	3184
919.383	3264
919.494	3511
919.604	3698
919.715	3477
919.826	3424
919.936	3450
920.047	3595
920.157	3542
920.267	3755
920.378	3637
920.488	3595
920.598	3812
920.708	3968
920.818	3816
920.928	3812
921.038	4006
921.148	3987
921.258	3705
921.368	3644
921.477	3561
921.587	3534
921.697	3450
921.806	3603
921.916	3526
922.025	3355
922.134	3332
922.244	3344
922.353	3370
922.462	3272
922.571	3214
922.68	3089
922.789	3043
922.898	3116
923.007	3112
923.116	3207
923.224	3188
923.333	3161
923.442	3074
923.55	3062
923.659	3131
923.767	3203
923.876	3112
923.984	3241
924.092	3119
924.201	3161
924.309	3237
924.417	3180
924.525	3192
924.633	3256
924.741	4188
924.849	3051
924.956	3272
925.064	3085
925.172	3066
925.279	3104
925.387	3108
925.494	3180
925.602	3359
925.709	3355
925.816	3214
925.924	3256
926.031	3409
926.138	3325
926.245	3348
926.352	3264
926.459	3389
926.566	3458
926.673	3287
926.779	3241
926.886	3233
926.993	3116
927.099	3165
927.206	3119
927.312	3116
927.419	3268
927.525	3176
927.631	3283
927.737	3104
927.843	3138
927.95	3017
928.056	3123
928.162	3165
928.267	3256
928.373	3884
928.479	3302
928.585	3085
928.69	3207
928.796	3275
928.901	3157
929.007	2986
929.112	3211
929.218	3154
929.323	3165
929.428	3154
929.533	3321
929.638	3119
929.743	3173
929.848	3268
929.953	3180
930.058	3154
930.163	2979
930.267	3036
930.372	3176
930.477	3024
930.581	3344
930.685	3211
930.79	3005
930.894	3112
930.998	3104
931.103	3256
931.207	2979
931.311	2929
931.415	2933
931.519	2781
931.623	2830
