Data from test_V78500241_1799.txt Node
Date: Fri Mar 25 16:27:39 CST 2022
User: usil
Spectrometer: V785-0024
Trigger mode: 0
Integration Time (sec): 4.000000E-1
Scans to average: 1
Nonlinearity correction enabled: false
Boxcar width: 0
Storing dark spectrum: false
XAxis mode: Wavelengths
Number of Pixels in Spectrum: 1024
>>>>>Begin Spectral Data<<<<<
801.071	2918
801.214	2933
801.356	2857
801.499	2895
801.641	2845
801.783	2891
801.926	3081
802.068	2975
802.211	3001
802.353	3013
802.496	2922
802.638	2986
802.78	3009
802.923	3070
803.065	2994
803.208	2887
803.35	2944
803.492	2944
803.635	2910
803.777	2788
803.919	2838
804.061	3241
804.204	2971
804.346	2906
804.488	2834
804.63	2990
804.773	2895
804.915	2914
805.057	3070
805.199	2899
805.341	3001
805.483	3020
805.626	3009
805.768	2956
805.91	3100
806.052	3055
806.194	3036
806.336	3233
806.478	3039
806.62	2960
806.762	2975
806.904	3028
807.046	3146
807.188	3005
807.33	2925
807.472	2963
807.614	2899
807.756	2998
807.898	2895
808.04	2906
808.182	2982
808.324	2975
808.465	2876
808.607	2849
808.749	2788
808.891	2857
809.033	2994
809.174	2979
809.316	2853
809.458	2895
809.6	2758
809.741	2758
809.883	2766
810.025	2819
810.166	2857
810.308	2868
810.45	2811
810.591	2800
810.733	2743
810.875	2857
811.016	2758
811.158	2769
811.299	2804
811.441	2910
811.582	2883
811.724	2819
811.865	2845
812.007	2883
812.148	2895
812.29	2845
812.431	2902
812.573	2925
812.714	2941
812.855	3032
812.997	3070
813.138	3165
813.279	3001
813.421	2982
813.562	2990
813.703	2853
813.845	2853
813.986	2769
814.127	2739
814.268	2800
814.41	2842
814.551	2792
814.692	2868
814.833	2842
814.974	2883
815.115	2899
815.256	2823
815.397	2804
815.539	2838
815.68	2758
815.821	2804
815.962	2963
816.103	2925
816.244	2883
816.385	2883
816.526	2982
816.666	2914
816.807	2731
816.948	2902
817.089	2925
817.23	2842
817.371	2758
817.512	2800
817.653	2868
817.793	2792
817.934	2845
818.075	3001
818.216	2998
818.356	2994
818.497	2883
818.638	2788
818.778	2804
818.919	2796
819.06	2731
819.2	2826
819.341	2819
819.481	2796
819.622	2914
819.762	3097
819.903	3028
820.043	2910
820.184	2902
820.324	2864
820.465	3017
820.605	2994
820.746	3009
820.886	2899
821.026	3093
821.167	3176
821.307	3268
821.447	3260
821.588	3214
821.728	3188
821.868	3184
822.008	3070
822.149	3173
822.289	3283
822.429	3070
822.569	3047
822.709	3131
822.849	3047
822.99	3074
823.13	3135
823.27	3184
823.41	3112
823.55	3112
823.69	3135
823.83	3184
823.97	3097
824.11	2967
824.25	2975
824.389	3020
824.529	3100
824.669	3036
824.809	3199
824.949	3233
825.089	3237
825.228	3161
825.368	2990
825.508	2960
825.648	2963
825.787	3036
825.927	3013
826.067	2994
826.206	2948
826.346	3013
826.485	3089
826.625	3112
826.765	3302
826.904	3214
827.044	2971
827.183	2937
827.323	2849
827.462	2979
827.601	2910
827.741	2899
827.88	2941
828.02	2826
828.159	2975
828.298	3039
828.437	3097
828.577	2979
828.716	3199
828.855	3062
828.994	2929
829.134	2872
829.273	2872
829.412	2883
829.551	2845
829.69	2883
829.829	2937
829.968	3112
830.107	3013
830.246	2986
830.385	2899
830.524	2880
830.663	2811
830.802	2731
830.941	2640
831.08	2655
831.219	2739
831.357	2758
831.496	2922
831.635	2712
831.774	2659
831.913	2651
832.051	2533
832.19	2579
832.329	2693
832.467	2507
832.606	2484
832.744	2579
832.883	2571
833.022	2590
833.16	2674
833.299	2686
833.437	2686
833.576	2697
833.714	2750
833.852	2731
833.991	2739
834.129	2834
834.267	2857
834.406	2773
834.544	2876
834.682	2864
834.821	2857
834.959	3055
835.097	2906
835.235	3051
835.373	2986
835.511	3005
835.65	2975
835.788	2918
835.926	2807
836.064	2819
836.202	2857
836.34	3100
836.478	3123
836.615	3036
836.753	3093
836.891	3192
837.029	3138
837.167	3093
837.305	3085
837.443	3028
837.58	2956
837.718	3135
837.856	3062
837.993	3005
838.131	3093
838.269	3077
838.406	3108
838.544	3097
838.681	2895
838.819	2902
838.956	2800
839.094	2819
839.231	2914
839.369	2967
839.506	3355
839.643	3207
839.781	3028
839.918	2960
840.055	3020
840.193	3062
840.33	3074
840.467	3085
840.604	3142
840.742	3344
840.879	3036
841.016	3074
841.153	3112
841.29	3325
841.427	3268
841.564	3275
841.701	3317
841.838	3211
841.975	3180
842.112	3226
842.249	3112
842.385	3028
842.522	3241
842.659	3055
842.796	3047
842.933	3097
843.069	3043
843.206	3020
843.343	3176
843.479	3108
843.616	3119
843.752	2834
843.889	2872
844.025	3058
844.162	2861
844.298	3085
844.435	2960
844.571	2891
844.708	3043
844.844	3192
844.98	3249
845.117	3195
845.253	3051
845.389	2998
845.525	3108
845.661	3108
845.798	3005
845.934	3112
846.07	3047
846.206	3207
846.342	3302
846.478	3218
846.614	3047
846.75	3009
846.886	3013
847.022	3226
847.158	3131
847.294	3184
847.429	3233
847.565	3199
847.701	3420
847.837	3036
847.972	3020
848.108	3157
848.244	3146
848.379	2982
848.515	2918
848.65	2914
848.786	2967
848.921	3028
849.057	3093
849.192	3154
849.328	3074
849.463	3135
849.598	3077
849.734	3032
849.869	2971
850.004	2952
850.14	2986
850.275	2937
850.41	2826
850.545	2861
850.68	2925
850.815	2925
850.95	2990
851.085	3184
851.22	3077
851.355	2998
851.49	2986
851.625	3043
851.76	2998
851.895	2922
852.03	2895
852.165	3017
852.299	3112
852.434	3180
852.569	3146
852.703	3165
852.838	3226
852.973	3340
853.107	3302
853.242	3135
853.376	3058
853.511	2979
853.645	3085
853.78	3199
853.914	3108
854.048	3123
854.183	3062
854.317	3135
854.451	3275
854.585	3142
854.72	3081
854.854	3184
854.988	2998
855.122	3097
855.256	2971
855.39	3100
855.524	3253
855.658	3161
855.792	3165
855.926	3154
856.06	3214
856.194	3245
856.327	3135
856.461	3085
856.595	3085
856.729	3077
856.862	3207
856.996	3131
857.13	3199
857.263	3199
857.397	3283
857.53	3104
857.664	3169
857.797	3226
857.931	3241
858.064	3161
858.197	3260
858.331	3104
858.464	3077
858.597	2990
858.731	3104
858.864	3104
858.997	3100
859.13	3157
859.263	3161
859.396	3192
859.529	3077
859.662	3055
859.795	3062
859.928	3119
860.061	3260
860.194	3279
860.327	3146
860.46	3062
860.592	3203
860.725	3230
860.858	3279
860.99	3081
861.123	3074
861.256	3043
861.388	3176
861.521	3854
861.653	3051
861.786	2948
861.918	2994
862.05	3074
862.183	3062
862.315	3100
862.447	3211
862.58	3119
862.712	2925
862.844	2868
862.976	3028
863.108	2982
863.24	3412
863.372	2868
863.504	2982
863.636	2933
863.768	3009
863.9	2986
864.032	2899
864.164	2948
864.296	3024
864.428	3104
864.559	3138
864.691	3047
864.823	3081
864.954	3020
865.086	3081
865.217	3017
865.349	2937
865.48	2967
865.612	3051
865.743	3131
865.875	2967
866.006	2982
866.137	2979
866.269	2960
866.4	2941
866.531	2922
866.662	2876
866.793	2891
866.924	2883
867.055	2948
867.186	2937
867.317	2868
867.448	2811
867.579	2804
867.71	2838
867.841	2811
867.972	2891
868.103	2899
868.233	2872
868.364	2891
868.495	2868
868.625	3058
868.756	3142
868.886	2982
869.017	3005
869.147	3135
869.278	3154
869.408	3039
869.539	3024
869.669	3089
869.799	3066
869.929	3116
870.06	3127
870.19	3336
870.32	3268
870.45	3302
870.58	3329
870.71	3462
870.84	3458
870.97	3272
871.1	3256
871.23	3466
871.36	3458
871.489	3367
871.619	3393
871.749	3397
871.879	3462
872.008	3473
872.138	3348
872.267	3306
872.397	3116
872.526	3097
872.656	2975
872.785	3123
872.915	3249
873.044	3306
873.173	3233
873.303	3207
873.432	3203
873.561	3237
873.69	3165
873.819	3135
873.948	3180
874.077	3089
874.206	3024
874.335	3093
874.464	3165
874.593	3332
874.722	3241
874.851	3370
874.979	3317
875.108	3325
875.237	3176
875.365	3127
875.494	3142
875.623	3291
875.751	3051
875.88	3123
876.008	3180
876.136	3230
876.265	3355
876.393	3492
876.521	3382
876.65	3405
876.778	3336
876.906	3256
877.034	3165
877.162	3214
877.29	3169
877.418	3230
877.546	3233
877.674	3233
877.802	3203
877.93	3214
878.058	3138
878.185	3119
878.313	3211
878.441	3203
878.568	3051
878.696	3138
878.824	3241
878.951	3260
879.079	3435
879.206	3614
879.333	3447
879.461	3321
879.588	3386
879.715	3481
879.842	3584
879.97	3370
880.097	3150
880.224	3116
880.351	3169
880.478	3203
880.605	3214
880.732	3176
880.859	3496
880.986	3264
881.112	3310
881.239	3230
881.366	3108
881.493	3013
881.619	3032
881.746	3100
881.872	3066
881.999	3097
882.125	3150
882.252	3241
882.378	3279
882.505	3447
882.631	3329
882.757	3123
882.883	3207
883.01	3214
883.136	3165
883.262	3108
883.388	3135
883.514	3329
883.64	3355
883.766	3317
883.892	3173
884.018	3214
884.143	3447
884.269	3511
884.395	3195
884.52	3123
884.646	3184
884.772	3074
884.897	3077
885.023	3161
885.148	3359
885.274	3401
885.399	3348
885.524	3279
885.65	3245
885.775	3291
885.9	3340
886.025	3428
886.15	3359
886.275	3302
886.4	3272
886.525	3279
886.65	3260
886.775	3268
886.9	3511
887.025	3603
887.149	3428
887.274	3245
887.399	3169
887.523	3176
887.648	3207
887.773	3184
887.897	3355
888.021	3401
888.146	3279
888.27	3370
888.395	3511
888.519	3405
888.643	3450
888.767	3454
888.891	3348
889.015	3241
889.139	3287
889.263	3245
889.387	3374
889.511	3511
889.635	3443
889.759	3279
889.883	3287
890.006	3393
890.13	3496
890.254	3287
890.377	3325
890.501	3211
890.624	3188
890.748	3329
890.871	3184
890.995	3085
891.118	3074
891.241	3207
891.364	3180
891.488	3313
891.611	3173
891.734	3199
891.857	3298
891.98	3226
892.103	3351
892.226	3302
892.349	3214
892.471	3119
892.594	3237
892.717	3275
892.839	3230
892.962	3287
893.085	3332
893.207	3306
893.33	3116
893.452	3241
893.575	3332
893.697	3253
893.819	3469
893.941	3458
894.064	3469
894.186	3245
894.308	3233
894.43	3439
894.552	3519
894.674	3458
894.796	3256
894.918	3367
895.04	3291
895.161	3428
895.283	3367
895.405	3294
895.526	3348
895.648	3389
895.769	3412
895.891	3454
896.012	3462
896.134	3488
896.255	3443
896.376	3336
896.498	3317
896.619	3435
896.74	3348
896.861	3367
896.982	3701
897.103	3842
897.224	3576
897.345	3492
897.466	3462
897.587	3492
897.708	3629
897.828	3523
897.949	3458
898.07	3325
898.19	3374
898.311	3599
898.431	3447
898.552	3530
898.672	3580
898.792	3591
898.913	3485
899.033	3420
899.153	3287
899.273	3233
899.393	3260
899.513	3317
899.633	3317
899.753	3310
899.873	3291
899.993	3344
900.113	3329
900.232	3393
900.352	3348
900.472	3268
900.591	3199
900.711	3294
900.83	3245
900.95	3393
901.069	3496
901.189	3363
901.308	3161
901.427	3123
901.546	3188
901.665	3279
901.784	3329
901.904	3180
902.023	3123
902.141	3001
902.26	2998
902.379	3135
902.498	3085
902.617	3074
902.735	3207
902.854	3283
902.973	3203
903.091	3032
903.21	3039
903.328	3123
903.446	3089
903.565	3112
903.683	3180
903.801	3116
903.919	3233
904.038	3268
904.156	3138
904.274	3264
904.392	3199
904.51	3313
904.627	3325
904.745	3409
904.863	3542
904.981	3253
905.098	3169
905.216	3253
905.334	3260
905.451	3317
905.569	3272
905.686	3389
905.803	3409
905.921	3264
906.038	3420
906.155	3363
906.272	3241
906.389	3344
906.506	3218
906.623	3272
906.74	3253
906.857	3195
906.974	3245
907.091	3428
907.208	3538
907.324	3466
907.441	3367
907.557	3222
907.674	3230
907.79	3195
907.907	3253
908.023	3351
908.139	3397
908.256	3329
908.372	3405
908.488	3332
908.604	3199
908.72	3260
908.836	3321
908.952	3272
909.068	3317
909.184	3481
909.3	3412
909.415	3496
909.531	3462
909.647	3275
909.762	3302
909.878	3287
909.993	3355
910.108	3321
910.224	3313
910.339	3389
910.454	3321
910.57	3287
910.685	3249
910.8	3610
910.915	3496
911.03	3447
911.145	3256
911.259	3268
911.374	3260
911.489	3256
911.604	3180
911.718	3146
911.833	3157
911.947	3058
912.062	2979
912.176	3127
912.291	3188
912.405	3214
912.519	3405
912.633	3462
912.748	3340
912.862	3275
912.976	3165
913.09	3074
913.204	3157
913.318	3195
913.431	3310
913.545	3310
913.659	3454
913.772	3348
913.886	3245
914	3165
914.113	3340
914.226	3382
914.34	3317
914.453	3214
914.566	3374
914.68	3306
914.793	3313
914.906	3157
915.019	3097
915.132	3051
915.245	3135
915.358	3233
915.47	3241
915.583	3230
915.696	3302
915.809	3393
915.921	3424
916.034	3275
916.146	3218
916.259	3222
916.371	3382
916.483	3355
916.595	3268
916.708	3344
916.82	3351
916.932	3336
917.044	3317
917.156	3325
917.268	3256
917.38	3279
917.491	3317
917.603	3370
917.715	3443
917.826	3424
917.938	3344
918.049	3287
918.161	3393
918.272	3557
918.384	3561
918.495	3462
918.606	3329
918.717	3279
918.828	3363
918.939	3420
919.05	3317
919.161	3382
919.272	3207
919.383	3268
919.494	3469
919.604	3671
919.715	3462
919.826	3397
919.936	3500
920.047	3561
920.157	3538
920.267	3819
920.378	3595
920.488	3568
920.598	3759
920.708	3949
920.818	3865
920.928	3876
921.038	4032
921.148	3987
921.258	3720
921.368	3641
921.477	3591
921.587	3549
921.697	3542
921.806	3595
921.916	3504
922.025	3370
922.134	3344
922.244	3279
922.353	3359
922.462	3268
922.571	3222
922.68	3127
922.789	3070
922.898	3173
923.007	3081
923.116	3180
923.224	3195
923.333	3146
923.442	3116
923.55	3119
923.659	3119
923.767	3176
923.876	3142
923.984	3226
924.092	3093
924.201	3188
924.309	3230
924.417	3268
924.525	3142
924.633	3283
924.741	4029
924.849	3108
924.956	3249
925.064	3070
925.172	3020
925.279	3104
925.387	3173
925.494	3222
925.602	3351
925.709	3351
925.816	3218
925.924	3268
926.031	3359
926.138	3332
926.245	3344
926.352	3253
926.459	3386
926.566	3447
926.673	3321
926.779	3241
926.886	3260
926.993	3180
927.099	3100
927.206	3055
927.312	3131
927.419	3233
927.525	3199
927.631	3253
927.737	3154
927.843	3116
927.95	2994
928.056	3165
928.162	3154
928.267	3256
928.373	3835
928.479	3329
928.585	3066
928.69	3195
928.796	3256
928.901	3165
929.007	3024
929.112	3180
929.218	3169
929.323	3154
929.428	3127
929.533	3329
929.638	3097
929.743	3157
929.848	3279
929.953	3176
930.058	3165
930.163	2998
930.267	3043
930.372	3211
930.477	3036
930.581	3313
930.685	3176
930.79	3077
930.894	3104
930.998	3131
931.103	3233
931.207	2952
931.311	2948
931.415	2941
931.519	2750
931.623	2826
