Data from test_V78500241_663.txt Node
Date: Fri Mar 25 16:19:47 CST 2022
User: usil
Spectrometer: V785-0024
Trigger mode: 0
Integration Time (sec): 4.000000E-1
Scans to average: 1
Nonlinearity correction enabled: false
Boxcar width: 0
Storing dark spectrum: false
XAxis mode: Wavelengths
Number of Pixels in Spectrum: 1024
>>>>>Begin Spectral Data<<<<<
801.071	2895
801.214	2971
801.356	2887
801.499	2861
801.641	2868
801.783	2933
801.926	3043
802.068	2948
802.211	2986
802.353	3024
802.496	2952
802.638	3013
802.78	3039
802.923	3089
803.065	3001
803.208	2910
803.35	2937
803.492	2948
803.635	2941
803.777	2758
803.919	2868
804.061	3195
804.204	2975
804.346	2933
804.488	2861
804.63	2967
804.773	2868
804.915	2906
805.057	3051
805.199	2918
805.341	2990
805.483	3036
805.626	3005
805.768	2994
805.91	3119
806.052	3108
806.194	3039
806.336	3279
806.478	3062
806.62	2994
806.762	3009
806.904	3043
807.046	3169
807.188	2952
807.33	2914
807.472	2994
807.614	2914
807.756	3020
807.898	2952
808.04	2857
808.182	3028
808.324	2960
808.465	2857
808.607	2887
808.749	2792
808.891	2845
809.033	3005
809.174	2948
809.316	2899
809.458	2910
809.6	2800
809.741	2766
809.883	2800
810.025	2891
810.166	2834
810.308	2845
810.45	2861
810.591	2785
810.733	2773
810.875	2838
811.016	2785
811.158	2743
811.299	2830
811.441	2929
811.582	2857
811.724	2864
811.865	2811
812.007	2899
812.148	2902
812.29	2857
812.431	2887
812.573	2902
812.714	2937
812.855	3043
812.997	3028
813.138	3123
813.279	3013
813.421	3020
813.562	2963
813.703	2876
813.845	2853
813.986	2792
814.127	2769
814.268	2834
814.41	2857
814.551	2781
814.692	2910
814.833	2830
814.974	2895
815.115	2963
815.256	2811
815.397	2815
815.539	2857
815.68	2777
815.821	2815
815.962	2933
816.103	2967
816.244	2864
816.385	2876
816.526	2975
816.666	2895
816.807	2754
816.948	2849
817.089	2922
817.23	2861
817.371	2758
817.512	2781
817.653	2853
817.793	2868
817.934	2880
818.075	2952
818.216	2986
818.356	3036
818.497	2895
818.638	2781
818.778	2823
818.919	2834
819.06	2750
819.2	2876
819.341	2796
819.481	2826
819.622	2918
819.762	3135
819.903	3062
820.043	2975
820.184	2895
820.324	2883
820.465	2998
820.605	3020
820.746	2998
820.886	2902
821.026	3108
821.167	3173
821.307	3214
821.447	3317
821.588	3218
821.728	3214
821.868	3226
822.008	3100
822.149	3180
822.289	3188
822.429	3104
822.569	3097
822.709	3161
822.849	3013
822.99	3055
823.13	3165
823.27	3195
823.41	3097
823.55	3116
823.69	3142
823.83	3214
823.97	3135
824.11	3009
824.25	2979
824.389	3066
824.529	3074
824.669	3062
824.809	3207
824.949	3279
825.089	3199
825.228	3161
825.368	2990
825.508	2986
825.648	2982
825.787	3017
825.927	3009
826.067	2967
826.206	2975
826.346	3005
826.485	3051
826.625	3161
826.765	3218
826.904	3214
827.044	2986
827.183	2891
827.323	2883
827.462	2975
827.601	2891
827.741	2925
827.88	2937
828.02	2811
828.159	2986
828.298	3036
828.437	3104
828.577	3028
828.716	3203
828.855	3070
828.994	2918
829.134	2872
829.273	2887
829.412	2872
829.551	2868
829.69	2868
829.829	2990
829.968	3089
830.107	3009
830.246	3009
830.385	2864
830.524	2918
830.663	2804
830.802	2731
830.941	2644
831.08	2651
831.219	2720
831.357	2781
831.496	2975
831.635	2708
831.774	2636
831.913	2727
832.051	2568
832.19	2568
832.329	2697
832.467	2507
832.606	2476
832.744	2568
832.883	2545
833.022	2613
833.16	2636
833.299	2663
833.437	2644
833.576	2686
833.714	2727
833.852	2724
833.991	2746
834.129	2830
834.267	2819
834.406	2758
834.544	2830
834.682	2899
834.821	2861
834.959	3062
835.097	2895
835.235	3017
835.373	2986
835.511	3020
835.65	2967
835.788	2948
835.926	2830
836.064	2811
836.202	2845
836.34	3089
836.478	3131
836.615	3058
836.753	3108
836.891	3195
837.029	3135
837.167	3116
837.305	3043
837.443	3032
837.58	2971
837.718	3123
837.856	3039
837.993	3024
838.131	3119
838.269	3097
838.406	3093
838.544	3097
838.681	2910
838.819	2918
838.956	2811
839.094	2845
839.231	2887
839.369	3055
839.506	3378
839.643	3233
839.781	3005
839.918	2952
840.055	3058
840.193	3024
840.33	3039
840.467	3051
840.604	3169
840.742	3378
840.879	3051
841.016	3039
841.153	3116
841.29	3329
841.427	3313
841.564	3256
841.701	3321
841.838	3222
841.975	3199
842.112	3218
842.249	3066
842.385	3051
842.522	3256
842.659	3070
842.796	3047
842.933	3043
843.069	3043
843.206	3036
843.343	3188
843.479	3104
843.616	3104
843.752	2880
843.889	2853
844.025	3043
844.162	2880
844.298	3104
844.435	2963
844.571	2941
844.708	3009
844.844	3176
844.98	3195
845.117	3157
845.253	3036
845.389	2998
845.525	3097
845.661	3089
845.798	3017
845.934	3089
846.07	3028
846.206	3180
846.342	3340
846.478	3207
846.614	3070
846.75	3036
846.886	3001
847.022	3233
847.158	3127
847.294	3176
847.429	3241
847.565	3165
847.701	3462
847.837	3036
847.972	3028
848.108	3169
848.244	3161
848.379	2967
848.515	2948
848.65	2937
848.786	2967
848.921	3009
849.057	3081
849.192	3146
849.328	3051
849.463	3135
849.598	3055
849.734	3055
849.869	2952
850.004	2914
850.14	2963
850.275	2902
850.41	2845
850.545	2872
850.68	2971
850.815	2918
850.95	3005
851.085	3176
851.22	3093
851.355	3062
851.49	2994
851.625	2998
851.76	2982
851.895	2899
852.03	2891
852.165	2990
852.299	3112
852.434	3180
852.569	3138
852.703	3146
852.838	3268
852.973	3329
853.107	3321
853.242	3119
853.376	3020
853.511	2975
853.645	3020
853.78	3253
853.914	3093
854.048	3108
854.183	3081
854.317	3150
854.451	3294
854.585	3116
854.72	3085
854.854	3161
854.988	3058
855.122	3066
855.256	2956
855.39	3104
855.524	3207
855.658	3180
855.792	3154
855.926	3165
856.06	3161
856.194	3253
856.327	3157
856.461	3081
856.595	3085
856.729	3089
856.862	3195
856.996	3123
857.13	3131
857.263	3264
857.397	3264
857.53	3104
857.664	3192
857.797	3222
857.931	3287
858.064	3157
858.197	3226
858.331	3138
858.464	3074
858.597	2979
858.731	3089
858.864	3127
858.997	3089
859.13	3135
859.263	3150
859.396	3184
859.529	3074
859.662	3081
859.795	3058
859.928	3138
860.061	3253
860.194	3279
860.327	3112
860.46	3074
860.592	3237
860.725	3203
860.858	3233
860.99	3100
861.123	3036
861.256	3066
861.388	3116
861.521	3793
861.653	3017
861.786	2960
861.918	3020
862.05	3062
862.183	3119
862.315	3161
862.447	3173
862.58	3051
862.712	2967
862.844	2864
862.976	3020
863.108	2994
863.24	3409
863.372	2876
863.504	2971
863.636	2975
863.768	3058
863.9	3005
864.032	2868
864.164	2933
864.296	2998
864.428	3047
864.559	3085
864.691	3058
864.823	3036
864.954	3051
865.086	3028
865.217	2960
865.349	2929
865.48	3001
865.612	3005
865.743	3119
865.875	2990
866.006	2967
866.137	2944
866.269	2937
866.4	2929
866.531	2922
866.662	2876
866.793	2876
866.924	2914
867.055	2975
867.186	2918
867.317	2853
867.448	2826
867.579	2834
867.71	2861
867.841	2811
867.972	2906
868.103	2887
868.233	2868
868.364	2887
868.495	2906
868.625	3085
868.756	3142
868.886	2990
869.017	3024
869.147	3184
869.278	3161
869.408	3036
869.539	3047
869.669	3066
869.799	3043
869.929	3173
870.06	3100
870.19	3332
870.32	3260
870.45	3306
870.58	3370
870.71	3492
870.84	3428
870.97	3260
871.1	3245
871.23	3450
871.36	3477
871.489	3348
871.619	3374
871.749	3397
871.879	3405
872.008	3466
872.138	3370
872.267	3291
872.397	3123
872.526	3058
872.656	2960
872.785	3058
872.915	3207
873.044	3264
873.173	3218
873.303	3199
873.432	3211
873.561	3192
873.69	3112
873.819	3131
873.948	3176
874.077	3066
874.206	3020
874.335	3039
874.464	3176
874.593	3370
874.722	3230
874.851	3397
874.979	3310
875.108	3317
875.237	3188
875.365	3123
875.494	3131
875.623	3245
875.751	3100
875.88	3119
876.008	3173
876.136	3253
876.265	3363
876.393	3496
876.521	3439
876.65	3401
876.778	3325
876.906	3230
877.034	3203
877.162	3268
877.29	3150
877.418	3245
877.546	3245
877.674	3256
877.802	3230
877.93	3253
878.058	3142
878.185	3119
878.313	3214
878.441	3203
878.568	3097
878.696	3154
878.824	3253
878.951	3313
879.079	3416
879.206	3587
879.333	3393
879.461	3329
879.588	3313
879.715	3492
879.842	3591
879.97	3332
880.097	3214
880.224	3150
880.351	3184
880.478	3214
880.605	3203
880.732	3188
880.859	3492
880.986	3283
881.112	3287
881.239	3188
881.366	3097
881.493	3017
881.619	2975
881.746	3070
881.872	3062
881.999	3070
882.125	3123
882.252	3214
882.378	3302
882.505	3439
882.631	3249
882.757	3176
882.883	3245
883.01	3192
883.136	3165
883.262	3085
883.388	3119
883.514	3310
883.64	3355
883.766	3283
883.892	3192
884.018	3241
884.143	3409
884.269	3545
884.395	3184
884.52	3097
884.646	3176
884.772	3138
884.897	3097
885.023	3207
885.148	3272
885.274	3416
885.399	3344
885.524	3245
885.65	3256
885.775	3283
885.9	3302
886.025	3431
886.15	3351
886.275	3306
886.4	3226
886.525	3283
886.65	3249
886.775	3306
886.9	3515
887.025	3587
887.149	3397
887.274	3237
887.399	3165
887.523	3207
887.648	3161
887.773	3169
887.897	3370
888.021	3367
888.146	3310
888.27	3431
888.395	3545
888.519	3443
888.643	3412
888.767	3439
888.891	3260
889.015	3237
889.139	3306
889.263	3264
889.387	3336
889.511	3500
889.635	3454
889.759	3241
889.883	3294
890.006	3367
890.13	3488
890.254	3260
890.377	3317
890.501	3188
890.624	3211
890.748	3302
890.871	3188
890.995	3100
891.118	3032
891.241	3176
891.364	3203
891.488	3370
891.611	3161
891.734	3203
891.857	3279
891.98	3283
892.103	3317
892.226	3279
892.349	3176
892.471	3085
892.594	3256
892.717	3291
892.839	3291
892.962	3298
893.085	3340
893.207	3275
893.33	3127
893.452	3199
893.575	3340
893.697	3298
893.819	3473
893.941	3492
894.064	3424
894.186	3275
894.308	3249
894.43	3447
894.552	3538
894.674	3450
894.796	3233
894.918	3283
895.04	3287
895.161	3447
895.283	3351
895.405	3294
895.526	3348
895.648	3420
895.769	3462
895.891	3496
896.012	3469
896.134	3466
896.255	3416
896.376	3367
896.498	3329
896.619	3420
896.74	3306
896.861	3405
896.982	3675
897.103	3838
897.224	3572
897.345	3500
897.466	3439
897.587	3488
897.708	3603
897.828	3584
897.949	3462
898.07	3348
898.19	3397
898.311	3603
898.431	3420
898.552	3523
898.672	3580
898.792	3549
898.913	3511
899.033	3428
899.153	3283
899.273	3230
899.393	3287
899.513	3325
899.633	3310
899.753	3298
899.873	3283
899.993	3409
900.113	3332
900.232	3416
900.352	3355
900.472	3310
900.591	3169
900.711	3272
900.83	3195
900.95	3409
901.069	3500
901.189	3351
901.308	3161
901.427	3131
901.546	3233
901.665	3283
901.784	3291
901.904	3230
902.023	3108
902.141	2986
902.26	2975
902.379	3119
902.498	3058
902.617	3081
902.735	3199
902.854	3241
902.973	3180
903.091	3032
903.21	3070
903.328	3104
903.446	3104
903.565	3066
903.683	3253
903.801	3119
903.919	3230
904.038	3283
904.156	3169
904.274	3275
904.392	3245
904.51	3264
904.627	3329
904.745	3469
904.863	3477
904.981	3218
905.098	3180
905.216	3218
905.334	3291
905.451	3260
905.569	3310
905.686	3409
905.803	3462
905.921	3264
906.038	3462
906.155	3336
906.272	3298
906.389	3325
906.506	3260
906.623	3249
906.74	3287
906.857	3138
906.974	3241
907.091	3454
907.208	3561
907.324	3458
907.441	3412
907.557	3253
907.674	3214
907.79	3222
907.907	3268
908.023	3386
908.139	3401
908.256	3340
908.372	3329
908.488	3348
908.604	3260
908.72	3237
908.836	3325
908.952	3310
909.068	3344
909.184	3481
909.3	3393
909.415	3515
909.531	3447
909.647	3283
909.762	3279
909.878	3272
909.993	3374
910.108	3317
910.224	3359
910.339	3420
910.454	3344
910.57	3310
910.685	3268
910.8	3561
910.915	3568
911.03	3443
911.145	3268
911.259	3306
911.374	3260
911.489	3245
911.604	3241
911.718	3058
911.833	3157
911.947	3028
912.062	2994
912.176	3154
912.291	3203
912.405	3249
912.519	3420
912.633	3469
912.748	3348
912.862	3256
912.976	3131
913.09	3055
913.204	3127
913.318	3226
913.431	3310
913.545	3302
913.659	3370
913.772	3298
913.886	3237
914	3165
914.113	3374
914.226	3412
914.34	3405
914.453	3226
914.566	3435
914.68	3249
914.793	3363
914.906	3116
915.019	3123
915.132	3051
915.245	3176
915.358	3249
915.47	3241
915.583	3279
915.696	3253
915.809	3435
915.921	3450
916.034	3241
916.146	3211
916.259	3260
916.371	3424
916.483	3359
916.595	3237
916.708	3306
916.82	3332
916.932	3332
917.044	3355
917.156	3344
917.268	3226
917.38	3321
917.491	3287
917.603	3344
917.715	3450
917.826	3458
917.938	3386
918.049	3287
918.161	3420
918.272	3595
918.384	3523
918.495	3454
918.606	3317
918.717	3302
918.828	3405
918.939	3424
919.05	3325
919.161	3397
919.272	3169
919.383	3302
919.494	3507
919.604	3671
919.715	3504
919.826	3397
919.936	3447
920.047	3572
920.157	3549
920.267	3778
920.378	3576
920.488	3564
920.598	3762
920.708	3968
920.818	3850
920.928	3793
921.038	4051
921.148	3975
921.258	3732
921.368	3599
921.477	3568
921.587	3545
921.697	3462
921.806	3614
921.916	3500
922.025	3340
922.134	3363
922.244	3298
922.353	3412
922.462	3310
922.571	3214
922.68	3123
922.789	3070
922.898	3123
923.007	3085
923.116	3184
923.224	3188
923.333	3169
923.442	3093
923.55	3112
923.659	3161
923.767	3230
923.876	3127
923.984	3237
924.092	3093
924.201	3165
924.309	3226
924.417	3237
924.525	3180
924.633	3230
924.741	3983
924.849	3055
924.956	3310
925.064	3043
925.172	3055
925.279	3058
925.387	3165
925.494	3230
925.602	3351
925.709	3321
925.816	3199
925.924	3233
926.031	3378
926.138	3332
926.245	3313
926.352	3245
926.459	3393
926.566	3450
926.673	3336
926.779	3264
926.886	3211
926.993	3161
927.099	3184
927.206	3112
927.312	3142
927.419	3214
927.525	3173
927.631	3260
927.737	3157
927.843	3112
927.95	3051
928.056	3154
928.162	3135
928.267	3253
928.373	3797
928.479	3321
928.585	3047
928.69	3173
928.796	3268
928.901	3157
929.007	3081
929.112	3245
929.218	3142
929.323	3169
929.428	3116
929.533	3359
929.638	3157
929.743	3180
929.848	3260
929.953	3222
930.058	3146
930.163	2975
930.267	3039
930.372	3207
930.477	3024
930.581	3317
930.685	3211
930.79	3081
930.894	3093
930.998	3081
931.103	3241
931.207	2948
931.311	2914
931.415	2933
931.519	2788
931.623	2849
