Data from test_V78500241_1944.txt Node
Date: Fri Mar 25 16:28:40 CST 2022
User: usil
Spectrometer: V785-0024
Trigger mode: 0
Integration Time (sec): 4.000000E-1
Scans to average: 1
Nonlinearity correction enabled: false
Boxcar width: 0
Storing dark spectrum: false
XAxis mode: Wavelengths
Number of Pixels in Spectrum: 1024
>>>>>Begin Spectral Data<<<<<
801.071	2864
801.214	2956
801.356	2807
801.499	2883
801.641	2887
801.783	2918
801.926	3032
802.068	2971
802.211	2979
802.353	2994
802.496	2960
802.638	3020
802.78	3047
802.923	3013
803.065	3017
803.208	2887
803.35	2937
803.492	2960
803.635	2891
803.777	2781
803.919	2864
804.061	3222
804.204	2948
804.346	2887
804.488	2842
804.63	3001
804.773	2872
804.915	2937
805.057	3039
805.199	2906
805.341	2986
805.483	3047
805.626	3020
805.768	2937
805.91	3077
806.052	3108
806.194	2982
806.336	3230
806.478	2986
806.62	2929
806.762	2956
806.904	3066
807.046	3154
807.188	2990
807.33	2895
807.472	2990
807.614	2906
807.756	2986
807.898	2914
808.04	2914
808.182	2986
808.324	2937
808.465	2876
808.607	2887
808.749	2743
808.891	2872
809.033	2990
809.174	2971
809.316	2887
809.458	2883
809.6	2746
809.741	2750
809.883	2769
810.025	2823
810.166	2834
810.308	2849
810.45	2823
810.591	2785
810.733	2773
810.875	2838
811.016	2781
811.158	2746
811.299	2807
811.441	2933
811.582	2895
811.724	2838
811.865	2853
812.007	2899
812.148	2872
812.29	2842
812.431	2887
812.573	2918
812.714	2952
812.855	3070
812.997	3074
813.138	3081
813.279	3017
813.421	2979
813.562	2933
813.703	2857
813.845	2876
813.986	2762
814.127	2731
814.268	2830
814.41	2849
814.551	2773
814.692	2872
814.833	2788
814.974	2880
815.115	2944
815.256	2842
815.397	2800
815.539	2872
815.68	2788
815.821	2792
815.962	2948
816.103	2910
816.244	2845
816.385	2883
816.526	2941
816.666	2918
816.807	2724
816.948	2845
817.089	2910
817.23	2857
817.371	2781
817.512	2811
817.653	2826
817.793	2857
817.934	2872
818.075	2948
818.216	2975
818.356	3047
818.497	2902
818.638	2792
818.778	2777
818.919	2796
819.06	2754
819.2	2895
819.341	2811
819.481	2796
819.622	2937
819.762	3097
819.903	3009
820.043	2895
820.184	2914
820.324	2902
820.465	3005
820.605	3009
820.746	3009
820.886	2925
821.026	3112
821.167	3135
821.307	3283
821.447	3302
821.588	3226
821.728	3192
821.868	3207
822.008	3032
822.149	3207
822.289	3230
822.429	3074
822.569	3077
822.709	3146
822.849	3058
822.99	3074
823.13	3138
823.27	3222
823.41	3119
823.55	3112
823.69	3123
823.83	3226
823.97	3062
824.11	3024
824.25	2986
824.389	3032
824.529	3131
824.669	3074
824.809	3230
824.949	3253
825.089	3218
825.228	3150
825.368	3009
825.508	2937
825.648	3005
825.787	3039
825.927	3009
826.067	2967
826.206	2922
826.346	3036
826.485	3024
826.625	3116
826.765	3245
826.904	3226
827.044	3013
827.183	2910
827.323	2853
827.462	2986
827.601	2918
827.741	2963
827.88	2960
828.02	2845
828.159	2979
828.298	3058
828.437	3131
828.577	3024
828.716	3226
828.855	3077
828.994	2933
829.134	2914
829.273	2922
829.412	2857
829.551	2864
829.69	2872
829.829	3005
829.968	3123
830.107	3017
830.246	2982
830.385	2902
830.524	2895
830.663	2788
830.802	2731
830.941	2644
831.08	2651
831.219	2697
831.357	2720
831.496	2933
831.635	2693
831.774	2651
831.913	2640
832.051	2549
832.19	2556
832.329	2659
832.467	2541
832.606	2442
832.744	2564
832.883	2583
833.022	2583
833.16	2632
833.299	2651
833.437	2667
833.576	2686
833.714	2746
833.852	2697
833.991	2754
834.129	2823
834.267	2842
834.406	2781
834.544	2868
834.682	2876
834.821	2887
834.959	3036
835.097	2880
835.235	3047
835.373	3009
835.511	3055
835.65	2929
835.788	2902
835.926	2838
836.064	2823
836.202	2807
836.34	3081
836.478	3169
836.615	2990
836.753	3135
836.891	3180
837.029	3127
837.167	3119
837.305	3039
837.443	3051
837.58	2948
837.718	3116
837.856	3062
837.993	2975
838.131	3100
838.269	3112
838.406	3051
838.544	3051
838.681	2960
838.819	2883
838.956	2815
839.094	2788
839.231	2895
839.369	3017
839.506	3359
839.643	3207
839.781	3028
839.918	2925
840.055	3039
840.193	3051
840.33	3077
840.467	3081
840.604	3135
840.742	3424
840.879	3036
841.016	3047
841.153	3116
841.29	3351
841.427	3298
841.564	3268
841.701	3325
841.838	3214
841.975	3127
842.112	3195
842.249	3066
842.385	3066
842.522	3214
842.659	3104
842.796	3062
842.933	3085
843.069	3047
843.206	3058
843.343	3188
843.479	3100
843.616	3138
843.752	2880
843.889	2891
844.025	3055
844.162	2861
844.298	3093
844.435	2944
844.571	2925
844.708	3070
844.844	3176
844.98	3233
845.117	3218
845.253	2998
845.389	3005
845.525	3077
845.661	3104
845.798	3032
845.934	3112
846.07	3024
846.206	3207
846.342	3332
846.478	3207
846.614	3070
846.75	3066
846.886	3039
847.022	3211
847.158	3157
847.294	3237
847.429	3218
847.565	3173
847.701	3473
847.837	3001
847.972	3005
848.108	3150
848.244	3135
848.379	2990
848.515	2937
848.65	2963
848.786	2956
848.921	3013
849.057	3100
849.192	3135
849.328	3077
849.463	3123
849.598	3036
849.734	3005
849.869	3005
850.004	2895
850.14	2963
850.275	2910
850.41	2823
850.545	2887
850.68	2929
850.815	2929
850.95	2941
851.085	3146
851.22	3119
851.355	3013
851.49	3013
851.625	2979
851.76	3001
851.895	2895
852.03	2887
852.165	3009
852.299	3135
852.434	3192
852.569	3169
852.703	3203
852.838	3264
852.973	3340
853.107	3313
853.242	3165
853.376	3097
853.511	2960
853.645	3036
853.78	3214
853.914	3123
854.048	3131
854.183	3070
854.317	3169
854.451	3275
854.585	3127
854.72	3081
854.854	3192
854.988	3043
855.122	3058
855.256	2975
855.39	3127
855.524	3249
855.658	3135
855.792	3127
855.926	3161
856.06	3199
856.194	3245
856.327	3161
856.461	3028
856.595	3097
856.729	3077
856.862	3169
856.996	3123
857.13	3211
857.263	3211
857.397	3283
857.53	3100
857.664	3176
857.797	3207
857.931	3207
858.064	3169
858.197	3222
858.331	3123
858.464	3081
858.597	2963
858.731	3066
858.864	3089
858.997	3051
859.13	3131
859.263	3150
859.396	3195
859.529	3051
859.662	3051
859.795	3047
859.928	3131
860.061	3287
860.194	3310
860.327	3119
860.46	3093
860.592	3233
860.725	3233
860.858	3226
860.99	3077
861.123	3062
861.256	3036
861.388	3127
861.521	3880
861.653	2990
861.786	2982
861.918	3024
862.05	3089
862.183	3104
862.315	3138
862.447	3157
862.58	3058
862.712	2918
862.844	2891
862.976	3020
863.108	2971
863.24	3287
863.372	2872
863.504	3009
863.636	2933
863.768	3036
863.9	2967
864.032	2914
864.164	2941
864.296	2971
864.428	3058
864.559	3089
864.691	3039
864.823	3074
864.954	3020
865.086	3036
865.217	2998
865.349	2910
865.48	2982
865.612	3013
865.743	3173
865.875	2982
866.006	2906
866.137	2952
866.269	2952
866.4	2918
866.531	2925
866.662	2876
866.793	2887
866.924	2864
867.055	2971
867.186	2891
867.317	2876
867.448	2857
867.579	2811
867.71	2811
867.841	2815
867.972	2880
868.103	2933
868.233	2857
868.364	2845
868.495	2883
868.625	3017
868.756	3146
868.886	2982
869.017	3013
869.147	3146
869.278	3161
869.408	3058
869.539	3024
869.669	3135
869.799	3074
869.929	3131
870.06	3116
870.19	3306
870.32	3272
870.45	3287
870.58	3332
870.71	3458
870.84	3466
870.97	3298
871.1	3264
871.23	3450
871.36	3473
871.489	3294
871.619	3370
871.749	3435
871.879	3412
872.008	3435
872.138	3386
872.267	3268
872.397	3150
872.526	3127
872.656	3032
872.785	3081
872.915	3195
873.044	3348
873.173	3226
873.303	3249
873.432	3226
873.561	3195
873.69	3138
873.819	3131
873.948	3176
874.077	3070
874.206	3013
874.335	3013
874.464	3184
874.593	3363
874.722	3237
874.851	3412
874.979	3340
875.108	3329
875.237	3211
875.365	3157
875.494	3161
875.623	3218
875.751	3085
875.88	3112
876.008	3173
876.136	3222
876.265	3325
876.393	3500
876.521	3382
876.65	3351
876.778	3344
876.906	3268
877.034	3207
877.162	3256
877.29	3154
877.418	3241
877.546	3211
877.674	3241
877.802	3241
877.93	3218
878.058	3135
878.185	3119
878.313	3154
878.441	3184
878.568	3043
878.696	3188
878.824	3184
878.951	3268
879.079	3450
879.206	3648
879.333	3443
879.461	3348
879.588	3359
879.715	3450
879.842	3587
879.97	3355
880.097	3146
880.224	3138
880.351	3226
880.478	3218
880.605	3150
880.732	3165
880.859	3462
880.986	3298
881.112	3302
881.239	3176
881.366	3055
881.493	3017
881.619	3032
881.746	3017
881.872	3097
881.999	3089
882.125	3093
882.252	3230
882.378	3237
882.505	3416
882.631	3237
882.757	3154
882.883	3222
883.01	3253
883.136	3157
883.262	3108
883.388	3085
883.514	3279
883.64	3332
883.766	3279
883.892	3192
884.018	3287
884.143	3409
884.269	3530
884.395	3203
884.52	3157
884.646	3199
884.772	3146
884.897	3070
885.023	3203
885.148	3321
885.274	3374
885.399	3363
885.524	3253
885.65	3237
885.775	3344
885.9	3253
886.025	3473
886.15	3344
886.275	3310
886.4	3226
886.525	3287
886.65	3245
886.775	3272
886.9	3500
887.025	3591
887.149	3405
887.274	3226
887.399	3176
887.523	3176
887.648	3142
887.773	3184
887.897	3374
888.021	3389
888.146	3298
888.27	3443
888.395	3526
888.519	3401
888.643	3443
888.767	3473
888.891	3325
889.015	3199
889.139	3275
889.263	3226
889.387	3412
889.511	3523
889.635	3428
889.759	3291
889.883	3294
890.006	3389
890.13	3477
890.254	3291
890.377	3359
890.501	3180
890.624	3176
890.748	3325
890.871	3154
890.995	3108
891.118	3032
891.241	3173
891.364	3214
891.488	3291
891.611	3146
891.734	3203
891.857	3275
891.98	3237
892.103	3294
892.226	3260
892.349	3230
892.471	3100
892.594	3222
892.717	3211
892.839	3241
892.962	3317
893.085	3363
893.207	3302
893.33	3138
893.452	3161
893.575	3367
893.697	3218
893.819	3466
893.941	3462
894.064	3473
894.186	3241
894.308	3249
894.43	3443
894.552	3523
894.674	3443
894.796	3264
894.918	3302
895.04	3325
895.161	3363
895.283	3374
895.405	3321
895.526	3321
895.648	3405
895.769	3458
895.891	3420
896.012	3492
896.134	3454
896.255	3389
896.376	3351
896.498	3332
896.619	3428
896.74	3336
896.861	3401
896.982	3663
897.103	3819
897.224	3523
897.345	3485
897.466	3420
897.587	3485
897.708	3625
897.828	3542
897.949	3401
898.07	3336
898.19	3416
898.311	3572
898.431	3393
898.552	3515
898.672	3587
898.792	3526
898.913	3477
899.033	3420
899.153	3279
899.273	3230
899.393	3298
899.513	3329
899.633	3325
899.753	3348
899.873	3275
899.993	3344
900.113	3283
900.232	3401
900.352	3351
900.472	3272
900.591	3230
900.711	3256
900.83	3253
900.95	3409
901.069	3466
901.189	3359
901.308	3184
901.427	3119
901.546	3184
901.665	3306
901.784	3344
901.904	3214
902.023	3131
902.141	3013
902.26	3039
902.379	3138
902.498	3093
902.617	3097
902.735	3241
902.854	3230
902.973	3195
903.091	3047
903.21	3081
903.328	3184
903.446	3135
903.565	3150
903.683	3230
903.801	3169
903.919	3283
904.038	3272
904.156	3222
904.274	3306
904.392	3275
904.51	3344
904.627	3359
904.745	3469
904.863	3561
904.981	3287
905.098	3218
905.216	3256
905.334	3344
905.451	3389
905.569	3355
905.686	3450
905.803	3431
905.921	3378
906.038	3462
906.155	3435
906.272	3321
906.389	3409
906.506	3302
906.623	3310
906.74	3325
906.857	3188
906.974	3291
907.091	3481
907.208	3606
907.324	3549
907.441	3424
907.557	3287
907.674	3272
907.79	3237
907.907	3302
908.023	3412
908.139	3435
908.256	3332
908.372	3431
908.488	3389
908.604	3264
908.72	3264
908.836	3355
908.952	3359
909.068	3378
909.184	3515
909.3	3424
909.415	3481
909.531	3511
909.647	3325
909.762	3321
909.878	3291
909.993	3386
910.108	3344
910.224	3420
910.339	3435
910.454	3370
910.57	3321
910.685	3279
910.8	3629
910.915	3572
911.03	3466
911.145	3306
911.259	3306
911.374	3321
911.489	3306
911.604	3264
911.718	3161
911.833	3176
911.947	3074
912.062	2975
912.176	3184
912.291	3222
912.405	3245
912.519	3473
912.633	3496
912.748	3367
912.862	3313
912.976	3176
913.09	3108
913.204	3154
913.318	3268
913.431	3317
913.545	3370
913.659	3428
913.772	3386
913.886	3245
914	3245
914.113	3428
914.226	3473
914.34	3405
914.453	3222
914.566	3416
914.68	3336
914.793	3344
914.906	3188
915.019	3135
915.132	3119
915.245	3192
915.358	3222
915.47	3283
915.583	3302
915.696	3355
915.809	3485
915.921	3473
916.034	3306
916.146	3272
916.259	3275
916.371	3397
916.483	3397
916.595	3332
916.708	3325
916.82	3340
916.932	3378
917.044	3351
917.156	3416
917.268	3268
917.38	3367
917.491	3329
917.603	3405
917.715	3473
917.826	3500
917.938	3359
918.049	3294
918.161	3496
918.272	3595
918.384	3641
918.495	3523
918.606	3389
918.717	3291
918.828	3401
918.939	3424
919.05	3321
919.161	3412
919.272	3188
919.383	3302
919.494	3545
919.604	3694
919.715	3500
919.826	3431
919.936	3511
920.047	3587
920.157	3587
920.267	3816
920.378	3618
920.488	3622
920.598	3789
920.708	3972
920.818	3873
920.928	3930
921.038	4048
921.148	4006
921.258	3713
921.368	3675
921.477	3629
921.587	3561
921.697	3538
921.806	3720
921.916	3549
922.025	3397
922.134	3412
922.244	3332
922.353	3462
922.462	3306
922.571	3253
922.68	3138
922.789	3070
922.898	3180
923.007	3104
923.116	3249
923.224	3222
923.333	3203
923.442	3138
923.55	3154
923.659	3169
923.767	3260
923.876	3161
923.984	3287
924.092	3116
924.201	3249
924.309	3203
924.417	3306
924.525	3195
924.633	3253
924.741	4177
924.849	3077
924.956	3268
925.064	3123
925.172	3047
925.279	3176
925.387	3233
925.494	3283
925.602	3363
925.709	3321
925.816	3222
925.924	3294
926.031	3397
926.138	3363
926.245	3393
926.352	3298
926.459	3462
926.566	3538
926.673	3336
926.779	3275
926.886	3275
926.993	3188
927.099	3157
927.206	3104
927.312	3157
927.419	3268
927.525	3253
927.631	3321
927.737	3195
927.843	3161
927.95	3047
928.056	3146
928.162	3226
928.267	3279
928.373	3888
928.479	3367
928.585	3112
928.69	3237
928.796	3253
928.901	3176
929.007	3104
929.112	3253
929.218	3211
929.323	3192
929.428	3154
929.533	3363
929.638	3165
929.743	3192
929.848	3256
929.953	3237
930.058	3176
930.163	3024
930.267	3089
930.372	3241
930.477	3089
930.581	3336
930.685	3176
930.79	3100
930.894	3142
930.998	3108
931.103	3310
931.207	2975
931.311	2967
931.415	2967
931.519	2762
931.623	2826
