Data from test_V78500241_1278.txt Node
Date: Fri Mar 25 16:24:03 CST 2022
User: usil
Spectrometer: V785-0024
Trigger mode: 0
Integration Time (sec): 4.000000E-1
Scans to average: 1
Nonlinearity correction enabled: false
Boxcar width: 0
Storing dark spectrum: false
XAxis mode: Wavelengths
Number of Pixels in Spectrum: 1024
>>>>>Begin Spectral Data<<<<<
801.071	2925
801.214	2971
801.356	2891
801.499	2952
801.641	2861
801.783	2937
801.926	3028
802.068	2925
802.211	3047
802.353	3047
802.496	2967
802.638	3020
802.78	3055
802.923	3070
803.065	3017
803.208	2918
803.35	2948
803.492	2948
803.635	2952
803.777	2731
803.919	2849
804.061	3180
804.204	2941
804.346	2910
804.488	2853
804.63	3028
804.773	2861
804.915	2944
805.057	3066
805.199	2933
805.341	2975
805.483	3077
805.626	2990
805.768	3001
805.91	3077
806.052	3070
806.194	3032
806.336	3256
806.478	3055
806.62	2967
806.762	2990
806.904	3039
807.046	3195
807.188	2982
807.33	2914
807.472	2986
807.614	2925
807.756	2979
807.898	2918
808.04	2876
808.182	2960
808.324	2941
808.465	2876
808.607	2849
808.749	2792
808.891	2861
809.033	2944
809.174	2998
809.316	2891
809.458	2880
809.6	2781
809.741	2743
809.883	2773
810.025	2815
810.166	2838
810.308	2872
810.45	2830
810.591	2754
810.733	2769
810.875	2800
811.016	2769
811.158	2731
811.299	2796
811.441	2929
811.582	2857
811.724	2857
811.865	2849
812.007	2891
812.148	2864
812.29	2853
812.431	2902
812.573	2929
812.714	2960
812.855	3051
812.997	3085
813.138	3165
813.279	3043
813.421	2948
813.562	2986
813.703	2876
813.845	2872
813.986	2766
814.127	2701
814.268	2815
814.41	2800
814.551	2804
814.692	2910
814.833	2800
814.974	2868
815.115	2944
815.256	2838
815.397	2804
815.539	2857
815.68	2743
815.821	2792
815.962	2922
816.103	2960
816.244	2872
816.385	2883
816.526	2979
816.666	2914
816.807	2743
816.948	2876
817.089	2944
817.23	2845
817.371	2754
817.512	2773
817.653	2815
817.793	2830
817.934	2883
818.075	2960
818.216	2998
818.356	2994
818.497	2868
818.638	2811
818.778	2800
818.919	2796
819.06	2769
819.2	2857
819.341	2792
819.481	2773
819.622	2929
819.762	3135
819.903	3066
820.043	2906
820.184	2868
820.324	2876
820.465	3009
820.605	3009
820.746	3001
820.886	2902
821.026	3081
821.167	3169
821.307	3249
821.447	3256
821.588	3233
821.728	3195
821.868	3241
822.008	3062
822.149	3180
822.289	3260
822.429	3138
822.569	3074
822.709	3192
822.849	3024
822.99	3055
823.13	3161
823.27	3222
823.41	3066
823.55	3116
823.69	3104
823.83	3173
823.97	3070
824.11	3009
824.25	3001
824.389	3066
824.529	3089
824.669	3066
824.809	3180
824.949	3233
825.089	3230
825.228	3146
825.368	3020
825.508	2941
825.648	2971
825.787	3028
825.927	3047
826.067	2941
826.206	2963
826.346	3036
826.485	3077
826.625	3097
826.765	3291
826.904	3222
827.044	2971
827.183	2929
827.323	2838
827.462	2971
827.601	2880
827.741	2914
827.88	2975
828.02	2864
828.159	2941
828.298	3058
828.437	3116
828.577	2998
828.716	3226
828.855	3062
828.994	2925
829.134	2906
829.273	2895
829.412	2876
829.551	2853
829.69	2895
829.829	2979
829.968	3074
830.107	3001
830.246	3005
830.385	2910
830.524	2887
830.663	2792
830.802	2762
830.941	2613
831.08	2667
831.219	2754
831.357	2746
831.496	2944
831.635	2708
831.774	2621
831.913	2636
832.051	2507
832.19	2602
832.329	2663
832.467	2530
832.606	2492
832.744	2556
832.883	2564
833.022	2575
833.16	2644
833.299	2667
833.437	2701
833.576	2693
833.714	2720
833.852	2750
833.991	2762
834.129	2853
834.267	2804
834.406	2754
834.544	2880
834.682	2853
834.821	2842
834.959	3039
835.097	2849
835.235	3039
835.373	2971
835.511	3028
835.65	2941
835.788	2963
835.926	2823
836.064	2792
836.202	2857
836.34	3074
836.478	3138
836.615	3058
836.753	3123
836.891	3199
837.029	3150
837.167	3097
837.305	3043
837.443	3039
837.58	2922
837.718	3131
837.856	3070
837.993	2998
838.131	3108
838.269	3150
838.406	3085
838.544	3085
838.681	2956
838.819	2914
838.956	2842
839.094	2800
839.231	2861
839.369	3009
839.506	3363
839.643	3188
839.781	3005
839.918	2963
840.055	3051
840.193	3074
840.33	3039
840.467	3097
840.604	3119
840.742	3389
840.879	3039
841.016	2994
841.153	3104
841.29	3325
841.427	3321
841.564	3241
841.701	3287
841.838	3214
841.975	3165
842.112	3218
842.249	3062
842.385	3043
842.522	3279
842.659	3077
842.796	3020
842.933	3081
843.069	3043
843.206	3047
843.343	3157
843.479	3104
843.616	3142
843.752	2925
843.889	2861
844.025	3058
844.162	2891
844.298	3039
844.435	2929
844.571	2914
844.708	3062
844.844	3173
844.98	3214
845.117	3207
845.253	3051
845.389	3017
845.525	3127
845.661	3116
845.798	3020
845.934	3093
846.07	3024
846.206	3188
846.342	3317
846.478	3214
846.614	3062
846.75	3066
846.886	3028
847.022	3245
847.158	3138
847.294	3218
847.429	3256
847.565	3211
847.701	3469
847.837	3005
847.972	3005
848.108	3119
848.244	3146
848.379	2990
848.515	2914
848.65	2933
848.786	2948
848.921	2994
849.057	3097
849.192	3165
849.328	3051
849.463	3066
849.598	3051
849.734	2998
849.869	2944
850.004	2902
850.14	2971
850.275	2902
850.41	2826
850.545	2853
850.68	2910
850.815	2937
850.95	2937
851.085	3146
851.22	3081
851.355	3047
851.49	2952
851.625	2975
851.76	2982
851.895	2982
852.03	2902
852.165	3017
852.299	3097
852.434	3199
852.569	3131
852.703	3195
852.838	3245
852.973	3321
853.107	3325
853.242	3150
853.376	3077
853.511	2944
853.645	3013
853.78	3207
853.914	3116
854.048	3100
854.183	3070
854.317	3169
854.451	3298
854.585	3135
854.72	3077
854.854	3241
854.988	3085
855.122	3104
855.256	2971
855.39	3081
855.524	3199
855.658	3161
855.792	3131
855.926	3199
856.06	3195
856.194	3310
856.327	3146
856.461	3051
856.595	3074
856.729	3085
856.862	3173
856.996	3157
857.13	3218
857.263	3241
857.397	3264
857.53	3074
857.664	3188
857.797	3226
857.931	3264
858.064	3150
858.197	3233
858.331	3112
858.464	3070
858.597	2990
858.731	3085
858.864	3112
858.997	3077
859.13	3104
859.263	3184
859.396	3199
859.529	3100
859.662	3085
859.795	3028
859.928	3127
860.061	3272
860.194	3268
860.327	3127
860.46	3093
860.592	3207
860.725	3211
860.858	3226
860.99	3051
861.123	3005
861.256	3081
861.388	3135
861.521	3629
861.653	2979
861.786	2971
861.918	3001
862.05	3062
862.183	3062
862.315	3112
862.447	3150
862.58	3070
862.712	2899
862.844	2842
862.976	2994
863.108	3013
863.24	3310
863.372	2864
863.504	2944
863.636	2914
863.768	3024
863.9	2982
864.032	2914
864.164	2918
864.296	2982
864.428	3112
864.559	3100
864.691	3081
864.823	3028
864.954	3009
865.086	3036
865.217	2952
865.349	2933
865.48	2975
865.612	2986
865.743	3154
865.875	2948
866.006	2963
866.137	2933
866.269	2914
866.4	2906
866.531	2910
866.662	2876
866.793	2883
866.924	2895
867.055	2975
867.186	2941
867.317	2902
867.448	2834
867.579	2864
867.71	2849
867.841	2807
867.972	2914
868.103	2861
868.233	2876
868.364	2853
868.495	2876
868.625	3062
868.756	3138
868.886	2952
869.017	3009
869.147	3123
869.278	3119
869.408	3013
869.539	3028
869.669	3097
869.799	3017
869.929	3142
870.06	3070
870.19	3291
870.32	3272
870.45	3321
870.58	3348
870.71	3450
870.84	3439
870.97	3294
871.1	3256
871.23	3488
871.36	3435
871.489	3317
871.619	3382
871.749	3431
871.879	3397
872.008	3507
872.138	3351
872.267	3287
872.397	3081
872.526	3062
872.656	3017
872.785	3077
872.915	3207
873.044	3260
873.173	3211
873.303	3188
873.432	3214
873.561	3218
873.69	3108
873.819	3127
873.948	3188
874.077	3100
874.206	3039
874.335	3058
874.464	3218
874.593	3291
874.722	3222
874.851	3382
874.979	3332
875.108	3291
875.237	3203
875.365	3116
875.494	3135
875.623	3184
875.751	3043
875.88	3093
876.008	3173
876.136	3230
876.265	3374
876.393	3519
876.521	3382
876.65	3348
876.778	3329
876.906	3218
877.034	3192
877.162	3188
877.29	3173
877.418	3237
877.546	3218
877.674	3211
877.802	3211
877.93	3249
878.058	3127
878.185	3085
878.313	3176
878.441	3203
878.568	3013
878.696	3135
878.824	3222
878.951	3275
879.079	3409
879.206	3591
879.333	3405
879.461	3363
879.588	3336
879.715	3454
879.842	3572
879.97	3363
880.097	3176
880.224	3131
880.351	3188
880.478	3203
880.605	3188
880.732	3169
880.859	3492
880.986	3275
881.112	3298
881.239	3192
881.366	3020
881.493	2971
881.619	3032
881.746	3055
881.872	3081
881.999	3135
882.125	3104
882.252	3245
882.378	3272
882.505	3412
882.631	3237
882.757	3146
882.883	3176
883.01	3184
883.136	3165
883.262	3108
883.388	3108
883.514	3302
883.64	3355
883.766	3268
883.892	3218
884.018	3214
884.143	3412
884.269	3545
884.395	3188
884.52	3154
884.646	3180
884.772	3074
884.897	3074
885.023	3199
885.148	3329
885.274	3401
885.399	3382
885.524	3268
885.65	3237
885.775	3291
885.9	3279
886.025	3439
886.15	3367
886.275	3279
886.4	3214
886.525	3310
886.65	3321
886.775	3294
886.9	3492
887.025	3637
887.149	3412
887.274	3249
887.399	3169
887.523	3241
887.648	3173
887.773	3199
887.897	3340
888.021	3443
888.146	3283
888.27	3450
888.395	3591
888.519	3386
888.643	3458
888.767	3477
888.891	3344
889.015	3260
889.139	3310
889.263	3268
889.387	3424
889.511	3561
889.635	3458
889.759	3294
889.883	3363
890.006	3386
890.13	3545
890.254	3325
890.377	3389
890.501	3264
890.624	3207
890.748	3306
890.871	3237
890.995	3169
891.118	3119
891.241	3237
891.364	3233
891.488	3321
891.611	3226
891.734	3279
891.857	3329
891.98	3291
892.103	3367
892.226	3287
892.349	3272
892.471	3173
892.594	3287
892.717	3275
892.839	3298
892.962	3317
893.085	3405
893.207	3363
893.33	3192
893.452	3249
893.575	3374
893.697	3283
893.819	3519
893.941	3523
894.064	3458
894.186	3313
894.308	3298
894.43	3496
894.552	3572
894.674	3515
894.796	3321
894.918	3336
895.04	3291
895.161	3473
895.283	3458
895.405	3332
895.526	3348
895.648	3454
895.769	3458
895.891	3507
896.012	3515
896.134	3469
896.255	3412
896.376	3412
896.498	3412
896.619	3450
896.74	3378
896.861	3435
896.982	3694
897.103	3857
897.224	3599
897.345	3553
897.466	3454
897.587	3519
897.708	3625
897.828	3595
897.949	3439
898.07	3351
898.19	3431
898.311	3686
898.431	3496
898.552	3523
898.672	3580
898.792	3622
898.913	3500
899.033	3401
899.153	3310
899.273	3256
899.393	3340
899.513	3344
899.633	3367
899.753	3386
899.873	3370
899.993	3401
900.113	3355
900.232	3397
900.352	3351
900.472	3294
900.591	3264
900.711	3298
900.83	3272
900.95	3462
901.069	3500
901.189	3409
901.308	3207
901.427	3207
901.546	3230
901.665	3344
901.784	3332
901.904	3241
902.023	3214
902.141	3051
902.26	3032
902.379	3127
902.498	3093
902.617	3062
902.735	3203
902.854	3241
902.973	3199
903.091	3070
903.21	3089
903.328	3157
903.446	3165
903.565	3142
903.683	3192
903.801	3138
903.919	3291
904.038	3340
904.156	3214
904.274	3325
904.392	3260
904.51	3321
904.627	3340
904.745	3447
904.863	3519
904.981	3241
905.098	3173
905.216	3253
905.334	3336
905.451	3340
905.569	3351
905.686	3469
905.803	3473
905.921	3317
906.038	3469
906.155	3389
906.272	3325
906.389	3382
906.506	3256
906.623	3294
906.74	3275
906.857	3260
906.974	3298
907.091	3428
907.208	3576
907.324	3507
907.441	3428
907.557	3256
907.674	3249
907.79	3249
907.907	3310
908.023	3401
908.139	3370
908.256	3317
908.372	3378
908.488	3409
908.604	3272
908.72	3294
908.836	3268
908.952	3294
909.068	3397
909.184	3481
909.3	3401
909.415	3526
909.531	3496
909.647	3283
909.762	3332
909.878	3294
909.993	3397
910.108	3378
910.224	3393
910.339	3389
910.454	3363
910.57	3321
910.685	3249
910.8	3595
910.915	3557
911.03	3492
911.145	3272
911.259	3336
911.374	3348
911.489	3291
911.604	3291
911.718	3165
911.833	3192
911.947	3077
912.062	3055
912.176	3195
912.291	3222
912.405	3253
912.519	3416
912.633	3515
912.748	3363
912.862	3287
912.976	3173
913.09	3093
913.204	3161
913.318	3256
913.431	3332
913.545	3363
913.659	3477
913.772	3321
913.886	3275
914	3245
914.113	3389
914.226	3454
914.34	3431
914.453	3237
914.566	3405
914.68	3294
914.793	3336
914.906	3161
915.019	3131
915.132	3100
915.245	3184
915.358	3195
915.47	3253
915.583	3310
915.696	3325
915.809	3424
915.921	3416
916.034	3287
916.146	3313
916.259	3249
916.371	3397
916.483	3405
916.595	3302
916.708	3397
916.82	3367
916.932	3363
917.044	3409
917.156	3329
917.268	3272
917.38	3302
917.491	3344
917.603	3348
917.715	3511
917.826	3492
917.938	3416
918.049	3253
918.161	3477
918.272	3610
918.384	3603
918.495	3549
918.606	3332
918.717	3294
918.828	3378
918.939	3443
919.05	3351
919.161	3397
919.272	3192
919.383	3313
919.494	3511
919.604	3705
919.715	3526
919.826	3443
919.936	3488
920.047	3633
920.157	3595
920.267	3781
920.378	3625
920.488	3591
920.598	3774
920.708	3975
920.818	3804
920.928	3808
921.038	4021
921.148	4067
921.258	3736
921.368	3644
921.477	3610
921.587	3603
921.697	3469
921.806	3644
921.916	3519
922.025	3386
922.134	3405
922.244	3355
922.353	3443
922.462	3302
922.571	3256
922.68	3127
922.789	3066
922.898	3116
923.007	3157
923.116	3218
923.224	3192
923.333	3207
923.442	3127
923.55	3100
923.659	3154
923.767	3237
923.876	3173
923.984	3283
924.092	3142
924.201	3218
924.309	3260
924.417	3291
924.525	3188
924.633	3264
924.741	3994
924.849	3085
924.956	3275
925.064	3100
925.172	3028
925.279	3112
925.387	3226
925.494	3218
925.602	3355
925.709	3329
925.816	3199
925.924	3298
926.031	3397
926.138	3359
926.245	3382
926.352	3287
926.459	3454
926.566	3450
926.673	3325
926.779	3313
926.886	3287
926.993	3188
927.099	3157
927.206	3138
927.312	3138
927.419	3264
927.525	3211
927.631	3283
927.737	3135
927.843	3173
927.95	3036
928.056	3142
928.162	3222
928.267	3283
928.373	3930
928.479	3332
928.585	3089
928.69	3226
928.796	3275
928.901	3188
929.007	3093
929.112	3214
929.218	3256
929.323	3176
929.428	3165
929.533	3359
929.638	3108
929.743	3188
929.848	3298
929.953	3256
930.058	3195
930.163	3009
930.267	3062
930.372	3211
930.477	3036
930.581	3344
930.685	3176
930.79	3051
930.894	3150
930.998	3100
931.103	3294
931.207	2948
931.311	2960
931.415	2933
931.519	2842
931.623	2811
