Data from test_V78500241_35.txt Node
Date: Fri Mar 25 16:15:26 CST 2022
User: usil
Spectrometer: V785-0024
Trigger mode: 0
Integration Time (sec): 4.000000E-1
Scans to average: 1
Nonlinearity correction enabled: false
Boxcar width: 0
Storing dark spectrum: false
XAxis mode: Wavelengths
Number of Pixels in Spectrum: 1024
>>>>>Begin Spectral Data<<<<<
801.071	2891
801.214	2967
801.356	2941
801.499	2963
801.641	2914
801.783	2971
801.926	3131
802.068	3024
802.211	3055
802.353	3051
802.496	2994
802.638	3051
802.78	3093
802.923	3154
803.065	3058
803.208	2929
803.35	2944
803.492	2933
803.635	2979
803.777	2792
803.919	2891
804.061	3226
804.204	2979
804.346	2998
804.488	2906
804.63	3020
804.773	2922
804.915	2956
805.057	3108
805.199	2994
805.341	3005
805.483	3062
805.626	3058
805.768	2982
805.91	3157
806.052	3169
806.194	3058
806.336	3260
806.478	3055
806.62	2979
806.762	2990
806.904	3119
807.046	3188
807.188	3039
807.33	2933
807.472	3024
807.614	2941
807.756	3028
807.898	2952
808.04	2925
808.182	3009
808.324	3005
808.465	2902
808.607	2910
808.749	2845
808.891	2872
809.033	3009
809.174	2994
809.316	2933
809.458	2918
809.6	2804
809.741	2823
809.883	2811
810.025	2864
810.166	2899
810.308	2864
810.45	2937
810.591	2823
810.733	2796
810.875	2899
811.016	2819
811.158	2777
811.299	2815
811.441	2960
811.582	2891
811.724	2872
811.865	2868
812.007	2929
812.148	2899
812.29	2899
812.431	2998
812.573	2944
812.714	2975
812.855	3089
812.997	3104
813.138	3150
813.279	3074
813.421	3058
813.562	2986
813.703	2887
813.845	2925
813.986	2800
814.127	2758
814.268	2849
814.41	2876
814.551	2811
814.692	2933
814.833	2891
814.974	2918
815.115	2990
815.256	2899
815.397	2842
815.539	2902
815.68	2830
815.821	2807
815.962	2967
816.103	2937
816.244	2899
816.385	2929
816.526	3013
816.666	2922
816.807	2773
816.948	2925
817.089	2952
817.23	2906
817.371	2807
817.512	2849
817.653	2864
817.793	2857
817.934	2899
818.075	2990
818.216	3047
818.356	3028
818.497	2925
818.638	2849
818.778	2857
818.919	2819
819.06	2800
819.2	2910
819.341	2861
819.481	2830
819.622	2933
819.762	3116
819.903	3055
820.043	2963
820.184	2937
820.324	2948
820.465	3043
820.605	3074
820.746	3077
820.886	2956
821.026	3127
821.167	3176
821.307	3287
821.447	3329
821.588	3294
821.728	3253
821.868	3241
822.008	3104
822.149	3233
822.289	3253
822.429	3154
822.569	3112
822.709	3211
822.849	3093
822.99	3104
823.13	3192
823.27	3256
823.41	3184
823.55	3195
823.69	3192
823.83	3230
823.97	3150
824.11	3051
824.25	3039
824.389	3093
824.529	3138
824.669	3131
824.809	3218
824.949	3294
825.089	3230
825.228	3230
825.368	3005
825.508	2998
825.648	3013
825.787	3055
825.927	3070
826.067	2986
826.206	2982
826.346	3146
826.485	3112
826.625	3138
826.765	3321
826.904	3287
827.044	3032
827.183	2967
827.323	2864
827.462	3036
827.601	2937
827.741	2952
827.88	2986
828.02	2887
828.159	3043
828.298	3085
828.437	3169
828.577	3100
828.716	3275
828.855	3089
828.994	2952
829.134	2861
829.273	2982
829.412	2895
829.551	2906
829.69	2925
829.829	3028
829.968	3161
830.107	3070
830.246	3074
830.385	2971
830.524	2883
830.663	2861
830.802	2777
830.941	2689
831.08	2659
831.219	2819
831.357	2777
831.496	2990
831.635	2727
831.774	2667
831.913	2727
832.051	2556
832.19	2621
832.329	2735
832.467	2549
832.606	2503
832.744	2629
832.883	2598
833.022	2617
833.16	2674
833.299	2716
833.437	2739
833.576	2746
833.714	2743
833.852	2754
833.991	2788
834.129	2842
834.267	2826
834.406	2864
834.544	2880
834.682	2906
834.821	2872
834.959	3116
835.097	2937
835.235	3077
835.373	3032
835.511	3081
835.65	2990
835.788	2963
835.926	2853
836.064	2823
836.202	2876
836.34	3123
836.478	3176
836.615	3070
836.753	3146
836.891	3195
837.029	3184
837.167	3146
837.305	3131
837.443	3036
837.58	2975
837.718	3176
837.856	3116
837.993	3074
838.131	3138
838.269	3131
838.406	3093
838.544	3119
838.681	2990
838.819	2998
838.956	2887
839.094	2838
839.231	2956
839.369	3039
839.506	3439
839.643	3275
839.781	3043
839.918	3024
840.055	3077
840.193	3062
840.33	3081
840.467	3093
840.604	3146
840.742	3420
840.879	3085
841.016	3150
841.153	3154
841.29	3329
841.427	3332
841.564	3310
841.701	3363
841.838	3222
841.975	3245
842.112	3230
842.249	3123
842.385	3085
842.522	3275
842.659	3142
842.796	3108
842.933	3150
843.069	3127
843.206	3089
843.343	3203
843.479	3127
843.616	3188
843.752	2922
843.889	2880
844.025	3119
844.162	2887
844.298	3123
844.435	2971
844.571	2960
844.708	3097
844.844	3230
844.98	3291
845.117	3211
845.253	3108
845.389	3066
845.525	3142
845.661	3100
845.798	3020
845.934	3154
846.07	3093
846.206	3249
846.342	3359
846.478	3226
846.614	3146
846.75	3085
846.886	3058
847.022	3237
847.158	3154
847.294	3226
847.429	3283
847.565	3260
847.701	3568
847.837	3085
847.972	3066
848.108	3192
848.244	3199
848.379	2994
848.515	2944
848.65	2960
848.786	2994
848.921	3013
849.057	3119
849.192	3184
849.328	3089
849.463	3135
849.598	3047
849.734	3058
849.869	3024
850.004	2952
850.14	3017
850.275	2918
850.41	2845
850.545	2910
850.68	2967
850.815	3005
850.95	3039
851.085	3203
851.22	3161
851.355	3070
851.49	2998
851.625	3039
851.76	3039
851.895	2975
852.03	2910
852.165	3051
852.299	3169
852.434	3237
852.569	3180
852.703	3218
852.838	3275
852.973	3378
853.107	3393
853.242	3222
853.376	3146
853.511	3005
853.645	3093
853.78	3230
853.914	3123
854.048	3116
854.183	3112
854.317	3173
854.451	3332
854.585	3150
854.72	3116
854.854	3211
854.988	3089
855.122	3100
855.256	3013
855.39	3161
855.524	3302
855.658	3237
855.792	3207
855.926	3226
856.06	3218
856.194	3310
856.327	3214
856.461	3138
856.595	3150
856.729	3157
856.862	3306
856.996	3207
857.13	3233
857.263	3264
857.397	3363
857.53	3119
857.664	3222
857.797	3294
857.931	3291
858.064	3226
858.197	3207
858.331	3199
858.464	3135
858.597	3055
858.731	3135
858.864	3192
858.997	3116
859.13	3207
859.263	3241
859.396	3222
859.529	3119
859.662	3108
859.795	3043
859.928	3165
860.061	3287
860.194	3313
860.327	3169
860.46	3116
860.592	3275
860.725	3287
860.858	3294
860.99	3104
861.123	3070
861.256	3089
861.388	3195
861.521	3892
861.653	3058
861.786	3013
861.918	3005
862.05	3062
862.183	3097
862.315	3203
862.447	3241
862.58	3089
862.712	2948
862.844	2872
862.976	3043
863.108	3058
863.24	3428
863.372	2906
863.504	3001
863.636	2998
863.768	3077
863.9	2952
864.032	2956
864.164	2929
864.296	3058
864.428	3097
864.559	3112
864.691	3077
864.823	3074
864.954	3036
865.086	3077
865.217	3028
865.349	2960
865.48	2967
865.612	3032
865.743	3211
865.875	3036
866.006	2975
866.137	3013
866.269	2937
866.4	2982
866.531	2967
866.662	2891
866.793	2910
866.924	2914
867.055	2994
867.186	2918
867.317	2895
867.448	2883
867.579	2902
867.71	2876
867.841	2864
867.972	2944
868.103	2906
868.233	2925
868.364	2933
868.495	2941
868.625	3112
868.756	3203
868.886	3009
869.017	3055
869.147	3222
869.278	3222
869.408	3089
869.539	3089
869.669	3112
869.799	3112
869.929	3195
870.06	3108
870.19	3382
870.32	3340
870.45	3310
870.58	3443
870.71	3519
870.84	3542
870.97	3386
871.1	3317
871.23	3538
871.36	3545
871.489	3439
871.619	3450
871.749	3424
871.879	3538
872.008	3526
872.138	3435
872.267	3359
872.397	3230
872.526	3176
872.656	3074
872.785	3169
872.915	3325
873.044	3370
873.173	3310
873.303	3313
873.432	3359
873.561	3340
873.69	3241
873.819	3230
873.948	3260
874.077	3169
874.206	3157
874.335	3169
874.464	3298
874.593	3420
874.722	3313
874.851	3462
874.979	3424
875.108	3424
875.237	3310
875.365	3249
875.494	3275
875.623	3340
875.751	3176
875.88	3222
876.008	3287
876.136	3325
876.265	3469
876.393	3603
876.521	3492
876.65	3466
876.778	3466
876.906	3310
877.034	3302
877.162	3317
877.29	3291
877.418	3329
877.546	3306
877.674	3325
877.802	3306
877.93	3302
878.058	3279
878.185	3180
878.313	3279
878.441	3313
878.568	3142
878.696	3245
878.824	3321
878.951	3370
879.079	3549
879.206	3690
879.333	3504
879.461	3401
879.588	3420
879.715	3584
879.842	3698
879.97	3473
880.097	3249
880.224	3199
880.351	3260
880.478	3325
880.605	3310
880.732	3283
880.859	3599
880.986	3367
881.112	3431
881.239	3336
881.366	3195
881.493	3119
881.619	3097
881.746	3116
881.872	3207
881.999	3161
882.125	3222
882.252	3306
882.378	3416
882.505	3496
882.631	3359
882.757	3203
882.883	3298
883.01	3279
883.136	3245
883.262	3146
883.388	3180
883.514	3409
883.64	3431
883.766	3363
883.892	3245
884.018	3344
884.143	3515
884.269	3606
884.395	3302
884.52	3237
884.646	3237
884.772	3180
884.897	3142
885.023	3294
885.148	3389
885.274	3485
885.399	3466
885.524	3332
885.65	3348
885.775	3405
885.9	3332
886.025	3500
886.15	3454
886.275	3397
886.4	3264
886.525	3382
886.65	3348
886.775	3321
886.9	3549
887.025	3694
887.149	3485
887.274	3310
887.399	3237
887.523	3287
887.648	3249
887.773	3272
887.897	3439
888.021	3507
888.146	3332
888.27	3523
888.395	3595
888.519	3526
888.643	3519
888.767	3545
888.891	3409
889.015	3294
889.139	3355
889.263	3332
889.387	3488
889.511	3576
889.635	3526
889.759	3321
889.883	3382
890.006	3443
890.13	3549
890.254	3363
890.377	3447
890.501	3272
890.624	3279
890.748	3409
890.871	3275
890.995	3169
891.118	3119
891.241	3253
891.364	3302
891.488	3359
891.611	3226
891.734	3344
891.857	3367
891.98	3310
892.103	3443
892.226	3363
892.349	3287
892.471	3173
892.594	3302
892.717	3363
892.839	3351
892.962	3344
893.085	3447
893.207	3340
893.33	3214
893.452	3306
893.575	3428
893.697	3348
893.819	3553
893.941	3587
894.064	3534
894.186	3317
894.308	3386
894.43	3519
894.552	3633
894.674	3538
894.796	3321
894.918	3409
895.04	3374
895.161	3526
895.283	3485
895.405	3374
895.526	3477
895.648	3500
895.769	3572
895.891	3511
896.012	3584
896.134	3564
896.255	3466
896.376	3500
896.498	3450
896.619	3538
896.74	3420
896.861	3488
896.982	3778
897.103	3911
897.224	3720
897.345	3564
897.466	3462
897.587	3572
897.708	3717
897.828	3591
897.949	3526
898.07	3462
898.19	3473
898.311	3682
898.431	3504
898.552	3587
898.672	3679
898.792	3652
898.913	3595
899.033	3515
899.153	3363
899.273	3291
899.393	3370
899.513	3378
899.633	3382
899.753	3450
899.873	3389
899.993	3462
900.113	3386
900.232	3420
900.352	3424
900.472	3355
900.591	3279
900.711	3363
900.83	3317
900.95	3454
901.069	3561
901.189	3405
901.308	3272
901.427	3207
901.546	3283
901.665	3355
901.784	3412
901.904	3310
902.023	3199
902.141	3081
902.26	3062
902.379	3233
902.498	3169
902.617	3108
902.735	3272
902.854	3298
902.973	3287
903.091	3100
903.21	3150
903.328	3222
903.446	3188
903.565	3169
903.683	3268
903.801	3207
903.919	3302
904.038	3363
904.156	3253
904.274	3378
904.392	3332
904.51	3359
904.627	3378
904.745	3530
904.863	3587
904.981	3344
905.098	3249
905.216	3302
905.334	3378
905.451	3359
905.569	3340
905.686	3473
905.803	3496
905.921	3348
906.038	3511
906.155	3416
906.272	3374
906.389	3382
906.506	3287
906.623	3359
906.74	3340
906.857	3279
906.974	3279
907.091	3534
907.208	3606
907.324	3553
907.441	3443
907.557	3291
907.674	3298
907.79	3283
907.907	3321
908.023	3504
908.139	3450
908.256	3416
908.372	3454
908.488	3466
908.604	3310
908.72	3351
908.836	3405
908.952	3359
909.068	3378
909.184	3515
909.3	3447
909.415	3603
909.531	3568
909.647	3332
909.762	3367
909.878	3344
909.993	3412
910.108	3389
910.224	3401
910.339	3466
910.454	3416
910.57	3340
910.685	3317
910.8	3633
910.915	3595
911.03	3519
911.145	3332
911.259	3340
911.374	3397
911.489	3306
911.604	3317
911.718	3173
911.833	3249
911.947	3112
912.062	3024
912.176	3291
912.291	3283
912.405	3275
912.519	3488
912.633	3530
912.748	3397
912.862	3344
912.976	3195
913.09	3119
913.204	3199
913.318	3287
913.431	3416
913.545	3393
913.659	3496
913.772	3397
913.886	3268
914	3249
914.113	3416
914.226	3538
914.34	3466
914.453	3275
914.566	3488
914.68	3378
914.793	3355
914.906	3192
915.019	3192
915.132	3119
915.245	3253
915.358	3287
915.47	3321
915.583	3275
915.696	3363
915.809	3504
915.921	3530
916.034	3344
916.146	3325
916.259	3218
916.371	3447
916.483	3397
916.595	3363
916.708	3412
916.82	3382
916.932	3397
917.044	3397
917.156	3447
917.268	3306
917.38	3405
917.491	3359
917.603	3454
917.715	3488
917.826	3519
917.938	3443
918.049	3325
918.161	3454
918.272	3648
918.384	3660
918.495	3538
918.606	3431
918.717	3321
918.828	3458
918.939	3481
919.05	3340
919.161	3424
919.272	3245
919.383	3351
919.494	3568
919.604	3705
919.715	3538
919.826	3469
919.936	3530
920.047	3637
920.157	3595
920.267	3823
920.378	3641
920.488	3603
920.598	3857
920.708	4051
920.818	3915
920.928	3926
921.038	4109
921.148	4044
921.258	3766
921.368	3709
921.477	3686
921.587	3625
921.697	3538
921.806	3675
921.916	3614
922.025	3435
922.134	3424
922.244	3382
922.353	3450
922.462	3321
922.571	3272
922.68	3165
922.789	3135
922.898	3226
923.007	3173
923.116	3287
923.224	3260
923.333	3245
923.442	3146
923.55	3127
923.659	3211
923.767	3275
923.876	3173
923.984	3294
924.092	3188
924.201	3249
924.309	3302
924.417	3344
924.525	3256
924.633	3294
924.741	4238
924.849	3112
924.956	3332
925.064	3138
925.172	3100
925.279	3203
925.387	3233
925.494	3249
925.602	3393
925.709	3382
925.816	3230
925.924	3374
926.031	3428
926.138	3428
926.245	3382
926.352	3329
926.459	3515
926.566	3545
926.673	3386
926.779	3348
926.886	3332
926.993	3207
927.099	3203
927.206	3199
927.312	3157
927.419	3279
927.525	3275
927.631	3336
927.737	3245
927.843	3207
927.95	3081
928.056	3192
928.162	3211
928.267	3283
928.373	3831
928.479	3374
928.585	3116
928.69	3340
928.796	3310
928.901	3253
929.007	3077
929.112	3275
929.218	3230
929.323	3184
929.428	3214
929.533	3382
929.638	3176
929.743	3218
929.848	3302
929.953	3275
930.058	3245
930.163	3028
930.267	3100
930.372	3256
930.477	3085
930.581	3363
930.685	3233
930.79	3112
930.894	3188
930.998	3108
931.103	3344
931.207	3009
931.311	2990
931.415	2975
931.519	2830
931.623	2857
