Data from test_V78500241_343.txt Node
Date: Fri Mar 25 16:17:34 CST 2022
User: usil
Spectrometer: V785-0024
Trigger mode: 0
Integration Time (sec): 4.000000E-1
Scans to average: 1
Nonlinearity correction enabled: false
Boxcar width: 0
Storing dark spectrum: false
XAxis mode: Wavelengths
Number of Pixels in Spectrum: 1024
>>>>>Begin Spectral Data<<<<<
801.071	2994
801.214	2975
801.356	2937
801.499	2906
801.641	2929
801.783	2982
801.926	3070
802.068	3043
802.211	3024
802.353	3066
802.496	2975
802.638	3047
802.78	3070
802.923	3112
803.065	2990
803.208	2933
803.35	2963
803.492	2990
803.635	2963
803.777	2819
803.919	2922
804.061	3237
804.204	2982
804.346	2956
804.488	2883
804.63	3024
804.773	2899
804.915	2944
805.057	3119
805.199	2941
805.341	3043
805.483	3043
805.626	3043
805.768	3009
805.91	3146
806.052	3138
806.194	3047
806.336	3268
806.478	3112
806.62	3024
806.762	3001
806.904	3081
807.046	3184
807.188	3001
807.33	2941
807.472	2994
807.614	2899
807.756	3005
807.898	2963
808.04	2952
808.182	2998
808.324	2960
808.465	2922
808.607	2922
808.749	2819
808.891	2834
809.033	2986
809.174	3051
809.316	2883
809.458	2887
809.6	2800
809.741	2807
809.883	2807
810.025	2857
810.166	2868
810.308	2891
810.45	2876
810.591	2807
810.733	2815
810.875	2819
811.016	2785
811.158	2800
811.299	2815
811.441	2963
811.582	2922
811.724	2853
811.865	2872
812.007	2929
812.148	2880
812.29	2876
812.431	2883
812.573	2952
812.714	3020
812.855	3062
812.997	3062
813.138	3112
813.279	3058
813.421	2990
813.562	2990
813.703	2918
813.845	2925
813.986	2792
814.127	2762
814.268	2834
814.41	2864
814.551	2842
814.692	2918
814.833	2823
814.974	2925
815.115	3009
815.256	2819
815.397	2819
815.539	2883
815.68	2830
815.821	2811
815.962	2963
816.103	2979
816.244	2933
816.385	2899
816.526	2998
816.666	2963
816.807	2773
816.948	2960
817.089	2933
817.23	2891
817.371	2811
817.512	2830
817.653	2868
817.793	2853
817.934	2887
818.075	3013
818.216	3036
818.356	3043
818.497	2922
818.638	2815
818.778	2883
818.919	2845
819.06	2800
819.2	2906
819.341	2826
819.481	2807
819.622	2933
819.762	3116
819.903	3074
820.043	2937
820.184	2937
820.324	2963
820.465	3013
820.605	3043
820.746	3066
820.886	2994
821.026	3157
821.167	3169
821.307	3283
821.447	3329
821.588	3287
821.728	3226
821.868	3222
822.008	3100
822.149	3192
822.289	3226
822.429	3100
822.569	3108
822.709	3214
822.849	3066
822.99	3093
823.13	3207
823.27	3211
823.41	3165
823.55	3150
823.69	3176
823.83	3230
823.97	3138
824.11	3051
824.25	3009
824.389	3089
824.529	3104
824.669	3104
824.809	3199
824.949	3253
825.089	3222
825.228	3173
825.368	3024
825.508	2986
825.648	2998
825.787	3039
825.927	3020
826.067	3017
826.206	2971
826.346	3070
826.485	3104
826.625	3116
826.765	3272
826.904	3272
827.044	3036
827.183	3013
827.323	2880
827.462	2967
827.601	2937
827.741	2952
827.88	2971
828.02	2880
828.159	2994
828.298	3039
828.437	3146
828.577	3070
828.716	3291
828.855	3089
828.994	2933
829.134	2918
829.273	2960
829.412	2918
829.551	2906
829.69	2952
829.829	2998
829.968	3116
830.107	3020
830.246	3047
830.385	2948
830.524	2929
830.663	2815
830.802	2777
830.941	2655
831.08	2682
831.219	2785
831.357	2800
831.496	2967
831.635	2781
831.774	2678
831.913	2674
832.051	2575
832.19	2632
832.329	2720
832.467	2552
832.606	2511
832.744	2606
832.883	2613
833.022	2613
833.16	2678
833.299	2708
833.437	2762
833.576	2701
833.714	2762
833.852	2758
833.991	2800
834.129	2857
834.267	2838
834.406	2792
834.544	2891
834.682	2872
834.821	2895
834.959	3070
835.097	2914
835.235	3077
835.373	3013
835.511	3032
835.65	2944
835.788	2986
835.926	2826
836.064	2838
836.202	2876
836.34	3131
836.478	3176
836.615	3074
836.753	3173
836.891	3214
837.029	3218
837.167	3135
837.305	3074
837.443	3070
837.58	2975
837.718	3169
837.856	3074
837.993	3051
838.131	3119
838.269	3104
838.406	3108
838.544	3093
838.681	2963
838.819	2899
838.956	2823
839.094	2864
839.231	2922
839.369	3005
839.506	3409
839.643	3203
839.781	3055
839.918	2979
840.055	3066
840.193	3089
840.33	3089
840.467	3123
840.604	3203
840.742	3409
840.879	3100
841.016	3066
841.153	3150
841.29	3336
841.427	3332
841.564	3291
841.701	3321
841.838	3260
841.975	3161
842.112	3214
842.249	3127
842.385	3074
842.522	3237
842.659	3097
842.796	3066
842.933	3112
843.069	3055
843.206	3020
843.343	3211
843.479	3146
843.616	3180
843.752	2944
843.889	2918
844.025	3097
844.162	2895
844.298	3085
844.435	2952
844.571	2895
844.708	3100
844.844	3207
844.98	3272
845.117	3233
845.253	3074
845.389	3036
845.525	3135
845.661	3093
845.798	3024
845.934	3142
846.07	3058
846.206	3214
846.342	3310
846.478	3256
846.614	3047
846.75	3028
846.886	3043
847.022	3317
847.158	3165
847.294	3203
847.429	3272
847.565	3214
847.701	3507
847.837	3039
847.972	3013
848.108	3142
848.244	3146
848.379	2998
848.515	2952
848.65	2952
848.786	3024
848.921	3013
849.057	3135
849.192	3165
849.328	3081
849.463	3127
849.598	3074
849.734	3058
849.869	2986
850.004	2986
850.14	2979
850.275	2902
850.41	2876
850.545	2902
850.68	2925
850.815	2963
850.95	2986
851.085	3233
851.22	3108
851.355	3017
851.49	3024
851.625	2979
851.76	3032
851.895	2956
852.03	2922
852.165	3074
852.299	3104
852.434	3199
852.569	3169
852.703	3176
852.838	3256
852.973	3367
853.107	3325
853.242	3135
853.376	3104
853.511	3009
853.645	3070
853.78	3241
853.914	3146
854.048	3146
854.183	3089
854.317	3157
854.451	3287
854.585	3135
854.72	3089
854.854	3211
854.988	3066
855.122	3089
855.256	3028
855.39	3138
855.524	3253
855.658	3180
855.792	3150
855.926	3184
856.06	3268
856.194	3272
856.327	3176
856.461	3077
856.595	3089
856.729	3108
856.862	3207
856.996	3161
857.13	3230
857.263	3222
857.397	3310
857.53	3142
857.664	3211
857.797	3294
857.931	3253
858.064	3169
858.197	3226
858.331	3146
858.464	3108
858.597	3047
858.731	3108
858.864	3123
858.997	3047
859.13	3157
859.263	3199
859.396	3222
859.529	3108
859.662	3097
859.795	3077
859.928	3138
860.061	3264
860.194	3348
860.327	3138
860.46	3104
860.592	3264
860.725	3268
860.858	3237
860.99	3131
861.123	3081
861.256	3047
861.388	3161
861.521	3762
861.653	3036
861.786	2986
861.918	3032
862.05	3066
862.183	3100
862.315	3195
862.447	3233
862.58	3138
862.712	2952
862.844	2861
862.976	2971
863.108	3058
863.24	3310
863.372	2918
863.504	2994
863.636	2998
863.768	3066
863.9	2994
864.032	2971
864.164	2933
864.296	3043
864.428	3085
864.559	3127
864.691	3081
864.823	3058
864.954	3039
865.086	3028
865.217	3001
865.349	2979
865.48	2986
865.612	3036
865.743	3169
865.875	3005
866.006	2963
866.137	2982
866.269	2944
866.4	2948
866.531	2910
866.662	2937
866.793	2944
866.924	2887
867.055	2990
867.186	2937
867.317	2925
867.448	2864
867.579	2861
867.71	2868
867.841	2838
867.972	2902
868.103	2899
868.233	2910
868.364	2891
868.495	2891
868.625	3089
868.756	3173
868.886	2960
869.017	3017
869.147	3199
869.278	3169
869.408	3039
869.539	3039
869.669	3089
869.799	3066
869.929	3161
870.06	3142
870.19	3329
870.32	3256
870.45	3302
870.58	3374
870.71	3481
870.84	3447
870.97	3302
871.1	3237
871.23	3492
871.36	3469
871.489	3389
871.619	3386
871.749	3401
871.879	3462
872.008	3485
872.138	3359
872.267	3275
872.397	3123
872.526	3062
872.656	3001
872.785	3100
872.915	3264
873.044	3298
873.173	3211
873.303	3268
873.432	3249
873.561	3249
873.69	3146
873.819	3165
873.948	3154
874.077	3085
874.206	3058
874.335	3104
874.464	3226
874.593	3370
874.722	3279
874.851	3416
874.979	3370
875.108	3302
875.237	3192
875.365	3157
875.494	3157
875.623	3241
875.751	3070
875.88	3131
876.008	3207
876.136	3233
876.265	3374
876.393	3507
876.521	3416
876.65	3386
876.778	3294
876.906	3226
877.034	3207
877.162	3241
877.29	3195
877.418	3268
877.546	3230
877.674	3249
877.802	3230
877.93	3207
878.058	3184
878.185	3089
878.313	3226
878.441	3207
878.568	3093
878.696	3150
878.824	3218
878.951	3313
879.079	3431
879.206	3644
879.333	3458
879.461	3340
879.588	3374
879.715	3469
879.842	3625
879.97	3405
880.097	3176
880.224	3097
880.351	3207
880.478	3241
880.605	3199
880.732	3184
880.859	3473
880.986	3313
881.112	3325
881.239	3192
881.366	3070
881.493	3043
881.619	3024
881.746	3058
881.872	3055
881.999	3131
882.125	3123
882.252	3230
882.378	3287
882.505	3450
882.631	3268
882.757	3157
882.883	3207
883.01	3211
883.136	3199
883.262	3131
883.388	3085
883.514	3298
883.64	3363
883.766	3325
883.892	3192
884.018	3211
884.143	3389
884.269	3530
884.395	3237
884.52	3146
884.646	3146
884.772	3127
884.897	3085
885.023	3195
885.148	3386
885.274	3401
885.399	3374
885.524	3272
885.65	3256
885.775	3340
885.9	3275
886.025	3458
886.15	3370
886.275	3313
886.4	3230
886.525	3355
886.65	3279
886.775	3264
886.9	3477
887.025	3667
887.149	3382
887.274	3256
887.399	3173
887.523	3184
887.648	3180
887.773	3184
887.897	3351
888.021	3397
888.146	3294
888.27	3458
888.395	3488
888.519	3454
888.643	3462
888.767	3454
888.891	3317
889.015	3233
889.139	3291
889.263	3272
889.387	3355
889.511	3523
889.635	3431
889.759	3260
889.883	3283
890.006	3370
890.13	3477
890.254	3268
890.377	3321
890.501	3241
890.624	3195
890.748	3294
890.871	3192
890.995	3112
891.118	3036
891.241	3195
891.364	3260
891.488	3283
891.611	3214
891.734	3237
891.857	3283
891.98	3245
892.103	3329
892.226	3260
892.349	3211
892.471	3127
892.594	3275
892.717	3310
892.839	3272
892.962	3275
893.085	3382
893.207	3275
893.33	3116
893.452	3241
893.575	3313
893.697	3253
893.819	3454
893.941	3496
894.064	3469
894.186	3264
894.308	3245
894.43	3412
894.552	3523
894.674	3469
894.796	3302
894.918	3332
895.04	3241
895.161	3462
895.283	3412
895.405	3317
895.526	3393
895.648	3454
895.769	3420
895.891	3454
896.012	3477
896.134	3462
896.255	3416
896.376	3378
896.498	3367
896.619	3409
896.74	3344
896.861	3386
896.982	3717
897.103	3823
897.224	3606
897.345	3545
897.466	3416
897.587	3492
897.708	3637
897.828	3572
897.949	3466
898.07	3355
898.19	3416
898.311	3618
898.431	3443
898.552	3469
898.672	3572
898.792	3542
898.913	3534
899.033	3431
899.153	3268
899.273	3195
899.393	3272
899.513	3313
899.633	3321
899.753	3336
899.873	3298
899.993	3363
900.113	3344
900.232	3359
900.352	3336
900.472	3245
900.591	3233
900.711	3302
900.83	3218
900.95	3401
901.069	3507
901.189	3313
901.308	3173
901.427	3146
901.546	3173
901.665	3310
901.784	3355
901.904	3218
902.023	3157
902.141	2994
902.26	2990
902.379	3127
902.498	3039
902.617	3089
902.735	3207
902.854	3207
902.973	3176
903.091	3039
903.21	3070
903.328	3135
903.446	3131
903.565	3089
903.683	3222
903.801	3116
903.919	3195
904.038	3317
904.156	3169
904.274	3268
904.392	3249
904.51	3264
904.627	3336
904.745	3473
904.863	3507
904.981	3287
905.098	3157
905.216	3245
905.334	3279
905.451	3283
905.569	3237
905.686	3435
905.803	3424
905.921	3291
906.038	3424
906.155	3351
906.272	3310
906.389	3325
906.506	3222
906.623	3275
906.74	3291
906.857	3184
906.974	3260
907.091	3416
907.208	3538
907.324	3485
907.441	3416
907.557	3207
907.674	3203
907.79	3241
907.907	3306
908.023	3363
908.139	3351
908.256	3336
908.372	3344
908.488	3374
908.604	3268
908.72	3214
908.836	3287
908.952	3291
909.068	3329
909.184	3485
909.3	3389
909.415	3515
909.531	3469
909.647	3272
909.762	3272
909.878	3245
909.993	3359
910.108	3329
910.224	3340
910.339	3397
910.454	3310
910.57	3313
910.685	3253
910.8	3587
910.915	3519
911.03	3485
911.145	3279
911.259	3321
911.374	3310
911.489	3237
911.604	3192
911.718	3093
911.833	3154
911.947	3070
912.062	2971
912.176	3176
912.291	3180
912.405	3146
912.519	3458
912.633	3473
912.748	3336
912.862	3317
912.976	3165
913.09	3062
913.204	3112
913.318	3195
913.431	3355
913.545	3298
913.659	3443
913.772	3344
913.886	3203
914	3192
914.113	3321
914.226	3409
914.34	3329
914.453	3199
914.566	3412
914.68	3264
914.793	3260
914.906	3116
915.019	3074
915.132	3093
915.245	3161
915.358	3241
915.47	3237
915.583	3291
915.696	3325
915.809	3401
915.921	3428
916.034	3264
916.146	3237
916.259	3249
916.371	3348
916.483	3397
916.595	3272
916.708	3317
916.82	3317
916.932	3336
917.044	3355
917.156	3336
917.268	3287
917.38	3256
917.491	3264
917.603	3389
917.715	3454
917.826	3469
917.938	3386
918.049	3279
918.161	3378
918.272	3568
918.384	3564
918.495	3511
918.606	3344
918.717	3294
918.828	3370
918.939	3416
919.05	3313
919.161	3386
919.272	3176
919.383	3302
919.494	3473
919.604	3686
919.715	3443
919.826	3363
919.936	3458
920.047	3610
920.157	3545
920.267	3709
920.378	3629
920.488	3595
920.598	3747
920.708	3892
920.818	3823
920.928	3816
921.038	3987
921.148	4010
921.258	3679
921.368	3667
921.477	3603
921.587	3523
921.697	3458
921.806	3629
921.916	3523
922.025	3313
922.134	3351
922.244	3317
922.353	3405
922.462	3237
922.571	3226
922.68	3100
922.789	3047
922.898	3142
923.007	3093
923.116	3192
923.224	3192
923.333	3211
923.442	3081
923.55	3081
923.659	3154
923.767	3222
923.876	3116
923.984	3245
924.092	3100
924.201	3161
924.309	3249
924.417	3272
924.525	3207
924.633	3241
924.741	4150
924.849	3051
924.956	3272
925.064	3089
925.172	3066
925.279	3074
925.387	3211
925.494	3176
925.602	3378
925.709	3325
925.816	3199
925.924	3260
926.031	3359
926.138	3283
926.245	3367
926.352	3260
926.459	3389
926.566	3431
926.673	3298
926.779	3260
926.886	3241
926.993	3123
927.099	3127
927.206	3116
927.312	3077
927.419	3222
927.525	3169
927.631	3256
927.737	3131
927.843	3127
927.95	3001
928.056	3157
928.162	3131
928.267	3249
928.373	3911
928.479	3310
928.585	3074
928.69	3199
928.796	3207
928.901	3195
929.007	3047
929.112	3199
929.218	3150
929.323	3138
929.428	3112
929.533	3306
929.638	3104
929.743	3173
929.848	3272
929.953	3199
930.058	3142
930.163	2952
930.267	3039
930.372	3173
930.477	3039
930.581	3348
930.685	3192
930.79	3051
930.894	3131
930.998	3131
931.103	3256
931.207	2971
931.311	2948
931.415	2906
931.519	2830
931.623	2804
