Data from test_V78500241_438.txt Node
Date: Fri Mar 25 16:18:14 CST 2022
User: usil
Spectrometer: V785-0024
Trigger mode: 0
Integration Time (sec): 4.000000E-1
Scans to average: 1
Nonlinearity correction enabled: false
Boxcar width: 0
Storing dark spectrum: false
XAxis mode: Wavelengths
Number of Pixels in Spectrum: 1024
>>>>>Begin Spectral Data<<<<<
801.071	2902
801.214	2986
801.356	2864
801.499	2906
801.641	2876
801.783	2902
801.926	3036
802.068	2967
802.211	2982
802.353	3043
802.496	2975
802.638	2998
802.78	3028
802.923	3055
803.065	3009
803.208	2895
803.35	2899
803.492	2899
803.635	2922
803.777	2777
803.919	2880
804.061	3195
804.204	2944
804.346	2929
804.488	2792
804.63	3013
804.773	2880
804.915	2922
805.057	3028
805.199	2922
805.341	2963
805.483	3020
805.626	3017
805.768	2982
805.91	3093
806.052	3093
806.194	3032
806.336	3241
806.478	3017
806.62	2937
806.762	2963
806.904	3028
807.046	3150
807.188	2967
807.33	2929
807.472	2960
807.614	2899
807.756	2963
807.898	2906
808.04	2899
808.182	2971
808.324	2944
808.465	2842
808.607	2895
808.749	2792
808.891	2804
809.033	2960
809.174	2963
809.316	2845
809.458	2868
809.6	2769
809.741	2758
809.883	2769
810.025	2853
810.166	2834
810.308	2792
810.45	2804
810.591	2777
810.733	2766
810.875	2815
811.016	2769
811.158	2743
811.299	2766
811.441	2979
811.582	2891
811.724	2842
811.865	2819
812.007	2906
812.148	2849
812.29	2853
812.431	2872
812.573	2948
812.714	2952
812.855	3032
812.997	3062
813.138	3119
813.279	2990
813.421	2952
813.562	2929
813.703	2895
813.845	2925
813.986	2796
814.127	2701
814.268	2823
814.41	2849
814.551	2796
814.692	2887
814.833	2800
814.974	2895
815.115	2944
815.256	2830
815.397	2785
815.539	2868
815.68	2788
815.821	2796
815.962	2944
816.103	2937
816.244	2887
816.385	2838
816.526	2975
816.666	2914
816.807	2697
816.948	2876
817.089	2872
817.23	2864
817.371	2735
817.512	2792
817.653	2804
817.793	2807
817.934	2887
818.075	2986
818.216	2998
818.356	3005
818.497	2887
818.638	2766
818.778	2769
818.919	2769
819.06	2773
819.2	2853
819.341	2807
819.481	2792
819.622	2952
819.762	3123
819.903	3017
820.043	2922
820.184	2899
820.324	2899
820.465	2990
820.605	3039
820.746	3032
820.886	2910
821.026	3081
821.167	3176
821.307	3310
821.447	3291
821.588	3241
821.728	3211
821.868	3199
822.008	3089
822.149	3184
822.289	3222
822.429	3047
822.569	3070
822.709	3154
822.849	3043
822.99	3104
823.13	3161
823.27	3222
823.41	3112
823.55	3146
823.69	3173
823.83	3222
823.97	3081
824.11	2979
824.25	3024
824.389	3077
824.529	3104
824.669	3047
824.809	3180
824.949	3249
825.089	3211
825.228	3138
825.368	2975
825.508	2990
825.648	2944
825.787	3009
825.927	3017
826.067	2960
826.206	2960
826.346	3039
826.485	3081
826.625	3097
826.765	3283
826.904	3195
827.044	2975
827.183	2918
827.323	2887
827.462	2979
827.601	2880
827.741	2918
827.88	2948
828.02	2826
828.159	2937
828.298	2982
828.437	3089
828.577	3062
828.716	3230
828.855	3108
828.994	2929
829.134	2880
829.273	2902
829.412	2857
829.551	2880
829.69	2899
829.829	2963
829.968	3119
830.107	3028
830.246	3028
830.385	2910
830.524	2883
830.663	2811
830.802	2708
830.941	2648
831.08	2682
831.219	2743
831.357	2754
831.496	2963
831.635	2716
831.774	2659
831.913	2621
832.051	2564
832.19	2568
832.329	2678
832.467	2545
832.606	2480
832.744	2575
832.883	2594
833.022	2568
833.16	2659
833.299	2663
833.437	2686
833.576	2705
833.714	2739
833.852	2701
833.991	2762
834.129	2811
834.267	2788
834.406	2769
834.544	2838
834.682	2872
834.821	2845
834.959	3058
835.097	2906
835.235	3066
835.373	3005
835.511	3005
835.65	2937
835.788	2982
835.926	2826
836.064	2834
836.202	2842
836.34	3097
836.478	3127
836.615	3039
836.753	3165
836.891	3199
837.029	3127
837.167	3097
837.305	3077
837.443	3051
837.58	2952
837.718	3100
837.856	3070
837.993	2979
838.131	3093
838.269	3062
838.406	3108
838.544	3081
838.681	2918
838.819	2925
838.956	2804
839.094	2838
839.231	2925
839.369	2971
839.506	3386
839.643	3218
839.781	3009
839.918	2944
840.055	3032
840.193	3043
840.33	3097
840.467	3104
840.604	3157
840.742	3409
840.879	3020
841.016	3039
841.153	3104
841.29	3310
841.427	3302
841.564	3268
841.701	3260
841.838	3233
841.975	3157
842.112	3207
842.249	3089
842.385	3005
842.522	3233
842.659	3074
842.796	3108
842.933	3081
843.069	3032
843.206	3020
843.343	3157
843.479	3127
843.616	3157
843.752	2895
843.889	2876
844.025	3024
844.162	2895
844.298	3116
844.435	2967
844.571	2925
844.708	3070
844.844	3184
844.98	3249
845.117	3173
845.253	3062
845.389	3009
845.525	3112
845.661	3085
845.798	3013
845.934	3123
846.07	3028
846.206	3218
846.342	3329
846.478	3214
846.614	3055
846.75	3062
846.886	3043
847.022	3195
847.158	3123
847.294	3226
847.429	3226
847.565	3199
847.701	3485
847.837	3043
847.972	2963
848.108	3165
848.244	3097
848.379	2990
848.515	2914
848.65	2914
848.786	2975
848.921	2994
849.057	3093
849.192	3173
849.328	3005
849.463	3112
849.598	3024
849.734	3066
849.869	2967
850.004	2937
850.14	2956
850.275	2891
850.41	2830
850.545	2883
850.68	2929
850.815	2960
850.95	2975
851.085	3157
851.22	3116
851.355	3028
851.49	3001
851.625	2979
851.76	3017
851.895	2918
852.03	2948
852.165	3039
852.299	3066
852.434	3192
852.569	3138
852.703	3161
852.838	3207
852.973	3298
853.107	3329
853.242	3165
853.376	3051
853.511	3005
853.645	3020
853.78	3230
853.914	3089
854.048	3104
854.183	3062
854.317	3116
854.451	3279
854.585	3097
854.72	3085
854.854	3184
854.988	3097
855.122	3074
855.256	2979
855.39	3081
855.524	3218
855.658	3180
855.792	3176
855.926	3165
856.06	3211
856.194	3241
856.327	3112
856.461	3074
856.595	3089
856.729	3070
856.862	3233
856.996	3138
857.13	3195
857.263	3249
857.397	3249
857.53	3100
857.664	3169
857.797	3165
857.931	3272
858.064	3176
858.197	3203
858.331	3116
858.464	3085
858.597	2994
858.731	3119
858.864	3112
858.997	3066
859.13	3138
859.263	3184
859.396	3203
859.529	3116
859.662	3058
859.795	3051
859.928	3089
860.061	3302
860.194	3264
860.327	3142
860.46	3077
860.592	3245
860.725	3256
860.858	3253
860.99	3097
861.123	3051
861.256	3017
861.388	3112
861.521	3979
861.653	3032
861.786	2998
861.918	2971
862.05	3047
862.183	3100
862.315	3176
862.447	3146
862.58	3085
862.712	2967
862.844	2876
862.976	3039
863.108	2986
863.24	3447
863.372	2853
863.504	2971
863.636	2944
863.768	3005
863.9	2960
864.032	2876
864.164	2960
864.296	3024
864.428	3085
864.559	3074
864.691	3047
864.823	3100
864.954	3017
865.086	2994
865.217	2998
865.349	2948
865.48	3001
865.612	3028
865.743	3154
865.875	2986
866.006	2925
866.137	2967
866.269	2933
866.4	2929
866.531	2899
866.662	2857
866.793	2880
866.924	2861
867.055	2967
867.186	2895
867.317	2880
867.448	2838
867.579	2792
867.71	2864
867.841	2819
867.972	2914
868.103	2861
868.233	2838
868.364	2883
868.495	2883
868.625	3070
868.756	3131
868.886	2956
869.017	2982
869.147	3161
869.278	3184
869.408	3020
869.539	2990
869.669	3097
869.799	3020
869.929	3112
870.06	3089
870.19	3313
870.32	3253
870.45	3275
870.58	3348
870.71	3393
870.84	3431
870.97	3275
871.1	3230
871.23	3481
871.36	3462
871.489	3336
871.619	3367
871.749	3397
871.879	3458
872.008	3443
872.138	3329
872.267	3249
872.397	3146
872.526	3089
872.656	3009
872.785	3097
872.915	3249
873.044	3329
873.173	3253
873.303	3211
873.432	3222
873.561	3218
873.69	3180
873.819	3157
873.948	3180
874.077	3089
874.206	3032
874.335	3085
874.464	3211
874.593	3344
874.722	3237
874.851	3382
874.979	3317
875.108	3279
875.237	3188
875.365	3157
875.494	3188
875.623	3253
875.751	3039
875.88	3104
876.008	3211
876.136	3176
876.265	3363
876.393	3515
876.521	3401
876.65	3340
876.778	3336
876.906	3249
877.034	3176
877.162	3218
877.29	3214
877.418	3226
877.546	3249
877.674	3237
877.802	3218
877.93	3230
878.058	3131
878.185	3062
878.313	3188
878.441	3237
878.568	3085
878.696	3173
878.824	3260
878.951	3321
879.079	3450
879.206	3595
879.333	3424
879.461	3317
879.588	3344
879.715	3473
879.842	3603
879.97	3340
880.097	3131
880.224	3150
880.351	3157
880.478	3218
880.605	3203
880.732	3165
880.859	3481
880.986	3279
881.112	3272
881.239	3180
881.366	3112
881.493	3020
881.619	3009
881.746	3077
881.872	3085
881.999	3089
882.125	3097
882.252	3222
882.378	3264
882.505	3443
882.631	3294
882.757	3150
882.883	3211
883.01	3222
883.136	3127
883.262	3093
883.388	3112
883.514	3294
883.64	3382
883.766	3283
883.892	3188
884.018	3253
884.143	3389
884.269	3538
884.395	3169
884.52	3104
884.646	3165
884.772	3089
884.897	3074
885.023	3199
885.148	3325
885.274	3428
885.399	3329
885.524	3260
885.65	3298
885.775	3302
885.9	3279
886.025	3393
886.15	3359
886.275	3294
886.4	3226
886.525	3272
886.65	3249
886.775	3275
886.9	3466
887.025	3618
887.149	3363
887.274	3226
887.399	3218
887.523	3169
887.648	3180
887.773	3218
887.897	3336
888.021	3424
888.146	3256
888.27	3424
888.395	3488
888.519	3431
888.643	3409
888.767	3473
888.891	3260
889.015	3260
889.139	3287
889.263	3230
889.387	3393
889.511	3545
889.635	3416
889.759	3268
889.883	3291
890.006	3340
890.13	3454
890.254	3256
890.377	3359
890.501	3214
890.624	3184
890.748	3272
890.871	3157
890.995	3074
891.118	3081
891.241	3192
891.364	3192
891.488	3291
891.611	3180
891.734	3192
891.857	3264
891.98	3211
892.103	3355
892.226	3256
892.349	3237
892.471	3138
892.594	3222
892.717	3298
892.839	3253
892.962	3283
893.085	3386
893.207	3275
893.33	3138
893.452	3188
893.575	3310
893.697	3260
893.819	3473
893.941	3488
894.064	3466
894.186	3249
894.308	3264
894.43	3420
894.552	3511
894.674	3443
894.796	3249
894.918	3332
895.04	3268
895.161	3416
895.283	3374
895.405	3340
895.526	3378
895.648	3431
895.769	3389
895.891	3469
896.012	3435
896.134	3439
896.255	3443
896.376	3393
896.498	3344
896.619	3447
896.74	3351
896.861	3393
896.982	3709
897.103	3797
897.224	3564
897.345	3500
897.466	3420
897.587	3439
897.708	3606
897.828	3515
897.949	3435
898.07	3329
898.19	3374
898.311	3568
898.431	3435
898.552	3496
898.672	3549
898.792	3553
898.913	3526
899.033	3401
899.153	3298
899.273	3211
899.393	3272
899.513	3313
899.633	3321
899.753	3325
899.873	3306
899.993	3386
900.113	3275
900.232	3370
900.352	3306
900.472	3272
900.591	3207
900.711	3256
900.83	3199
900.95	3378
901.069	3458
901.189	3317
901.308	3214
901.427	3097
901.546	3154
901.665	3279
901.784	3329
901.904	3173
902.023	3154
902.141	2994
902.26	2956
902.379	3093
902.498	3055
902.617	3047
902.735	3211
902.854	3237
902.973	3165
903.091	3058
903.21	3036
903.328	3146
903.446	3100
903.565	3104
903.683	3165
903.801	3112
903.919	3222
904.038	3260
904.156	3184
904.274	3249
904.392	3218
904.51	3249
904.627	3332
904.745	3443
904.863	3496
904.981	3256
905.098	3116
905.216	3233
905.334	3294
905.451	3279
905.569	3260
905.686	3424
905.803	3412
905.921	3283
906.038	3401
906.155	3336
906.272	3275
906.389	3325
906.506	3222
906.623	3253
906.74	3253
906.857	3157
906.974	3199
907.091	3458
907.208	3545
907.324	3439
907.441	3393
907.557	3226
907.674	3207
907.79	3176
907.907	3237
908.023	3397
908.139	3340
908.256	3302
908.372	3348
908.488	3302
908.604	3233
908.72	3188
908.836	3272
908.952	3218
909.068	3367
909.184	3477
909.3	3340
909.415	3488
909.531	3409
909.647	3279
909.762	3279
909.878	3226
909.993	3378
910.108	3340
910.224	3332
910.339	3370
910.454	3329
910.57	3268
910.685	3245
910.8	3564
910.915	3519
911.03	3424
911.145	3279
911.259	3275
911.374	3298
911.489	3253
911.604	3256
911.718	3131
911.833	3161
911.947	3058
912.062	2971
912.176	3161
912.291	3184
912.405	3218
912.519	3382
912.633	3469
912.748	3325
912.862	3256
912.976	3188
913.09	3055
913.204	3180
913.318	3211
913.431	3351
913.545	3344
913.659	3439
913.772	3317
913.886	3233
914	3188
914.113	3389
914.226	3428
914.34	3386
914.453	3249
914.566	3458
914.68	3313
914.793	3374
914.906	3188
915.019	3123
915.132	3085
915.245	3180
915.358	3199
915.47	3230
915.583	3291
915.696	3336
915.809	3447
915.921	3443
916.034	3279
916.146	3294
916.259	3237
916.371	3431
916.483	3431
916.595	3348
916.708	3370
916.82	3344
916.932	3359
917.044	3424
917.156	3382
917.268	3268
917.38	3325
917.491	3313
917.603	3386
917.715	3481
917.826	3519
917.938	3485
918.049	3317
918.161	3409
918.272	3625
918.384	3610
918.495	3542
918.606	3355
918.717	3336
918.828	3435
918.939	3450
919.05	3336
919.161	3416
919.272	3211
919.383	3306
919.494	3504
919.604	3709
919.715	3504
919.826	3485
919.936	3485
920.047	3625
920.157	3595
920.267	3793
920.378	3633
920.488	3576
920.598	3804
920.708	4044
920.818	3812
920.928	3876
921.038	4086
921.148	4078
921.258	3747
921.368	3667
921.477	3606
921.587	3584
921.697	3481
921.806	3713
921.916	3534
922.025	3389
922.134	3382
922.244	3382
922.353	3447
922.462	3317
922.571	3275
922.68	3108
922.789	3104
922.898	3169
923.007	3154
923.116	3241
923.224	3176
923.333	3199
923.442	3108
923.55	3142
923.659	3169
923.767	3256
923.876	3142
923.984	3268
924.092	3123
924.201	3256
924.309	3256
924.417	3279
924.525	3214
924.633	3287
924.741	4207
924.849	3085
924.956	3321
925.064	3116
925.172	3028
925.279	3104
925.387	3226
925.494	3222
925.602	3382
925.709	3355
925.816	3230
925.924	3340
926.031	3431
926.138	3363
926.245	3359
926.352	3313
926.459	3424
926.566	3538
926.673	3348
926.779	3291
926.886	3298
926.993	3207
927.099	3150
927.206	3150
927.312	3173
927.419	3249
927.525	3249
927.631	3275
927.737	3161
927.843	3123
927.95	3020
928.056	3173
928.162	3192
928.267	3272
928.373	3869
928.479	3340
928.585	3100
928.69	3249
928.796	3253
928.901	3203
929.007	3097
929.112	3218
929.218	3203
929.323	3165
929.428	3146
929.533	3351
929.638	3161
929.743	3176
929.848	3260
929.953	3211
930.058	3157
930.163	3028
930.267	3093
930.372	3245
930.477	3043
930.581	3336
930.685	3199
930.79	3089
930.894	3169
930.998	3150
931.103	3317
931.207	2998
931.311	2941
931.415	2937
931.519	2826
931.623	2834
