Data from test_V78500241_992.txt Node
Date: Fri Mar 25 16:22:04 CST 2022
User: usil
Spectrometer: V785-0024
Trigger mode: 0
Integration Time (sec): 4.000000E-1
Scans to average: 1
Nonlinearity correction enabled: false
Boxcar width: 0
Storing dark spectrum: false
XAxis mode: Wavelengths
Number of Pixels in Spectrum: 1024
>>>>>Begin Spectral Data<<<<<
801.071	2937
801.214	2960
801.356	2883
801.499	2925
801.641	2872
801.783	2975
801.926	3085
802.068	3005
802.211	3013
802.353	3066
802.496	2975
802.638	3066
802.78	3058
802.923	3085
803.065	3047
803.208	2906
803.35	2944
803.492	2952
803.635	2922
803.777	2754
803.919	2849
804.061	3184
804.204	2910
804.346	2933
804.488	2857
804.63	3001
804.773	2918
804.915	2937
805.057	3104
805.199	2925
805.341	2975
805.483	3032
805.626	2998
805.768	2941
805.91	3112
806.052	3135
806.194	3024
806.336	3214
806.478	3077
806.62	2994
806.762	2990
806.904	3070
807.046	3176
807.188	2979
807.33	2948
807.472	2986
807.614	2910
807.756	3005
807.898	2937
808.04	2887
808.182	2990
808.324	2963
808.465	2864
808.607	2876
808.749	2819
808.891	2857
809.033	2975
809.174	3001
809.316	2887
809.458	2910
809.6	2807
809.741	2788
809.883	2815
810.025	2864
810.166	2880
810.308	2834
810.45	2845
810.591	2777
810.733	2804
810.875	2861
811.016	2785
811.158	2758
811.299	2796
811.441	2960
811.582	2944
811.724	2804
811.865	2815
812.007	2941
812.148	2937
812.29	2868
812.431	2876
812.573	2952
812.714	2975
812.855	3039
812.997	3020
813.138	3150
813.279	3017
813.421	3017
813.562	2979
813.703	2914
813.845	2910
813.986	2800
814.127	2731
814.268	2845
814.41	2868
814.551	2811
814.692	2922
814.833	2830
814.974	2895
815.115	2975
815.256	2891
815.397	2811
815.539	2868
815.68	2754
815.821	2819
815.962	2960
816.103	2933
816.244	2864
816.385	2876
816.526	2941
816.666	2922
816.807	2769
816.948	2899
817.089	2944
817.23	2849
817.371	2823
817.512	2811
817.653	2842
817.793	2819
817.934	2899
818.075	2963
818.216	2982
818.356	3077
818.497	2914
818.638	2792
818.778	2815
818.919	2781
819.06	2762
819.2	2880
819.341	2819
819.481	2762
819.622	2956
819.762	3116
819.903	3081
820.043	2960
820.184	2910
820.324	2918
820.465	3009
820.605	3051
820.746	3032
820.886	2925
821.026	3089
821.167	3135
821.307	3253
821.447	3283
821.588	3237
821.728	3214
821.868	3207
822.008	3077
822.149	3169
822.289	3222
822.429	3104
822.569	3100
822.709	3184
822.849	3055
822.99	3074
823.13	3195
823.27	3195
823.41	3127
823.55	3135
823.69	3135
823.83	3195
823.97	3138
824.11	3047
824.25	2998
824.389	3058
824.529	3112
824.669	3055
824.809	3199
824.949	3268
825.089	3207
825.228	3157
825.368	2971
825.508	2971
825.648	2990
825.787	3039
825.927	3028
826.067	2975
826.206	2960
826.346	3062
826.485	3097
826.625	3123
826.765	3245
826.904	3203
827.044	2998
827.183	2929
827.323	2910
827.462	3001
827.601	2925
827.741	2937
827.88	2956
828.02	2891
828.159	2956
828.298	3039
828.437	3112
828.577	3077
828.716	3268
828.855	3081
828.994	2929
829.134	2845
829.273	2925
829.412	2899
829.551	2838
829.69	2902
829.829	2986
829.968	3154
830.107	2998
830.246	3070
830.385	2948
830.524	2883
830.663	2838
830.802	2720
830.941	2651
831.08	2644
831.219	2750
831.357	2773
831.496	2971
831.635	2712
831.774	2648
831.913	2640
832.051	2549
832.19	2560
832.329	2667
832.467	2537
832.606	2492
832.744	2579
832.883	2583
833.022	2587
833.16	2625
833.299	2670
833.437	2708
833.576	2697
833.714	2720
833.852	2705
833.991	2773
834.129	2845
834.267	2838
834.406	2796
834.544	2864
834.682	2864
834.821	2842
834.959	3074
835.097	2906
835.235	3066
835.373	3032
835.511	3013
835.65	2971
835.788	2979
835.926	2849
836.064	2804
836.202	2842
836.34	3074
836.478	3119
836.615	3062
836.753	3123
836.891	3207
837.029	3157
837.167	3089
837.305	3077
837.443	3051
837.58	2948
837.718	3116
837.856	3066
837.993	3028
838.131	3100
838.269	3119
838.406	3074
838.544	3093
838.681	2933
838.819	2929
838.956	2834
839.094	2842
839.231	2910
839.369	3055
839.506	3355
839.643	3207
839.781	3039
839.918	2975
840.055	3066
840.193	3028
840.33	3081
840.467	3097
840.604	3169
840.742	3389
840.879	3062
841.016	3055
841.153	3119
841.29	3332
841.427	3294
841.564	3298
841.701	3298
841.838	3253
841.975	3169
842.112	3233
842.249	3097
842.385	3047
842.522	3249
842.659	3116
842.796	3066
842.933	3097
843.069	3047
843.206	3043
843.343	3195
843.479	3093
843.616	3150
843.752	2925
843.889	2876
844.025	3085
844.162	2895
844.298	3039
844.435	2975
844.571	2902
844.708	3097
844.844	3169
844.98	3237
845.117	3188
845.253	3062
845.389	3024
845.525	3112
845.661	3070
845.798	2956
845.934	3127
846.07	3036
846.206	3272
846.342	3332
846.478	3233
846.614	3070
846.75	3051
846.886	3039
847.022	3249
847.158	3135
847.294	3207
847.429	3260
847.565	3211
847.701	3454
847.837	3058
847.972	3001
848.108	3173
848.244	3157
848.379	3001
848.515	2929
848.65	2925
848.786	2956
848.921	2982
849.057	3108
849.192	3138
849.328	3024
849.463	3097
849.598	3077
849.734	3039
849.869	2975
850.004	2895
850.14	2967
850.275	2895
850.41	2838
850.545	2857
850.68	2922
850.815	2937
850.95	2960
851.085	3184
851.22	3142
851.355	3036
851.49	2960
851.625	3020
851.76	2994
851.895	2979
852.03	2925
852.165	3039
852.299	3081
852.434	3173
852.569	3142
852.703	3176
852.838	3226
852.973	3321
853.107	3344
853.242	3146
853.376	3135
853.511	2982
853.645	3013
853.78	3230
853.914	3089
854.048	3085
854.183	3066
854.317	3161
854.451	3317
854.585	3142
854.72	3097
854.854	3192
854.988	3051
855.122	3081
855.256	2990
855.39	3097
855.524	3268
855.658	3165
855.792	3135
855.926	3218
856.06	3241
856.194	3253
856.327	3135
856.461	3055
856.595	3043
856.729	3085
856.862	3195
856.996	3195
857.13	3184
857.263	3207
857.397	3291
857.53	3108
857.664	3180
857.797	3237
857.931	3275
858.064	3188
858.197	3222
858.331	3150
858.464	3089
858.597	2998
858.731	3138
858.864	3150
858.997	3108
859.13	3154
859.263	3157
859.396	3203
859.529	3070
859.662	3081
859.795	3062
859.928	3085
860.061	3233
860.194	3287
860.327	3142
860.46	3085
860.592	3264
860.725	3226
860.858	3256
860.99	3097
861.123	3047
861.256	3036
861.388	3123
861.521	3808
861.653	3032
861.786	2990
861.918	2998
862.05	3077
862.183	3070
862.315	3123
862.447	3199
862.58	3070
862.712	2960
862.844	2868
862.976	2994
863.108	3001
863.24	3397
863.372	2887
863.504	2990
863.636	2937
863.768	3058
863.9	3001
864.032	2906
864.164	2929
864.296	3005
864.428	3062
864.559	3108
864.691	3089
864.823	3036
864.954	3009
865.086	2994
865.217	2933
865.349	2941
865.48	2994
865.612	3001
865.743	3112
865.875	2979
866.006	2914
866.137	2982
866.269	2944
866.4	2948
866.531	2902
866.662	2864
866.793	2902
866.924	2880
867.055	2971
867.186	2933
867.317	2887
867.448	2785
867.579	2819
867.71	2830
867.841	2819
867.972	2925
868.103	2929
868.233	2868
868.364	2887
868.495	2891
868.625	3036
868.756	3131
868.886	2948
869.017	2971
869.147	3207
869.278	3184
869.408	3009
869.539	2990
869.669	3097
869.799	3039
869.929	3165
870.06	3116
870.19	3317
870.32	3264
870.45	3256
870.58	3363
870.71	3443
870.84	3469
870.97	3298
871.1	3233
871.23	3492
871.36	3458
871.489	3355
871.619	3405
871.749	3420
871.879	3454
872.008	3488
872.138	3363
872.267	3283
872.397	3108
872.526	3070
872.656	2994
872.785	3093
872.915	3222
873.044	3344
873.173	3237
873.303	3256
873.432	3245
873.561	3241
873.69	3157
873.819	3169
873.948	3176
874.077	3100
874.206	3036
874.335	3104
874.464	3211
874.593	3340
874.722	3249
874.851	3378
874.979	3370
875.108	3256
875.237	3222
875.365	3123
875.494	3176
875.623	3222
875.751	3066
875.88	3085
876.008	3199
876.136	3214
876.265	3313
876.393	3481
876.521	3401
876.65	3378
876.778	3302
876.906	3291
877.034	3195
877.162	3192
877.29	3161
877.418	3275
877.546	3226
877.674	3207
877.802	3226
877.93	3245
878.058	3112
878.185	3093
878.313	3176
878.441	3203
878.568	3051
878.696	3157
878.824	3279
878.951	3317
879.079	3458
879.206	3641
879.333	3386
879.461	3325
879.588	3355
879.715	3469
879.842	3572
879.97	3405
880.097	3188
880.224	3127
880.351	3165
880.478	3207
880.605	3211
880.732	3150
880.859	3469
880.986	3291
881.112	3310
881.239	3222
881.366	3108
881.493	3036
881.619	3043
881.746	3097
881.872	3093
881.999	3097
882.125	3154
882.252	3264
882.378	3272
882.505	3409
882.631	3283
882.757	3135
882.883	3211
883.01	3188
883.136	3142
883.262	3047
883.388	3123
883.514	3306
883.64	3351
883.766	3310
883.892	3199
884.018	3241
884.143	3378
884.269	3485
884.395	3214
884.52	3180
884.646	3169
884.772	3131
884.897	3089
885.023	3192
885.148	3359
885.274	3378
885.399	3389
885.524	3268
885.65	3253
885.775	3321
885.9	3298
886.025	3393
886.15	3374
886.275	3279
886.4	3241
886.525	3317
886.65	3260
886.775	3298
886.9	3454
887.025	3618
887.149	3378
887.274	3230
887.399	3184
887.523	3188
887.648	3161
887.773	3222
887.897	3340
888.021	3389
888.146	3336
888.27	3409
888.395	3485
888.519	3477
888.643	3462
888.767	3439
888.891	3321
889.015	3249
889.139	3294
889.263	3173
889.387	3370
889.511	3496
889.635	3447
889.759	3287
889.883	3268
890.006	3405
890.13	3473
890.254	3253
890.377	3351
890.501	3188
890.624	3203
890.748	3275
890.871	3207
890.995	3085
891.118	3024
891.241	3188
891.364	3222
891.488	3310
891.611	3195
891.734	3218
891.857	3272
891.98	3264
892.103	3321
892.226	3291
892.349	3218
892.471	3104
892.594	3256
892.717	3264
892.839	3256
892.962	3268
893.085	3386
893.207	3336
893.33	3161
893.452	3218
893.575	3374
893.697	3260
893.819	3462
893.941	3507
894.064	3443
894.186	3264
894.308	3283
894.43	3412
894.552	3538
894.674	3462
894.796	3275
894.918	3294
895.04	3344
895.161	3450
895.283	3348
895.405	3287
895.526	3329
895.648	3401
895.769	3428
895.891	3424
896.012	3481
896.134	3447
896.255	3450
896.376	3382
896.498	3317
896.619	3473
896.74	3386
896.861	3405
896.982	3698
897.103	3819
897.224	3561
897.345	3515
897.466	3443
897.587	3485
897.708	3618
897.828	3568
897.949	3412
898.07	3329
898.19	3401
898.311	3606
898.431	3431
898.552	3511
898.672	3610
898.792	3622
898.913	3534
899.033	3378
899.153	3302
899.273	3233
899.393	3283
899.513	3310
899.633	3291
899.753	3325
899.873	3287
899.993	3370
900.113	3313
900.232	3382
900.352	3317
900.472	3264
900.591	3207
900.711	3283
900.83	3237
900.95	3409
901.069	3542
901.189	3313
901.308	3169
901.427	3135
901.546	3169
901.665	3222
901.784	3275
901.904	3226
902.023	3135
902.141	2986
902.26	2994
902.379	3112
902.498	3062
902.617	3017
902.735	3173
902.854	3222
902.973	3188
903.091	3036
903.21	3055
903.328	3138
903.446	3097
903.565	3116
903.683	3195
903.801	3123
903.919	3260
904.038	3279
904.156	3138
904.274	3256
904.392	3264
904.51	3298
904.627	3321
904.745	3428
904.863	3481
904.981	3256
905.098	3176
905.216	3211
905.334	3272
905.451	3283
905.569	3306
905.686	3409
905.803	3447
905.921	3268
906.038	3405
906.155	3344
906.272	3222
906.389	3336
906.506	3199
906.623	3222
906.74	3260
906.857	3184
906.974	3233
907.091	3424
907.208	3580
907.324	3504
907.441	3378
907.557	3253
907.674	3253
907.79	3203
907.907	3279
908.023	3340
908.139	3397
908.256	3336
908.372	3378
908.488	3359
908.604	3298
908.72	3222
908.836	3241
908.952	3317
909.068	3306
909.184	3488
909.3	3374
909.415	3492
909.531	3462
909.647	3237
909.762	3287
909.878	3230
909.993	3351
910.108	3317
910.224	3336
910.339	3401
910.454	3336
910.57	3294
910.685	3230
910.8	3580
910.915	3561
911.03	3412
911.145	3287
911.259	3226
911.374	3336
911.489	3237
911.604	3218
911.718	3131
911.833	3135
911.947	3047
912.062	2963
912.176	3165
912.291	3192
912.405	3222
912.519	3443
912.633	3435
912.748	3340
912.862	3264
912.976	3146
913.09	3051
913.204	3119
913.318	3188
913.431	3291
913.545	3310
913.659	3420
913.772	3317
913.886	3233
914	3237
914.113	3374
914.226	3393
914.34	3370
914.453	3230
914.566	3420
914.68	3233
914.793	3325
914.906	3138
915.019	3119
915.132	3081
915.245	3180
915.358	3192
915.47	3249
915.583	3249
915.696	3332
915.809	3393
915.921	3389
916.034	3237
916.146	3249
916.259	3222
916.371	3386
916.483	3389
916.595	3283
916.708	3382
916.82	3332
916.932	3329
917.044	3325
917.156	3344
917.268	3249
917.38	3306
917.491	3283
917.603	3336
917.715	3416
917.826	3454
917.938	3386
918.049	3287
918.161	3412
918.272	3557
918.384	3568
918.495	3504
918.606	3325
918.717	3230
918.828	3363
918.939	3435
919.05	3302
919.161	3389
919.272	3192
919.383	3275
919.494	3530
919.604	3675
919.715	3526
919.826	3397
919.936	3450
920.047	3610
920.157	3572
920.267	3789
920.378	3595
920.488	3557
920.598	3759
920.708	3937
920.818	3808
920.928	3819
921.038	3983
921.148	3975
921.258	3694
921.368	3603
921.477	3553
921.587	3530
921.697	3435
921.806	3606
921.916	3519
922.025	3348
922.134	3344
922.244	3340
922.353	3439
922.462	3287
922.571	3241
922.68	3116
922.789	3070
922.898	3154
923.007	3062
923.116	3192
923.224	3203
923.333	3195
923.442	3108
923.55	3112
923.659	3150
923.767	3199
923.876	3154
923.984	3245
924.092	3135
924.201	3188
924.309	3233
924.417	3306
924.525	3169
924.633	3226
924.741	4192
924.849	3032
924.956	3241
925.064	3089
925.172	3058
925.279	3097
925.387	3188
925.494	3188
925.602	3351
925.709	3298
925.816	3245
925.924	3321
926.031	3378
926.138	3287
926.245	3332
926.352	3253
926.459	3393
926.566	3485
926.673	3329
926.779	3249
926.886	3218
926.993	3173
927.099	3127
927.206	3123
927.312	3081
927.419	3188
927.525	3203
927.631	3283
927.737	3135
927.843	3127
927.95	2994
928.056	3161
928.162	3165
928.267	3260
928.373	3861
928.479	3310
928.585	3058
928.69	3203
928.796	3268
928.901	3211
929.007	3055
929.112	3192
929.218	3180
929.323	3207
929.428	3161
929.533	3336
929.638	3123
929.743	3176
929.848	3264
929.953	3207
930.058	3127
930.163	2979
930.267	3066
930.372	3184
930.477	3074
930.581	3283
930.685	3214
930.79	3032
930.894	3131
930.998	3104
931.103	3268
931.207	2933
931.311	2982
931.415	2948
931.519	2731
931.623	2826
