Data from test_V78500241_1448.txt Node
Date: Fri Mar 25 16:25:14 CST 2022
User: usil
Spectrometer: V785-0024
Trigger mode: 0
Integration Time (sec): 4.000000E-1
Scans to average: 1
Nonlinearity correction enabled: false
Boxcar width: 0
Storing dark spectrum: false
XAxis mode: Wavelengths
Number of Pixels in Spectrum: 1024
>>>>>Begin Spectral Data<<<<<
801.071	2937
801.214	2998
801.356	2925
801.499	2918
801.641	2906
801.783	2937
801.926	3047
802.068	2960
802.211	3036
802.353	3062
802.496	2963
802.638	3062
802.78	3089
802.923	3074
803.065	3020
803.208	2887
803.35	2922
803.492	2952
803.635	2918
803.777	2796
803.919	2861
804.061	3180
804.204	2975
804.346	2914
804.488	2842
804.63	2971
804.773	2899
804.915	2910
805.057	3104
805.199	2952
805.341	2979
805.483	3070
805.626	3024
805.768	2979
805.91	3112
806.052	3131
806.194	2994
806.336	3275
806.478	3005
806.62	2960
806.762	2975
806.904	3081
807.046	3161
807.188	3013
807.33	2975
807.472	3017
807.614	2929
807.756	3032
807.898	2883
808.04	2887
808.182	2990
808.324	2933
808.465	2902
808.607	2902
808.749	2781
808.891	2868
809.033	3020
809.174	2960
809.316	2895
809.458	2883
809.6	2781
809.741	2769
809.883	2785
810.025	2819
810.166	2883
810.308	2811
810.45	2887
810.591	2807
810.733	2769
810.875	2861
811.016	2800
811.158	2785
811.299	2823
811.441	2922
811.582	2937
811.724	2849
811.865	2861
812.007	2891
812.148	2899
812.29	2883
812.431	2895
812.573	2948
812.714	2967
812.855	3089
812.997	3028
813.138	3108
813.279	3020
813.421	2994
813.562	2979
813.703	2899
813.845	2944
813.986	2777
814.127	2746
814.268	2823
814.41	2845
814.551	2807
814.692	2868
814.833	2853
814.974	2910
815.115	2925
815.256	2853
815.397	2845
815.539	2861
815.68	2785
815.821	2819
815.962	2956
816.103	2941
816.244	2872
816.385	2895
816.526	2963
816.666	2914
816.807	2792
816.948	2933
817.089	2918
817.23	2857
817.371	2754
817.512	2838
817.653	2823
817.793	2838
817.934	2899
818.075	2944
818.216	2956
818.356	3039
818.497	2899
818.638	2819
818.778	2823
818.919	2842
819.06	2785
819.2	2902
819.341	2849
819.481	2792
819.622	2948
819.762	3093
819.903	3051
820.043	2971
820.184	2895
820.324	2906
820.465	3009
820.605	3047
820.746	3017
820.886	2929
821.026	3100
821.167	3203
821.307	3260
821.447	3291
821.588	3237
821.728	3226
821.868	3173
822.008	3135
822.149	3184
822.289	3230
822.429	3089
822.569	3093
822.709	3188
822.849	3047
822.99	3100
823.13	3131
823.27	3173
823.41	3123
823.55	3169
823.69	3184
823.83	3203
823.97	3058
824.11	3051
824.25	2998
824.389	3077
824.529	3135
824.669	3066
824.809	3268
824.949	3207
825.089	3214
825.228	3161
825.368	2994
825.508	2975
825.648	3001
825.787	3039
825.927	3013
826.067	2963
826.206	2941
826.346	3020
826.485	3097
826.625	3100
826.765	3302
826.904	3249
827.044	2982
827.183	2933
827.323	2891
827.462	3009
827.601	2910
827.741	2922
827.88	2982
828.02	2868
828.159	2967
828.298	3020
828.437	3131
828.577	3032
828.716	3245
828.855	3070
828.994	2925
829.134	2872
829.273	2929
829.412	2902
829.551	2891
829.69	2944
829.829	3028
829.968	3150
830.107	3001
830.246	3032
830.385	2902
830.524	2880
830.663	2857
830.802	2758
830.941	2651
831.08	2678
831.219	2754
831.357	2762
831.496	2910
831.635	2724
831.774	2659
831.913	2701
832.051	2541
832.19	2575
832.329	2724
832.467	2549
832.606	2476
832.744	2587
832.883	2632
833.022	2587
833.16	2640
833.299	2689
833.437	2712
833.576	2708
833.714	2727
833.852	2746
833.991	2766
834.129	2853
834.267	2857
834.406	2788
834.544	2906
834.682	2845
834.821	2876
834.959	3074
835.097	2876
835.235	3036
835.373	2990
835.511	3005
835.65	2925
835.788	2967
835.926	2899
836.064	2815
836.202	2872
836.34	3116
836.478	3165
836.615	3055
836.753	3154
836.891	3237
837.029	3188
837.167	3119
837.305	3066
837.443	3081
837.58	2979
837.718	3131
837.856	3085
837.993	3013
838.131	3104
838.269	3085
838.406	3104
838.544	3089
838.681	2895
838.819	2929
838.956	2807
839.094	2845
839.231	2937
839.369	3005
839.506	3332
839.643	3214
839.781	2975
839.918	2967
840.055	3055
840.193	3085
840.33	3081
840.467	3081
840.604	3214
840.742	3447
840.879	3062
841.016	3047
841.153	3123
841.29	3363
841.427	3256
841.564	3272
841.701	3313
841.838	3176
841.975	3192
842.112	3230
842.249	3108
842.385	3055
842.522	3256
842.659	3081
842.796	3036
842.933	3085
843.069	3051
843.206	3074
843.343	3188
843.479	3093
843.616	3165
843.752	2918
843.889	2895
844.025	3047
844.162	2895
844.298	3097
844.435	2944
844.571	2937
844.708	3055
844.844	3173
844.98	3241
845.117	3218
845.253	3066
845.389	2994
845.525	3081
845.661	3062
845.798	3020
845.934	3173
846.07	3028
846.206	3214
846.342	3317
846.478	3230
846.614	3081
846.75	3085
846.886	3013
847.022	3256
847.158	3157
847.294	3230
847.429	3218
847.565	3199
847.701	3519
847.837	3020
847.972	3017
848.108	3192
848.244	3138
848.379	2986
848.515	2929
848.65	2941
848.786	2941
848.921	3017
849.057	3116
849.192	3150
849.328	3051
849.463	3089
849.598	3066
849.734	3055
849.869	2952
850.004	2937
850.14	2990
850.275	2937
850.41	2845
850.545	2872
850.68	2902
850.815	2922
850.95	2975
851.085	3211
851.22	3112
851.355	3070
851.49	2986
851.625	2994
851.76	3005
851.895	2925
852.03	2887
852.165	3028
852.299	3089
852.434	3180
852.569	3146
852.703	3184
852.838	3230
852.973	3374
853.107	3310
853.242	3131
853.376	3081
853.511	2944
853.645	3058
853.78	3237
853.914	3142
854.048	3085
854.183	3104
854.317	3142
854.451	3283
854.585	3131
854.72	3097
854.854	3207
854.988	3058
855.122	3062
855.256	2990
855.39	3089
855.524	3230
855.658	3119
855.792	3131
855.926	3211
856.06	3195
856.194	3272
856.327	3104
856.461	3066
856.595	3081
856.729	3089
856.862	3218
856.996	3161
857.13	3211
857.263	3214
857.397	3279
857.53	3116
857.664	3218
857.797	3249
857.931	3272
858.064	3142
858.197	3233
858.331	3104
858.464	3100
858.597	3013
858.731	3100
858.864	3146
858.997	3085
859.13	3138
859.263	3184
859.396	3173
859.529	3093
859.662	3051
859.795	3005
859.928	3169
860.061	3253
860.194	3275
860.327	3100
860.46	3077
860.592	3226
860.725	3260
860.858	3237
860.99	3131
861.123	3043
861.256	3039
861.388	3142
861.521	3869
861.653	3028
861.786	3013
861.918	3001
862.05	3047
862.183	3085
862.315	3146
862.447	3237
862.58	3058
862.712	2933
862.844	2899
862.976	3036
863.108	2990
863.24	3317
863.372	2857
863.504	2979
863.636	2960
863.768	3024
863.9	2967
864.032	2880
864.164	2960
864.296	3001
864.428	3093
864.559	3119
864.691	3062
864.823	3104
864.954	3020
865.086	3066
865.217	2982
865.349	2956
865.48	2998
865.612	3047
865.743	3161
865.875	2986
866.006	2952
866.137	2956
866.269	2944
866.4	2925
866.531	2914
866.662	2883
866.793	2876
866.924	2899
867.055	2963
867.186	2914
867.317	2845
867.448	2815
867.579	2861
867.71	2853
867.841	2807
867.972	2899
868.103	2887
868.233	2868
868.364	2842
868.495	2872
868.625	3119
868.756	3161
868.886	2971
869.017	3017
869.147	3188
869.278	3150
869.408	3074
869.539	3024
869.669	3100
869.799	2994
869.929	3131
870.06	3089
870.19	3321
870.32	3325
870.45	3287
870.58	3359
870.71	3428
870.84	3485
870.97	3283
871.1	3275
871.23	3511
871.36	3435
871.489	3355
871.619	3382
871.749	3370
871.879	3416
872.008	3450
872.138	3348
872.267	3291
872.397	3108
872.526	3081
872.656	2998
872.785	3093
872.915	3272
873.044	3291
873.173	3214
873.303	3218
873.432	3211
873.561	3207
873.69	3142
873.819	3138
873.948	3180
874.077	3119
874.206	3051
874.335	3070
874.464	3188
874.593	3325
874.722	3260
874.851	3382
874.979	3363
875.108	3310
875.237	3192
875.365	3161
875.494	3165
875.623	3264
875.751	3051
875.88	3104
876.008	3218
876.136	3214
876.265	3348
876.393	3515
876.521	3435
876.65	3412
876.778	3310
876.906	3268
877.034	3218
877.162	3241
877.29	3176
877.418	3203
877.546	3230
877.674	3256
877.802	3207
877.93	3207
878.058	3165
878.185	3081
878.313	3203
878.441	3214
878.568	3074
878.696	3157
878.824	3237
878.951	3291
879.079	3412
879.206	3614
879.333	3435
879.461	3313
879.588	3351
879.715	3477
879.842	3584
879.97	3344
880.097	3165
880.224	3104
880.351	3176
880.478	3211
880.605	3195
880.732	3127
880.859	3473
880.986	3279
881.112	3298
881.239	3165
881.366	3062
881.493	3020
881.619	3020
881.746	3104
881.872	3093
881.999	3089
882.125	3142
882.252	3249
882.378	3268
882.505	3443
882.631	3275
882.757	3161
882.883	3195
883.01	3222
883.136	3131
883.262	3104
883.388	3070
883.514	3317
883.64	3397
883.766	3260
883.892	3180
884.018	3241
884.143	3370
884.269	3511
884.395	3237
884.52	3176
884.646	3180
884.772	3127
884.897	3085
885.023	3195
885.148	3313
885.274	3382
885.399	3359
885.524	3253
885.65	3260
885.775	3272
885.9	3272
886.025	3401
886.15	3378
886.275	3306
886.4	3279
886.525	3291
886.65	3272
886.775	3310
886.9	3450
887.025	3610
887.149	3393
887.274	3249
887.399	3199
887.523	3192
887.648	3142
887.773	3180
887.897	3367
888.021	3374
888.146	3329
888.27	3431
888.395	3538
888.519	3450
888.643	3435
888.767	3454
888.891	3294
889.015	3249
889.139	3275
889.263	3237
889.387	3363
889.511	3477
889.635	3416
889.759	3237
889.883	3268
890.006	3382
890.13	3454
890.254	3264
890.377	3336
890.501	3192
890.624	3195
890.748	3310
890.871	3176
890.995	3108
891.118	3055
891.241	3218
891.364	3184
891.488	3306
891.611	3180
891.734	3211
891.857	3310
891.98	3222
892.103	3359
892.226	3302
892.349	3214
892.471	3108
892.594	3268
892.717	3317
892.839	3230
892.962	3272
893.085	3355
893.207	3283
893.33	3142
893.452	3214
893.575	3336
893.697	3264
893.819	3450
893.941	3485
894.064	3469
894.186	3302
894.308	3268
894.43	3416
894.552	3492
894.674	3454
894.796	3268
894.918	3298
895.04	3294
895.161	3473
895.283	3409
895.405	3313
895.526	3355
895.648	3412
895.769	3428
895.891	3454
896.012	3500
896.134	3481
896.255	3424
896.376	3393
896.498	3340
896.619	3401
896.74	3378
896.861	3397
896.982	3667
897.103	3854
897.224	3545
897.345	3542
897.466	3428
897.587	3469
897.708	3580
897.828	3542
897.949	3439
898.07	3344
898.19	3443
898.311	3599
898.431	3447
898.552	3488
898.672	3576
898.792	3591
898.913	3564
899.033	3424
899.153	3310
899.273	3211
899.393	3310
899.513	3302
899.633	3310
899.753	3363
899.873	3313
899.993	3378
900.113	3306
900.232	3386
900.352	3340
900.472	3256
900.591	3180
900.711	3306
900.83	3241
900.95	3378
901.069	3481
901.189	3386
901.308	3195
901.427	3104
901.546	3188
901.665	3306
901.784	3351
901.904	3230
902.023	3184
902.141	3001
902.26	2994
902.379	3097
902.498	3055
902.617	3039
902.735	3222
902.854	3222
902.973	3169
903.091	3028
903.21	3058
903.328	3112
903.446	3093
903.565	3062
903.683	3184
903.801	3165
903.919	3226
904.038	3268
904.156	3146
904.274	3321
904.392	3260
904.51	3317
904.627	3336
904.745	3428
904.863	3504
904.981	3237
905.098	3214
905.216	3214
905.334	3294
905.451	3298
905.569	3317
905.686	3389
905.803	3424
905.921	3283
906.038	3382
906.155	3329
906.272	3291
906.389	3329
906.506	3218
906.623	3268
906.74	3272
906.857	3154
906.974	3287
907.091	3443
907.208	3523
907.324	3488
907.441	3351
907.557	3199
907.674	3241
907.79	3230
907.907	3260
908.023	3355
908.139	3363
908.256	3306
908.372	3351
908.488	3367
908.604	3272
908.72	3226
908.836	3230
908.952	3253
909.068	3325
909.184	3473
909.3	3351
909.415	3496
909.531	3485
909.647	3279
909.762	3306
909.878	3268
909.993	3367
910.108	3340
910.224	3336
910.339	3416
910.454	3382
910.57	3329
910.685	3233
910.8	3599
910.915	3553
911.03	3405
911.145	3233
911.259	3287
911.374	3344
911.489	3241
911.604	3260
911.718	3104
911.833	3138
911.947	3043
912.062	2963
912.176	3192
912.291	3226
912.405	3203
912.519	3431
912.633	3477
912.748	3374
912.862	3272
912.976	3165
913.09	3036
913.204	3161
913.318	3192
913.431	3313
913.545	3325
913.659	3428
913.772	3313
913.886	3176
914	3211
914.113	3386
914.226	3435
914.34	3401
914.453	3241
914.566	3450
914.68	3325
914.793	3336
914.906	3195
915.019	3100
915.132	3066
915.245	3157
915.358	3211
915.47	3214
915.583	3241
915.696	3302
915.809	3401
915.921	3386
916.034	3268
916.146	3256
916.259	3249
916.371	3367
916.483	3344
916.595	3222
916.708	3351
916.82	3310
916.932	3370
917.044	3348
917.156	3313
917.268	3268
917.38	3310
917.491	3313
917.603	3367
917.715	3481
917.826	3477
917.938	3401
918.049	3272
918.161	3431
918.272	3595
918.384	3599
918.495	3473
918.606	3348
918.717	3268
918.828	3409
918.939	3397
919.05	3291
919.161	3420
919.272	3173
919.383	3264
919.494	3515
919.604	3698
919.715	3511
919.826	3393
919.936	3500
920.047	3595
920.157	3534
920.267	3759
920.378	3614
920.488	3545
920.598	3793
920.708	3956
920.818	3800
920.928	3808
921.038	3998
921.148	4044
921.258	3686
921.368	3614
921.477	3587
921.587	3549
921.697	3431
921.806	3625
921.916	3561
922.025	3355
922.134	3367
922.244	3344
922.353	3416
922.462	3275
922.571	3233
922.68	3135
922.789	3100
922.898	3142
923.007	3104
923.116	3192
923.224	3150
923.333	3154
923.442	3123
923.55	3131
923.659	3135
923.767	3218
923.876	3119
923.984	3249
924.092	3123
924.201	3207
924.309	3245
924.417	3287
924.525	3176
924.633	3214
924.741	4143
924.849	3043
924.956	3306
925.064	3127
925.172	3028
925.279	3089
925.387	3192
925.494	3249
925.602	3340
925.709	3344
925.816	3214
925.924	3294
926.031	3389
926.138	3355
926.245	3374
926.352	3233
926.459	3386
926.566	3481
926.673	3294
926.779	3237
926.886	3249
926.993	3176
927.099	3138
927.206	3089
927.312	3123
927.419	3241
927.525	3211
927.631	3249
927.737	3176
927.843	3119
927.95	3013
928.056	3093
928.162	3165
928.267	3245
928.373	3861
928.479	3313
928.585	3077
928.69	3203
928.796	3287
928.901	3146
929.007	3024
929.112	3230
929.218	3180
929.323	3135
929.428	3119
929.533	3355
929.638	3116
929.743	3203
929.848	3256
929.953	3226
930.058	3184
930.163	2971
930.267	3055
930.372	3169
930.477	3062
930.581	3340
930.685	3184
930.79	3032
930.894	3058
930.998	3077
931.103	3241
931.207	2948
931.311	2948
931.415	2899
931.519	2781
931.623	2823
