Data from test_V78500241_588.txt Node
Date: Fri Mar 25 16:19:16 CST 2022
User: usil
Spectrometer: V785-0024
Trigger mode: 0
Integration Time (sec): 4.000000E-1
Scans to average: 1
Nonlinearity correction enabled: false
Boxcar width: 0
Storing dark spectrum: false
XAxis mode: Wavelengths
Number of Pixels in Spectrum: 1024
>>>>>Begin Spectral Data<<<<<
801.071	2952
801.214	2960
801.356	2910
801.499	2922
801.641	2887
801.783	2941
801.926	3036
802.068	2990
802.211	2994
802.353	3013
802.496	2979
802.638	3032
802.78	3055
802.923	3104
803.065	3009
803.208	2895
803.35	2929
803.492	2906
803.635	2914
803.777	2769
803.919	2918
804.061	3184
804.204	2971
804.346	2944
804.488	2815
804.63	3009
804.773	2902
804.915	2937
805.057	3062
805.199	2914
805.341	2956
805.483	3070
805.626	2979
805.768	2944
805.91	3089
806.052	3142
806.194	3043
806.336	3218
806.478	3013
806.62	2975
806.762	3024
806.904	3104
807.046	3169
807.188	3001
807.33	2960
807.472	2975
807.614	2910
807.756	2986
807.898	2944
808.04	2910
808.182	2944
808.324	2952
808.465	2902
808.607	2887
808.749	2777
808.891	2845
809.033	2971
809.174	2982
809.316	2906
809.458	2902
809.6	2750
809.741	2800
809.883	2762
810.025	2834
810.166	2868
810.308	2883
810.45	2883
810.591	2750
810.733	2766
810.875	2826
811.016	2785
811.158	2762
811.299	2842
811.441	2967
811.582	2914
811.724	2796
811.865	2807
812.007	2910
812.148	2880
812.29	2845
812.431	2891
812.573	2933
812.714	2971
812.855	3013
812.997	3039
813.138	3123
813.279	2975
813.421	2998
813.562	2941
813.703	2830
813.845	2899
813.986	2785
814.127	2735
814.268	2804
814.41	2849
814.551	2826
814.692	2864
814.833	2823
814.974	2883
815.115	2933
815.256	2857
815.397	2811
815.539	2876
815.68	2777
815.821	2792
815.962	2918
816.103	2929
816.244	2891
816.385	2857
816.526	2971
816.666	2918
816.807	2731
816.948	2868
817.089	2933
817.23	2845
817.371	2773
817.512	2796
817.653	2819
817.793	2796
817.934	2891
818.075	2944
818.216	2994
818.356	3028
818.497	2895
818.638	2788
818.778	2788
818.919	2781
819.06	2785
819.2	2899
819.341	2823
819.481	2823
819.622	2876
819.762	3062
819.903	3036
820.043	2933
820.184	2918
820.324	2941
820.465	3017
820.605	2979
820.746	3028
820.886	2944
821.026	3104
821.167	3135
821.307	3275
821.447	3272
821.588	3226
821.728	3195
821.868	3138
822.008	3058
822.149	3214
822.289	3245
822.429	3070
822.569	3100
822.709	3169
822.849	3039
822.99	3112
823.13	3154
823.27	3203
823.41	3093
823.55	3150
823.69	3150
823.83	3157
823.97	3116
824.11	3009
824.25	2967
824.389	3077
824.529	3127
824.669	3070
824.809	3203
824.949	3253
825.089	3176
825.228	3192
825.368	3009
825.508	2963
825.648	2979
825.787	2998
825.927	2990
826.067	2956
826.206	2960
826.346	3051
826.485	3089
826.625	3077
826.765	3264
826.904	3184
827.044	3051
827.183	2922
827.323	2887
827.462	2971
827.601	2899
827.741	2952
827.88	2979
828.02	2868
828.159	3001
828.298	3028
828.437	3131
828.577	3051
828.716	3241
828.855	3097
828.994	2952
829.134	2914
829.273	2937
829.412	2883
829.551	2883
829.69	2929
829.829	3039
829.968	3154
830.107	3055
830.246	3047
830.385	2944
830.524	2967
830.663	2834
830.802	2777
830.941	2689
831.08	2674
831.219	2807
831.357	2785
831.496	2948
831.635	2754
831.774	2644
831.913	2682
832.051	2590
832.19	2617
832.329	2743
832.467	2564
832.606	2503
832.744	2606
832.883	2625
833.022	2594
833.16	2708
833.299	2697
833.437	2716
833.576	2705
833.714	2758
833.852	2792
833.991	2781
834.129	2849
834.267	2823
834.406	2788
834.544	2914
834.682	2948
834.821	2868
834.959	3089
835.097	2914
835.235	3112
835.373	3051
835.511	3081
835.65	2979
835.788	2982
835.926	2861
836.064	2826
836.202	2857
836.34	3123
836.478	3199
836.615	3066
836.753	3138
836.891	3237
837.029	3203
837.167	3146
837.305	3104
837.443	3070
837.58	2998
837.718	3135
837.856	3074
837.993	3062
838.131	3165
838.269	3161
838.406	3135
838.544	3131
838.681	2933
838.819	2960
838.956	2826
839.094	2895
839.231	2960
839.369	3066
839.506	3382
839.643	3226
839.781	3017
839.918	2982
840.055	3077
840.193	3047
840.33	3085
840.467	3161
840.604	3169
840.742	3462
840.879	3070
841.016	3138
841.153	3123
841.29	3370
841.427	3321
841.564	3302
841.701	3313
841.838	3291
841.975	3199
842.112	3237
842.249	3131
842.385	3020
842.522	3283
842.659	3142
842.796	3108
842.933	3135
843.069	3100
843.206	3070
843.343	3188
843.479	3112
843.616	3169
843.752	2902
843.889	2906
844.025	3085
844.162	2922
844.298	3093
844.435	2960
844.571	2956
844.708	3070
844.844	3207
844.98	3260
845.117	3230
845.253	3100
845.389	3039
845.525	3150
845.661	3119
845.798	3032
845.934	3157
846.07	3093
846.206	3233
846.342	3313
846.478	3256
846.614	3127
846.75	3047
846.886	3097
847.022	3279
847.158	3180
847.294	3237
847.429	3218
847.565	3226
847.701	3534
847.837	3074
847.972	3017
848.108	3192
848.244	3165
848.379	2986
848.515	2960
848.65	2963
848.786	2998
848.921	3070
849.057	3146
849.192	3176
849.328	3081
849.463	3161
849.598	3108
849.734	3066
849.869	3020
850.004	2952
850.14	2994
850.275	2975
850.41	2864
850.545	2902
850.68	2960
850.815	2982
850.95	3001
851.085	3211
851.22	3116
851.355	3043
851.49	3043
851.625	3001
851.76	3043
851.895	2994
852.03	2948
852.165	3058
852.299	3093
852.434	3214
852.569	3192
852.703	3226
852.838	3268
852.973	3378
853.107	3355
853.242	3165
853.376	3142
853.511	3001
853.645	3066
853.78	3253
853.914	3131
854.048	3119
854.183	3123
854.317	3169
854.451	3291
854.585	3165
854.72	3062
854.854	3226
854.988	3081
855.122	3104
855.256	3001
855.39	3112
855.524	3260
855.658	3245
855.792	3169
855.926	3192
856.06	3218
856.194	3283
856.327	3165
856.461	3077
856.595	3131
856.729	3112
856.862	3230
856.996	3180
857.13	3230
857.263	3245
857.397	3294
857.53	3180
857.664	3230
857.797	3256
857.931	3279
858.064	3211
858.197	3245
858.331	3138
858.464	3188
858.597	3013
858.731	3119
858.864	3161
858.997	3108
859.13	3142
859.263	3211
859.396	3176
859.529	3119
859.662	3127
859.795	3104
859.928	3169
860.061	3317
860.194	3321
860.327	3157
860.46	3100
860.592	3218
860.725	3287
860.858	3268
860.99	3104
861.123	3100
861.256	3081
861.388	3173
861.521	3747
861.653	3058
861.786	3001
861.918	3036
862.05	3116
862.183	3112
862.315	3161
862.447	3233
862.58	3119
862.712	3020
862.844	2857
862.976	3013
863.108	3036
863.24	3439
863.372	2937
863.504	2998
863.636	2963
863.768	3009
863.9	2982
864.032	2956
864.164	2944
864.296	3043
864.428	3138
864.559	3142
864.691	3108
864.823	3142
864.954	3070
865.086	3055
865.217	3039
865.349	2975
865.48	2998
865.612	3081
865.743	3154
865.875	3036
866.006	2960
866.137	3017
866.269	3009
866.4	2990
866.531	2933
866.662	2922
866.793	2933
866.924	2941
867.055	3005
867.186	2960
867.317	2910
867.448	2861
867.579	2861
867.71	2891
867.841	2826
867.972	2887
868.103	2899
868.233	2918
868.364	2918
868.495	2948
868.625	3051
868.756	3176
868.886	2975
869.017	3051
869.147	3180
869.278	3199
869.408	3047
869.539	3024
869.669	3165
869.799	3077
869.929	3154
870.06	3123
870.19	3363
870.32	3321
870.45	3336
870.58	3363
870.71	3492
870.84	3450
870.97	3313
871.1	3260
871.23	3515
871.36	3469
871.489	3370
871.619	3409
871.749	3431
871.879	3473
872.008	3492
872.138	3374
872.267	3313
872.397	3157
872.526	3097
872.656	3036
872.785	3135
872.915	3283
873.044	3344
873.173	3249
873.303	3222
873.432	3298
873.561	3249
873.69	3154
873.819	3157
873.948	3203
874.077	3123
874.206	3039
874.335	3104
874.464	3211
874.593	3363
874.722	3272
874.851	3409
874.979	3348
875.108	3340
875.237	3199
875.365	3184
875.494	3195
875.623	3287
875.751	3116
875.88	3127
876.008	3241
876.136	3230
876.265	3351
876.393	3519
876.521	3443
876.65	3431
876.778	3386
876.906	3264
877.034	3222
877.162	3253
877.29	3195
877.418	3275
877.546	3287
877.674	3256
877.802	3245
877.93	3272
878.058	3119
878.185	3093
878.313	3207
878.441	3192
878.568	3074
878.696	3169
878.824	3272
878.951	3317
879.079	3439
879.206	3622
879.333	3462
879.461	3378
879.588	3382
879.715	3500
879.842	3606
879.97	3382
880.097	3180
880.224	3138
880.351	3253
880.478	3199
880.605	3203
880.732	3211
880.859	3526
880.986	3313
881.112	3340
881.239	3256
881.366	3119
881.493	3062
881.619	2990
881.746	3119
881.872	3093
881.999	3135
882.125	3188
882.252	3256
882.378	3329
882.505	3450
882.631	3313
882.757	3165
882.883	3218
883.01	3230
883.136	3176
883.262	3089
883.388	3146
883.514	3325
883.64	3389
883.766	3306
883.892	3241
884.018	3237
884.143	3462
884.269	3580
884.395	3287
884.52	3150
884.646	3195
884.772	3146
884.897	3116
885.023	3256
885.148	3355
885.274	3473
885.399	3374
885.524	3310
885.65	3272
885.775	3370
885.9	3283
886.025	3473
886.15	3378
886.275	3329
886.4	3233
886.525	3306
886.65	3264
886.775	3291
886.9	3530
887.025	3682
887.149	3462
887.274	3268
887.399	3241
887.523	3241
887.648	3188
887.773	3226
887.897	3378
888.021	3450
888.146	3344
888.27	3458
888.395	3610
888.519	3458
888.643	3443
888.767	3473
888.891	3313
889.015	3275
889.139	3321
889.263	3264
889.387	3424
889.511	3549
889.635	3481
889.759	3291
889.883	3310
890.006	3378
890.13	3481
890.254	3272
890.377	3344
890.501	3226
890.624	3199
890.748	3275
890.871	3226
890.995	3146
891.118	3108
891.241	3233
891.364	3222
891.488	3340
891.611	3195
891.734	3256
891.857	3279
891.98	3275
892.103	3359
892.226	3230
892.349	3268
892.471	3154
892.594	3226
892.717	3317
892.839	3264
892.962	3302
893.085	3405
893.207	3287
893.33	3165
893.452	3188
893.575	3355
893.697	3310
893.819	3477
893.941	3553
894.064	3473
894.186	3287
894.308	3294
894.43	3439
894.552	3534
894.674	3462
894.796	3298
894.918	3325
895.04	3294
895.161	3439
895.283	3393
895.405	3325
895.526	3367
895.648	3416
895.769	3393
895.891	3458
896.012	3488
896.134	3488
896.255	3443
896.376	3359
896.498	3405
896.619	3435
896.74	3374
896.861	3424
896.982	3701
897.103	3823
897.224	3606
897.345	3526
897.466	3431
897.587	3545
897.708	3641
897.828	3542
897.949	3439
898.07	3382
898.19	3435
898.311	3599
898.431	3469
898.552	3504
898.672	3618
898.792	3591
898.913	3557
899.033	3420
899.153	3302
899.273	3226
899.393	3279
899.513	3325
899.633	3310
899.753	3340
899.873	3310
899.993	3374
900.113	3359
900.232	3397
900.352	3317
900.472	3272
900.591	3226
900.711	3317
900.83	3245
900.95	3424
901.069	3492
901.189	3363
901.308	3176
901.427	3108
901.546	3211
901.665	3313
901.784	3332
901.904	3237
902.023	3180
902.141	2998
902.26	2986
902.379	3161
902.498	3043
902.617	3055
902.735	3180
902.854	3192
902.973	3211
903.091	3055
903.21	3043
903.328	3138
903.446	3123
903.565	3100
903.683	3241
903.801	3119
903.919	3260
904.038	3264
904.156	3138
904.274	3291
904.392	3241
904.51	3306
904.627	3344
904.745	3450
904.863	3507
904.981	3272
905.098	3184
905.216	3230
905.334	3298
905.451	3291
905.569	3329
905.686	3416
905.803	3435
905.921	3260
906.038	3450
906.155	3374
906.272	3298
906.389	3351
906.506	3241
906.623	3253
906.74	3298
906.857	3218
906.974	3226
907.091	3477
907.208	3576
907.324	3496
907.441	3389
907.557	3237
907.674	3218
907.79	3214
907.907	3268
908.023	3382
908.139	3389
908.256	3344
908.372	3401
908.488	3378
908.604	3260
908.72	3287
908.836	3306
908.952	3287
909.068	3359
909.184	3496
909.3	3397
909.415	3473
909.531	3492
909.647	3287
909.762	3325
909.878	3275
909.993	3355
910.108	3344
910.224	3344
910.339	3424
910.454	3336
910.57	3321
910.685	3272
910.8	3587
910.915	3572
911.03	3378
911.145	3230
911.259	3241
911.374	3332
911.489	3211
911.604	3260
911.718	3142
911.833	3135
911.947	3017
912.062	2994
912.176	3169
912.291	3199
912.405	3233
912.519	3431
912.633	3481
912.748	3332
912.862	3291
912.976	3214
913.09	3077
913.204	3150
913.318	3230
913.431	3336
913.545	3332
913.659	3416
913.772	3348
913.886	3241
914	3176
914.113	3370
914.226	3405
914.34	3374
914.453	3233
914.566	3412
914.68	3302
914.793	3321
914.906	3173
915.019	3108
915.132	3093
915.245	3176
915.358	3214
915.47	3253
915.583	3249
915.696	3306
915.809	3405
915.921	3409
916.034	3237
916.146	3249
916.259	3207
916.371	3397
916.483	3363
916.595	3268
916.708	3340
916.82	3321
916.932	3344
917.044	3401
917.156	3355
917.268	3287
917.38	3344
917.491	3275
917.603	3378
917.715	3450
917.826	3473
917.938	3405
918.049	3310
918.161	3424
918.272	3561
918.384	3564
918.495	3496
918.606	3302
918.717	3291
918.828	3393
918.939	3363
919.05	3298
919.161	3374
919.272	3195
919.383	3279
919.494	3511
919.604	3686
919.715	3496
919.826	3462
919.936	3515
920.047	3572
920.157	3553
920.267	3759
920.378	3614
920.488	3557
920.598	3789
920.708	4006
920.818	3835
920.928	3892
921.038	4044
921.148	4025
921.258	3717
921.368	3686
921.477	3614
921.587	3545
921.697	3462
921.806	3667
921.916	3553
922.025	3401
922.134	3355
922.244	3321
922.353	3412
922.462	3256
922.571	3233
922.68	3119
922.789	3074
922.898	3123
923.007	3108
923.116	3154
923.224	3161
923.333	3233
923.442	3093
923.55	3093
923.659	3142
923.767	3233
923.876	3127
923.984	3230
924.092	3104
924.201	3192
924.309	3218
924.417	3272
924.525	3195
924.633	3222
924.741	4029
924.849	3047
924.956	3310
925.064	3058
925.172	3028
925.279	3077
925.387	3176
925.494	3249
925.602	3374
925.709	3382
925.816	3169
925.924	3325
926.031	3458
926.138	3321
926.245	3332
926.352	3268
926.459	3431
926.566	3492
926.673	3310
926.779	3268
926.886	3233
926.993	3154
927.099	3138
927.206	3108
927.312	3135
927.419	3207
927.525	3192
927.631	3291
927.737	3138
927.843	3131
927.95	3005
928.056	3127
928.162	3195
928.267	3260
928.373	3770
928.479	3325
928.585	3081
928.69	3222
928.796	3253
928.901	3188
929.007	3028
929.112	3211
929.218	3176
929.323	3131
929.428	3127
929.533	3325
929.638	3150
929.743	3192
929.848	3275
929.953	3211
930.058	3123
930.163	3039
930.267	3043
930.372	3203
930.477	3062
930.581	3294
930.685	3165
930.79	3047
930.894	3093
930.998	3104
931.103	3253
931.207	2982
931.311	2952
931.415	2937
931.519	2762
931.623	2800
