Data from test_V78500241_423.txt Node
Date: Fri Mar 25 16:18:08 CST 2022
User: usil
Spectrometer: V785-0024
Trigger mode: 0
Integration Time (sec): 4.000000E-1
Scans to average: 1
Nonlinearity correction enabled: false
Boxcar width: 0
Storing dark spectrum: false
XAxis mode: Wavelengths
Number of Pixels in Spectrum: 1024
>>>>>Begin Spectral Data<<<<<
801.071	2941
801.214	2960
801.356	2849
801.499	2872
801.641	2834
801.783	2887
801.926	3020
802.068	2994
802.211	3028
802.353	3058
802.496	2975
802.638	3020
802.78	3077
802.923	3085
803.065	2975
803.208	2872
803.35	2925
803.492	2937
803.635	2925
803.777	2739
803.919	2861
804.061	3195
804.204	2948
804.346	2895
804.488	2868
804.63	2979
804.773	2842
804.915	2876
805.057	3043
805.199	2899
805.341	2941
805.483	3036
805.626	2975
805.768	2933
805.91	3093
806.052	3104
806.194	3020
806.336	3226
806.478	3020
806.62	2960
806.762	2986
806.904	3043
807.046	3154
807.188	2963
807.33	2929
807.472	2971
807.614	2857
807.756	2963
807.898	2914
808.04	2891
808.182	2963
808.324	2941
808.465	2891
808.607	2906
808.749	2766
808.891	2876
809.033	2960
809.174	2967
809.316	2918
809.458	2902
809.6	2788
809.741	2750
809.883	2762
810.025	2807
810.166	2857
810.308	2842
810.45	2830
810.591	2800
810.733	2781
810.875	2838
811.016	2758
811.158	2788
811.299	2804
811.441	2906
811.582	2914
811.724	2815
811.865	2842
812.007	2895
812.148	2872
812.29	2845
812.431	2895
812.573	2891
812.714	2922
812.855	3032
812.997	3062
813.138	3116
813.279	3013
813.421	2979
813.562	2948
813.703	2838
813.845	2891
813.986	2750
814.127	2727
814.268	2853
814.41	2830
814.551	2807
814.692	2838
814.833	2815
814.974	2887
815.115	2941
815.256	2845
815.397	2796
815.539	2887
815.68	2815
815.821	2807
815.962	2994
816.103	2902
816.244	2853
816.385	2864
816.526	2944
816.666	2910
816.807	2746
816.948	2910
817.089	2887
817.23	2853
817.371	2781
817.512	2807
817.653	2811
817.793	2781
817.934	2906
818.075	2994
818.216	2963
818.356	3020
818.497	2880
818.638	2811
818.778	2819
818.919	2758
819.06	2750
819.2	2880
819.341	2804
819.481	2804
819.622	2925
819.762	3100
819.903	3047
820.043	2899
820.184	2891
820.324	2876
820.465	2994
820.605	2998
820.746	3005
820.886	2929
821.026	3074
821.167	3135
821.307	3211
821.447	3272
821.588	3241
821.728	3150
821.868	3173
822.008	3074
822.149	3188
822.289	3214
822.429	3074
822.569	3093
822.709	3176
822.849	3051
822.99	3077
823.13	3154
823.27	3180
823.41	3093
823.55	3104
823.69	3142
823.83	3165
823.97	3055
824.11	2982
824.25	2982
824.389	3100
824.529	3112
824.669	3043
824.809	3199
824.949	3226
825.089	3222
825.228	3154
825.368	2998
825.508	2944
825.648	2956
825.787	2982
825.927	3032
826.067	2960
826.206	2960
826.346	3024
826.485	3070
826.625	3116
826.765	3241
826.904	3192
827.044	2967
827.183	2925
827.323	2861
827.462	2990
827.601	2922
827.741	2895
827.88	2952
828.02	2826
828.159	2933
828.298	3047
828.437	3127
828.577	3070
828.716	3253
828.855	3074
828.994	2880
829.134	2887
829.273	2902
829.412	2876
829.551	2891
829.69	2910
829.829	2975
829.968	3112
830.107	3005
830.246	2986
830.385	2918
830.524	2857
830.663	2758
830.802	2731
830.941	2636
831.08	2598
831.219	2746
831.357	2773
831.496	2929
831.635	2735
831.774	2663
831.913	2659
832.051	2511
832.19	2564
832.329	2670
832.467	2568
832.606	2457
832.744	2575
832.883	2598
833.022	2613
833.16	2667
833.299	2701
833.437	2682
833.576	2674
833.714	2724
833.852	2716
833.991	2766
834.129	2857
834.267	2800
834.406	2804
834.544	2876
834.682	2853
834.821	2872
834.959	3089
835.097	2895
835.235	3058
835.373	2994
835.511	3047
835.65	2975
835.788	2952
835.926	2815
836.064	2815
836.202	2796
836.34	3089
836.478	3131
836.615	3009
836.753	3089
836.891	3199
837.029	3169
837.167	3108
837.305	3055
837.443	3036
837.58	2933
837.718	3131
837.856	3074
837.993	3020
838.131	3127
838.269	3081
838.406	3119
838.544	3081
838.681	2883
838.819	2887
838.956	2792
839.094	2807
839.231	2891
839.369	2982
839.506	3344
839.643	3180
839.781	3005
839.918	2956
840.055	3074
840.193	3013
840.33	3097
840.467	3058
840.604	3188
840.742	3397
840.879	3036
841.016	3047
841.153	3131
841.29	3344
841.427	3302
841.564	3268
841.701	3298
841.838	3188
841.975	3142
842.112	3230
842.249	3108
842.385	3013
842.522	3253
842.659	3062
842.796	3085
842.933	3089
843.069	3020
843.206	3017
843.343	3150
843.479	3074
843.616	3180
843.752	2857
843.889	2868
844.025	3108
844.162	2861
844.298	3055
844.435	2963
844.571	2899
844.708	3058
844.844	3165
844.98	3268
845.117	3161
845.253	3081
845.389	2975
845.525	3089
845.661	3131
845.798	3020
845.934	3138
846.07	3051
846.206	3214
846.342	3313
846.478	3222
846.614	3077
846.75	3024
846.886	2994
847.022	3249
847.158	3116
847.294	3192
847.429	3237
847.565	3211
847.701	3507
847.837	3043
847.972	2967
848.108	3135
848.244	3127
848.379	3005
848.515	2925
848.65	2906
848.786	2929
848.921	2994
849.057	3100
849.192	3150
849.328	3055
849.463	3074
849.598	3032
849.734	3024
849.869	2960
850.004	2895
850.14	2944
850.275	2910
850.41	2823
850.545	2876
850.68	2952
850.815	2952
850.95	2986
851.085	3176
851.22	3100
851.355	3017
851.49	2967
851.625	3005
851.76	3005
851.895	2910
852.03	2872
852.165	3028
852.299	3089
852.434	3169
852.569	3161
852.703	3176
852.838	3230
852.973	3325
853.107	3294
853.242	3146
853.376	3093
853.511	2986
853.645	3043
853.78	3218
853.914	3131
854.048	3077
854.183	3085
854.317	3119
854.451	3298
854.585	3138
854.72	3085
854.854	3150
854.988	3032
855.122	3070
855.256	2975
855.39	3097
855.524	3260
855.658	3184
855.792	3142
855.926	3184
856.06	3211
856.194	3264
856.327	3176
856.461	3066
856.595	3036
856.729	3081
856.862	3222
856.996	3142
857.13	3184
857.263	3169
857.397	3237
857.53	3100
857.664	3150
857.797	3214
857.931	3253
858.064	3119
858.197	3157
858.331	3097
858.464	3077
858.597	2990
858.731	3104
858.864	3108
858.997	3112
859.13	3150
859.263	3173
859.396	3222
859.529	3089
859.662	3062
859.795	3051
859.928	3138
860.061	3279
860.194	3294
860.327	3108
860.46	3058
860.592	3256
860.725	3260
860.858	3211
860.99	3142
861.123	3089
861.256	3020
861.388	3089
861.521	3964
861.653	3020
861.786	2948
861.918	2994
862.05	3043
862.183	3085
862.315	3119
862.447	3214
862.58	3081
862.712	2948
862.844	2857
862.976	3039
863.108	3017
863.24	3325
863.372	2868
863.504	2971
863.636	2937
863.768	2982
863.9	2986
864.032	2910
864.164	2944
864.296	2994
864.428	3077
864.559	3100
864.691	3081
864.823	3055
864.954	3039
865.086	3017
865.217	3013
865.349	2937
865.48	2956
865.612	3009
865.743	3157
865.875	2979
866.006	2906
866.137	2952
866.269	2944
866.4	2853
866.531	2914
866.662	2849
866.793	2895
866.924	2872
867.055	2956
867.186	2902
867.317	2868
867.448	2849
867.579	2834
867.71	2861
867.841	2823
867.972	2902
868.103	2887
868.233	2876
868.364	2849
868.495	2868
868.625	3100
868.756	3169
868.886	2956
869.017	3005
869.147	3100
869.278	3154
869.408	3039
869.539	2979
869.669	3100
869.799	3039
869.929	3131
870.06	3116
870.19	3321
870.32	3279
870.45	3287
870.58	3359
870.71	3424
870.84	3462
870.97	3279
871.1	3237
871.23	3435
871.36	3443
871.489	3332
871.619	3393
871.749	3393
871.879	3416
872.008	3473
872.138	3336
872.267	3279
872.397	3127
872.526	3089
872.656	2982
872.785	3085
872.915	3214
873.044	3302
873.173	3199
873.303	3256
873.432	3291
873.561	3253
873.69	3138
873.819	3112
873.948	3176
874.077	3119
874.206	3047
874.335	3066
874.464	3203
874.593	3355
874.722	3256
874.851	3389
874.979	3344
875.108	3317
875.237	3192
875.365	3157
875.494	3135
875.623	3253
875.751	3089
875.88	3097
876.008	3161
876.136	3214
876.265	3389
876.393	3492
876.521	3393
876.65	3367
876.778	3325
876.906	3272
877.034	3192
877.162	3211
877.29	3211
877.418	3241
877.546	3222
877.674	3214
877.802	3203
877.93	3207
878.058	3154
878.185	3085
878.313	3218
878.441	3249
878.568	3028
878.696	3138
878.824	3287
878.951	3283
879.079	3386
879.206	3633
879.333	3458
879.461	3298
879.588	3313
879.715	3462
879.842	3584
879.97	3409
880.097	3195
880.224	3119
880.351	3214
880.478	3184
880.605	3180
880.732	3180
880.859	3504
880.986	3317
881.112	3294
881.239	3180
881.366	3077
881.493	2994
881.619	3051
881.746	3070
881.872	3085
881.999	3104
882.125	3116
882.252	3230
882.378	3329
882.505	3424
882.631	3260
882.757	3165
882.883	3199
883.01	3226
883.136	3173
883.262	3074
883.388	3127
883.514	3283
883.64	3344
883.766	3294
883.892	3214
884.018	3233
884.143	3420
884.269	3515
884.395	3176
884.52	3192
884.646	3203
884.772	3135
884.897	3112
885.023	3211
885.148	3340
885.274	3412
885.399	3340
885.524	3275
885.65	3245
885.775	3344
885.9	3241
886.025	3370
886.15	3348
886.275	3291
886.4	3264
886.525	3291
886.65	3241
886.775	3275
886.9	3500
887.025	3656
887.149	3397
887.274	3268
887.399	3211
887.523	3184
887.648	3173
887.773	3173
887.897	3370
888.021	3401
888.146	3272
888.27	3420
888.395	3530
888.519	3447
888.643	3435
888.767	3439
888.891	3317
889.015	3222
889.139	3287
889.263	3256
889.387	3431
889.511	3504
889.635	3431
889.759	3275
889.883	3313
890.006	3355
890.13	3492
890.254	3253
890.377	3336
890.501	3207
890.624	3150
890.748	3298
890.871	3169
890.995	3081
891.118	3028
891.241	3157
891.364	3222
891.488	3294
891.611	3169
891.734	3218
891.857	3332
891.98	3241
892.103	3321
892.226	3260
892.349	3222
892.471	3089
892.594	3249
892.717	3272
892.839	3268
892.962	3306
893.085	3344
893.207	3272
893.33	3138
893.452	3176
893.575	3344
893.697	3199
893.819	3439
893.941	3507
894.064	3420
894.186	3260
894.308	3226
894.43	3466
894.552	3496
894.674	3439
894.796	3237
894.918	3310
895.04	3264
895.161	3412
895.283	3397
895.405	3264
895.526	3351
895.648	3397
895.769	3409
895.891	3409
896.012	3466
896.134	3435
896.255	3397
896.376	3370
896.498	3348
896.619	3401
896.74	3348
896.861	3401
896.982	3682
897.103	3816
897.224	3572
897.345	3462
897.466	3424
897.587	3485
897.708	3629
897.828	3511
897.949	3447
898.07	3294
898.19	3397
898.311	3587
898.431	3454
898.552	3488
898.672	3580
898.792	3591
898.913	3477
899.033	3359
899.153	3310
899.273	3211
899.393	3291
899.513	3302
899.633	3302
899.753	3336
899.873	3313
899.993	3367
900.113	3329
900.232	3363
900.352	3378
900.472	3260
900.591	3203
900.711	3306
900.83	3245
900.95	3450
901.069	3507
901.189	3378
901.308	3180
901.427	3169
901.546	3169
901.665	3298
901.784	3363
901.904	3230
902.023	3169
902.141	2998
902.26	3051
902.379	3161
902.498	3104
902.617	3100
902.735	3245
902.854	3264
902.973	3207
903.091	3070
903.21	3070
903.328	3176
903.446	3131
903.565	3116
903.683	3226
903.801	3150
903.919	3279
904.038	3306
904.156	3241
904.274	3332
904.392	3283
904.51	3359
904.627	3332
904.745	3447
904.863	3534
904.981	3313
905.098	3173
905.216	3287
905.334	3298
905.451	3374
905.569	3348
905.686	3473
905.803	3481
905.921	3363
906.038	3447
906.155	3386
906.272	3321
906.389	3367
906.506	3291
906.623	3291
906.74	3287
906.857	3188
906.974	3321
907.091	3447
907.208	3584
907.324	3526
907.441	3401
907.557	3294
907.674	3256
907.79	3222
907.907	3329
908.023	3424
908.139	3401
908.256	3382
908.372	3435
908.488	3336
908.604	3321
908.72	3264
908.836	3336
908.952	3325
909.068	3393
909.184	3549
909.3	3409
909.415	3526
909.531	3523
909.647	3317
909.762	3340
909.878	3310
909.993	3370
910.108	3378
910.224	3393
910.339	3439
910.454	3370
910.57	3325
910.685	3291
910.8	3614
910.915	3564
911.03	3458
911.145	3298
911.259	3313
911.374	3321
911.489	3253
911.604	3233
911.718	3154
911.833	3173
911.947	3066
912.062	3062
912.176	3218
912.291	3207
912.405	3180
912.519	3504
912.633	3538
912.748	3374
912.862	3298
912.976	3203
913.09	3051
913.204	3207
913.318	3230
913.431	3359
913.545	3363
913.659	3412
913.772	3351
913.886	3317
914	3222
914.113	3405
914.226	3439
914.34	3428
914.453	3245
914.566	3431
914.68	3351
914.793	3348
914.906	3150
915.019	3138
915.132	3116
915.245	3195
915.358	3253
915.47	3272
915.583	3279
915.696	3332
915.809	3428
915.921	3496
916.034	3351
916.146	3298
916.259	3283
916.371	3420
916.483	3389
916.595	3283
916.708	3329
916.82	3336
916.932	3359
917.044	3386
917.156	3393
917.268	3272
917.38	3302
917.491	3298
917.603	3359
917.715	3488
917.826	3507
917.938	3424
918.049	3294
918.161	3447
918.272	3622
918.384	3614
918.495	3488
918.606	3348
918.717	3260
918.828	3447
918.939	3424
919.05	3310
919.161	3420
919.272	3230
919.383	3310
919.494	3523
919.604	3698
919.715	3545
919.826	3428
919.936	3481
920.047	3652
920.157	3584
920.267	3808
920.378	3644
920.488	3557
920.598	3838
920.708	3918
920.818	3884
920.928	3865
921.038	4048
921.148	4021
921.258	3720
921.368	3701
921.477	3625
921.587	3584
921.697	3488
921.806	3648
921.916	3564
922.025	3378
922.134	3370
922.244	3317
922.353	3424
922.462	3298
922.571	3253
922.68	3142
922.789	3119
922.898	3180
923.007	3165
923.116	3230
923.224	3188
923.333	3188
923.442	3135
923.55	3097
923.659	3169
923.767	3272
923.876	3165
923.984	3241
924.092	3157
924.201	3214
924.309	3199
924.417	3302
924.525	3249
924.633	3268
924.741	4204
924.849	3116
924.956	3310
925.064	3154
925.172	3043
925.279	3119
925.387	3233
925.494	3230
925.602	3374
925.709	3389
925.816	3203
925.924	3306
926.031	3447
926.138	3359
926.245	3363
926.352	3260
926.459	3485
926.566	3515
926.673	3374
926.779	3336
926.886	3310
926.993	3146
927.099	3146
927.206	3146
927.312	3157
927.419	3287
927.525	3188
927.631	3310
927.737	3188
927.843	3184
927.95	3066
928.056	3165
928.162	3203
928.267	3287
928.373	3949
928.479	3329
928.585	3081
928.69	3203
928.796	3298
928.901	3169
929.007	3085
929.112	3207
929.218	3184
929.323	3161
929.428	3180
929.533	3317
929.638	3135
929.743	3184
929.848	3249
929.953	3241
930.058	3142
930.163	3032
930.267	3066
930.372	3249
930.477	3055
930.581	3382
930.685	3199
930.79	3108
930.894	3135
930.998	3108
931.103	3306
931.207	3013
931.311	2960
931.415	2956
931.519	2785
931.623	2830
