Data from test_V78500241_1125.txt Node
Date: Fri Mar 25 16:22:59 CST 2022
User: usil
Spectrometer: V785-0024
Trigger mode: 0
Integration Time (sec): 4.000000E-1
Scans to average: 1
Nonlinearity correction enabled: false
Boxcar width: 0
Storing dark spectrum: false
XAxis mode: Wavelengths
Number of Pixels in Spectrum: 1024
>>>>>Begin Spectral Data<<<<<
801.071	2944
801.214	2979
801.356	2902
801.499	2929
801.641	2914
801.783	2963
801.926	3119
802.068	3001
802.211	3017
802.353	3066
802.496	2971
802.638	2994
802.78	3062
802.923	3097
803.065	3001
803.208	2891
803.35	2887
803.492	2948
803.635	2929
803.777	2754
803.919	2868
804.061	3226
804.204	3001
804.346	2944
804.488	2834
804.63	2971
804.773	2902
804.915	2929
805.057	3089
805.199	2952
805.341	3013
805.483	3043
805.626	3032
805.768	2956
805.91	3085
806.052	3123
806.194	3055
806.336	3218
806.478	3036
806.62	2967
806.762	2979
806.904	3116
807.046	3146
807.188	2998
807.33	2918
807.472	3017
807.614	2906
807.756	3032
807.898	2925
808.04	2906
808.182	2979
808.324	2929
808.465	2880
808.607	2899
808.749	2823
808.891	2838
809.033	3001
809.174	2975
809.316	2876
809.458	2899
809.6	2785
809.741	2819
809.883	2769
810.025	2887
810.166	2876
810.308	2838
810.45	2849
810.591	2777
810.733	2777
810.875	2842
811.016	2766
811.158	2792
811.299	2849
811.441	2967
811.582	2899
811.724	2849
811.865	2845
812.007	2925
812.148	2872
812.29	2887
812.431	2895
812.573	2910
812.714	2990
812.855	3047
812.997	3047
813.138	3150
813.279	3009
813.421	3001
813.562	2975
813.703	2895
813.845	2868
813.986	2800
814.127	2781
814.268	2826
814.41	2853
814.551	2845
814.692	2906
814.833	2834
814.974	2895
815.115	2960
815.256	2849
815.397	2792
815.539	2880
815.68	2807
815.821	2807
815.962	2929
816.103	2918
816.244	2891
816.385	2876
816.526	2960
816.666	2910
816.807	2746
816.948	2902
817.089	2899
817.23	2887
817.371	2792
817.512	2811
817.653	2918
817.793	2815
817.934	2895
818.075	2975
818.216	3005
818.356	3081
818.497	2883
818.638	2781
818.778	2792
818.919	2830
819.06	2762
819.2	2922
819.341	2796
819.481	2823
819.622	2971
819.762	3112
819.903	3043
820.043	2937
820.184	2910
820.324	2895
820.465	3005
820.605	3036
820.746	3051
820.886	2963
821.026	3142
821.167	3184
821.307	3264
821.447	3348
821.588	3241
821.728	3226
821.868	3154
822.008	3066
822.149	3195
822.289	3230
822.429	3089
822.569	3093
822.709	3207
822.849	3051
822.99	3108
823.13	3173
823.27	3207
823.41	3138
823.55	3127
823.69	3142
823.83	3218
823.97	3089
824.11	2998
824.25	3001
824.389	3066
824.529	3154
824.669	3051
824.809	3161
824.949	3272
825.089	3222
825.228	3184
825.368	3017
825.508	2979
825.648	2956
825.787	3020
825.927	3032
826.067	3009
826.206	2933
826.346	3062
826.485	3043
826.625	3100
826.765	3287
826.904	3165
827.044	3009
827.183	2922
827.323	2899
827.462	2998
827.601	2902
827.741	2929
827.88	2960
828.02	2838
828.159	2952
828.298	3036
828.437	3100
828.577	3032
828.716	3241
828.855	3074
828.994	2899
829.134	2868
829.273	2944
829.412	2895
829.551	2857
829.69	2902
829.829	2960
829.968	3146
830.107	3047
830.246	3028
830.385	2948
830.524	2868
830.663	2834
830.802	2731
830.941	2686
831.08	2659
831.219	2773
831.357	2739
831.496	2963
831.635	2731
831.774	2648
831.913	2689
832.051	2587
832.19	2583
832.329	2697
832.467	2568
832.606	2484
832.744	2560
832.883	2598
833.022	2571
833.16	2670
833.299	2712
833.437	2686
833.576	2727
833.714	2724
833.852	2720
833.991	2766
834.129	2864
834.267	2815
834.406	2762
834.544	2845
834.682	2861
834.821	2895
834.959	3081
835.097	2918
835.235	3047
835.373	3017
835.511	3074
835.65	2986
835.788	2956
835.926	2842
836.064	2800
836.202	2823
836.34	3093
836.478	3138
836.615	3043
836.753	3097
836.891	3207
837.029	3150
837.167	3131
837.305	3077
837.443	3043
837.58	2982
837.718	3138
837.856	3089
837.993	3062
838.131	3131
838.269	3116
838.406	3123
838.544	3047
838.681	2925
838.819	2944
838.956	2815
839.094	2849
839.231	2906
839.369	3001
839.506	3359
839.643	3230
839.781	3017
839.918	2944
840.055	3047
840.193	3047
840.33	3047
840.467	3123
840.604	3131
840.742	3405
840.879	3039
841.016	3074
841.153	3097
841.29	3340
841.427	3272
841.564	3268
841.701	3310
841.838	3214
841.975	3188
842.112	3245
842.249	3074
842.385	3020
842.522	3256
842.659	3093
842.796	3043
842.933	3112
843.069	3062
843.206	3043
843.343	3150
843.479	3097
843.616	3150
843.752	2937
843.889	2826
844.025	3100
844.162	2914
844.298	3097
844.435	2944
844.571	2914
844.708	3089
844.844	3176
844.98	3249
845.117	3207
845.253	3097
845.389	3001
845.525	3112
845.661	3127
845.798	3036
845.934	3123
846.07	3070
846.206	3218
846.342	3332
846.478	3207
846.614	3100
846.75	3066
846.886	3032
847.022	3230
847.158	3142
847.294	3184
847.429	3283
847.565	3176
847.701	3458
847.837	3039
847.972	2994
848.108	3108
848.244	3138
848.379	2990
848.515	2956
848.65	2891
848.786	2944
848.921	3024
849.057	3097
849.192	3165
849.328	3077
849.463	3108
849.598	2998
849.734	3020
849.869	2971
850.004	2914
850.14	2960
850.275	2910
850.41	2857
850.545	2861
850.68	2944
850.815	2933
850.95	2967
851.085	3169
851.22	3116
851.355	3043
851.49	2963
851.625	2986
851.76	3020
851.895	2937
852.03	2902
852.165	3028
852.299	3108
852.434	3173
852.569	3131
852.703	3176
852.838	3275
852.973	3351
853.107	3351
853.242	3157
853.376	3081
853.511	2982
853.645	3009
853.78	3203
853.914	3108
854.048	3131
854.183	3058
854.317	3157
854.451	3283
854.585	3108
854.72	3081
854.854	3207
854.988	3062
855.122	3077
855.256	2967
855.39	3119
855.524	3241
855.658	3154
855.792	3146
855.926	3214
856.06	3237
856.194	3264
856.327	3104
856.461	3062
856.595	3097
856.729	3093
856.862	3222
856.996	3161
857.13	3173
857.263	3203
857.397	3245
857.53	3108
857.664	3199
857.797	3222
857.931	3260
858.064	3154
858.197	3184
858.331	3119
858.464	3112
858.597	3017
858.731	3097
858.864	3108
858.997	3093
859.13	3157
859.263	3169
859.396	3199
859.529	3085
859.662	3081
859.795	3074
859.928	3135
860.061	3287
860.194	3291
860.327	3138
860.46	3116
860.592	3245
860.725	3264
860.858	3230
860.99	3085
861.123	3047
861.256	3032
861.388	3176
861.521	3740
861.653	3039
861.786	3009
861.918	2975
862.05	3058
862.183	3093
862.315	3146
862.447	3192
862.58	3062
862.712	2979
862.844	2872
862.976	3020
863.108	2990
863.24	3370
863.372	2868
863.504	2963
863.636	2941
863.768	3020
863.9	2967
864.032	2895
864.164	2937
864.296	3013
864.428	3085
864.559	3119
864.691	3070
864.823	3051
864.954	3017
865.086	3001
865.217	2998
865.349	2941
865.48	2994
865.612	3032
865.743	3127
865.875	2967
866.006	2929
866.137	3005
866.269	2925
866.4	2960
866.531	2918
866.662	2925
866.793	2883
866.924	2887
867.055	2944
867.186	2891
867.317	2906
867.448	2823
867.579	2861
867.71	2872
867.841	2785
867.972	2891
868.103	2922
868.233	2853
868.364	2906
868.495	2906
868.625	3104
868.756	3180
868.886	2952
869.017	3005
869.147	3157
869.278	3165
869.408	3024
869.539	3039
869.669	3081
869.799	3024
869.929	3154
870.06	3093
870.19	3317
870.32	3275
870.45	3291
870.58	3344
870.71	3420
870.84	3382
870.97	3283
871.1	3233
871.23	3462
871.36	3420
871.489	3325
871.619	3389
871.749	3382
871.879	3420
872.008	3439
872.138	3336
872.267	3272
872.397	3131
872.526	3081
872.656	3001
872.785	3097
872.915	3180
873.044	3351
873.173	3222
873.303	3230
873.432	3222
873.561	3226
873.69	3169
873.819	3089
873.948	3169
874.077	3135
874.206	3024
874.335	3058
874.464	3184
874.593	3348
874.722	3237
874.851	3420
874.979	3367
875.108	3336
875.237	3195
875.365	3165
875.494	3161
875.623	3241
875.751	3066
875.88	3070
876.008	3188
876.136	3192
876.265	3336
876.393	3515
876.521	3439
876.65	3386
876.778	3253
876.906	3199
877.034	3184
877.162	3226
877.29	3173
877.418	3264
877.546	3264
877.674	3272
877.802	3207
877.93	3233
878.058	3146
878.185	3131
878.313	3180
878.441	3203
878.568	3055
878.696	3150
878.824	3233
878.951	3325
879.079	3443
879.206	3599
879.333	3431
879.461	3367
879.588	3370
879.715	3439
879.842	3580
879.97	3374
880.097	3161
880.224	3104
880.351	3184
880.478	3233
880.605	3195
880.732	3176
880.859	3530
880.986	3313
881.112	3363
881.239	3192
881.366	3074
881.493	3047
881.619	3028
881.746	3081
881.872	3138
881.999	3089
882.125	3146
882.252	3218
882.378	3291
882.505	3393
882.631	3279
882.757	3154
882.883	3184
883.01	3199
883.136	3154
883.262	3119
883.388	3138
883.514	3310
883.64	3386
883.766	3287
883.892	3142
884.018	3237
884.143	3405
884.269	3500
884.395	3207
884.52	3192
884.646	3165
884.772	3116
884.897	3108
885.023	3203
885.148	3351
885.274	3405
885.399	3389
885.524	3253
885.65	3241
885.775	3344
885.9	3253
886.025	3416
886.15	3386
886.275	3283
886.4	3222
886.525	3291
886.65	3218
886.775	3275
886.9	3534
887.025	3686
887.149	3359
887.274	3272
887.399	3169
887.523	3180
887.648	3218
887.773	3207
887.897	3355
888.021	3412
888.146	3283
888.27	3393
888.395	3542
888.519	3439
888.643	3420
888.767	3473
888.891	3317
889.015	3233
889.139	3294
889.263	3241
889.387	3393
889.511	3488
889.635	3443
889.759	3272
889.883	3272
890.006	3397
890.13	3496
890.254	3260
890.377	3325
890.501	3188
890.624	3157
890.748	3291
890.871	3180
890.995	3077
891.118	3085
891.241	3226
891.364	3188
891.488	3291
891.611	3188
891.734	3214
891.857	3268
891.98	3245
892.103	3336
892.226	3268
892.349	3180
892.471	3085
892.594	3245
892.717	3291
892.839	3264
892.962	3275
893.085	3367
893.207	3298
893.33	3161
893.452	3184
893.575	3344
893.697	3249
893.819	3454
893.941	3466
894.064	3481
894.186	3233
894.308	3272
894.43	3439
894.552	3526
894.674	3466
894.796	3279
894.918	3294
895.04	3302
895.161	3454
895.283	3367
895.405	3321
895.526	3355
895.648	3420
895.769	3420
895.891	3443
896.012	3458
896.134	3431
896.255	3405
896.376	3374
896.498	3367
896.619	3416
896.74	3351
896.861	3389
896.982	3698
897.103	3808
897.224	3545
897.345	3511
897.466	3458
897.587	3519
897.708	3603
897.828	3595
897.949	3416
898.07	3317
898.19	3431
898.311	3591
898.431	3462
898.552	3488
898.672	3564
898.792	3542
898.913	3549
899.033	3401
899.153	3264
899.273	3253
899.393	3264
899.513	3329
899.633	3298
899.753	3336
899.873	3298
899.993	3389
900.113	3291
900.232	3325
900.352	3340
900.472	3283
900.591	3207
900.711	3294
900.83	3253
900.95	3401
901.069	3485
901.189	3344
901.308	3180
901.427	3150
901.546	3226
901.665	3268
901.784	3321
901.904	3169
902.023	3135
902.141	3020
902.26	3028
902.379	3081
902.498	3074
902.617	3039
902.735	3253
902.854	3222
902.973	3154
903.091	2979
903.21	3074
903.328	3119
903.446	3119
903.565	3070
903.683	3203
903.801	3131
903.919	3249
904.038	3268
904.156	3184
904.274	3264
904.392	3260
904.51	3272
904.627	3340
904.745	3481
904.863	3496
904.981	3233
905.098	3180
905.216	3214
905.334	3325
905.451	3332
905.569	3298
905.686	3428
905.803	3389
905.921	3275
906.038	3458
906.155	3367
906.272	3321
906.389	3344
906.506	3249
906.623	3218
906.74	3279
906.857	3154
906.974	3237
907.091	3431
907.208	3538
907.324	3458
907.441	3363
907.557	3214
907.674	3226
907.79	3230
907.907	3321
908.023	3401
908.139	3374
908.256	3317
908.372	3363
908.488	3348
908.604	3230
908.72	3256
908.836	3283
908.952	3294
909.068	3294
909.184	3454
909.3	3355
909.415	3469
909.531	3439
909.647	3279
909.762	3306
909.878	3279
909.993	3340
910.108	3313
910.224	3370
910.339	3393
910.454	3313
910.57	3268
910.685	3233
910.8	3599
910.915	3523
911.03	3431
911.145	3222
911.259	3302
911.374	3306
911.489	3222
911.604	3211
911.718	3089
911.833	3142
911.947	3036
912.062	2982
912.176	3161
912.291	3195
912.405	3230
912.519	3412
912.633	3466
912.748	3363
912.862	3268
912.976	3180
913.09	3070
913.204	3116
913.318	3199
913.431	3317
913.545	3344
913.659	3325
913.772	3329
913.886	3214
914	3226
914.113	3355
914.226	3431
914.34	3355
914.453	3233
914.566	3431
914.68	3275
914.793	3321
914.906	3157
915.019	3123
915.132	3085
915.245	3188
915.358	3214
915.47	3203
915.583	3249
915.696	3260
915.809	3401
915.921	3386
916.034	3230
916.146	3260
916.259	3230
916.371	3359
916.483	3409
916.595	3287
916.708	3317
916.82	3374
916.932	3393
917.044	3351
917.156	3340
917.268	3241
917.38	3291
917.491	3298
917.603	3374
917.715	3428
917.826	3443
917.938	3424
918.049	3218
918.161	3447
918.272	3564
918.384	3564
918.495	3485
918.606	3325
918.717	3294
918.828	3363
918.939	3367
919.05	3291
919.161	3359
919.272	3180
919.383	3268
919.494	3450
919.604	3682
919.715	3496
919.826	3428
919.936	3428
920.047	3553
920.157	3553
920.267	3759
920.378	3591
920.488	3515
920.598	3755
920.708	3983
920.818	3793
920.928	3838
921.038	3994
921.148	4010
921.258	3690
921.368	3603
921.477	3561
921.587	3534
921.697	3466
921.806	3637
921.916	3530
922.025	3386
922.134	3386
922.244	3344
922.353	3378
922.462	3237
922.571	3226
922.68	3116
922.789	3066
922.898	3123
923.007	3116
923.116	3203
923.224	3135
923.333	3161
923.442	3100
923.55	3055
923.659	3142
923.767	3195
923.876	3138
923.984	3214
924.092	3047
924.201	3188
924.309	3253
924.417	3279
924.525	3150
924.633	3211
924.741	4029
924.849	3051
924.956	3279
925.064	3108
925.172	3047
925.279	3108
925.387	3161
925.494	3173
925.602	3325
925.709	3325
925.816	3173
925.924	3310
926.031	3370
926.138	3302
926.245	3378
926.352	3264
926.459	3424
926.566	3485
926.673	3291
926.779	3230
926.886	3241
926.993	3135
927.099	3154
927.206	3104
927.312	3112
927.419	3207
927.525	3237
927.631	3291
927.737	3146
927.843	3108
927.95	3024
928.056	3108
928.162	3180
928.267	3256
928.373	3827
928.479	3291
928.585	3036
928.69	3241
928.796	3253
928.901	3154
929.007	3081
929.112	3214
929.218	3161
929.323	3123
929.428	3161
929.533	3329
929.638	3119
929.743	3173
929.848	3249
929.953	3207
930.058	3119
930.163	3001
930.267	3055
930.372	3199
930.477	3047
930.581	3283
930.685	3135
930.79	3058
930.894	3131
930.998	3089
931.103	3241
931.207	2975
931.311	2937
931.415	2910
931.519	2796
931.623	2796
