Data from test_V78500241_100.txt Node
Date: Fri Mar 25 16:15:53 CST 2022
User: usil
Spectrometer: V785-0024
Trigger mode: 0
Integration Time (sec): 4.000000E-1
Scans to average: 1
Nonlinearity correction enabled: false
Boxcar width: 0
Storing dark spectrum: false
XAxis mode: Wavelengths
Number of Pixels in Spectrum: 1024
>>>>>Begin Spectral Data<<<<<
801.071	2918
801.214	2952
801.356	2845
801.499	2864
801.641	2891
801.783	2922
801.926	3001
802.068	2994
802.211	3055
802.353	3058
802.496	2986
802.638	3017
802.78	3066
802.923	3093
803.065	3017
803.208	2933
803.35	2910
803.492	2941
803.635	2941
803.777	2766
803.919	2849
804.061	3237
804.204	2941
804.346	2918
804.488	2872
804.63	3024
804.773	2880
804.915	2914
805.057	3119
805.199	2960
805.341	2986
805.483	3055
805.626	3020
805.768	2990
805.91	3085
806.052	3138
806.194	3017
806.336	3260
806.478	3024
806.62	2914
806.762	2975
806.904	3089
807.046	3173
807.188	2967
807.33	2918
807.472	2982
807.614	2937
807.756	2998
807.898	2971
808.04	2883
808.182	3024
808.324	2952
808.465	2891
808.607	2933
808.749	2811
808.891	2826
809.033	2994
809.174	2941
809.316	2910
809.458	2880
809.6	2788
809.741	2785
809.883	2781
810.025	2864
810.166	2857
810.308	2815
810.45	2883
810.591	2785
810.733	2750
810.875	2845
811.016	2762
811.158	2781
811.299	2777
811.441	2975
811.582	2902
811.724	2842
811.865	2853
812.007	2922
812.148	2868
812.29	2872
812.431	2906
812.573	2941
812.714	2986
812.855	3074
812.997	3100
813.138	3142
813.279	3032
813.421	3032
813.562	2979
813.703	2868
813.845	2895
813.986	2804
814.127	2716
814.268	2842
814.41	2883
814.551	2830
814.692	2914
814.833	2804
814.974	2883
815.115	2986
815.256	2880
815.397	2800
815.539	2887
815.68	2804
815.821	2804
815.962	2944
816.103	2933
816.244	2902
816.385	2861
816.526	2979
816.666	2944
816.807	2754
816.948	2899
817.089	2918
817.23	2864
817.371	2758
817.512	2823
817.653	2868
817.793	2830
817.934	2880
818.075	3009
818.216	2990
818.356	3017
818.497	2944
818.638	2777
818.778	2823
818.919	2823
819.06	2743
819.2	2872
819.341	2811
819.481	2811
819.622	2948
819.762	3108
819.903	3051
820.043	2902
820.184	2922
820.324	2922
820.465	3020
820.605	3051
820.746	3062
820.886	2937
821.026	3116
821.167	3146
821.307	3298
821.447	3340
821.588	3230
821.728	3226
821.868	3211
822.008	3093
822.149	3176
822.289	3237
822.429	3062
822.569	3085
822.709	3154
822.849	3039
822.99	3077
823.13	3161
823.27	3241
823.41	3116
823.55	3173
823.69	3116
823.83	3184
823.97	3123
824.11	3001
824.25	2998
824.389	3089
824.529	3089
824.669	3062
824.809	3192
824.949	3294
825.089	3233
825.228	3146
825.368	3013
825.508	2941
825.648	2952
825.787	3017
825.927	3039
826.067	3005
826.206	2979
826.346	3070
826.485	3051
826.625	3123
826.765	3302
826.904	3230
827.044	3036
827.183	2979
827.323	2895
827.462	2982
827.601	2925
827.741	2975
827.88	2960
828.02	2899
828.159	2990
828.298	3093
828.437	3157
828.577	3093
828.716	3283
828.855	3116
828.994	2941
829.134	2914
829.273	2941
829.412	2887
829.551	2925
829.69	2979
829.829	3020
829.968	3203
830.107	3047
830.246	3058
830.385	2979
830.524	2960
830.663	2899
830.802	2773
830.941	2712
831.08	2712
831.219	2811
831.357	2804
831.496	3001
831.635	2754
831.774	2697
831.913	2697
832.051	2629
832.19	2644
832.329	2705
832.467	2579
832.606	2530
832.744	2629
832.883	2674
833.022	2659
833.16	2716
833.299	2720
833.437	2781
833.576	2773
833.714	2758
833.852	2807
833.991	2838
834.129	2910
834.267	2902
834.406	2880
834.544	2967
834.682	2971
834.821	2952
834.959	3135
835.097	2975
835.235	3142
835.373	3074
835.511	3093
835.65	3058
835.788	3013
835.926	2929
836.064	2880
836.202	2880
836.34	3173
836.478	3188
836.615	3131
836.753	3207
836.891	3283
837.029	3222
837.167	3169
837.305	3150
837.443	3100
837.58	3013
837.718	3157
837.856	3157
837.993	3142
838.131	3154
838.269	3180
838.406	3165
838.544	3165
838.681	2990
838.819	2967
838.956	2880
839.094	2902
839.231	2994
839.369	3074
839.506	3412
839.643	3302
839.781	3097
839.918	3028
840.055	3104
840.193	3119
840.33	3131
840.467	3173
840.604	3192
840.742	3481
840.879	3104
841.016	3089
841.153	3150
841.29	3367
841.427	3336
841.564	3321
841.701	3382
841.838	3302
841.975	3214
842.112	3275
842.249	3165
842.385	3123
842.522	3313
842.659	3150
842.796	3108
842.933	3184
843.069	3127
843.206	3097
843.343	3264
843.479	3165
843.616	3195
843.752	2982
843.889	2925
844.025	3146
844.162	2937
844.298	3127
844.435	2979
844.571	2944
844.708	3116
844.844	3230
844.98	3264
845.117	3245
845.253	3070
845.389	3055
845.525	3161
845.661	3142
845.798	3100
845.934	3173
846.07	3142
846.206	3294
846.342	3363
846.478	3306
846.614	3116
846.75	3123
846.886	3062
847.022	3298
847.158	3207
847.294	3321
847.429	3298
847.565	3226
847.701	3538
847.837	3085
847.972	3062
848.108	3176
848.244	3207
848.379	3081
848.515	2975
848.65	3028
848.786	3043
848.921	3070
849.057	3176
849.192	3211
849.328	3100
849.463	3180
849.598	3093
849.734	3104
849.869	2986
850.004	2963
850.14	3013
850.275	2963
850.41	2872
850.545	2948
850.68	2990
850.815	2982
850.95	3024
851.085	3207
851.22	3123
851.355	3104
851.49	3028
851.625	3058
851.76	3062
851.895	3013
852.03	2937
852.165	3074
852.299	3135
852.434	3245
852.569	3150
852.703	3192
852.838	3313
852.973	3393
853.107	3389
853.242	3192
853.376	3142
853.511	3036
853.645	3100
853.78	3264
853.914	3180
854.048	3161
854.183	3135
854.317	3211
854.451	3340
854.585	3199
854.72	3142
854.854	3256
854.988	3081
855.122	3154
855.256	3043
855.39	3150
855.524	3298
855.658	3241
855.792	3195
855.926	3264
856.06	3287
856.194	3325
856.327	3211
856.461	3131
856.595	3142
856.729	3100
856.862	3321
856.996	3226
857.13	3268
857.263	3283
857.397	3329
857.53	3203
857.664	3226
857.797	3302
857.931	3275
858.064	3279
858.197	3306
858.331	3192
858.464	3138
858.597	3062
858.731	3138
858.864	3169
858.997	3180
859.13	3241
859.263	3214
859.396	3260
859.529	3150
859.662	3142
859.795	3097
859.928	3218
860.061	3329
860.194	3355
860.327	3222
860.46	3157
860.592	3302
860.725	3294
860.858	3332
860.99	3154
861.123	3104
861.256	3089
861.388	3180
861.521	3778
861.653	3047
861.786	3036
861.918	3043
862.05	3089
862.183	3127
862.315	3199
862.447	3207
862.58	3104
862.712	2952
862.844	2876
862.976	3085
863.108	3074
863.24	3462
863.372	2941
863.504	2986
863.636	3024
863.768	3051
863.9	3085
864.032	2910
864.164	3005
864.296	3081
864.428	3142
864.559	3135
864.691	3112
864.823	3089
864.954	3104
865.086	3085
865.217	3051
865.349	2963
865.48	2998
865.612	3070
865.743	3184
865.875	3039
866.006	2998
866.137	3020
866.269	3024
866.4	2982
866.531	2948
866.662	2956
866.793	2963
866.924	2948
867.055	3051
867.186	2933
867.317	2906
867.448	2887
867.579	2899
867.71	2883
867.841	2876
867.972	2960
868.103	2918
868.233	2922
868.364	2906
868.495	2956
868.625	3100
868.756	3180
868.886	2986
869.017	3093
869.147	3188
869.278	3203
869.408	3085
869.539	3051
869.669	3142
869.799	3123
869.929	3165
870.06	3142
870.19	3329
870.32	3370
870.45	3351
870.58	3382
870.71	3469
870.84	3481
870.97	3348
871.1	3317
871.23	3526
871.36	3519
871.489	3443
871.619	3443
871.749	3447
871.879	3507
872.008	3534
872.138	3401
872.267	3374
872.397	3207
872.526	3165
872.656	3058
872.785	3157
872.915	3336
873.044	3336
873.173	3294
873.303	3332
873.432	3275
873.561	3306
873.69	3184
873.819	3195
873.948	3230
874.077	3184
874.206	3093
874.335	3169
874.464	3298
874.593	3416
874.722	3302
874.851	3420
874.979	3382
875.108	3363
875.237	3226
875.365	3218
875.494	3260
875.623	3294
875.751	3119
875.88	3184
876.008	3264
876.136	3279
876.265	3405
876.393	3561
876.521	3462
876.65	3443
876.778	3374
876.906	3321
877.034	3218
877.162	3279
877.29	3230
877.418	3294
877.546	3298
877.674	3268
877.802	3298
877.93	3283
878.058	3169
878.185	3169
878.313	3226
878.441	3233
878.568	3100
878.696	3211
878.824	3306
878.951	3325
879.079	3500
879.206	3679
879.333	3469
879.461	3405
879.588	3405
879.715	3519
879.842	3675
879.97	3454
880.097	3180
880.224	3184
880.351	3253
880.478	3298
880.605	3214
880.732	3218
880.859	3530
880.986	3359
881.112	3378
881.239	3226
881.366	3157
881.493	3089
881.619	3047
881.746	3138
881.872	3116
881.999	3161
882.125	3211
882.252	3249
882.378	3359
882.505	3450
882.631	3325
882.757	3195
882.883	3291
883.01	3272
883.136	3199
883.262	3123
883.388	3138
883.514	3359
883.64	3454
883.766	3325
883.892	3195
884.018	3310
884.143	3443
884.269	3572
884.395	3233
884.52	3214
884.646	3233
884.772	3146
884.897	3116
885.023	3249
885.148	3374
885.274	3492
885.399	3397
885.524	3317
885.65	3298
885.775	3393
885.9	3370
886.025	3477
886.15	3409
886.275	3363
886.4	3279
886.525	3359
886.65	3291
886.775	3317
886.9	3534
887.025	3679
887.149	3454
887.274	3287
887.399	3226
887.523	3214
887.648	3233
887.773	3260
887.897	3412
888.021	3450
888.146	3359
888.27	3450
888.395	3553
888.519	3450
888.643	3458
888.767	3526
888.891	3359
889.015	3294
889.139	3329
889.263	3291
889.387	3458
889.511	3538
889.635	3473
889.759	3306
889.883	3351
890.006	3458
890.13	3534
890.254	3275
890.377	3401
890.501	3245
890.624	3203
890.748	3359
890.871	3256
890.995	3108
891.118	3081
891.241	3245
891.364	3283
891.488	3363
891.611	3230
891.734	3279
891.857	3306
891.98	3344
892.103	3340
892.226	3310
892.349	3279
892.471	3184
892.594	3310
892.717	3336
892.839	3325
892.962	3344
893.085	3409
893.207	3374
893.33	3173
893.452	3256
893.575	3420
893.697	3325
893.819	3519
893.941	3538
894.064	3462
894.186	3329
894.308	3256
894.43	3507
894.552	3557
894.674	3530
894.796	3340
894.918	3363
895.04	3302
895.161	3462
895.283	3424
895.405	3416
895.526	3443
895.648	3454
895.769	3481
895.891	3511
896.012	3542
896.134	3519
896.255	3523
896.376	3397
896.498	3386
896.619	3450
896.74	3382
896.861	3450
896.982	3732
897.103	3888
897.224	3625
897.345	3549
897.466	3485
897.587	3523
897.708	3679
897.828	3629
897.949	3466
898.07	3386
898.19	3416
898.311	3667
898.431	3519
898.552	3549
898.672	3644
898.792	3622
898.913	3538
899.033	3450
899.153	3310
899.273	3256
899.393	3332
899.513	3382
899.633	3340
899.753	3374
899.873	3348
899.993	3439
900.113	3370
900.232	3424
900.352	3370
900.472	3355
900.591	3275
900.711	3321
900.83	3298
900.95	3500
901.069	3534
901.189	3355
901.308	3180
901.427	3161
901.546	3226
901.665	3321
901.784	3386
901.904	3245
902.023	3192
902.141	3020
902.26	3001
902.379	3173
902.498	3108
902.617	3093
902.735	3203
902.854	3287
902.973	3233
903.091	3085
903.21	3116
903.328	3176
903.446	3184
903.565	3127
903.683	3253
903.801	3150
903.919	3317
904.038	3310
904.156	3207
904.274	3321
904.392	3283
904.51	3359
904.627	3370
904.745	3454
904.863	3526
904.981	3260
905.098	3253
905.216	3253
905.334	3359
905.451	3363
905.569	3386
905.686	3519
905.803	3530
905.921	3359
906.038	3481
906.155	3435
906.272	3351
906.389	3389
906.506	3306
906.623	3340
906.74	3367
906.857	3268
906.974	3340
907.091	3485
907.208	3633
907.324	3561
907.441	3485
907.557	3294
907.674	3294
907.79	3287
907.907	3370
908.023	3462
908.139	3462
908.256	3397
908.372	3443
908.488	3439
908.604	3321
908.72	3313
908.836	3363
908.952	3325
909.068	3412
909.184	3523
909.3	3466
909.415	3595
909.531	3561
909.647	3382
909.762	3351
909.878	3329
909.993	3420
910.108	3386
910.224	3412
910.339	3523
910.454	3401
910.57	3374
910.685	3302
910.8	3671
910.915	3610
911.03	3534
911.145	3336
911.259	3355
911.374	3420
911.489	3332
911.604	3313
911.718	3173
911.833	3214
911.947	3100
912.062	3077
912.176	3203
912.291	3268
912.405	3272
912.519	3530
912.633	3526
912.748	3405
912.862	3332
912.976	3230
913.09	3157
913.204	3203
913.318	3249
913.431	3393
913.545	3416
913.659	3466
913.772	3359
913.886	3279
914	3275
914.113	3431
914.226	3481
914.34	3435
914.453	3260
914.566	3481
914.68	3359
914.793	3378
914.906	3218
915.019	3165
915.132	3150
915.245	3245
915.358	3272
915.47	3256
915.583	3329
915.696	3351
915.809	3454
915.921	3511
916.034	3329
916.146	3332
916.259	3329
916.371	3424
916.483	3405
916.595	3344
916.708	3431
916.82	3424
916.932	3401
917.044	3435
917.156	3389
917.268	3325
917.38	3370
917.491	3355
917.603	3431
917.715	3534
917.826	3545
917.938	3481
918.049	3336
918.161	3515
918.272	3622
918.384	3625
918.495	3545
918.606	3401
918.717	3336
918.828	3443
918.939	3469
919.05	3359
919.161	3424
919.272	3249
919.383	3329
919.494	3534
919.604	3743
919.715	3606
919.826	3462
919.936	3530
920.047	3675
920.157	3587
920.267	3808
920.378	3694
920.488	3656
920.598	3846
920.708	3994
920.818	3899
920.928	3911
921.038	4086
921.148	4067
921.258	3747
921.368	3720
921.477	3637
921.587	3599
921.697	3519
921.806	3694
921.916	3606
922.025	3397
922.134	3420
922.244	3389
922.353	3492
922.462	3329
922.571	3279
922.68	3142
922.789	3150
922.898	3237
923.007	3169
923.116	3249
923.224	3226
923.333	3218
923.442	3161
923.55	3161
923.659	3207
923.767	3294
923.876	3146
923.984	3283
924.092	3165
924.201	3245
924.309	3268
924.417	3332
924.525	3256
924.633	3275
924.741	4249
924.849	3100
924.956	3348
925.064	3142
925.172	3112
925.279	3184
925.387	3275
925.494	3256
925.602	3424
925.709	3344
925.816	3230
925.924	3340
926.031	3481
926.138	3401
926.245	3420
926.352	3306
926.459	3485
926.566	3549
926.673	3378
926.779	3298
926.886	3317
926.993	3218
927.099	3176
927.206	3199
927.312	3176
927.419	3294
927.525	3268
927.631	3313
927.737	3199
927.843	3180
927.95	3104
928.056	3195
928.162	3260
928.267	3306
928.373	3827
928.479	3370
928.585	3108
928.69	3287
928.796	3332
928.901	3245
929.007	3131
929.112	3283
929.218	3218
929.323	3214
929.428	3249
929.533	3401
929.638	3169
929.743	3211
929.848	3325
929.953	3260
930.058	3207
930.163	3058
930.267	3154
930.372	3218
930.477	3112
930.581	3389
930.685	3283
930.79	3131
930.894	3173
930.998	3184
931.103	3336
931.207	3028
931.311	3005
931.415	2979
931.519	2819
931.623	2842
