Data from test_V78500241_1225.txt Node
Date: Fri Mar 25 16:23:41 CST 2022
User: usil
Spectrometer: V785-0024
Trigger mode: 0
Integration Time (sec): 4.000000E-1
Scans to average: 1
Nonlinearity correction enabled: false
Boxcar width: 0
Storing dark spectrum: false
XAxis mode: Wavelengths
Number of Pixels in Spectrum: 1024
>>>>>Begin Spectral Data<<<<<
801.071	2948
801.214	2956
801.356	2883
801.499	2906
801.641	2910
801.783	2944
801.926	3074
802.068	2971
802.211	3028
802.353	3089
802.496	2952
802.638	3039
802.78	3058
802.923	3085
803.065	2998
803.208	2956
803.35	2929
803.492	2986
803.635	2956
803.777	2746
803.919	2891
804.061	3203
804.204	2960
804.346	2902
804.488	2845
804.63	2971
804.773	2899
804.915	2914
805.057	3043
805.199	2960
805.341	2933
805.483	3039
805.626	3028
805.768	3001
805.91	3146
806.052	3100
806.194	3036
806.336	3218
806.478	3077
806.62	2963
806.762	3036
806.904	3100
807.046	3150
807.188	3043
807.33	2929
807.472	3017
807.614	2948
807.756	3005
807.898	2963
808.04	2914
808.182	2994
808.324	2944
808.465	2895
808.607	2918
808.749	2804
808.891	2853
809.033	2971
809.174	2990
809.316	2918
809.458	2906
809.6	2796
809.741	2758
809.883	2811
810.025	2876
810.166	2872
810.308	2895
810.45	2876
810.591	2807
810.733	2762
810.875	2861
811.016	2781
811.158	2804
811.299	2800
811.441	2929
811.582	2922
811.724	2842
811.865	2853
812.007	2914
812.148	2902
812.29	2876
812.431	2902
812.573	2960
812.714	2944
812.855	3097
812.997	3081
813.138	3123
813.279	3005
813.421	2975
813.562	3001
813.703	2891
813.845	2895
813.986	2785
814.127	2750
814.268	2868
814.41	2883
814.551	2796
814.692	2880
814.833	2826
814.974	2899
815.115	2944
815.256	2830
815.397	2811
815.539	2883
815.68	2766
815.821	2792
815.962	2952
816.103	2960
816.244	2864
816.385	2895
816.526	2975
816.666	2929
816.807	2762
816.948	2910
817.089	2918
817.23	2868
817.371	2830
817.512	2807
817.653	2849
817.793	2853
817.934	2857
818.075	2986
818.216	2971
818.356	3028
818.497	2906
818.638	2823
818.778	2842
818.919	2792
819.06	2735
819.2	2918
819.341	2857
819.481	2807
819.622	2971
819.762	3131
819.903	3047
820.043	2887
820.184	2899
820.324	2925
820.465	3001
820.605	3047
820.746	3074
820.886	2929
821.026	3108
821.167	3161
821.307	3302
821.447	3302
821.588	3287
821.728	3203
821.868	3203
822.008	3081
822.149	3199
822.289	3237
822.429	3123
822.569	3097
822.709	3241
822.849	3032
822.99	3081
823.13	3195
823.27	3192
823.41	3100
823.55	3188
823.69	3108
823.83	3230
823.97	3116
824.11	2998
824.25	2994
824.389	3062
824.529	3123
824.669	3074
824.809	3176
824.949	3245
825.089	3230
825.228	3142
825.368	3013
825.508	2963
825.648	2963
825.787	2994
825.927	3036
826.067	3001
826.206	2971
826.346	3070
826.485	3081
826.625	3104
826.765	3230
826.904	3214
827.044	3009
827.183	2998
827.323	2876
827.462	2990
827.601	2933
827.741	2971
827.88	2990
828.02	2857
828.159	2990
828.298	3051
828.437	3097
828.577	3100
828.716	3260
828.855	3077
828.994	2960
829.134	2853
829.273	2918
829.412	2914
829.551	2861
829.69	2918
829.829	3009
829.968	3116
830.107	3036
830.246	3051
830.385	2944
830.524	2876
830.663	2823
830.802	2746
830.941	2644
831.08	2651
831.219	2758
831.357	2777
831.496	2937
831.635	2739
831.774	2632
831.913	2674
832.051	2541
832.19	2598
832.329	2716
832.467	2545
832.606	2492
832.744	2575
832.883	2594
833.022	2594
833.16	2636
833.299	2663
833.437	2693
833.576	2693
833.714	2762
833.852	2693
833.991	2762
834.129	2830
834.267	2823
834.406	2792
834.544	2880
834.682	2899
834.821	2868
834.959	3055
835.097	2937
835.235	3051
835.373	3013
835.511	3001
835.65	2994
835.788	2948
835.926	2880
836.064	2792
836.202	2849
836.34	3104
836.478	3157
836.615	3066
836.753	3161
836.891	3207
837.029	3154
837.167	3119
837.305	3085
837.443	3051
837.58	2986
837.718	3161
837.856	3081
837.993	3017
838.131	3135
838.269	3097
838.406	3108
838.544	3135
838.681	2922
838.819	2899
838.956	2864
839.094	2853
839.231	2910
839.369	3013
839.506	3409
839.643	3226
839.781	3028
839.918	2979
840.055	3047
840.193	3017
840.33	3051
840.467	3108
840.604	3108
840.742	3420
840.879	3051
841.016	3055
841.153	3085
841.29	3321
841.427	3302
841.564	3256
841.701	3348
841.838	3237
841.975	3195
842.112	3256
842.249	3066
842.385	3036
842.522	3249
842.659	3089
842.796	3062
842.933	3108
843.069	3047
843.206	3074
843.343	3180
843.479	3066
843.616	3135
843.752	2891
843.889	2857
844.025	3089
844.162	2929
844.298	3081
844.435	2982
844.571	2933
844.708	3062
844.844	3230
844.98	3237
845.117	3195
845.253	3028
845.389	3013
845.525	3108
845.661	3097
845.798	2998
845.934	3119
846.07	3024
846.206	3207
846.342	3306
846.478	3241
846.614	3116
846.75	3085
846.886	3005
847.022	3230
847.158	3142
847.294	3207
847.429	3214
847.565	3237
847.701	3500
847.837	3051
847.972	3032
848.108	3169
848.244	3157
848.379	3001
848.515	2937
848.65	2906
848.786	2944
848.921	3009
849.057	3112
849.192	3154
849.328	3055
849.463	3135
849.598	3081
849.734	3036
849.869	2986
850.004	2899
850.14	2994
850.275	2952
850.41	2838
850.545	2887
850.68	2929
850.815	2990
850.95	2971
851.085	3211
851.22	3138
851.355	3039
851.49	2960
851.625	3001
851.76	3055
851.895	2948
852.03	2941
852.165	3066
852.299	3119
852.434	3218
852.569	3161
852.703	3222
852.838	3272
852.973	3363
853.107	3344
853.242	3176
853.376	3146
853.511	3017
853.645	3074
853.78	3275
853.914	3131
854.048	3127
854.183	3123
854.317	3180
854.451	3332
854.585	3161
854.72	3123
854.854	3253
854.988	3085
855.122	3112
855.256	3001
855.39	3161
855.524	3302
855.658	3222
855.792	3211
855.926	3241
856.06	3272
856.194	3298
856.327	3180
856.461	3142
856.595	3100
856.729	3123
856.862	3291
856.996	3211
857.13	3237
857.263	3287
857.397	3332
857.53	3161
857.664	3214
857.797	3275
857.931	3283
858.064	3180
858.197	3279
858.331	3173
858.464	3116
858.597	3051
858.731	3131
858.864	3165
858.997	3089
859.13	3222
859.263	3233
859.396	3256
859.529	3119
859.662	3100
859.795	3097
859.928	3180
860.061	3321
860.194	3351
860.327	3184
860.46	3119
860.592	3268
860.725	3272
860.858	3253
860.99	3116
861.123	3104
861.256	3085
861.388	3199
861.521	3740
861.653	3051
861.786	3017
861.918	3043
862.05	3097
862.183	3142
862.315	3146
862.447	3222
862.58	3131
862.712	2994
862.844	2891
862.976	3043
863.108	3039
863.24	3454
863.372	2906
863.504	2994
863.636	2998
863.768	3032
863.9	2994
864.032	2937
864.164	2975
864.296	3074
864.428	3104
864.559	3112
864.691	3077
864.823	3119
864.954	3051
865.086	3085
865.217	2998
865.349	2963
865.48	3020
865.612	3093
865.743	3169
865.875	2971
866.006	2982
866.137	3028
866.269	2982
866.4	2990
866.531	2956
866.662	2918
866.793	2933
866.924	2922
867.055	2960
867.186	2998
867.317	2899
867.448	2872
867.579	2872
867.71	2883
867.841	2830
867.972	2902
868.103	2922
868.233	2895
868.364	2906
868.495	2956
868.625	3108
868.756	3218
868.886	3005
869.017	3055
869.147	3207
869.278	3195
869.408	3108
869.539	3055
869.669	3150
869.799	3051
869.929	3184
870.06	3093
870.19	3355
870.32	3321
870.45	3283
870.58	3405
870.71	3485
870.84	3473
870.97	3329
871.1	3283
871.23	3507
871.36	3469
871.489	3393
871.619	3401
871.749	3435
871.879	3447
872.008	3500
872.138	3401
872.267	3302
872.397	3184
872.526	3123
872.656	3032
872.785	3154
872.915	3325
873.044	3344
873.173	3226
873.303	3302
873.432	3268
873.561	3272
873.69	3203
873.819	3150
873.948	3218
874.077	3135
874.206	3085
874.335	3112
874.464	3222
874.593	3386
874.722	3317
874.851	3409
874.979	3393
875.108	3351
875.237	3279
875.365	3184
875.494	3211
875.623	3298
875.751	3116
875.88	3131
876.008	3218
876.136	3241
876.265	3416
876.393	3500
876.521	3466
876.65	3412
876.778	3374
876.906	3272
877.034	3249
877.162	3279
877.29	3192
877.418	3298
877.546	3272
877.674	3253
877.802	3260
877.93	3241
878.058	3188
878.185	3112
878.313	3226
878.441	3260
878.568	3089
878.696	3150
878.824	3298
878.951	3370
879.079	3462
879.206	3656
879.333	3477
879.461	3355
879.588	3367
879.715	3477
879.842	3603
879.97	3367
880.097	3211
880.224	3154
880.351	3203
880.478	3230
880.605	3241
880.732	3241
880.859	3511
880.986	3363
881.112	3344
881.239	3199
881.366	3138
881.493	3066
881.619	3024
881.746	3112
881.872	3119
881.999	3104
882.125	3184
882.252	3283
882.378	3313
882.505	3439
882.631	3302
882.757	3157
882.883	3222
883.01	3233
883.136	3199
883.262	3100
883.388	3138
883.514	3370
883.64	3428
883.766	3287
883.892	3176
884.018	3287
884.143	3428
884.269	3576
884.395	3272
884.52	3207
884.646	3199
884.772	3192
884.897	3138
885.023	3241
885.148	3332
885.274	3473
885.399	3420
885.524	3279
885.65	3313
885.775	3348
885.9	3340
886.025	3462
886.15	3401
886.275	3340
886.4	3237
886.525	3325
886.65	3306
886.775	3310
886.9	3542
887.025	3660
887.149	3416
887.274	3260
887.399	3180
887.523	3260
887.648	3214
887.773	3226
887.897	3378
888.021	3424
888.146	3310
888.27	3485
888.395	3549
888.519	3450
888.643	3485
888.767	3469
888.891	3313
889.015	3237
889.139	3359
889.263	3275
889.387	3443
889.511	3519
889.635	3481
889.759	3332
889.883	3332
890.006	3378
890.13	3481
890.254	3275
890.377	3340
890.501	3214
890.624	3211
890.748	3291
890.871	3180
890.995	3089
891.118	3097
891.241	3207
891.364	3245
891.488	3367
891.611	3184
891.734	3253
891.857	3321
891.98	3218
892.103	3325
892.226	3306
892.349	3233
892.471	3146
892.594	3298
892.717	3272
892.839	3279
892.962	3336
893.085	3351
893.207	3321
893.33	3161
893.452	3272
893.575	3344
893.697	3253
893.819	3466
893.941	3549
894.064	3462
894.186	3272
894.308	3249
894.43	3420
894.552	3519
894.674	3488
894.796	3287
894.918	3317
895.04	3291
895.161	3443
895.283	3424
895.405	3294
895.526	3401
895.648	3439
895.769	3443
895.891	3473
896.012	3492
896.134	3462
896.255	3409
896.376	3405
896.498	3401
896.619	3435
896.74	3389
896.861	3443
896.982	3713
897.103	3857
897.224	3595
897.345	3568
897.466	3416
897.587	3519
897.708	3625
897.828	3523
897.949	3492
898.07	3329
898.19	3431
898.311	3656
898.431	3526
898.552	3542
898.672	3606
898.792	3580
898.913	3561
899.033	3409
899.153	3306
899.273	3275
899.393	3287
899.513	3348
899.633	3302
899.753	3329
899.873	3302
899.993	3363
900.113	3374
900.232	3374
900.352	3351
900.472	3283
900.591	3237
900.711	3283
900.83	3256
900.95	3454
901.069	3515
901.189	3378
901.308	3146
901.427	3157
901.546	3214
901.665	3321
901.784	3351
901.904	3222
902.023	3123
902.141	3032
902.26	3032
902.379	3146
902.498	3097
902.617	3066
902.735	3233
902.854	3230
902.973	3264
903.091	3055
903.21	3074
903.328	3180
903.446	3150
903.565	3089
903.683	3176
903.801	3195
903.919	3279
904.038	3306
904.156	3188
904.274	3302
904.392	3211
904.51	3298
904.627	3351
904.745	3473
904.863	3469
904.981	3279
905.098	3192
905.216	3268
905.334	3310
905.451	3321
905.569	3329
905.686	3450
905.803	3481
905.921	3291
906.038	3443
906.155	3378
906.272	3287
906.389	3359
906.506	3253
906.623	3283
906.74	3256
906.857	3180
906.974	3233
907.091	3485
907.208	3644
907.324	3447
907.441	3393
907.557	3241
907.674	3268
907.79	3268
907.907	3291
908.023	3367
908.139	3382
908.256	3355
908.372	3355
908.488	3409
908.604	3260
908.72	3268
908.836	3302
908.952	3272
909.068	3344
909.184	3458
909.3	3386
909.415	3561
909.531	3492
909.647	3283
909.762	3317
909.878	3275
909.993	3359
910.108	3344
910.224	3355
910.339	3386
910.454	3306
910.57	3306
910.685	3253
910.8	3587
910.915	3576
911.03	3454
911.145	3268
911.259	3272
911.374	3336
911.489	3241
911.604	3233
911.718	3138
911.833	3203
911.947	3062
912.062	3013
912.176	3195
912.291	3207
912.405	3233
912.519	3439
912.633	3481
912.748	3317
912.862	3283
912.976	3199
913.09	3081
913.204	3161
913.318	3253
913.431	3344
913.545	3329
913.659	3389
913.772	3310
913.886	3245
914	3207
914.113	3340
914.226	3424
914.34	3367
914.453	3268
914.566	3378
914.68	3340
914.793	3355
914.906	3135
915.019	3116
915.132	3051
915.245	3169
915.358	3264
915.47	3245
915.583	3298
915.696	3294
915.809	3435
915.921	3481
916.034	3268
916.146	3249
916.259	3237
916.371	3447
916.483	3355
916.595	3298
916.708	3336
916.82	3344
916.932	3367
917.044	3325
917.156	3370
917.268	3294
917.38	3283
917.491	3298
917.603	3409
917.715	3462
917.826	3481
917.938	3367
918.049	3283
918.161	3450
918.272	3584
918.384	3572
918.495	3504
918.606	3317
918.717	3287
918.828	3386
918.939	3397
919.05	3329
919.161	3397
919.272	3169
919.383	3321
919.494	3515
919.604	3682
919.715	3469
919.826	3431
919.936	3454
920.047	3618
920.157	3526
920.267	3774
920.378	3618
920.488	3599
920.598	3766
920.708	3960
920.818	3827
920.928	3884
921.038	4040
921.148	3987
921.258	3717
921.368	3637
921.477	3568
921.587	3587
921.697	3428
921.806	3652
921.916	3542
922.025	3340
922.134	3397
922.244	3370
922.353	3409
922.462	3275
922.571	3256
922.68	3142
922.789	3074
922.898	3127
923.007	3142
923.116	3211
923.224	3184
923.333	3199
923.442	3112
923.55	3112
923.659	3112
923.767	3241
923.876	3112
923.984	3245
924.092	3131
924.201	3211
924.309	3218
924.417	3283
924.525	3195
924.633	3253
924.741	4048
924.849	3077
924.956	3279
925.064	3085
925.172	3066
925.279	3127
925.387	3230
925.494	3184
925.602	3321
925.709	3306
925.816	3233
925.924	3283
926.031	3389
926.138	3306
926.245	3348
926.352	3272
926.459	3401
926.566	3500
926.673	3348
926.779	3294
926.886	3253
926.993	3123
927.099	3146
927.206	3180
927.312	3100
927.419	3233
927.525	3195
927.631	3275
927.737	3161
927.843	3146
927.95	3043
928.056	3180
928.162	3188
928.267	3260
928.373	3846
928.479	3313
928.585	3066
928.69	3222
928.796	3260
928.901	3180
929.007	3081
929.112	3211
929.218	3199
929.323	3169
929.428	3127
929.533	3310
929.638	3089
929.743	3169
929.848	3268
929.953	3218
930.058	3154
930.163	3005
930.267	3036
930.372	3195
930.477	3104
930.581	3291
930.685	3188
930.79	3058
930.894	3131
930.998	3104
931.103	3310
931.207	2994
931.311	2948
931.415	2937
931.519	2762
931.623	2788
