Data from test_V78500241_337.txt Node
Date: Fri Mar 25 16:17:32 CST 2022
User: usil
Spectrometer: V785-0024
Trigger mode: 0
Integration Time (sec): 4.000000E-1
Scans to average: 1
Nonlinearity correction enabled: false
Boxcar width: 0
Storing dark spectrum: false
XAxis mode: Wavelengths
Number of Pixels in Spectrum: 1024
>>>>>Begin Spectral Data<<<<<
801.071	3005
801.214	2967
801.356	2906
801.499	2948
801.641	2948
801.783	2956
801.926	3077
802.068	3051
802.211	3051
802.353	3055
802.496	3001
802.638	3043
802.78	3062
802.923	3104
803.065	3036
803.208	2944
803.35	2990
803.492	2979
803.635	2963
803.777	2788
803.919	2941
804.061	3222
804.204	2994
804.346	2971
804.488	2868
804.63	3028
804.773	2948
804.915	2960
805.057	3161
805.199	3032
805.341	3005
805.483	3100
805.626	3058
805.768	2994
805.91	3112
806.052	3169
806.194	3081
806.336	3279
806.478	3055
806.62	2971
806.762	3036
806.904	3077
807.046	3199
807.188	3020
807.33	2967
807.472	3036
807.614	2925
807.756	3005
807.898	2960
808.04	2910
808.182	3005
808.324	2982
808.465	2899
808.607	2922
808.749	2826
808.891	2891
809.033	2994
809.174	2994
809.316	2918
809.458	2902
809.6	2781
809.741	2785
809.883	2804
810.025	2880
810.166	2902
810.308	2849
810.45	2876
810.591	2830
810.733	2811
810.875	2876
811.016	2811
811.158	2796
811.299	2845
811.441	2944
811.582	2948
811.724	2887
811.865	2887
812.007	2960
812.148	2902
812.29	2895
812.431	2956
812.573	2986
812.714	2975
812.855	3066
812.997	3085
813.138	3188
813.279	3047
813.421	3013
813.562	3017
813.703	2914
813.845	2902
813.986	2823
814.127	2746
814.268	2864
814.41	2845
814.551	2838
814.692	2895
814.833	2830
814.974	2887
815.115	2971
815.256	2883
815.397	2830
815.539	2868
815.68	2819
815.821	2823
815.962	2960
816.103	2998
816.244	2937
816.385	2925
816.526	2994
816.666	2982
816.807	2804
816.948	2956
817.089	2918
817.23	2914
817.371	2811
817.512	2804
817.653	2861
817.793	2864
817.934	2922
818.075	3028
818.216	3028
818.356	3028
818.497	2914
818.638	2826
818.778	2861
818.919	2838
819.06	2781
819.2	2960
819.341	2823
819.481	2830
819.622	2975
819.762	3116
819.903	3081
820.043	2948
820.184	2941
820.324	2929
820.465	3077
820.605	3020
820.746	3070
820.886	2944
821.026	3108
821.167	3211
821.307	3279
821.447	3313
821.588	3291
821.728	3241
821.868	3214
822.008	3150
822.149	3214
822.289	3260
822.429	3093
822.569	3127
822.709	3199
822.849	3093
822.99	3104
823.13	3180
823.27	3249
823.41	3142
823.55	3150
823.69	3195
823.83	3203
823.97	3150
824.11	3066
824.25	3070
824.389	3074
824.529	3154
824.669	3112
824.809	3233
824.949	3279
825.089	3230
825.228	3173
825.368	3047
825.508	2975
825.648	3013
825.787	3032
825.927	3032
826.067	2998
826.206	3001
826.346	3097
826.485	3119
826.625	3127
826.765	3302
826.904	3245
827.044	3020
827.183	2979
827.323	2883
827.462	3028
827.601	2941
827.741	2979
827.88	2975
828.02	2876
828.159	2986
828.298	3074
828.437	3154
828.577	3074
828.716	3241
828.855	3119
828.994	2963
829.134	2883
829.273	2956
829.412	2872
829.551	2880
829.69	2929
829.829	3036
829.968	3154
830.107	3077
830.246	3032
830.385	2937
830.524	2922
830.663	2864
830.802	2743
830.941	2686
831.08	2663
831.219	2769
831.357	2807
831.496	2990
831.635	2735
831.774	2674
831.913	2674
832.051	2560
832.19	2598
832.329	2705
832.467	2571
832.606	2503
832.744	2587
832.883	2644
833.022	2625
833.16	2663
833.299	2720
833.437	2705
833.576	2731
833.714	2716
833.852	2773
833.991	2807
834.129	2842
834.267	2864
834.406	2785
834.544	2895
834.682	2914
834.821	2883
834.959	3100
835.097	2933
835.235	3074
835.373	2998
835.511	3058
835.65	2971
835.788	2990
835.926	2868
836.064	2826
836.202	2861
836.34	3131
836.478	3173
836.615	3058
836.753	3150
836.891	3218
837.029	3176
837.167	3131
837.305	3085
837.443	3093
837.58	2971
837.718	3154
837.856	3112
837.993	3024
838.131	3123
838.269	3108
838.406	3127
838.544	3116
838.681	2937
838.819	2967
838.956	2845
839.094	2853
839.231	2937
839.369	3058
839.506	3378
839.643	3241
839.781	3005
839.918	2937
840.055	3070
840.193	3100
840.33	3077
840.467	3097
840.604	3154
840.742	3454
840.879	3077
841.016	3085
841.153	3161
841.29	3363
841.427	3336
841.564	3283
841.701	3336
841.838	3237
841.975	3146
842.112	3245
842.249	3093
842.385	3077
842.522	3317
842.659	3119
842.796	3055
842.933	3131
843.069	3066
843.206	3047
843.343	3146
843.479	3119
843.616	3142
843.752	2895
843.889	2902
844.025	3119
844.162	2899
844.298	3108
844.435	2971
844.571	2941
844.708	3085
844.844	3218
844.98	3237
845.117	3195
845.253	3058
845.389	3009
845.525	3097
845.661	3123
845.798	3066
845.934	3119
846.07	3055
846.206	3256
846.342	3306
846.478	3306
846.614	3131
846.75	3047
846.886	3017
847.022	3298
847.158	3154
847.294	3207
847.429	3211
847.565	3226
847.701	3504
847.837	3039
847.972	2998
848.108	3199
848.244	3161
848.379	3013
848.515	2941
848.65	2960
848.786	2986
848.921	3009
849.057	3131
849.192	3184
849.328	3085
849.463	3108
849.598	3058
849.734	3062
849.869	3001
850.004	2971
850.14	2979
850.275	2952
850.41	2842
850.545	2883
850.68	2963
850.815	2986
850.95	2960
851.085	3253
851.22	3176
851.355	3020
851.49	3013
851.625	3005
851.76	3047
851.895	2963
852.03	2952
852.165	3058
852.299	3138
852.434	3195
852.569	3203
852.703	3116
852.838	3237
852.973	3329
853.107	3329
853.242	3161
853.376	3089
853.511	2971
853.645	3043
853.78	3245
853.914	3165
854.048	3131
854.183	3089
854.317	3142
854.451	3310
854.585	3154
854.72	3112
854.854	3203
854.988	3074
855.122	3108
855.256	3005
855.39	3154
855.524	3264
855.658	3268
855.792	3211
855.926	3188
856.06	3279
856.194	3279
856.327	3199
856.461	3077
856.595	3085
856.729	3077
856.862	3256
856.996	3180
857.13	3184
857.263	3256
857.397	3279
857.53	3138
857.664	3211
857.797	3188
857.931	3260
858.064	3161
858.197	3249
858.331	3131
858.464	3123
858.597	3001
858.731	3131
858.864	3184
858.997	3123
859.13	3184
859.263	3195
859.396	3195
859.529	3104
859.662	3097
859.795	3093
859.928	3127
860.061	3283
860.194	3298
860.327	3165
860.46	3119
860.592	3275
860.725	3275
860.858	3237
860.99	3123
861.123	3055
861.256	3036
861.388	3165
861.521	3774
861.653	2994
861.786	3001
861.918	2998
862.05	3070
862.183	3108
862.315	3157
862.447	3226
862.58	3119
862.712	2967
862.844	2891
862.976	3047
863.108	3020
863.24	3317
863.372	2910
863.504	2986
863.636	2941
863.768	3020
863.9	2979
864.032	2941
864.164	2944
864.296	3058
864.428	3146
864.559	3112
864.691	3066
864.823	3070
864.954	3043
865.086	3028
865.217	2998
865.349	2975
865.48	2990
865.612	3028
865.743	3173
865.875	2998
866.006	2956
866.137	3028
866.269	2975
866.4	2929
866.531	2918
866.662	2902
866.793	2891
866.924	2922
867.055	2982
867.186	2956
867.317	2868
867.448	2857
867.579	2838
867.71	2868
867.841	2819
867.972	2891
868.103	2895
868.233	2922
868.364	2872
868.495	2933
868.625	3077
868.756	3188
868.886	2982
869.017	3032
869.147	3203
869.278	3169
869.408	3058
869.539	3005
869.669	3119
869.799	3017
869.929	3154
870.06	3116
870.19	3298
870.32	3348
870.45	3344
870.58	3374
870.71	3447
870.84	3462
870.97	3302
871.1	3245
871.23	3519
871.36	3473
871.489	3344
871.619	3412
871.749	3431
871.879	3420
872.008	3530
872.138	3344
872.267	3310
872.397	3154
872.526	3093
872.656	3047
872.785	3119
872.915	3230
873.044	3344
873.173	3211
873.303	3260
873.432	3233
873.561	3207
873.69	3169
873.819	3157
873.948	3241
874.077	3116
874.206	3039
874.335	3108
874.464	3207
874.593	3382
874.722	3233
874.851	3386
874.979	3355
875.108	3291
875.237	3218
875.365	3146
875.494	3184
875.623	3272
875.751	3097
875.88	3097
876.008	3184
876.136	3214
876.265	3393
876.393	3557
876.521	3447
876.65	3405
876.778	3321
876.906	3279
877.034	3218
877.162	3233
877.29	3154
877.418	3245
877.546	3245
877.674	3294
877.802	3253
877.93	3241
878.058	3169
878.185	3081
878.313	3180
878.441	3256
878.568	3055
878.696	3169
878.824	3211
878.951	3279
879.079	3454
879.206	3641
879.333	3447
879.461	3348
879.588	3340
879.715	3469
879.842	3610
879.97	3351
880.097	3154
880.224	3154
880.351	3218
880.478	3218
880.605	3169
880.732	3188
880.859	3462
880.986	3298
881.112	3329
881.239	3222
881.366	3100
881.493	3020
881.619	2998
881.746	3058
881.872	3085
881.999	3085
882.125	3131
882.252	3253
882.378	3310
882.505	3435
882.631	3237
882.757	3188
882.883	3241
883.01	3214
883.136	3184
883.262	3093
883.388	3089
883.514	3321
883.64	3359
883.766	3287
883.892	3218
884.018	3260
884.143	3428
884.269	3538
884.395	3218
884.52	3199
884.646	3173
884.772	3135
884.897	3104
885.023	3214
885.148	3355
885.274	3393
885.399	3367
885.524	3317
885.65	3237
885.775	3329
885.9	3283
886.025	3435
886.15	3355
886.275	3298
886.4	3256
886.525	3294
886.65	3287
886.775	3260
886.9	3507
887.025	3641
887.149	3389
887.274	3272
887.399	3192
887.523	3268
887.648	3207
887.773	3245
887.897	3348
888.021	3401
888.146	3310
888.27	3481
888.395	3530
888.519	3439
888.643	3481
888.767	3481
888.891	3321
889.015	3222
889.139	3275
889.263	3260
889.387	3420
889.511	3530
889.635	3450
889.759	3313
889.883	3275
890.006	3382
890.13	3534
890.254	3275
890.377	3313
890.501	3165
890.624	3203
890.748	3340
890.871	3176
890.995	3150
891.118	3058
891.241	3211
891.364	3230
891.488	3325
891.611	3169
891.734	3218
891.857	3287
891.98	3203
892.103	3340
892.226	3291
892.349	3199
892.471	3142
892.594	3253
892.717	3332
892.839	3256
892.962	3268
893.085	3348
893.207	3294
893.33	3157
893.452	3253
893.575	3336
893.697	3226
893.819	3481
893.941	3504
894.064	3469
894.186	3302
894.308	3291
894.43	3428
894.552	3530
894.674	3511
894.796	3256
894.918	3294
895.04	3272
895.161	3409
895.283	3401
895.405	3310
895.526	3336
895.648	3416
895.769	3420
895.891	3469
896.012	3450
896.134	3500
896.255	3416
896.376	3405
896.498	3367
896.619	3401
896.74	3367
896.861	3409
896.982	3656
897.103	3808
897.224	3603
897.345	3504
897.466	3458
897.587	3466
897.708	3622
897.828	3549
897.949	3428
898.07	3344
898.19	3405
898.311	3591
898.431	3428
898.552	3515
898.672	3587
898.792	3584
898.913	3515
899.033	3435
899.153	3298
899.273	3222
899.393	3275
899.513	3317
899.633	3310
899.753	3367
899.873	3332
899.993	3386
900.113	3378
900.232	3424
900.352	3329
900.472	3245
900.591	3184
900.711	3287
900.83	3253
900.95	3431
901.069	3458
901.189	3310
901.308	3203
901.427	3146
901.546	3192
901.665	3260
901.784	3329
901.904	3211
902.023	3169
902.141	3009
902.26	3024
902.379	3119
902.498	3085
902.617	3028
902.735	3169
902.854	3230
902.973	3211
903.091	3043
903.21	3074
903.328	3138
903.446	3150
903.565	3112
903.683	3211
903.801	3127
903.919	3222
904.038	3283
904.156	3176
904.274	3279
904.392	3287
904.51	3275
904.627	3367
904.745	3424
904.863	3466
904.981	3287
905.098	3138
905.216	3275
905.334	3268
905.451	3264
905.569	3313
905.686	3450
905.803	3454
905.921	3291
906.038	3454
906.155	3348
906.272	3260
906.389	3374
906.506	3233
906.623	3264
906.74	3291
906.857	3211
906.974	3275
907.091	3439
907.208	3534
907.324	3507
907.441	3401
907.557	3245
907.674	3241
907.79	3245
907.907	3268
908.023	3397
908.139	3355
908.256	3313
908.372	3363
908.488	3348
908.604	3272
908.72	3203
908.836	3294
908.952	3256
909.068	3348
909.184	3492
909.3	3405
909.415	3530
909.531	3458
909.647	3268
909.762	3294
909.878	3283
909.993	3374
910.108	3336
910.224	3386
910.339	3401
910.454	3351
910.57	3317
910.685	3245
910.8	3599
910.915	3526
911.03	3447
911.145	3272
911.259	3264
911.374	3298
911.489	3264
911.604	3256
911.718	3150
911.833	3161
911.947	3039
912.062	3001
912.176	3180
912.291	3192
912.405	3184
912.519	3401
912.633	3477
912.748	3359
912.862	3302
912.976	3154
913.09	3020
913.204	3142
913.318	3211
913.431	3363
913.545	3321
913.659	3382
913.772	3325
913.886	3218
914	3230
914.113	3382
914.226	3416
914.34	3374
914.453	3211
914.566	3431
914.68	3283
914.793	3321
914.906	3146
915.019	3112
915.132	3066
915.245	3154
915.358	3188
915.47	3195
915.583	3287
915.696	3298
915.809	3386
915.921	3389
916.034	3211
916.146	3260
916.259	3207
916.371	3378
916.483	3378
916.595	3256
916.708	3370
916.82	3317
916.932	3302
917.044	3359
917.156	3367
917.268	3256
917.38	3272
917.491	3302
917.603	3382
917.715	3481
917.826	3439
917.938	3401
918.049	3272
918.161	3416
918.272	3564
918.384	3614
918.495	3500
918.606	3321
918.717	3272
918.828	3401
918.939	3393
919.05	3310
919.161	3355
919.272	3184
919.383	3253
919.494	3496
919.604	3675
919.715	3504
919.826	3424
919.936	3462
920.047	3580
920.157	3538
920.267	3804
920.378	3622
920.488	3549
920.598	3789
920.708	3945
920.818	3831
920.928	3808
921.038	4010
921.148	3998
921.258	3705
921.368	3660
921.477	3568
921.587	3564
921.697	3435
921.806	3606
921.916	3515
922.025	3336
922.134	3351
922.244	3329
922.353	3416
922.462	3287
922.571	3222
922.68	3085
922.789	3055
922.898	3119
923.007	3077
923.116	3214
923.224	3199
923.333	3241
923.442	3089
923.55	3081
923.659	3112
923.767	3211
923.876	3127
923.984	3253
924.092	3123
924.201	3207
924.309	3192
924.417	3249
924.525	3211
924.633	3214
924.741	4200
924.849	3013
924.956	3317
925.064	3097
925.172	3039
925.279	3070
925.387	3188
925.494	3233
925.602	3378
925.709	3332
925.816	3195
925.924	3260
926.031	3409
926.138	3336
926.245	3370
926.352	3268
926.459	3424
926.566	3481
926.673	3332
926.779	3256
926.886	3230
926.993	3146
927.099	3142
927.206	3112
927.312	3119
927.419	3222
927.525	3161
927.631	3268
927.737	3161
927.843	3142
927.95	3028
928.056	3173
928.162	3154
928.267	3245
928.373	3880
928.479	3302
928.585	3077
928.69	3218
928.796	3279
928.901	3180
929.007	3047
929.112	3165
929.218	3230
929.323	3138
929.428	3131
929.533	3325
929.638	3119
929.743	3192
929.848	3264
929.953	3192
930.058	3104
930.163	3001
930.267	3070
930.372	3203
930.477	3047
930.581	3317
930.685	3184
930.79	3074
930.894	3093
930.998	3077
931.103	3287
931.207	3032
931.311	2956
931.415	2887
931.519	2769
931.623	2773
