Data from test_V78500241_417.txt Node
Date: Fri Mar 25 16:18:05 CST 2022
User: usil
Spectrometer: V785-0024
Trigger mode: 0
Integration Time (sec): 4.000000E-1
Scans to average: 1
Nonlinearity correction enabled: false
Boxcar width: 0
Storing dark spectrum: false
XAxis mode: Wavelengths
Number of Pixels in Spectrum: 1024
>>>>>Begin Spectral Data<<<<<
801.071	2956
801.214	2948
801.356	2929
801.499	2899
801.641	2929
801.783	2967
801.926	3058
802.068	2998
802.211	3020
802.353	3051
802.496	2963
802.638	3024
802.78	3077
802.923	3100
803.065	2986
803.208	2944
803.35	2979
803.492	2967
803.635	3001
803.777	2826
803.919	2929
804.061	3230
804.204	2986
804.346	2933
804.488	2864
804.63	3020
804.773	2906
804.915	2933
805.057	3097
805.199	2941
805.341	3005
805.483	3047
805.626	3039
805.768	2967
805.91	3089
806.052	3131
806.194	3058
806.336	3283
806.478	3051
806.62	2963
806.762	3039
806.904	3077
807.046	3184
807.188	2998
807.33	2933
807.472	2986
807.614	2956
807.756	3005
807.898	2933
808.04	2895
808.182	2986
808.324	2979
808.465	2902
808.607	2899
808.749	2811
808.891	2883
809.033	3024
809.174	3001
809.316	2864
809.458	2883
809.6	2807
809.741	2830
809.883	2830
810.025	2872
810.166	2895
810.308	2823
810.45	2887
810.591	2811
810.733	2777
810.875	2834
811.016	2811
811.158	2762
811.299	2819
811.441	2941
811.582	2918
811.724	2842
811.865	2876
812.007	2922
812.148	2937
812.29	2902
812.431	2887
812.573	2979
812.714	3020
812.855	3055
812.997	3081
813.138	3157
813.279	3039
813.421	2963
813.562	2982
813.703	2891
813.845	2891
813.986	2773
814.127	2781
814.268	2853
814.41	2864
814.551	2826
814.692	2876
814.833	2842
814.974	2902
815.115	2982
815.256	2834
815.397	2819
815.539	2887
815.68	2777
815.821	2815
815.962	2956
816.103	2944
816.244	2922
816.385	2902
816.526	2971
816.666	2906
816.807	2781
816.948	2925
817.089	2933
817.23	2849
817.371	2807
817.512	2800
817.653	2845
817.793	2807
817.934	2906
818.075	3001
818.216	3005
818.356	3062
818.497	2883
818.638	2819
818.778	2823
818.919	2819
819.06	2766
819.2	2895
819.341	2845
819.481	2796
819.622	2971
819.762	3100
819.903	3112
820.043	2960
820.184	2918
820.324	2891
820.465	3047
820.605	3055
820.746	3077
820.886	2948
821.026	3104
821.167	3169
821.307	3241
821.447	3294
821.588	3222
821.728	3222
821.868	3214
822.008	3070
822.149	3173
822.289	3233
822.429	3085
822.569	3104
822.709	3195
822.849	3055
822.99	3097
823.13	3192
823.27	3241
823.41	3119
823.55	3116
823.69	3180
823.83	3211
823.97	3081
824.11	3009
824.25	3013
824.389	3081
824.529	3142
824.669	3097
824.809	3195
824.949	3272
825.089	3222
825.228	3173
825.368	3020
825.508	2967
825.648	3028
825.787	3043
825.927	3066
826.067	2979
826.206	3013
826.346	3070
826.485	3119
826.625	3135
826.765	3264
826.904	3203
827.044	3001
827.183	2944
827.323	2872
827.462	3009
827.601	2925
827.741	2967
827.88	2887
828.02	2857
828.159	3013
828.298	3051
828.437	3062
828.577	3066
828.716	3264
828.855	3127
828.994	2925
829.134	2887
829.273	2937
829.412	2902
829.551	2887
829.69	2918
829.829	2990
829.968	3169
830.107	3020
830.246	3074
830.385	2933
830.524	2914
830.663	2819
830.802	2762
830.941	2629
831.08	2632
831.219	2781
831.357	2769
831.496	2963
831.635	2739
831.774	2693
831.913	2632
832.051	2594
832.19	2613
832.329	2689
832.467	2549
832.606	2533
832.744	2590
832.883	2575
833.022	2602
833.16	2667
833.299	2735
833.437	2689
833.576	2701
833.714	2708
833.852	2754
833.991	2785
834.129	2845
834.267	2830
834.406	2792
834.544	2891
834.682	2887
834.821	2880
834.959	3089
835.097	2899
835.235	3051
835.373	2994
835.511	3039
835.65	2971
835.788	2963
835.926	2842
836.064	2807
836.202	2864
836.34	3154
836.478	3154
836.615	3032
836.753	3108
836.891	3192
837.029	3214
837.167	3116
837.305	3074
837.443	3093
837.58	2967
837.718	3184
837.856	3089
837.993	3055
838.131	3119
838.269	3116
838.406	3100
838.544	3097
838.681	2956
838.819	2925
838.956	2815
839.094	2842
839.231	2910
839.369	2994
839.506	3389
839.643	3211
839.781	2986
839.918	2971
840.055	3093
840.193	3093
840.33	3066
840.467	3116
840.604	3184
840.742	3405
840.879	3062
841.016	3058
841.153	3142
841.29	3348
841.427	3306
841.564	3253
841.701	3332
841.838	3241
841.975	3180
842.112	3218
842.249	3108
842.385	3051
842.522	3245
842.659	3097
842.796	3058
842.933	3081
843.069	3043
843.206	3074
843.343	3176
843.479	3116
843.616	3138
843.752	2914
843.889	2864
844.025	3047
844.162	2887
844.298	3100
844.435	2952
844.571	2948
844.708	3058
844.844	3188
844.98	3222
845.117	3195
845.253	3066
845.389	3005
845.525	3085
845.661	3119
845.798	3017
845.934	3116
846.07	3062
846.206	3222
846.342	3325
846.478	3211
846.614	3077
846.75	3070
846.886	3028
847.022	3249
847.158	3154
847.294	3188
847.429	3245
847.565	3237
847.701	3500
847.837	3047
847.972	3032
848.108	3218
848.244	3154
848.379	2937
848.515	2960
848.65	2941
848.786	2960
848.921	3043
849.057	3112
849.192	3150
849.328	3100
849.463	3135
849.598	3077
849.734	3013
849.869	2994
850.004	2918
850.14	2982
850.275	2906
850.41	2880
850.545	2880
850.68	2929
850.815	2994
850.95	2971
851.085	3264
851.22	3123
851.355	3066
851.49	2941
851.625	2990
851.76	2979
851.895	2979
852.03	2876
852.165	3013
852.299	3097
852.434	3154
852.569	3142
852.703	3180
852.838	3233
852.973	3351
853.107	3310
853.242	3157
853.376	3112
853.511	2998
853.645	3043
853.78	3214
853.914	3131
854.048	3123
854.183	3066
854.317	3157
854.451	3325
854.585	3085
854.72	3100
854.854	3188
854.988	3043
855.122	3116
855.256	2963
855.39	3119
855.524	3226
855.658	3195
855.792	3154
855.926	3150
856.06	3233
856.194	3283
856.327	3146
856.461	3097
856.595	3108
856.729	3108
856.862	3222
856.996	3188
857.13	3184
857.263	3237
857.397	3260
857.53	3116
857.664	3222
857.797	3230
857.931	3230
858.064	3180
858.197	3230
858.331	3127
858.464	3097
858.597	3001
858.731	3142
858.864	3135
858.997	3100
859.13	3165
859.263	3169
859.396	3207
859.529	3104
859.662	3074
859.795	3074
859.928	3154
860.061	3294
860.194	3253
860.327	3123
860.46	3089
860.592	3241
860.725	3260
860.858	3264
860.99	3119
861.123	3058
861.256	3005
861.388	3176
861.521	4002
861.653	3009
861.786	2979
861.918	2937
862.05	3055
862.183	3104
862.315	3131
862.447	3203
862.58	3123
862.712	2971
862.844	2876
862.976	3009
863.108	3009
863.24	3424
863.372	2861
863.504	2952
863.636	2933
863.768	2998
863.9	2986
864.032	2914
864.164	2925
864.296	3020
864.428	3062
864.559	3097
864.691	3062
864.823	3017
864.954	3024
865.086	3024
865.217	3001
865.349	2979
865.48	2994
865.612	3001
865.743	3157
865.875	2971
866.006	2925
866.137	2990
866.269	2922
866.4	2922
866.531	2937
866.662	2880
866.793	2883
866.924	2929
867.055	2982
867.186	2906
867.317	2876
867.448	2811
867.579	2849
867.71	2853
867.841	2842
867.972	2914
868.103	2883
868.233	2861
868.364	2872
868.495	2880
868.625	3074
868.756	3192
868.886	2998
869.017	3013
869.147	3142
869.278	3127
869.408	3020
869.539	3020
869.669	3081
869.799	3047
869.929	3108
870.06	3104
870.19	3329
870.32	3279
870.45	3256
870.58	3355
870.71	3450
870.84	3401
870.97	3279
871.1	3230
871.23	3431
871.36	3466
871.489	3332
871.619	3401
871.749	3401
871.879	3443
872.008	3450
872.138	3370
872.267	3256
872.397	3138
872.526	3093
872.656	3020
872.785	3112
872.915	3233
873.044	3317
873.173	3237
873.303	3211
873.432	3218
873.561	3268
873.69	3150
873.819	3184
873.948	3211
874.077	3112
874.206	3058
874.335	3055
874.464	3207
874.593	3340
874.722	3256
874.851	3393
874.979	3370
875.108	3321
875.237	3211
875.365	3142
875.494	3180
875.623	3214
875.751	3074
875.88	3104
876.008	3218
876.136	3218
876.265	3340
876.393	3523
876.521	3405
876.65	3363
876.778	3351
876.906	3237
877.034	3207
877.162	3237
877.29	3180
877.418	3264
877.546	3214
877.674	3249
877.802	3272
877.93	3214
878.058	3146
878.185	3104
878.313	3199
878.441	3207
878.568	3081
878.696	3135
878.824	3260
878.951	3268
879.079	3439
879.206	3641
879.333	3443
879.461	3340
879.588	3355
879.715	3473
879.842	3614
879.97	3386
880.097	3119
880.224	3123
880.351	3214
880.478	3180
880.605	3199
880.732	3165
880.859	3511
880.986	3313
881.112	3329
881.239	3199
881.366	3074
881.493	3062
881.619	3036
881.746	3077
881.872	3093
881.999	3100
882.125	3142
882.252	3268
882.378	3226
882.505	3412
882.631	3256
882.757	3146
882.883	3195
883.01	3226
883.136	3203
883.262	3077
883.388	3123
883.514	3317
883.64	3355
883.766	3279
883.892	3176
884.018	3237
884.143	3431
884.269	3561
884.395	3207
884.52	3146
884.646	3165
884.772	3104
884.897	3108
885.023	3192
885.148	3336
885.274	3355
885.399	3363
885.524	3256
885.65	3283
885.775	3344
885.9	3306
886.025	3431
886.15	3336
886.275	3272
886.4	3245
886.525	3298
886.65	3253
886.775	3272
886.9	3500
887.025	3606
887.149	3416
887.274	3195
887.399	3184
887.523	3195
887.648	3146
887.773	3161
887.897	3386
888.021	3405
888.146	3294
888.27	3435
888.395	3545
888.519	3424
888.643	3405
888.767	3439
888.891	3294
889.015	3226
889.139	3287
889.263	3241
889.387	3378
889.511	3557
889.635	3420
889.759	3249
889.883	3317
890.006	3359
890.13	3481
890.254	3283
890.377	3298
890.501	3207
890.624	3157
890.748	3279
890.871	3192
890.995	3123
891.118	3077
891.241	3233
891.364	3195
891.488	3310
891.611	3123
891.734	3222
891.857	3294
891.98	3313
892.103	3359
892.226	3256
892.349	3241
892.471	3138
892.594	3199
892.717	3275
892.839	3275
892.962	3317
893.085	3344
893.207	3275
893.33	3150
893.452	3230
893.575	3348
893.697	3264
893.819	3469
893.941	3519
894.064	3439
894.186	3245
894.308	3233
894.43	3454
894.552	3504
894.674	3496
894.796	3268
894.918	3256
895.04	3253
895.161	3424
895.283	3389
895.405	3310
895.526	3374
895.648	3412
895.769	3424
895.891	3481
896.012	3485
896.134	3424
896.255	3435
896.376	3382
896.498	3359
896.619	3435
896.74	3393
896.861	3393
896.982	3705
897.103	3823
897.224	3599
897.345	3473
897.466	3435
897.587	3507
897.708	3633
897.828	3534
897.949	3412
898.07	3313
898.19	3389
898.311	3587
898.431	3439
898.552	3473
898.672	3580
898.792	3561
898.913	3466
899.033	3450
899.153	3344
899.273	3260
899.393	3291
899.513	3355
899.633	3279
899.753	3351
899.873	3329
899.993	3370
900.113	3325
900.232	3393
900.352	3325
900.472	3249
900.591	3188
900.711	3272
900.83	3264
900.95	3409
901.069	3488
901.189	3409
901.308	3180
901.427	3123
901.546	3184
901.665	3291
901.784	3313
901.904	3176
902.023	3127
902.141	2990
902.26	2971
902.379	3119
902.498	3093
902.617	3062
902.735	3222
902.854	3283
902.973	3173
903.091	3047
903.21	3093
903.328	3146
903.446	3112
903.565	3116
903.683	3207
903.801	3131
903.919	3230
904.038	3275
904.156	3180
904.274	3275
904.392	3260
904.51	3287
904.627	3355
904.745	3431
904.863	3511
904.981	3237
905.098	3161
905.216	3245
905.334	3283
905.451	3336
905.569	3313
905.686	3401
905.803	3450
905.921	3321
906.038	3412
906.155	3359
906.272	3306
906.389	3317
906.506	3222
906.623	3260
906.74	3294
906.857	3169
906.974	3241
907.091	3458
907.208	3564
907.324	3534
907.441	3389
907.557	3211
907.674	3245
907.79	3230
907.907	3275
908.023	3382
908.139	3397
908.256	3306
908.372	3382
908.488	3336
908.604	3275
908.72	3195
908.836	3298
908.952	3291
909.068	3348
909.184	3542
909.3	3393
909.415	3504
909.531	3481
909.647	3272
909.762	3279
909.878	3241
909.993	3344
910.108	3332
910.224	3321
910.339	3378
910.454	3283
910.57	3279
910.685	3253
910.8	3584
910.915	3534
911.03	3397
911.145	3264
911.259	3253
911.374	3325
911.489	3230
911.604	3253
911.718	3070
911.833	3127
911.947	3024
912.062	2967
912.176	3138
912.291	3245
912.405	3207
912.519	3424
912.633	3447
912.748	3340
912.862	3249
912.976	3188
913.09	3036
913.204	3116
913.318	3218
913.431	3378
913.545	3306
913.659	3416
913.772	3344
913.886	3214
914	3218
914.113	3370
914.226	3420
914.34	3370
914.453	3199
914.566	3416
914.68	3291
914.793	3332
914.906	3138
915.019	3127
915.132	3062
915.245	3176
915.358	3180
915.47	3256
915.583	3272
915.696	3313
915.809	3405
915.921	3431
916.034	3241
916.146	3241
916.259	3222
916.371	3367
916.483	3329
916.595	3291
916.708	3317
916.82	3355
916.932	3336
917.044	3348
917.156	3291
917.268	3199
917.38	3329
917.491	3287
917.603	3370
917.715	3428
917.826	3428
917.938	3359
918.049	3256
918.161	3443
918.272	3557
918.384	3564
918.495	3477
918.606	3363
918.717	3310
918.828	3389
918.939	3382
919.05	3325
919.161	3340
919.272	3180
919.383	3283
919.494	3507
919.604	3679
919.715	3492
919.826	3378
919.936	3462
920.047	3587
920.157	3549
920.267	3717
920.378	3599
920.488	3584
920.598	3766
920.708	3941
920.818	3823
920.928	3838
921.038	4051
921.148	3979
921.258	3686
921.368	3629
921.477	3580
921.587	3545
921.697	3458
921.806	3603
921.916	3511
922.025	3348
922.134	3344
922.244	3310
922.353	3405
922.462	3283
922.571	3237
922.68	3089
922.789	3024
922.898	3154
923.007	3081
923.116	3165
923.224	3169
923.333	3192
923.442	3104
923.55	3062
923.659	3116
923.767	3222
923.876	3085
923.984	3233
924.092	3085
924.201	3169
924.309	3218
924.417	3233
924.525	3104
924.633	3218
924.741	4177
924.849	3074
924.956	3287
925.064	3097
925.172	3036
925.279	3093
925.387	3180
925.494	3207
925.602	3336
925.709	3344
925.816	3173
925.924	3287
926.031	3355
926.138	3310
926.245	3321
926.352	3249
926.459	3409
926.566	3458
926.673	3348
926.779	3253
926.886	3253
926.993	3135
927.099	3142
927.206	3127
927.312	3077
927.419	3233
927.525	3199
927.631	3222
927.737	3150
927.843	3089
927.95	3032
928.056	3157
928.162	3165
928.267	3294
928.373	3873
928.479	3340
928.585	3058
928.69	3241
928.796	3260
928.901	3138
929.007	3039
929.112	3188
929.218	3146
929.323	3169
929.428	3123
929.533	3325
929.638	3116
929.743	3146
929.848	3233
929.953	3199
930.058	3154
930.163	2971
930.267	3074
930.372	3180
930.477	3047
930.581	3302
930.685	3184
930.79	3085
930.894	3100
930.998	3058
931.103	3268
931.207	2952
931.311	2952
931.415	2914
931.519	2773
931.623	2792
