Data from test_V78500241_1576.txt Node
Date: Fri Mar 25 16:26:07 CST 2022
User: usil
Spectrometer: V785-0024
Trigger mode: 0
Integration Time (sec): 4.000000E-1
Scans to average: 1
Nonlinearity correction enabled: false
Boxcar width: 0
Storing dark spectrum: false
XAxis mode: Wavelengths
Number of Pixels in Spectrum: 1024
>>>>>Begin Spectral Data<<<<<
801.071	2960
801.214	2944
801.356	2880
801.499	2899
801.641	2842
801.783	2975
801.926	3070
802.068	2960
802.211	3036
802.353	3055
802.496	3017
802.638	2994
802.78	3051
802.923	3112
803.065	3028
803.208	2910
803.35	2929
803.492	2967
803.635	2975
803.777	2781
803.919	2883
804.061	3207
804.204	2956
804.346	2922
804.488	2861
804.63	2979
804.773	2906
804.915	2925
805.057	3074
805.199	2914
805.341	2998
805.483	3066
805.626	3001
805.768	2963
805.91	3085
806.052	3123
806.194	3017
806.336	3260
806.478	3062
806.62	2971
806.762	3039
806.904	3039
807.046	3188
807.188	2982
807.33	2910
807.472	3013
807.614	2887
807.756	2994
807.898	2963
808.04	2929
808.182	2982
808.324	2986
808.465	2868
808.607	2906
808.749	2815
808.891	2864
809.033	2967
809.174	2960
809.316	2914
809.458	2918
809.6	2754
809.741	2777
809.883	2819
810.025	2842
810.166	2857
810.308	2861
810.45	2826
810.591	2788
810.733	2746
810.875	2861
811.016	2792
811.158	2754
811.299	2823
811.441	2925
811.582	2891
811.724	2868
811.865	2842
812.007	2899
812.148	2868
812.29	2876
812.431	2944
812.573	2944
812.714	3017
812.855	3051
812.997	3032
813.138	3150
813.279	3024
813.421	2971
813.562	2982
813.703	2876
813.845	2887
813.986	2796
814.127	2773
814.268	2826
814.41	2811
814.551	2815
814.692	2895
814.833	2826
814.974	2895
815.115	2948
815.256	2830
815.397	2823
815.539	2868
815.68	2773
815.821	2807
815.962	2944
816.103	2872
816.244	2922
816.385	2883
816.526	2929
816.666	2918
816.807	2766
816.948	2895
817.089	2914
817.23	2872
817.371	2788
817.512	2788
817.653	2868
817.793	2785
817.934	2876
818.075	2971
818.216	3009
818.356	3001
818.497	2887
818.638	2807
818.778	2849
818.919	2811
819.06	2796
819.2	2891
819.341	2864
819.481	2834
819.622	2941
819.762	3093
819.903	3047
820.043	2918
820.184	2922
820.324	2929
820.465	3028
820.605	3013
820.746	3036
820.886	2948
821.026	3100
821.167	3154
821.307	3287
821.447	3272
821.588	3260
821.728	3176
821.868	3192
822.008	3100
822.149	3188
822.289	3203
822.429	3123
822.569	3085
822.709	3157
822.849	2998
822.99	3104
823.13	3165
823.27	3233
823.41	3108
823.55	3165
823.69	3150
823.83	3203
823.97	3131
824.11	3001
824.25	2998
824.389	3055
824.529	3146
824.669	3032
824.809	3249
824.949	3329
825.089	3241
825.228	3161
825.368	2971
825.508	2963
825.648	2982
825.787	3001
825.927	2994
826.067	2963
826.206	2948
826.346	3009
826.485	3062
826.625	3127
826.765	3298
826.904	3237
827.044	3009
827.183	2933
827.323	2861
827.462	2990
827.601	2933
827.741	2918
827.88	2952
828.02	2883
828.159	2963
828.298	3028
828.437	3097
828.577	3036
828.716	3233
828.855	3081
828.994	2925
829.134	2868
829.273	2929
829.412	2853
829.551	2876
829.69	2887
829.829	2979
829.968	3112
830.107	3013
830.246	3032
830.385	2948
830.524	2902
830.663	2826
830.802	2712
830.941	2678
831.08	2640
831.219	2769
831.357	2777
831.496	2979
831.635	2708
831.774	2655
831.913	2648
832.051	2590
832.19	2575
832.329	2716
832.467	2549
832.606	2484
832.744	2610
832.883	2590
833.022	2579
833.16	2655
833.299	2720
833.437	2720
833.576	2674
833.714	2701
833.852	2720
833.991	2750
834.129	2826
834.267	2796
834.406	2819
834.544	2895
834.682	2899
834.821	2891
834.959	3051
835.097	2899
835.235	3055
835.373	3036
835.511	2994
835.65	2998
835.788	2956
835.926	2815
836.064	2826
836.202	2838
836.34	3085
836.478	3131
836.615	3074
836.753	3112
836.891	3222
837.029	3154
837.167	3089
837.305	3074
837.443	3032
837.58	2956
837.718	3146
837.856	3043
837.993	3051
838.131	3097
838.269	3112
838.406	3119
838.544	3112
838.681	2925
838.819	2948
838.956	2819
839.094	2800
839.231	2902
839.369	3017
839.506	3359
839.643	3233
839.781	2994
839.918	2986
840.055	3066
840.193	3024
840.33	3077
840.467	3089
840.604	3157
840.742	3397
840.879	3020
841.016	3039
841.153	3093
841.29	3302
841.427	3321
841.564	3268
841.701	3306
841.838	3218
841.975	3142
842.112	3218
842.249	3051
842.385	3017
842.522	3218
842.659	3138
842.796	3074
842.933	3119
843.069	3077
843.206	3005
843.343	3199
843.479	3135
843.616	3146
843.752	2910
843.889	2906
844.025	3047
844.162	2925
844.298	3066
844.435	2937
844.571	2910
844.708	3081
844.844	3176
844.98	3195
845.117	3222
845.253	3047
845.389	3017
845.525	3066
845.661	3138
845.798	3013
845.934	3127
846.07	3039
846.206	3233
846.342	3279
846.478	3253
846.614	3131
846.75	3047
846.886	3024
847.022	3245
847.158	3142
847.294	3184
847.429	3294
847.565	3218
847.701	3466
847.837	3036
847.972	3024
848.108	3180
848.244	3184
848.379	3009
848.515	2910
848.65	2941
848.786	2960
848.921	3001
849.057	3108
849.192	3157
849.328	3047
849.463	3074
849.598	3036
849.734	3039
849.869	2982
850.004	2944
850.14	2941
850.275	2914
850.41	2845
850.545	2853
850.68	2922
850.815	2922
850.95	2933
851.085	3180
851.22	3116
851.355	3066
851.49	2979
851.625	3013
851.76	3009
851.895	2933
852.03	2891
852.165	3009
852.299	3104
852.434	3157
852.569	3169
852.703	3173
852.838	3279
852.973	3348
853.107	3317
853.242	3123
853.376	3097
853.511	2994
853.645	3047
853.78	3245
853.914	3074
854.048	3135
854.183	3097
854.317	3146
854.451	3268
854.585	3112
854.72	3089
854.854	3195
854.988	3036
855.122	3081
855.256	2937
855.39	3100
855.524	3249
855.658	3195
855.792	3146
855.926	3199
856.06	3222
856.194	3275
856.327	3142
856.461	3043
856.595	3081
856.729	3093
856.862	3203
856.996	3180
857.13	3150
857.263	3245
857.397	3279
857.53	3089
857.664	3211
857.797	3176
857.931	3272
858.064	3180
858.197	3214
858.331	3127
858.464	3066
858.597	2994
858.731	3108
858.864	3104
858.997	3108
859.13	3150
859.263	3169
859.396	3203
859.529	3097
859.662	3062
859.795	3036
859.928	3157
860.061	3287
860.194	3275
860.327	3142
860.46	3108
860.592	3241
860.725	3237
860.858	3294
860.99	3081
861.123	3062
861.256	3070
861.388	3146
861.521	3831
861.653	3032
861.786	2975
861.918	3009
862.05	3043
862.183	3074
862.315	3184
862.447	3211
862.58	3047
862.712	2963
862.844	2899
862.976	3020
863.108	3009
863.24	3287
863.372	2872
863.504	2994
863.636	2937
863.768	3017
863.9	2990
864.032	2902
864.164	2952
864.296	3005
864.428	3055
864.559	3097
864.691	3039
864.823	3077
864.954	3047
865.086	3055
865.217	2994
865.349	2952
865.48	2956
865.612	2990
865.743	3150
865.875	2971
866.006	2925
866.137	2982
866.269	2975
866.4	2937
866.531	2883
866.662	2887
866.793	2872
866.924	2891
867.055	2956
867.186	2933
867.317	2838
867.448	2861
867.579	2853
867.71	2819
867.841	2838
867.972	2960
868.103	2895
868.233	2872
868.364	2887
868.495	2922
868.625	3058
868.756	3176
868.886	2929
869.017	3009
869.147	3173
869.278	3169
869.408	3028
869.539	3039
869.669	3089
869.799	3005
869.929	3146
870.06	3074
870.19	3336
870.32	3279
870.45	3283
870.58	3359
870.71	3420
870.84	3458
870.97	3279
871.1	3211
871.23	3496
871.36	3447
871.489	3321
871.619	3409
871.749	3424
871.879	3397
872.008	3492
872.138	3363
872.267	3233
872.397	3180
872.526	3112
872.656	2998
872.785	3070
872.915	3256
873.044	3294
873.173	3237
873.303	3218
873.432	3218
873.561	3211
873.69	3119
873.819	3169
873.948	3176
874.077	3081
874.206	3047
874.335	3058
874.464	3207
874.593	3393
874.722	3275
874.851	3405
874.979	3325
875.108	3321
875.237	3188
875.365	3169
875.494	3150
875.623	3245
875.751	3070
875.88	3123
876.008	3211
876.136	3222
876.265	3389
876.393	3507
876.521	3378
876.65	3351
876.778	3344
876.906	3256
877.034	3207
877.162	3245
877.29	3176
877.418	3283
877.546	3268
877.674	3249
877.802	3214
877.93	3214
878.058	3157
878.185	3093
878.313	3184
878.441	3199
878.568	3108
878.696	3157
878.824	3222
878.951	3275
879.079	3454
879.206	3644
879.333	3435
879.461	3321
879.588	3382
879.715	3477
879.842	3595
879.97	3374
880.097	3157
880.224	3123
880.351	3169
880.478	3157
880.605	3157
880.732	3150
880.859	3485
880.986	3291
881.112	3306
881.239	3195
881.366	3089
881.493	3047
881.619	3043
881.746	3055
881.872	3055
881.999	3062
882.125	3161
882.252	3230
882.378	3332
882.505	3443
882.631	3310
882.757	3169
882.883	3211
883.01	3222
883.136	3131
883.262	3074
883.388	3116
883.514	3321
883.64	3329
883.766	3321
883.892	3176
884.018	3233
884.143	3401
884.269	3511
884.395	3199
884.52	3157
884.646	3184
884.772	3138
884.897	3108
885.023	3211
885.148	3340
885.274	3431
885.399	3355
885.524	3222
885.65	3275
885.775	3287
885.9	3268
886.025	3454
886.15	3367
886.275	3249
886.4	3230
886.525	3264
886.65	3294
886.775	3233
886.9	3485
887.025	3637
887.149	3416
887.274	3264
887.399	3184
887.523	3188
887.648	3165
887.773	3214
887.897	3367
888.021	3420
888.146	3317
888.27	3443
888.395	3542
888.519	3447
888.643	3420
888.767	3439
888.891	3291
889.015	3256
889.139	3294
889.263	3253
889.387	3412
889.511	3496
889.635	3412
889.759	3332
889.883	3310
890.006	3397
890.13	3447
890.254	3275
890.377	3355
890.501	3211
890.624	3161
890.748	3291
890.871	3226
890.995	3077
891.118	3108
891.241	3199
891.364	3203
891.488	3367
891.611	3173
891.734	3226
891.857	3287
891.98	3230
892.103	3317
892.226	3283
892.349	3211
892.471	3093
892.594	3214
892.717	3264
892.839	3283
892.962	3313
893.085	3344
893.207	3313
893.33	3161
893.452	3173
893.575	3351
893.697	3230
893.819	3439
893.941	3511
894.064	3420
894.186	3260
894.308	3241
894.43	3431
894.552	3561
894.674	3488
894.796	3249
894.918	3325
895.04	3279
895.161	3454
895.283	3401
895.405	3313
895.526	3325
895.648	3424
895.769	3424
895.891	3424
896.012	3473
896.134	3466
896.255	3393
896.376	3382
896.498	3340
896.619	3378
896.74	3386
896.861	3424
896.982	3713
897.103	3850
897.224	3572
897.345	3511
897.466	3469
897.587	3530
897.708	3610
897.828	3523
897.949	3416
898.07	3344
898.19	3416
898.311	3576
898.431	3447
898.552	3492
898.672	3625
898.792	3576
898.913	3477
899.033	3374
899.153	3275
899.273	3237
899.393	3279
899.513	3355
899.633	3321
899.753	3302
899.873	3325
899.993	3374
900.113	3351
900.232	3367
900.352	3367
900.472	3287
900.591	3203
900.711	3287
900.83	3237
900.95	3439
901.069	3473
901.189	3351
901.308	3176
901.427	3150
901.546	3173
901.665	3283
901.784	3310
901.904	3211
902.023	3138
902.141	3062
902.26	3005
902.379	3142
902.498	3081
902.617	3066
902.735	3218
902.854	3226
902.973	3150
903.091	3043
903.21	3070
903.328	3131
903.446	3089
903.565	3108
903.683	3214
903.801	3112
903.919	3245
904.038	3272
904.156	3188
904.274	3264
904.392	3268
904.51	3264
904.627	3298
904.745	3424
904.863	3473
904.981	3226
905.098	3176
905.216	3214
905.334	3283
905.451	3283
905.569	3321
905.686	3458
905.803	3435
905.921	3294
906.038	3428
906.155	3382
906.272	3214
906.389	3313
906.506	3233
906.623	3226
906.74	3226
906.857	3169
906.974	3233
907.091	3458
907.208	3561
907.324	3481
907.441	3412
907.557	3211
907.674	3256
907.79	3161
907.907	3237
908.023	3389
908.139	3405
908.256	3340
908.372	3378
908.488	3359
908.604	3272
908.72	3245
908.836	3294
908.952	3291
909.068	3302
909.184	3462
909.3	3332
909.415	3504
909.531	3447
909.647	3283
909.762	3264
909.878	3268
909.993	3378
910.108	3355
910.224	3340
910.339	3378
910.454	3389
910.57	3321
910.685	3214
910.8	3557
910.915	3534
911.03	3428
911.145	3253
911.259	3302
911.374	3313
911.489	3249
911.604	3214
911.718	3123
911.833	3161
911.947	3051
912.062	2982
912.176	3165
912.291	3142
912.405	3203
912.519	3416
912.633	3473
912.748	3340
912.862	3279
912.976	3165
913.09	3047
913.204	3161
913.318	3211
913.431	3374
913.545	3321
913.659	3405
913.772	3359
913.886	3195
914	3237
914.113	3370
914.226	3435
914.34	3374
914.453	3195
914.566	3397
914.68	3317
914.793	3336
914.906	3150
915.019	3104
915.132	3089
915.245	3226
915.358	3180
915.47	3260
915.583	3268
915.696	3302
915.809	3389
915.921	3393
916.034	3222
916.146	3214
916.259	3222
916.371	3424
916.483	3409
916.595	3310
916.708	3329
916.82	3325
916.932	3340
917.044	3336
917.156	3329
917.268	3207
917.38	3279
917.491	3302
917.603	3420
917.715	3462
917.826	3450
917.938	3370
918.049	3226
918.161	3393
918.272	3576
918.384	3599
918.495	3469
918.606	3321
918.717	3272
918.828	3378
918.939	3397
919.05	3287
919.161	3393
919.272	3195
919.383	3222
919.494	3526
919.604	3686
919.715	3473
919.826	3370
919.936	3450
920.047	3557
920.157	3515
920.267	3732
920.378	3603
920.488	3603
920.598	3800
920.708	3987
920.818	3797
920.928	3827
921.038	4010
921.148	3960
921.258	3717
921.368	3652
921.477	3576
921.587	3530
921.697	3485
921.806	3614
921.916	3515
922.025	3336
922.134	3325
922.244	3348
922.353	3412
922.462	3249
922.571	3207
922.68	3100
922.789	3085
922.898	3123
923.007	3116
923.116	3188
923.224	3192
923.333	3192
923.442	3066
923.55	3112
923.659	3154
923.767	3214
923.876	3077
923.984	3253
924.092	3077
924.201	3230
924.309	3230
924.417	3268
924.525	3222
924.633	3218
924.741	4154
924.849	3081
924.956	3275
925.064	3119
925.172	3032
925.279	3108
925.387	3214
925.494	3203
925.602	3355
925.709	3355
925.816	3188
925.924	3302
926.031	3359
926.138	3340
926.245	3370
926.352	3249
926.459	3393
926.566	3515
926.673	3325
926.779	3245
926.886	3226
926.993	3135
927.099	3123
927.206	3089
927.312	3112
927.419	3249
927.525	3218
927.631	3268
927.737	3161
927.843	3108
927.95	3017
928.056	3131
928.162	3157
928.267	3218
928.373	3873
928.479	3329
928.585	3009
928.69	3233
928.796	3256
928.901	3173
929.007	3032
929.112	3233
929.218	3169
929.323	3150
929.428	3165
929.533	3275
929.638	3131
929.743	3150
929.848	3260
929.953	3245
930.058	3112
930.163	3020
930.267	3043
930.372	3226
930.477	3017
930.581	3329
930.685	3199
930.79	3066
930.894	3131
930.998	3077
931.103	3310
931.207	2948
931.311	2944
931.415	2933
931.519	2769
931.623	2792
