Data from test_V78500241_1601.txt Node
Date: Fri Mar 25 16:26:17 CST 2022
User: usil
Spectrometer: V785-0024
Trigger mode: 0
Integration Time (sec): 4.000000E-1
Scans to average: 1
Nonlinearity correction enabled: false
Boxcar width: 0
Storing dark spectrum: false
XAxis mode: Wavelengths
Number of Pixels in Spectrum: 1024
>>>>>Begin Spectral Data<<<<<
801.071	2895
801.214	2925
801.356	2842
801.499	2868
801.641	2868
801.783	2925
801.926	3043
802.068	2986
802.211	2963
802.353	3009
802.496	2967
802.638	3009
802.78	3039
802.923	3077
803.065	2998
803.208	2872
803.35	2929
803.492	2922
803.635	2922
803.777	2785
803.919	2853
804.061	3188
804.204	2948
804.346	2910
804.488	2842
804.63	2967
804.773	2899
804.915	2891
805.057	3066
805.199	2944
805.341	2971
805.483	3020
805.626	2979
805.768	2960
805.91	3093
806.052	3123
806.194	3039
806.336	3203
806.478	3032
806.62	2956
806.762	2994
806.904	3043
807.046	3188
807.188	2975
807.33	2891
807.472	3001
807.614	2899
807.756	3009
807.898	2906
808.04	2880
808.182	3013
808.324	2948
808.465	2887
808.607	2868
808.749	2823
808.891	2842
809.033	2986
809.174	2941
809.316	2861
809.458	2899
809.6	2720
809.741	2762
809.883	2750
810.025	2823
810.166	2826
810.308	2842
810.45	2834
810.591	2743
810.733	2746
810.875	2830
811.016	2758
811.158	2785
811.299	2830
811.441	2925
811.582	2895
811.724	2838
811.865	2838
812.007	2895
812.148	2891
812.29	2864
812.431	2895
812.573	2960
812.714	2990
812.855	3036
812.997	3028
813.138	3142
813.279	3017
813.421	2967
813.562	2922
813.703	2868
813.845	2891
813.986	2792
814.127	2724
814.268	2819
814.41	2823
814.551	2769
814.692	2857
814.833	2834
814.974	2887
815.115	2956
815.256	2811
815.397	2804
815.539	2861
815.68	2792
815.821	2792
815.962	2963
816.103	2902
816.244	2861
816.385	2891
816.526	2956
816.666	2944
816.807	2731
816.948	2868
817.089	2918
817.23	2891
817.371	2788
817.512	2781
817.653	2857
817.793	2800
817.934	2880
818.075	2979
818.216	2975
818.356	3036
818.497	2883
818.638	2834
818.778	2826
818.919	2781
819.06	2766
819.2	2838
819.341	2815
819.481	2804
819.622	2922
819.762	3123
819.903	3039
820.043	2891
820.184	2883
820.324	2906
820.465	3005
820.605	3009
820.746	3001
820.886	2952
821.026	3104
821.167	3138
821.307	3283
821.447	3230
821.588	3222
821.728	3192
821.868	3169
822.008	3077
822.149	3184
822.289	3226
822.429	3066
822.569	3058
822.709	3150
822.849	2982
822.99	3097
823.13	3157
823.27	3211
823.41	3081
823.55	3184
823.69	3123
823.83	3188
823.97	3070
824.11	3024
824.25	3017
824.389	3074
824.529	3055
824.669	3081
824.809	3211
824.949	3279
825.089	3233
825.228	3138
825.368	3047
825.508	2998
825.648	2990
825.787	3013
825.927	3020
826.067	2937
826.206	2918
826.346	3047
826.485	3077
826.625	3062
826.765	3268
826.904	3199
827.044	3017
827.183	2967
827.323	2868
827.462	2994
827.601	2910
827.741	2944
827.88	2948
828.02	2864
828.159	2941
828.298	3028
828.437	3123
828.577	3043
828.716	3272
828.855	3070
828.994	2906
829.134	2891
829.273	2922
829.412	2845
829.551	2838
829.69	2895
829.829	2960
829.968	3112
830.107	3009
830.246	2998
830.385	2887
830.524	2895
830.663	2819
830.802	2735
830.941	2663
831.08	2606
831.219	2754
831.357	2766
831.496	2948
831.635	2746
831.774	2663
831.913	2670
832.051	2560
832.19	2579
832.329	2651
832.467	2537
832.606	2450
832.744	2571
832.883	2571
833.022	2575
833.16	2667
833.299	2697
833.437	2697
833.576	2705
833.714	2689
833.852	2739
833.991	2773
834.129	2823
834.267	2800
834.406	2769
834.544	2845
834.682	2853
834.821	2868
834.959	3032
835.097	2933
835.235	3043
835.373	2975
835.511	3005
835.65	2975
835.788	2986
835.926	2807
836.064	2807
836.202	2853
836.34	3089
836.478	3180
836.615	3039
836.753	3127
836.891	3184
837.029	3180
837.167	3093
837.305	3070
837.443	3032
837.58	2937
837.718	3119
837.856	3070
837.993	3055
838.131	3104
838.269	3165
838.406	3062
838.544	3104
838.681	2906
838.819	2906
838.956	2838
839.094	2853
839.231	2910
839.369	3009
839.506	3348
839.643	3188
839.781	2986
839.918	2971
840.055	3036
840.193	3047
840.33	3081
840.467	3100
840.604	3146
840.742	3359
840.879	3039
841.016	3028
841.153	3093
841.29	3313
841.427	3310
841.564	3279
841.701	3298
841.838	3188
841.975	3154
842.112	3188
842.249	3100
842.385	3020
842.522	3249
842.659	3081
842.796	3062
842.933	3085
843.069	3043
843.206	3017
843.343	3161
843.479	3104
843.616	3138
843.752	2887
843.889	2906
844.025	3070
844.162	2922
844.298	3074
844.435	2960
844.571	2944
844.708	3062
844.844	3211
844.98	3245
845.117	3165
845.253	3062
845.389	2990
845.525	3070
845.661	3093
845.798	3028
845.934	3123
846.07	3085
846.206	3207
846.342	3317
846.478	3211
846.614	3055
846.75	3028
846.886	3017
847.022	3241
847.158	3146
847.294	3169
847.429	3256
847.565	3214
847.701	3477
847.837	3024
847.972	3039
848.108	3154
848.244	3165
848.379	2986
848.515	2971
848.65	2937
848.786	2975
848.921	3013
849.057	3081
849.192	3157
849.328	3055
849.463	3104
849.598	3047
849.734	3043
849.869	3013
850.004	2910
850.14	3013
850.275	2899
850.41	2838
850.545	2849
850.68	2960
850.815	2979
850.95	2948
851.085	3180
851.22	3074
851.355	3017
851.49	2971
851.625	2994
851.76	3009
851.895	2975
852.03	2906
852.165	3017
852.299	3165
852.434	3207
852.569	3142
852.703	3203
852.838	3207
852.973	3325
853.107	3298
853.242	3127
853.376	3066
853.511	2944
853.645	3036
853.78	3184
853.914	3131
854.048	3097
854.183	3074
854.317	3108
854.451	3317
854.585	3112
854.72	3093
854.854	3222
854.988	3043
855.122	3058
855.256	2975
855.39	3093
855.524	3233
855.658	3199
855.792	3108
855.926	3188
856.06	3211
856.194	3253
856.327	3142
856.461	3097
856.595	3081
856.729	3093
856.862	3184
856.996	3142
857.13	3195
857.263	3195
857.397	3268
857.53	3127
857.664	3173
857.797	3188
857.931	3218
858.064	3157
858.197	3169
858.331	3142
858.464	3093
858.597	2998
858.731	3112
858.864	3112
858.997	3039
859.13	3150
859.263	3176
859.396	3165
859.529	3070
859.662	3062
859.795	2971
859.928	3165
860.061	3233
860.194	3264
860.327	3150
860.46	3058
860.592	3218
860.725	3275
860.858	3249
860.99	3089
861.123	2994
861.256	3028
861.388	3142
861.521	3842
861.653	3013
861.786	2956
861.918	2990
862.05	3089
862.183	3116
862.315	3161
862.447	3192
862.58	3077
862.712	2963
862.844	2887
862.976	3032
863.108	3009
863.24	3279
863.372	2883
863.504	2937
863.636	2967
863.768	3020
863.9	2960
864.032	2918
864.164	2963
864.296	3009
864.428	3070
864.559	3112
864.691	3058
864.823	3024
864.954	3039
865.086	3017
865.217	2975
865.349	2941
865.48	2975
865.612	3028
865.743	3154
865.875	2982
866.006	2944
866.137	2990
866.269	2971
866.4	2929
866.531	2944
866.662	2887
866.793	2891
866.924	2887
867.055	2960
867.186	2929
867.317	2891
867.448	2819
867.579	2849
867.71	2838
867.841	2815
867.972	2929
868.103	2864
868.233	2857
868.364	2861
868.495	2914
868.625	3062
868.756	3157
868.886	2956
869.017	2990
869.147	3154
869.278	3131
869.408	3066
869.539	3024
869.669	3085
869.799	3020
869.929	3146
870.06	3127
870.19	3317
870.32	3260
870.45	3287
870.58	3370
870.71	3416
870.84	3428
870.97	3279
871.1	3249
871.23	3492
871.36	3435
871.489	3348
871.619	3389
871.749	3378
871.879	3447
872.008	3485
872.138	3355
872.267	3279
872.397	3188
872.526	3074
872.656	3013
872.785	3047
872.915	3237
873.044	3321
873.173	3218
873.303	3268
873.432	3253
873.561	3253
873.69	3138
873.819	3135
873.948	3173
874.077	3081
874.206	3005
874.335	3051
874.464	3207
874.593	3336
874.722	3218
874.851	3412
874.979	3348
875.108	3298
875.237	3176
875.365	3184
875.494	3165
875.623	3249
875.751	3081
875.88	3108
876.008	3203
876.136	3237
876.265	3378
876.393	3500
876.521	3389
876.65	3389
876.778	3344
876.906	3199
877.034	3214
877.162	3253
877.29	3165
877.418	3203
877.546	3241
877.674	3253
877.802	3237
877.93	3218
878.058	3142
878.185	3093
878.313	3169
878.441	3207
878.568	3024
878.696	3131
878.824	3256
878.951	3325
879.079	3473
879.206	3584
879.333	3412
879.461	3302
879.588	3310
879.715	3450
879.842	3568
879.97	3370
880.097	3161
880.224	3119
880.351	3184
880.478	3233
880.605	3180
880.732	3211
880.859	3519
880.986	3302
881.112	3329
881.239	3169
881.366	3108
881.493	2994
881.619	3005
881.746	3081
881.872	3100
881.999	3127
882.125	3108
882.252	3203
882.378	3249
882.505	3458
882.631	3317
882.757	3195
882.883	3173
883.01	3207
883.136	3154
883.262	3062
883.388	3154
883.514	3294
883.64	3359
883.766	3298
883.892	3203
884.018	3214
884.143	3382
884.269	3538
884.395	3237
884.52	3173
884.646	3184
884.772	3100
884.897	3100
885.023	3184
885.148	3370
885.274	3386
885.399	3374
885.524	3272
885.65	3283
885.775	3306
885.9	3268
886.025	3401
886.15	3355
886.275	3268
886.4	3253
886.525	3336
886.65	3256
886.775	3291
886.9	3477
887.025	3660
887.149	3412
887.274	3230
887.399	3195
887.523	3214
887.648	3192
887.773	3184
887.897	3348
888.021	3397
888.146	3249
888.27	3405
888.395	3523
888.519	3382
888.643	3447
888.767	3435
888.891	3329
889.015	3230
889.139	3260
889.263	3268
889.387	3393
889.511	3481
889.635	3462
889.759	3264
889.883	3283
890.006	3409
890.13	3504
890.254	3287
890.377	3355
890.501	3188
890.624	3207
890.748	3325
890.871	3188
890.995	3108
891.118	3070
891.241	3169
891.364	3260
891.488	3306
891.611	3161
891.734	3241
891.857	3283
891.98	3207
892.103	3329
892.226	3283
892.349	3184
892.471	3104
892.594	3214
892.717	3237
892.839	3260
892.962	3302
893.085	3351
893.207	3268
893.33	3104
893.452	3218
893.575	3340
893.697	3241
893.819	3469
893.941	3488
894.064	3428
894.186	3260
894.308	3264
894.43	3420
894.552	3523
894.674	3447
894.796	3241
894.918	3336
895.04	3287
895.161	3405
895.283	3397
895.405	3298
895.526	3344
895.648	3447
895.769	3374
895.891	3439
896.012	3473
896.134	3454
896.255	3412
896.376	3393
896.498	3351
896.619	3428
896.74	3359
896.861	3355
896.982	3694
897.103	3819
897.224	3584
897.345	3500
897.466	3397
897.587	3477
897.708	3584
897.828	3576
897.949	3477
898.07	3298
898.19	3378
898.311	3618
898.431	3450
898.552	3526
898.672	3576
898.792	3572
898.913	3530
899.033	3409
899.153	3294
899.273	3207
899.393	3329
899.513	3325
899.633	3355
899.753	3317
899.873	3302
899.993	3386
900.113	3359
900.232	3416
900.352	3336
900.472	3275
900.591	3180
900.711	3287
900.83	3253
900.95	3428
901.069	3477
901.189	3359
901.308	3199
901.427	3138
901.546	3157
901.665	3294
901.784	3351
901.904	3165
902.023	3131
902.141	3013
902.26	3005
902.379	3131
902.498	3089
902.617	3062
902.735	3165
902.854	3226
902.973	3173
903.091	3070
903.21	3055
903.328	3169
903.446	3119
903.565	3119
903.683	3222
903.801	3127
903.919	3272
904.038	3260
904.156	3176
904.274	3253
904.392	3253
904.51	3275
904.627	3302
904.745	3420
904.863	3466
904.981	3260
905.098	3161
905.216	3245
905.334	3283
905.451	3302
905.569	3298
905.686	3439
905.803	3450
905.921	3306
906.038	3424
906.155	3374
906.272	3264
906.389	3359
906.506	3241
906.623	3260
906.74	3245
906.857	3161
906.974	3241
907.091	3488
907.208	3515
907.324	3462
907.441	3401
907.557	3245
907.674	3207
907.79	3203
907.907	3283
908.023	3382
908.139	3378
908.256	3332
908.372	3374
908.488	3370
908.604	3302
908.72	3214
908.836	3241
908.952	3256
909.068	3302
909.184	3500
909.3	3393
909.415	3450
909.531	3462
909.647	3245
909.762	3302
909.878	3230
909.993	3355
910.108	3351
910.224	3325
910.339	3409
910.454	3363
910.57	3313
910.685	3264
910.8	3606
910.915	3523
911.03	3409
911.145	3218
911.259	3241
911.374	3348
911.489	3249
911.604	3249
911.718	3150
911.833	3123
911.947	3047
912.062	2979
912.176	3146
912.291	3188
912.405	3199
912.519	3424
912.633	3462
912.748	3325
912.862	3275
912.976	3199
913.09	3066
913.204	3127
913.318	3176
913.431	3344
913.545	3332
913.659	3382
913.772	3325
913.886	3203
914	3165
914.113	3348
914.226	3409
914.34	3382
914.453	3245
914.566	3351
914.68	3287
914.793	3287
914.906	3119
915.019	3074
915.132	3039
915.245	3173
915.358	3150
915.47	3203
915.583	3253
915.696	3336
915.809	3393
915.921	3428
916.034	3237
916.146	3218
916.259	3207
916.371	3389
916.483	3340
916.595	3268
916.708	3329
916.82	3325
916.932	3329
917.044	3340
917.156	3306
917.268	3195
917.38	3294
917.491	3275
917.603	3348
917.715	3431
917.826	3488
917.938	3382
918.049	3268
918.161	3416
918.272	3568
918.384	3587
918.495	3469
918.606	3332
918.717	3291
918.828	3405
918.939	3397
919.05	3313
919.161	3363
919.272	3157
919.383	3279
919.494	3515
919.604	3633
919.715	3485
919.826	3401
919.936	3447
920.047	3572
920.157	3530
920.267	3720
920.378	3587
920.488	3591
920.598	3755
920.708	3953
920.818	3827
920.928	3819
921.038	3956
921.148	3983
921.258	3720
921.368	3584
921.477	3561
921.587	3542
921.697	3462
921.806	3618
921.916	3500
922.025	3294
922.134	3374
922.244	3264
922.353	3447
922.462	3256
922.571	3218
922.68	3154
922.789	3074
922.898	3180
923.007	3104
923.116	3241
923.224	3188
923.333	3169
923.442	3116
923.55	3085
923.659	3142
923.767	3211
923.876	3127
923.984	3211
924.092	3116
924.201	3180
924.309	3249
924.417	3268
924.525	3199
924.633	3203
924.741	4219
924.849	3070
924.956	3272
925.064	3100
925.172	3058
925.279	3123
925.387	3203
925.494	3169
925.602	3355
925.709	3313
925.816	3192
925.924	3294
926.031	3389
926.138	3298
926.245	3359
926.352	3287
926.459	3397
926.566	3443
926.673	3317
926.779	3241
926.886	3222
926.993	3123
927.099	3116
927.206	3131
927.312	3119
927.419	3195
927.525	3188
927.631	3279
927.737	3135
927.843	3119
927.95	3039
928.056	3131
928.162	3176
928.267	3237
928.373	3857
928.479	3313
928.585	3058
928.69	3180
928.796	3283
928.901	3169
929.007	3032
929.112	3207
929.218	3165
929.323	3131
929.428	3150
929.533	3317
929.638	3081
929.743	3116
929.848	3237
929.953	3199
930.058	3112
930.163	3032
930.267	3032
930.372	3233
930.477	3028
930.581	3336
930.685	3222
930.79	3058
930.894	3081
930.998	3047
931.103	3275
931.207	2960
931.311	2956
931.415	2922
931.519	2807
931.623	2773
