Data from test_V78500241_895.txt Node
Date: Fri Mar 25 16:21:24 CST 2022
User: usil
Spectrometer: V785-0024
Trigger mode: 0
Integration Time (sec): 4.000000E-1
Scans to average: 1
Nonlinearity correction enabled: false
Boxcar width: 0
Storing dark spectrum: false
XAxis mode: Wavelengths
Number of Pixels in Spectrum: 1024
>>>>>Begin Spectral Data<<<<<
801.071	2906
801.214	2960
801.356	2891
801.499	2880
801.641	2891
801.783	2937
801.926	3062
802.068	2925
802.211	3013
802.353	2998
802.496	2952
802.638	2994
802.78	3039
802.923	3074
803.065	2982
803.208	2895
803.35	2956
803.492	2948
803.635	2918
803.777	2743
803.919	2880
804.061	3184
804.204	2941
804.346	2895
804.488	2819
804.63	2982
804.773	2853
804.915	2910
805.057	3047
805.199	2929
805.341	2967
805.483	3058
805.626	2963
805.768	2948
805.91	3085
806.052	3135
806.194	3009
806.336	3211
806.478	3001
806.62	2967
806.762	2960
806.904	3043
807.046	3123
807.188	2982
807.33	2925
807.472	3017
807.614	2910
807.756	2990
807.898	2929
808.04	2899
808.182	2982
808.324	2960
808.465	2864
808.607	2880
808.749	2777
808.891	2842
809.033	2979
809.174	2967
809.316	2868
809.458	2864
809.6	2762
809.741	2785
809.883	2773
810.025	2834
810.166	2872
810.308	2845
810.45	2861
810.591	2800
810.733	2766
810.875	2842
811.016	2777
811.158	2735
811.299	2804
811.441	2941
811.582	2918
811.724	2845
811.865	2826
812.007	2918
812.148	2872
812.29	2834
812.431	2891
812.573	2929
812.714	2960
812.855	3043
812.997	3066
813.138	3116
813.279	2982
813.421	2994
813.562	2944
813.703	2883
813.845	2925
813.986	2766
814.127	2739
814.268	2819
814.41	2819
814.551	2807
814.692	2842
814.833	2819
814.974	2868
815.115	2963
815.256	2830
815.397	2838
815.539	2861
815.68	2781
815.821	2800
815.962	2914
816.103	2952
816.244	2891
816.385	2918
816.526	2986
816.666	2925
816.807	2731
816.948	2887
817.089	2906
817.23	2883
817.371	2807
817.512	2811
817.653	2819
817.793	2838
817.934	2849
818.075	2960
818.216	3028
818.356	3039
818.497	2891
818.638	2762
818.778	2807
818.919	2804
819.06	2773
819.2	2880
819.341	2823
819.481	2811
819.622	2933
819.762	3074
819.903	3024
820.043	2952
820.184	2880
820.324	2952
820.465	3024
820.605	3024
820.746	3039
820.886	2899
821.026	3135
821.167	3176
821.307	3241
821.447	3230
821.588	3230
821.728	3207
821.868	3195
822.008	3089
822.149	3180
822.289	3188
822.429	3085
822.569	3074
822.709	3176
822.849	3001
822.99	3047
823.13	3150
823.27	3203
823.41	3089
823.55	3146
823.69	3131
823.83	3165
823.97	3062
824.11	2994
824.25	2971
824.389	3013
824.529	3100
824.669	3062
824.809	3207
824.949	3249
825.089	3192
825.228	3154
825.368	2941
825.508	2982
825.648	3009
825.787	3017
825.927	3028
826.067	2948
826.206	2925
826.346	3039
826.485	3047
826.625	3104
826.765	3249
826.904	3173
827.044	3001
827.183	2925
827.323	2853
827.462	2948
827.601	2899
827.741	2933
827.88	2941
828.02	2849
828.159	2952
828.298	3036
828.437	3116
828.577	2998
828.716	3211
828.855	3104
828.994	2872
829.134	2902
829.273	2910
829.412	2883
829.551	2857
829.69	2899
829.829	2952
829.968	3119
830.107	3028
830.246	3028
830.385	2887
830.524	2849
830.663	2800
830.802	2754
830.941	2636
831.08	2655
831.219	2746
831.357	2781
831.496	2914
831.635	2712
831.774	2644
831.913	2663
832.051	2518
832.19	2594
832.329	2659
832.467	2533
832.606	2488
832.744	2541
832.883	2594
833.022	2571
833.16	2640
833.299	2674
833.437	2686
833.576	2678
833.714	2701
833.852	2735
833.991	2735
834.129	2815
834.267	2830
834.406	2807
834.544	2868
834.682	2883
834.821	2872
834.959	3036
835.097	2918
835.235	3066
835.373	3001
835.511	2986
835.65	2929
835.788	2971
835.926	2807
836.064	2800
836.202	2826
836.34	3100
836.478	3169
836.615	3039
836.753	3100
836.891	3188
837.029	3154
837.167	3081
837.305	3047
837.443	3024
837.58	2960
837.718	3089
837.856	3074
837.993	3001
838.131	3135
838.269	3081
838.406	3104
838.544	3036
838.681	2990
838.819	2914
838.956	2788
839.094	2838
839.231	2902
839.369	3024
839.506	3378
839.643	3230
839.781	3039
839.918	2994
840.055	3051
840.193	3070
840.33	3028
840.467	3100
840.604	3176
840.742	3447
840.879	3051
841.016	3047
841.153	3116
841.29	3325
841.427	3287
841.564	3275
841.701	3279
841.838	3249
841.975	3157
842.112	3207
842.249	3093
842.385	3058
842.522	3272
842.659	3077
842.796	3081
842.933	3100
843.069	3013
843.206	3028
843.343	3173
843.479	3097
843.616	3123
843.752	2857
843.889	2883
844.025	3074
844.162	2834
844.298	3058
844.435	2963
844.571	2925
844.708	3055
844.844	3104
844.98	3233
845.117	3199
845.253	3074
845.389	3001
845.525	3108
845.661	3108
845.798	2979
845.934	3119
846.07	3047
846.206	3214
846.342	3283
846.478	3188
846.614	3051
846.75	3043
846.886	2979
847.022	3207
847.158	3142
847.294	3195
847.429	3230
847.565	3188
847.701	3488
847.837	3036
847.972	3005
848.108	3146
848.244	3131
848.379	2990
848.515	2948
848.65	2937
848.786	2967
848.921	3009
849.057	3112
849.192	3165
849.328	3089
849.463	3093
849.598	3066
849.734	3009
849.869	2982
850.004	2899
850.14	2937
850.275	2902
850.41	2845
850.545	2868
850.68	2941
850.815	2982
850.95	2994
851.085	3199
851.22	3077
851.355	3043
851.49	2952
851.625	3009
851.76	2971
851.895	2944
852.03	2906
852.165	2975
852.299	3116
852.434	3192
852.569	3146
852.703	3169
852.838	3260
852.973	3386
853.107	3359
853.242	3138
853.376	3085
853.511	2967
853.645	3013
853.78	3253
853.914	3085
854.048	3100
854.183	3100
854.317	3123
854.451	3272
854.585	3093
854.72	3077
854.854	3199
854.988	3028
855.122	3062
855.256	2960
855.39	3138
855.524	3249
855.658	3146
855.792	3180
855.926	3173
856.06	3218
856.194	3241
856.327	3119
856.461	3081
856.595	3081
856.729	3097
856.862	3211
856.996	3176
857.13	3154
857.263	3180
857.397	3283
857.53	3100
857.664	3169
857.797	3230
857.931	3268
858.064	3165
858.197	3211
858.331	3131
858.464	3066
858.597	2979
858.731	3108
858.864	3116
858.997	3051
859.13	3150
859.263	3169
859.396	3192
859.529	3047
859.662	3051
859.795	3066
859.928	3135
860.061	3275
860.194	3298
860.327	3104
860.46	3077
860.592	3233
860.725	3218
860.858	3260
860.99	3097
861.123	3013
861.256	3077
861.388	3116
861.521	3827
861.653	3005
861.786	2952
861.918	2994
862.05	3055
862.183	3039
862.315	3104
862.447	3173
862.58	3085
862.712	2929
862.844	2876
862.976	2998
863.108	3009
863.24	3283
863.372	2876
863.504	2960
863.636	2918
863.768	3043
863.9	2944
864.032	2910
864.164	2929
864.296	2990
864.428	3074
864.559	3104
864.691	3093
864.823	3074
864.954	3047
865.086	3032
865.217	2941
865.349	2922
865.48	2971
865.612	2998
865.743	3135
865.875	2967
866.006	2929
866.137	2967
866.269	2952
866.4	2948
866.531	2952
866.662	2868
866.793	2891
866.924	2883
867.055	2967
867.186	2895
867.317	2864
867.448	2819
867.579	2807
867.71	2845
867.841	2815
867.972	2891
868.103	2929
868.233	2887
868.364	2883
868.495	2918
868.625	3123
868.756	3127
868.886	2990
869.017	2986
869.147	3188
869.278	3180
869.408	3036
869.539	3013
869.669	3081
869.799	3017
869.929	3135
870.06	3104
870.19	3340
870.32	3268
870.45	3313
870.58	3351
870.71	3458
870.84	3412
870.97	3294
871.1	3211
871.23	3492
871.36	3443
871.489	3317
871.619	3409
871.749	3420
871.879	3409
872.008	3458
872.138	3351
872.267	3253
872.397	3138
872.526	3116
872.656	3001
872.785	3108
872.915	3230
873.044	3287
873.173	3203
873.303	3230
873.432	3230
873.561	3214
873.69	3135
873.819	3154
873.948	3195
874.077	3142
874.206	3028
874.335	3085
874.464	3218
874.593	3340
874.722	3203
874.851	3367
874.979	3325
875.108	3336
875.237	3176
875.365	3173
875.494	3154
875.623	3253
875.751	3097
875.88	3123
876.008	3165
876.136	3253
876.265	3370
876.393	3481
876.521	3374
876.65	3389
876.778	3313
876.906	3214
877.034	3207
877.162	3214
877.29	3184
877.418	3199
877.546	3241
877.674	3264
877.802	3253
877.93	3245
878.058	3199
878.185	3112
878.313	3218
878.441	3241
878.568	3070
878.696	3165
878.824	3268
878.951	3310
879.079	3469
879.206	3618
879.333	3428
879.461	3367
879.588	3332
879.715	3481
879.842	3599
879.97	3374
880.097	3192
880.224	3150
880.351	3203
880.478	3157
880.605	3188
880.732	3138
880.859	3488
880.986	3310
881.112	3306
881.239	3222
881.366	3089
881.493	3020
881.619	3047
881.746	3097
881.872	3077
881.999	3085
882.125	3154
882.252	3272
882.378	3268
882.505	3420
882.631	3268
882.757	3146
882.883	3203
883.01	3230
883.136	3157
883.262	3081
883.388	3135
883.514	3291
883.64	3382
883.766	3279
883.892	3199
884.018	3214
884.143	3428
884.269	3553
884.395	3226
884.52	3161
884.646	3169
884.772	3119
884.897	3135
885.023	3207
885.148	3313
885.274	3431
885.399	3340
885.524	3222
885.65	3272
885.775	3306
885.9	3253
886.025	3397
886.15	3382
886.275	3272
886.4	3249
886.525	3298
886.65	3268
886.775	3313
886.9	3473
887.025	3652
887.149	3370
887.274	3268
887.399	3184
887.523	3195
887.648	3165
887.773	3184
887.897	3393
888.021	3386
888.146	3298
888.27	3420
888.395	3538
888.519	3458
888.643	3428
888.767	3477
888.891	3298
889.015	3233
889.139	3283
889.263	3287
889.387	3409
889.511	3481
889.635	3481
889.759	3294
889.883	3256
890.006	3389
890.13	3507
890.254	3310
890.377	3378
890.501	3207
890.624	3192
890.748	3275
890.871	3161
890.995	3108
891.118	3051
891.241	3218
891.364	3207
891.488	3310
891.611	3199
891.734	3222
891.857	3253
891.98	3211
892.103	3332
892.226	3279
892.349	3173
892.471	3112
892.594	3188
892.717	3283
892.839	3226
892.962	3298
893.085	3340
893.207	3294
893.33	3142
893.452	3222
893.575	3355
893.697	3264
893.819	3492
893.941	3485
894.064	3439
894.186	3256
894.308	3279
894.43	3462
894.552	3534
894.674	3458
894.796	3222
894.918	3306
895.04	3249
895.161	3397
895.283	3393
895.405	3317
895.526	3367
895.648	3428
895.769	3431
895.891	3447
896.012	3473
896.134	3462
896.255	3389
896.376	3428
896.498	3363
896.619	3428
896.74	3397
896.861	3424
896.982	3633
897.103	3842
897.224	3564
897.345	3534
897.466	3435
897.587	3530
897.708	3614
897.828	3515
897.949	3428
898.07	3340
898.19	3382
898.311	3606
898.431	3473
898.552	3469
898.672	3606
898.792	3576
898.913	3553
899.033	3397
899.153	3298
899.273	3233
899.393	3279
899.513	3294
899.633	3313
899.753	3321
899.873	3359
899.993	3351
900.113	3298
900.232	3420
900.352	3348
900.472	3260
900.591	3222
900.711	3313
900.83	3268
900.95	3378
901.069	3515
901.189	3359
901.308	3173
901.427	3165
901.546	3176
901.665	3256
901.784	3336
901.904	3199
902.023	3176
902.141	2998
902.26	2979
902.379	3138
902.498	3081
902.617	3055
902.735	3184
902.854	3249
902.973	3188
903.091	3028
903.21	3081
903.328	3100
903.446	3104
903.565	3085
903.683	3207
903.801	3119
903.919	3203
904.038	3310
904.156	3180
904.274	3283
904.392	3279
904.51	3272
904.627	3340
904.745	3389
904.863	3469
904.981	3279
905.098	3176
905.216	3226
905.334	3264
905.451	3321
905.569	3306
905.686	3397
905.803	3431
905.921	3249
906.038	3420
906.155	3344
906.272	3253
906.389	3325
906.506	3211
906.623	3298
906.74	3275
906.857	3176
906.974	3260
907.091	3485
907.208	3584
907.324	3443
907.441	3351
907.557	3230
907.674	3233
907.79	3230
907.907	3291
908.023	3397
908.139	3344
908.256	3302
908.372	3401
908.488	3363
908.604	3260
908.72	3203
908.836	3306
908.952	3256
909.068	3351
909.184	3469
909.3	3401
909.415	3507
909.531	3454
909.647	3325
909.762	3291
909.878	3279
909.993	3336
910.108	3348
910.224	3344
910.339	3405
910.454	3344
910.57	3306
910.685	3188
910.8	3587
910.915	3542
911.03	3431
911.145	3272
911.259	3260
911.374	3336
911.489	3245
911.604	3211
911.718	3108
911.833	3142
911.947	3070
912.062	2982
912.176	3211
912.291	3203
912.405	3222
912.519	3401
912.633	3424
912.748	3306
912.862	3256
912.976	3131
913.09	3100
913.204	3161
913.318	3214
913.431	3367
913.545	3302
913.659	3428
913.772	3291
913.886	3241
914	3207
914.113	3351
914.226	3393
914.34	3370
914.453	3218
914.566	3416
914.68	3313
914.793	3310
914.906	3123
915.019	3085
915.132	3074
915.245	3199
915.358	3173
915.47	3241
915.583	3253
915.696	3283
915.809	3397
915.921	3351
916.034	3283
916.146	3268
916.259	3214
916.371	3374
916.483	3348
916.595	3279
916.708	3310
916.82	3344
916.932	3355
917.044	3336
917.156	3359
917.268	3275
917.38	3294
917.491	3298
917.603	3355
917.715	3428
917.826	3496
917.938	3382
918.049	3253
918.161	3469
918.272	3557
918.384	3549
918.495	3435
918.606	3359
918.717	3291
918.828	3348
918.939	3431
919.05	3306
919.161	3351
919.272	3184
919.383	3272
919.494	3515
919.604	3690
919.715	3458
919.826	3363
919.936	3443
920.047	3603
920.157	3568
920.267	3732
920.378	3591
920.488	3534
920.598	3766
920.708	3930
920.818	3816
920.928	3854
921.038	3998
921.148	3991
921.258	3667
921.368	3656
921.477	3549
921.587	3553
921.697	3443
921.806	3644
921.916	3458
922.025	3355
922.134	3359
922.244	3336
922.353	3416
922.462	3241
922.571	3268
922.68	3112
922.789	3070
922.898	3154
923.007	3104
923.116	3192
923.224	3161
923.333	3180
923.442	3138
923.55	3104
923.659	3150
923.767	3245
923.876	3104
923.984	3237
924.092	3077
924.201	3192
924.309	3203
924.417	3268
924.525	3188
924.633	3260
924.741	4196
924.849	3058
924.956	3268
925.064	3112
925.172	3058
925.279	3108
925.387	3214
925.494	3157
925.602	3386
925.709	3340
925.816	3214
925.924	3279
926.031	3393
926.138	3348
926.245	3359
926.352	3291
926.459	3378
926.566	3477
926.673	3321
926.779	3253
926.886	3264
926.993	3123
927.099	3127
927.206	3108
927.312	3112
927.419	3264
927.525	3214
927.631	3264
927.737	3138
927.843	3135
927.95	3039
928.056	3097
928.162	3180
928.267	3264
928.373	3854
928.479	3287
928.585	3081
928.69	3188
928.796	3310
928.901	3203
929.007	3047
929.112	3195
929.218	3195
929.323	3127
929.428	3131
929.533	3340
929.638	3131
929.743	3142
929.848	3237
929.953	3199
930.058	3131
930.163	3001
930.267	3013
930.372	3184
930.477	3028
930.581	3317
930.685	3199
930.79	3051
930.894	3119
930.998	3062
931.103	3260
931.207	2944
931.311	2933
931.415	2941
931.519	2746
931.623	2819
