Data from test_V78500241_1012.txt Node
Date: Fri Mar 25 16:22:12 CST 2022
User: usil
Spectrometer: V785-0024
Trigger mode: 0
Integration Time (sec): 4.000000E-1
Scans to average: 1
Nonlinearity correction enabled: false
Boxcar width: 0
Storing dark spectrum: false
XAxis mode: Wavelengths
Number of Pixels in Spectrum: 1024
>>>>>Begin Spectral Data<<<<<
801.071	2925
801.214	2967
801.356	2899
801.499	2910
801.641	2883
801.783	2952
801.926	3066
802.068	2994
802.211	2960
802.353	3028
802.496	2960
802.638	3001
802.78	3017
802.923	3108
803.065	2982
803.208	2910
803.35	2914
803.492	2918
803.635	2967
803.777	2769
803.919	2872
804.061	3237
804.204	2960
804.346	2933
804.488	2880
804.63	3024
804.773	2910
804.915	2922
805.057	3100
805.199	2944
805.341	2998
805.483	3043
805.626	3028
805.768	2963
805.91	3097
806.052	3077
806.194	3043
806.336	3283
806.478	3024
806.62	2986
806.762	3001
806.904	3108
807.046	3180
807.188	2986
807.33	2902
807.472	2994
807.614	2902
807.756	2982
807.898	2937
808.04	2910
808.182	3005
808.324	2975
808.465	2933
808.607	2922
808.749	2815
808.891	2849
809.033	2982
809.174	3013
809.316	2925
809.458	2902
809.6	2785
809.741	2769
809.883	2762
810.025	2883
810.166	2876
810.308	2849
810.45	2880
810.591	2807
810.733	2777
810.875	2880
811.016	2781
811.158	2792
811.299	2804
811.441	2906
811.582	2876
811.724	2830
811.865	2857
812.007	2929
812.148	2883
812.29	2864
812.431	2910
812.573	2929
812.714	2971
812.855	3081
812.997	3009
813.138	3100
813.279	3017
813.421	2975
813.562	2967
813.703	2910
813.845	2902
813.986	2758
814.127	2727
814.268	2769
814.41	2853
814.551	2815
814.692	2902
814.833	2804
814.974	2902
815.115	2986
815.256	2880
815.397	2807
815.539	2857
815.68	2823
815.821	2811
815.962	2941
816.103	2910
816.244	2895
816.385	2906
816.526	2982
816.666	2937
816.807	2743
816.948	2895
817.089	2941
817.23	2845
817.371	2796
817.512	2792
817.653	2872
817.793	2819
817.934	2895
818.075	2963
818.216	3001
818.356	3020
818.497	2899
818.638	2807
818.778	2826
818.919	2777
819.06	2731
819.2	2902
819.341	2823
819.481	2830
819.622	2929
819.762	3104
819.903	3032
820.043	2910
820.184	2929
820.324	2925
820.465	2982
820.605	3055
820.746	3043
820.886	2941
821.026	3104
821.167	3142
821.307	3317
821.447	3275
821.588	3226
821.728	3214
821.868	3188
822.008	3062
822.149	3184
822.289	3241
822.429	3093
822.569	3142
822.709	3222
822.849	3066
822.99	3066
823.13	3157
823.27	3203
823.41	3112
823.55	3157
823.69	3195
823.83	3199
823.97	3085
824.11	3032
824.25	3024
824.389	3074
824.529	3112
824.669	3074
824.809	3203
824.949	3256
825.089	3226
825.228	3180
825.368	2998
825.508	2998
825.648	2982
825.787	3081
825.927	3020
826.067	2967
826.206	2937
826.346	3039
826.485	3089
826.625	3119
826.765	3272
826.904	3241
827.044	3017
827.183	2906
827.323	2880
827.462	3001
827.601	2918
827.741	2918
827.88	2960
828.02	2830
828.159	3013
828.298	3020
828.437	3116
828.577	3074
828.716	3260
828.855	3093
828.994	2914
829.134	2933
829.273	2918
829.412	2902
829.551	2849
829.69	2910
829.829	2963
829.968	3119
830.107	3024
830.246	3005
830.385	2914
830.524	2899
830.663	2857
830.802	2731
830.941	2640
831.08	2682
831.219	2773
831.357	2750
831.496	2929
831.635	2739
831.774	2659
831.913	2655
832.051	2552
832.19	2617
832.329	2659
832.467	2518
832.606	2507
832.744	2598
832.883	2587
833.022	2579
833.16	2678
833.299	2655
833.437	2708
833.576	2716
833.714	2716
833.852	2735
833.991	2762
834.129	2834
834.267	2792
834.406	2773
834.544	2868
834.682	2876
834.821	2864
834.959	3036
835.097	2910
835.235	3051
835.373	3013
835.511	3005
835.65	2975
835.788	2971
835.926	2868
836.064	2823
836.202	2868
836.34	3100
836.478	3161
836.615	3043
836.753	3157
836.891	3226
837.029	3142
837.167	3108
837.305	3062
837.443	3028
837.58	2960
837.718	3165
837.856	3089
837.993	3051
838.131	3070
838.269	3119
838.406	3051
838.544	3085
838.681	2944
838.819	2910
838.956	2815
839.094	2815
839.231	2902
839.369	3047
839.506	3340
839.643	3230
839.781	3001
839.918	2982
840.055	3028
840.193	3028
840.33	3036
840.467	3085
840.604	3154
840.742	3431
840.879	3036
841.016	3017
841.153	3100
841.29	3313
841.427	3310
841.564	3306
841.701	3321
841.838	3176
841.975	3176
842.112	3222
842.249	3047
842.385	3009
842.522	3249
842.659	3081
842.796	3104
842.933	3146
843.069	3009
843.206	3043
843.343	3230
843.479	3058
843.616	3154
843.752	2899
843.889	2853
844.025	3051
844.162	2895
844.298	3093
844.435	2971
844.571	2933
844.708	3055
844.844	3169
844.98	3207
845.117	3157
845.253	3058
845.389	3024
845.525	3123
845.661	3085
845.798	3005
845.934	3097
846.07	3085
846.206	3241
846.342	3321
846.478	3211
846.614	3093
846.75	3024
846.886	3051
847.022	3241
847.158	3180
847.294	3184
847.429	3268
847.565	3188
847.701	3485
847.837	3032
847.972	3013
848.108	3150
848.244	3157
848.379	2982
848.515	2929
848.65	2975
848.786	2963
848.921	3001
849.057	3112
849.192	3180
849.328	3093
849.463	3108
849.598	3024
849.734	3047
849.869	2967
850.004	2941
850.14	2986
850.275	2922
850.41	2868
850.545	2902
850.68	2925
850.815	2960
850.95	2967
851.085	3176
851.22	3112
851.355	3013
851.49	2982
851.625	3017
851.76	3017
851.895	2937
852.03	2925
852.165	3009
852.299	3097
852.434	3154
852.569	3104
852.703	3176
852.838	3287
852.973	3363
853.107	3325
853.242	3154
853.376	3119
853.511	2975
853.645	3020
853.78	3245
853.914	3093
854.048	3097
854.183	3055
854.317	3116
854.451	3233
854.585	3127
854.72	3043
854.854	3203
854.988	3051
855.122	3127
855.256	2963
855.39	3116
855.524	3226
855.658	3188
855.792	3192
855.926	3192
856.06	3214
856.194	3245
856.327	3127
856.461	3081
856.595	3089
856.729	3077
856.862	3199
856.996	3199
857.13	3165
857.263	3241
857.397	3260
857.53	3123
857.664	3184
857.797	3184
857.931	3211
858.064	3184
858.197	3195
858.331	3123
858.464	3058
858.597	2982
858.731	3100
858.864	3104
858.997	3089
859.13	3108
859.263	3199
859.396	3199
859.529	3074
859.662	3081
859.795	2998
859.928	3127
860.061	3291
860.194	3279
860.327	3138
860.46	3085
860.592	3230
860.725	3272
860.858	3222
860.99	3104
861.123	3028
861.256	3066
861.388	3146
861.521	3759
861.653	3017
861.786	2963
861.918	3009
862.05	3085
862.183	3089
862.315	3142
862.447	3203
862.58	3047
862.712	2963
862.844	2880
862.976	3032
863.108	2982
863.24	3416
863.372	2868
863.504	2906
863.636	2941
863.768	3005
863.9	2960
864.032	2891
864.164	2922
864.296	3009
864.428	3055
864.559	3108
864.691	3093
864.823	3055
864.954	3055
865.086	3032
865.217	2979
865.349	2925
865.48	3009
865.612	3009
865.743	3195
865.875	2982
866.006	2929
866.137	3001
866.269	2922
866.4	2952
866.531	2918
866.662	2899
866.793	2902
866.924	2891
867.055	2971
867.186	2899
867.317	2872
867.448	2826
867.579	2815
867.71	2823
867.841	2819
867.972	2922
868.103	2918
868.233	2834
868.364	2887
868.495	2914
868.625	3081
868.756	3173
868.886	3001
869.017	3024
869.147	3138
869.278	3184
869.408	3020
869.539	3039
869.669	3077
869.799	3055
869.929	3104
870.06	3043
870.19	3298
870.32	3275
870.45	3313
870.58	3351
870.71	3409
870.84	3458
870.97	3268
871.1	3222
871.23	3454
871.36	3458
871.489	3393
871.619	3386
871.749	3420
871.879	3401
872.008	3466
872.138	3336
872.267	3275
872.397	3154
872.526	3066
872.656	3024
872.785	3097
872.915	3230
873.044	3298
873.173	3272
873.303	3253
873.432	3245
873.561	3226
873.69	3135
873.819	3188
873.948	3157
874.077	3135
874.206	3062
874.335	3089
874.464	3207
874.593	3329
874.722	3226
874.851	3397
874.979	3344
875.108	3344
875.237	3207
875.365	3127
875.494	3131
875.623	3287
875.751	3070
875.88	3104
876.008	3184
876.136	3237
876.265	3374
876.393	3526
876.521	3397
876.65	3393
876.778	3351
876.906	3226
877.034	3188
877.162	3203
877.29	3203
877.418	3245
877.546	3279
877.674	3272
877.802	3222
877.93	3211
878.058	3127
878.185	3074
878.313	3203
878.441	3207
878.568	3055
878.696	3131
878.824	3256
878.951	3310
879.079	3466
879.206	3587
879.333	3454
879.461	3329
879.588	3378
879.715	3492
879.842	3591
879.97	3378
880.097	3176
880.224	3104
880.351	3237
880.478	3173
880.605	3233
880.732	3184
880.859	3519
880.986	3306
881.112	3313
881.239	3218
881.366	3116
881.493	3024
881.619	3009
881.746	3074
881.872	3123
881.999	3089
882.125	3150
882.252	3230
882.378	3272
882.505	3447
882.631	3291
882.757	3119
882.883	3173
883.01	3230
883.136	3142
883.262	3123
883.388	3089
883.514	3306
883.64	3405
883.766	3253
883.892	3184
884.018	3241
884.143	3428
884.269	3485
884.395	3199
884.52	3157
884.646	3214
884.772	3070
884.897	3093
885.023	3157
885.148	3287
885.274	3409
885.399	3363
885.524	3253
885.65	3184
885.775	3294
885.9	3222
886.025	3405
886.15	3367
886.275	3260
886.4	3214
886.525	3245
886.65	3253
886.775	3279
886.9	3443
887.025	3599
887.149	3386
887.274	3272
887.399	3173
887.523	3211
887.648	3207
887.773	3218
887.897	3351
888.021	3389
888.146	3291
888.27	3428
888.395	3488
888.519	3397
888.643	3473
888.767	3473
888.891	3310
889.015	3249
889.139	3268
889.263	3226
889.387	3393
889.511	3473
889.635	3431
889.759	3272
889.883	3317
890.006	3344
890.13	3473
890.254	3264
890.377	3329
890.501	3154
890.624	3222
890.748	3287
890.871	3165
890.995	3127
891.118	3043
891.241	3211
891.364	3192
891.488	3287
891.611	3169
891.734	3131
891.857	3272
891.98	3230
892.103	3325
892.226	3272
892.349	3203
892.471	3127
892.594	3233
892.717	3306
892.839	3260
892.962	3302
893.085	3313
893.207	3279
893.33	3150
893.452	3188
893.575	3321
893.697	3256
893.819	3447
893.941	3473
894.064	3462
894.186	3306
894.308	3226
894.43	3405
894.552	3515
894.674	3435
894.796	3264
894.918	3306
895.04	3264
895.161	3397
895.283	3409
895.405	3310
895.526	3363
895.648	3435
895.769	3401
895.891	3454
896.012	3466
896.134	3462
896.255	3435
896.376	3393
896.498	3397
896.619	3462
896.74	3382
896.861	3416
896.982	3652
897.103	3838
897.224	3584
897.345	3523
897.466	3447
897.587	3519
897.708	3576
897.828	3542
897.949	3462
898.07	3302
898.19	3409
898.311	3595
898.431	3462
898.552	3485
898.672	3591
898.792	3542
898.913	3500
899.033	3409
899.153	3332
899.273	3203
899.393	3275
899.513	3325
899.633	3321
899.753	3355
899.873	3329
899.993	3351
900.113	3321
900.232	3389
900.352	3325
900.472	3287
900.591	3176
900.711	3306
900.83	3211
900.95	3389
901.069	3469
901.189	3378
901.308	3154
901.427	3169
901.546	3188
901.665	3253
901.784	3302
901.904	3211
902.023	3180
902.141	3024
902.26	3005
902.379	3161
902.498	3066
902.617	3070
902.735	3192
902.854	3222
902.973	3173
903.091	3036
903.21	3058
903.328	3131
903.446	3135
903.565	3085
903.683	3222
903.801	3058
903.919	3249
904.038	3298
904.156	3169
904.274	3294
904.392	3264
904.51	3249
904.627	3306
904.745	3431
904.863	3488
904.981	3268
905.098	3180
905.216	3203
905.334	3317
905.451	3287
905.569	3306
905.686	3454
905.803	3428
905.921	3249
906.038	3424
906.155	3378
906.272	3233
906.389	3351
906.506	3245
906.623	3230
906.74	3241
906.857	3207
906.974	3256
907.091	3431
907.208	3553
907.324	3458
907.441	3397
907.557	3256
907.674	3233
907.79	3173
907.907	3264
908.023	3329
908.139	3374
908.256	3340
908.372	3397
908.488	3367
908.604	3272
908.72	3226
908.836	3344
908.952	3279
909.068	3355
909.184	3466
909.3	3351
909.415	3477
909.531	3519
909.647	3279
909.762	3264
909.878	3237
909.993	3363
910.108	3336
910.224	3363
910.339	3389
910.454	3378
910.57	3348
910.685	3245
910.8	3591
910.915	3549
911.03	3462
911.145	3256
911.259	3298
911.374	3325
911.489	3264
911.604	3264
911.718	3157
911.833	3173
911.947	3028
912.062	2982
912.176	3192
912.291	3184
912.405	3233
912.519	3412
912.633	3454
912.748	3332
912.862	3275
912.976	3169
913.09	3070
913.204	3097
913.318	3192
913.431	3310
913.545	3348
913.659	3374
913.772	3313
913.886	3222
914	3218
914.113	3359
914.226	3412
914.34	3397
914.453	3199
914.566	3435
914.68	3275
914.793	3329
914.906	3135
915.019	3085
915.132	3093
915.245	3180
915.358	3192
915.47	3241
915.583	3272
915.696	3336
915.809	3363
915.921	3420
916.034	3230
916.146	3230
916.259	3260
916.371	3348
916.483	3378
916.595	3233
916.708	3329
916.82	3332
916.932	3355
917.044	3310
917.156	3317
917.268	3253
917.38	3287
917.491	3275
917.603	3397
917.715	3450
917.826	3454
917.938	3351
918.049	3260
918.161	3420
918.272	3572
918.384	3580
918.495	3492
918.606	3340
918.717	3275
918.828	3389
918.939	3386
919.05	3294
919.161	3389
919.272	3157
919.383	3272
919.494	3519
919.604	3667
919.715	3477
919.826	3420
919.936	3420
920.047	3606
920.157	3534
920.267	3770
920.378	3622
920.488	3603
920.598	3793
920.708	3964
920.818	3850
920.928	3808
921.038	4017
921.148	3991
921.258	3713
921.368	3648
921.477	3572
921.587	3549
921.697	3450
921.806	3595
921.916	3515
922.025	3367
922.134	3355
922.244	3310
922.353	3439
922.462	3241
922.571	3237
922.68	3089
922.789	3097
922.898	3142
923.007	3085
923.116	3230
923.224	3135
923.333	3176
923.442	3112
923.55	3127
923.659	3154
923.767	3218
923.876	3135
923.984	3272
924.092	3089
924.201	3180
924.309	3195
924.417	3260
924.525	3199
924.633	3237
924.741	4135
924.849	3039
924.956	3245
925.064	3089
925.172	3058
925.279	3089
925.387	3192
925.494	3184
925.602	3351
925.709	3340
925.816	3195
925.924	3294
926.031	3351
926.138	3298
926.245	3374
926.352	3214
926.459	3393
926.566	3458
926.673	3298
926.779	3245
926.886	3249
926.993	3157
927.099	3093
927.206	3123
927.312	3093
927.419	3256
927.525	3195
927.631	3264
927.737	3192
927.843	3116
927.95	3013
928.056	3150
928.162	3165
928.267	3233
928.373	3831
928.479	3310
928.585	3074
928.69	3218
928.796	3249
928.901	3157
929.007	3051
929.112	3176
929.218	3207
929.323	3100
929.428	3188
929.533	3317
929.638	3104
929.743	3142
929.848	3245
929.953	3199
930.058	3154
930.163	3055
930.267	3077
930.372	3195
930.477	3013
930.581	3291
930.685	3150
930.79	3043
930.894	3157
930.998	3104
931.103	3253
931.207	2960
931.311	2937
931.415	2918
931.519	2739
931.623	2792
