Data from test_V78500241_1956.txt Node
Date: Fri Mar 25 16:28:45 CST 2022
User: usil
Spectrometer: V785-0024
Trigger mode: 0
Integration Time (sec): 4.000000E-1
Scans to average: 1
Nonlinearity correction enabled: false
Boxcar width: 0
Storing dark spectrum: false
XAxis mode: Wavelengths
Number of Pixels in Spectrum: 1024
>>>>>Begin Spectral Data<<<<<
801.071	2872
801.214	2948
801.356	2891
801.499	2918
801.641	2883
801.783	2925
801.926	3055
802.068	3001
802.211	2971
802.353	3017
802.496	2971
802.638	3020
802.78	3043
802.923	3074
803.065	3032
803.208	2853
803.35	2899
803.492	2929
803.635	2971
803.777	2800
803.919	2902
804.061	3226
804.204	2948
804.346	2922
804.488	2880
804.63	3001
804.773	2864
804.915	2944
805.057	3104
805.199	2895
805.341	2982
805.483	3036
805.626	2971
805.768	2994
805.91	3089
806.052	3066
806.194	3039
806.336	3222
806.478	3024
806.62	2918
806.762	2944
806.904	3066
807.046	3165
807.188	2986
807.33	2899
807.472	3020
807.614	2925
807.756	3013
807.898	2937
808.04	2891
808.182	2986
808.324	2948
808.465	2880
808.607	2880
808.749	2792
808.891	2845
809.033	2994
809.174	2948
809.316	2876
809.458	2895
809.6	2811
809.741	2777
809.883	2762
810.025	2849
810.166	2845
810.308	2845
810.45	2853
810.591	2788
810.733	2773
810.875	2838
811.016	2781
811.158	2781
811.299	2826
811.441	2910
811.582	2895
811.724	2777
811.865	2830
812.007	2948
812.148	2857
812.29	2834
812.431	2918
812.573	2937
812.714	2944
812.855	3043
812.997	3047
813.138	3097
813.279	2994
813.421	3001
813.562	2963
813.703	2883
813.845	2868
813.986	2781
814.127	2708
814.268	2826
814.41	2826
814.551	2792
814.692	2868
814.833	2823
814.974	2910
815.115	2975
815.256	2811
815.397	2796
815.539	2849
815.68	2811
815.821	2823
815.962	2899
816.103	2887
816.244	2895
816.385	2872
816.526	2948
816.666	2910
816.807	2735
816.948	2872
817.089	2906
817.23	2864
817.371	2792
817.512	2819
817.653	2868
817.793	2834
817.934	2902
818.075	2929
818.216	2998
818.356	3024
818.497	2899
818.638	2766
818.778	2819
818.919	2754
819.06	2773
819.2	2872
819.341	2826
819.481	2804
819.622	2868
819.762	3104
819.903	3039
820.043	2895
820.184	2868
820.324	2880
820.465	3024
820.605	3005
820.746	3020
820.886	2979
821.026	3119
821.167	3169
821.307	3256
821.447	3291
821.588	3230
821.728	3207
821.868	3207
822.008	3077
822.149	3192
822.289	3230
822.429	3077
822.569	3108
822.709	3157
822.849	3013
822.99	3085
823.13	3188
823.27	3176
823.41	3077
823.55	3146
823.69	3154
823.83	3180
823.97	3074
824.11	3036
824.25	3047
824.389	3104
824.529	3112
824.669	3077
824.809	3207
824.949	3283
825.089	3230
825.228	3146
825.368	3005
825.508	2979
825.648	2975
825.787	3013
825.927	2994
826.067	2986
826.206	2963
826.346	3066
826.485	3058
826.625	3123
826.765	3260
826.904	3207
827.044	2956
827.183	2895
827.323	2872
827.462	2998
827.601	2910
827.741	2937
827.88	2952
828.02	2845
828.159	2948
828.298	2998
828.437	3081
828.577	3020
828.716	3272
828.855	3081
828.994	2914
829.134	2906
829.273	2929
829.412	2830
829.551	2819
829.69	2899
829.829	2979
829.968	3157
830.107	3036
830.246	3017
830.385	2902
830.524	2868
830.663	2845
830.802	2758
830.941	2667
831.08	2659
831.219	2754
831.357	2781
831.496	2941
831.635	2735
831.774	2659
831.913	2663
832.051	2556
832.19	2613
832.329	2697
832.467	2511
832.606	2499
832.744	2625
832.883	2556
833.022	2590
833.16	2636
833.299	2678
833.437	2693
833.576	2682
833.714	2727
833.852	2743
833.991	2720
834.129	2811
834.267	2819
834.406	2773
834.544	2895
834.682	2887
834.821	2880
834.959	3062
835.097	2914
835.235	3062
835.373	2986
835.511	2982
835.65	2933
835.788	2963
835.926	2868
836.064	2823
836.202	2834
836.34	3058
836.478	3138
836.615	3017
836.753	3104
836.891	3176
837.029	3146
837.167	3081
837.305	3070
837.443	3017
837.58	2941
837.718	3146
837.856	3047
837.993	3036
838.131	3150
838.269	3142
838.406	3119
838.544	3089
838.681	2944
838.819	2895
838.956	2807
839.094	2861
839.231	2899
839.369	3058
839.506	3321
839.643	3226
839.781	3028
839.918	2971
840.055	3058
840.193	3051
840.33	3074
840.467	3093
840.604	3131
840.742	3412
840.879	3089
841.016	3043
841.153	3100
841.29	3344
841.427	3310
841.564	3268
841.701	3291
841.838	3237
841.975	3207
842.112	3203
842.249	3051
842.385	3058
842.522	3294
842.659	3066
842.796	3009
842.933	3112
843.069	3028
843.206	3013
843.343	3195
843.479	3112
843.616	3161
843.752	2880
843.889	2868
844.025	3066
844.162	2876
844.298	3062
844.435	2925
844.571	2910
844.708	3036
844.844	3157
844.98	3230
845.117	3169
845.253	3074
845.389	2998
845.525	3097
845.661	3066
845.798	2990
845.934	3127
846.07	3032
846.206	3214
846.342	3325
846.478	3268
846.614	3062
846.75	3032
846.886	3039
847.022	3260
847.158	3146
847.294	3203
847.429	3203
847.565	3218
847.701	3481
847.837	3001
847.972	2986
848.108	3154
848.244	3165
848.379	3001
848.515	2922
848.65	2918
848.786	2975
848.921	2971
849.057	3089
849.192	3142
849.328	3032
849.463	3142
849.598	3039
849.734	3028
849.869	2967
850.004	2906
850.14	2952
850.275	2906
850.41	2849
850.545	2910
850.68	2922
850.815	2975
850.95	2952
851.085	3218
851.22	3093
851.355	3009
851.49	2971
851.625	2952
851.76	3036
851.895	2910
852.03	2918
852.165	2982
852.299	3097
852.434	3138
852.569	3154
852.703	3176
852.838	3218
852.973	3359
853.107	3310
853.242	3154
853.376	3108
853.511	2960
853.645	3036
853.78	3226
853.914	3146
854.048	3104
854.183	3077
854.317	3154
854.451	3275
854.585	3123
854.72	3089
854.854	3176
854.988	3036
855.122	3058
855.256	2948
855.39	3089
855.524	3245
855.658	3161
855.792	3157
855.926	3169
856.06	3180
856.194	3275
856.327	3116
856.461	3058
856.595	3058
856.729	3081
856.862	3203
856.996	3176
857.13	3184
857.263	3233
857.397	3306
857.53	3131
857.664	3184
857.797	3218
857.931	3253
858.064	3173
858.197	3199
858.331	3112
858.464	3062
858.597	3017
858.731	3104
858.864	3108
858.997	3104
859.13	3173
859.263	3138
859.396	3169
859.529	3074
859.662	3055
859.795	3032
859.928	3138
860.061	3249
860.194	3275
860.327	3123
860.46	3077
860.592	3211
860.725	3264
860.858	3283
860.99	3066
861.123	3036
861.256	3055
861.388	3150
861.521	3797
861.653	3024
861.786	3001
861.918	3013
862.05	3066
862.183	3077
862.315	3150
862.447	3180
862.58	3089
862.712	2944
862.844	2891
862.976	3009
863.108	3013
863.24	3310
863.372	2883
863.504	2952
863.636	2948
863.768	3020
863.9	2990
864.032	2922
864.164	2933
864.296	2998
864.428	3077
864.559	3093
864.691	3077
864.823	3013
864.954	3028
865.086	3062
865.217	3017
865.349	2967
865.48	2967
865.612	3017
865.743	3169
865.875	2975
866.006	2918
866.137	2971
866.269	2929
866.4	2922
866.531	2933
866.662	2880
866.793	2883
866.924	2899
867.055	2971
867.186	2922
867.317	2883
867.448	2842
867.579	2830
867.71	2845
867.841	2792
867.972	2868
868.103	2906
868.233	2868
868.364	2861
868.495	2914
868.625	3074
868.756	3188
868.886	2979
869.017	3020
869.147	3180
869.278	3154
869.408	3051
869.539	3039
869.669	3070
869.799	3013
869.929	3077
870.06	3100
870.19	3310
870.32	3283
870.45	3298
870.58	3397
870.71	3431
870.84	3458
870.97	3249
871.1	3249
871.23	3462
871.36	3473
871.489	3336
871.619	3389
871.749	3389
871.879	3473
872.008	3492
872.138	3355
872.267	3237
872.397	3135
872.526	3074
872.656	2994
872.785	3100
872.915	3268
873.044	3332
873.173	3230
873.303	3245
873.432	3230
873.561	3230
873.69	3131
873.819	3157
873.948	3192
874.077	3104
874.206	3043
874.335	3051
874.464	3230
874.593	3332
874.722	3260
874.851	3424
874.979	3306
875.108	3279
875.237	3188
875.365	3150
875.494	3157
875.623	3211
875.751	3093
875.88	3108
876.008	3211
876.136	3199
876.265	3370
876.393	3526
876.521	3393
876.65	3420
876.778	3382
876.906	3233
877.034	3222
877.162	3222
877.29	3161
877.418	3268
877.546	3249
877.674	3272
877.802	3218
877.93	3211
878.058	3180
878.185	3108
878.313	3188
878.441	3180
878.568	3070
878.696	3142
878.824	3237
878.951	3264
879.079	3450
879.206	3595
879.333	3431
879.461	3329
879.588	3332
879.715	3496
879.842	3564
879.97	3370
880.097	3180
880.224	3142
880.351	3203
880.478	3226
880.605	3157
880.732	3169
880.859	3469
880.986	3317
881.112	3340
881.239	3161
881.366	3085
881.493	3020
881.619	2979
881.746	3062
881.872	3085
881.999	3093
882.125	3116
882.252	3260
882.378	3279
882.505	3428
882.631	3275
882.757	3157
882.883	3184
883.01	3218
883.136	3161
883.262	3074
883.388	3093
883.514	3306
883.64	3397
883.766	3298
883.892	3188
884.018	3226
884.143	3374
884.269	3557
884.395	3184
884.52	3154
884.646	3146
884.772	3119
884.897	3116
885.023	3230
885.148	3363
885.274	3435
885.399	3389
885.524	3291
885.65	3222
885.775	3332
885.9	3241
886.025	3431
886.15	3348
886.275	3283
886.4	3214
886.525	3325
886.65	3272
886.775	3275
886.9	3507
887.025	3625
887.149	3386
887.274	3245
887.399	3241
887.523	3203
887.648	3192
887.773	3222
887.897	3367
888.021	3397
888.146	3351
888.27	3439
888.395	3523
888.519	3386
888.643	3462
888.767	3454
888.891	3283
889.015	3226
889.139	3310
889.263	3260
889.387	3424
889.511	3530
889.635	3424
889.759	3279
889.883	3294
890.006	3348
890.13	3443
890.254	3287
890.377	3336
890.501	3180
890.624	3161
890.748	3279
890.871	3199
890.995	3093
891.118	3062
891.241	3142
891.364	3230
891.488	3275
891.611	3135
891.734	3226
891.857	3260
891.98	3264
892.103	3336
892.226	3237
892.349	3199
892.471	3138
892.594	3253
892.717	3287
892.839	3272
892.962	3325
893.085	3348
893.207	3283
893.33	3146
893.452	3195
893.575	3351
893.697	3256
893.819	3477
893.941	3492
894.064	3469
894.186	3279
894.308	3256
894.43	3416
894.552	3511
894.674	3500
894.796	3275
894.918	3336
895.04	3245
895.161	3435
895.283	3405
895.405	3283
895.526	3359
895.648	3462
895.769	3447
895.891	3469
896.012	3496
896.134	3435
896.255	3397
896.376	3367
896.498	3393
896.619	3462
896.74	3359
896.861	3401
896.982	3690
897.103	3827
897.224	3610
897.345	3519
897.466	3454
897.587	3466
897.708	3610
897.828	3580
897.949	3439
898.07	3344
898.19	3409
898.311	3603
898.431	3477
898.552	3545
898.672	3549
898.792	3606
898.913	3542
899.033	3382
899.153	3302
899.273	3230
899.393	3291
899.513	3256
899.633	3317
899.753	3329
899.873	3325
899.993	3405
900.113	3291
900.232	3409
900.352	3310
900.472	3298
900.591	3165
900.711	3294
900.83	3256
900.95	3416
901.069	3515
901.189	3386
901.308	3161
901.427	3119
901.546	3184
901.665	3272
901.784	3313
901.904	3203
902.023	3173
902.141	3020
902.26	2979
902.379	3116
902.498	3085
902.617	3024
902.735	3237
902.854	3241
902.973	3188
903.091	3039
903.21	3089
903.328	3165
903.446	3074
903.565	3077
903.683	3176
903.801	3146
903.919	3260
904.038	3268
904.156	3142
904.274	3321
904.392	3256
904.51	3272
904.627	3310
904.745	3416
904.863	3500
904.981	3245
905.098	3157
905.216	3203
905.334	3302
905.451	3310
905.569	3294
905.686	3420
905.803	3424
905.921	3275
906.038	3428
906.155	3363
906.272	3279
906.389	3340
906.506	3260
906.623	3222
906.74	3279
906.857	3211
906.974	3272
907.091	3439
907.208	3549
907.324	3450
907.441	3397
907.557	3241
907.674	3211
907.79	3222
907.907	3241
908.023	3397
908.139	3359
908.256	3313
908.372	3355
908.488	3325
908.604	3264
908.72	3260
908.836	3237
908.952	3283
909.068	3378
909.184	3469
909.3	3370
909.415	3496
909.531	3416
909.647	3268
909.762	3298
909.878	3260
909.993	3355
910.108	3348
910.224	3363
910.339	3401
910.454	3313
910.57	3287
910.685	3241
910.8	3576
910.915	3542
911.03	3397
911.145	3253
911.259	3272
911.374	3340
911.489	3222
911.604	3237
911.718	3154
911.833	3131
911.947	3013
912.062	2986
912.176	3161
912.291	3218
912.405	3233
912.519	3416
912.633	3469
912.748	3325
912.862	3268
912.976	3157
913.09	3081
913.204	3161
913.318	3184
913.431	3306
913.545	3321
913.659	3409
913.772	3336
913.886	3233
914	3180
914.113	3382
914.226	3405
914.34	3378
914.453	3233
914.566	3363
914.68	3283
914.793	3256
914.906	3169
915.019	3135
915.132	3074
915.245	3203
915.358	3199
915.47	3249
915.583	3241
915.696	3272
915.809	3439
915.921	3401
916.034	3279
916.146	3249
916.259	3222
916.371	3393
916.483	3348
916.595	3268
916.708	3310
916.82	3306
916.932	3321
917.044	3351
917.156	3355
917.268	3256
917.38	3336
917.491	3291
917.603	3378
917.715	3458
917.826	3443
917.938	3359
918.049	3283
918.161	3420
918.272	3580
918.384	3538
918.495	3462
918.606	3313
918.717	3268
918.828	3348
918.939	3382
919.05	3298
919.161	3321
919.272	3161
919.383	3256
919.494	3496
919.604	3641
919.715	3469
919.826	3401
919.936	3469
920.047	3584
920.157	3515
920.267	3720
920.378	3606
920.488	3561
920.598	3778
920.708	3937
920.818	3819
920.928	3842
921.038	4059
921.148	3987
921.258	3717
921.368	3610
921.477	3576
921.587	3561
921.697	3481
921.806	3591
921.916	3507
922.025	3359
922.134	3374
922.244	3287
922.353	3409
922.462	3241
922.571	3207
922.68	3108
922.789	3043
922.898	3161
923.007	3077
923.116	3207
923.224	3184
923.333	3154
923.442	3047
923.55	3081
923.659	3142
923.767	3241
923.876	3146
923.984	3218
924.092	3119
924.201	3241
924.309	3211
924.417	3249
924.525	3199
924.633	3268
924.741	4154
924.849	3020
924.956	3253
925.064	3093
925.172	3017
925.279	3138
925.387	3218
925.494	3218
925.602	3332
925.709	3340
925.816	3188
925.924	3264
926.031	3416
926.138	3332
926.245	3370
926.352	3260
926.459	3409
926.566	3481
926.673	3348
926.779	3283
926.886	3241
926.993	3150
927.099	3131
927.206	3085
927.312	3119
927.419	3207
927.525	3176
927.631	3264
927.737	3138
927.843	3165
927.95	3020
928.056	3135
928.162	3157
928.267	3245
928.373	3865
928.479	3275
928.585	3108
928.69	3241
928.796	3214
928.901	3157
929.007	3093
929.112	3218
929.218	3207
929.323	3142
929.428	3165
929.533	3321
929.638	3112
929.743	3161
929.848	3245
929.953	3192
930.058	3116
930.163	2998
930.267	3047
930.372	3188
930.477	3024
930.581	3310
930.685	3161
930.79	3043
930.894	3135
930.998	3104
931.103	3279
931.207	2956
931.311	2925
931.415	2941
931.519	2796
931.623	2823
