Data from test_V78500241_483.txt Node
Date: Fri Mar 25 16:18:32 CST 2022
User: usil
Spectrometer: V785-0024
Trigger mode: 0
Integration Time (sec): 4.000000E-1
Scans to average: 1
Nonlinearity correction enabled: false
Boxcar width: 0
Storing dark spectrum: false
XAxis mode: Wavelengths
Number of Pixels in Spectrum: 1024
>>>>>Begin Spectral Data<<<<<
801.071	2914
801.214	2971
801.356	2876
801.499	2922
801.641	2902
801.783	2948
801.926	3062
802.068	3017
802.211	3036
802.353	3070
802.496	2941
802.638	3036
802.78	3017
802.923	3108
803.065	3024
803.208	2922
803.35	2952
803.492	2952
803.635	2929
803.777	2773
803.919	2899
804.061	3203
804.204	2975
804.346	2937
804.488	2819
804.63	3005
804.773	2880
804.915	2906
805.057	3097
805.199	2910
805.341	2990
805.483	3032
805.626	3009
805.768	2986
805.91	3085
806.052	3123
806.194	3020
806.336	3264
806.478	3051
806.62	2941
806.762	3020
806.904	3062
807.046	3180
807.188	2982
807.33	2914
807.472	2963
807.614	2929
807.756	3028
807.898	2944
808.04	2857
808.182	3005
808.324	2941
808.465	2876
808.607	2914
808.749	2804
808.891	2842
809.033	2948
809.174	2956
809.316	2918
809.458	2876
809.6	2735
809.741	2743
809.883	2773
810.025	2834
810.166	2910
810.308	2864
810.45	2849
810.591	2777
810.733	2766
810.875	2849
811.016	2788
811.158	2773
811.299	2830
811.441	2937
811.582	2910
811.724	2788
811.865	2845
812.007	2902
812.148	2880
812.29	2811
812.431	2899
812.573	2944
812.714	2956
812.855	3036
812.997	3047
813.138	3135
813.279	3017
813.421	2971
813.562	2979
813.703	2868
813.845	2895
813.986	2766
814.127	2746
814.268	2819
814.41	2830
814.551	2849
814.692	2876
814.833	2826
814.974	2899
815.115	2952
815.256	2842
815.397	2819
815.539	2883
815.68	2788
815.821	2800
815.962	2925
816.103	2914
816.244	2895
816.385	2849
816.526	2979
816.666	2922
816.807	2754
816.948	2876
817.089	2906
817.23	2891
817.371	2781
817.512	2796
817.653	2838
817.793	2819
817.934	2838
818.075	2960
818.216	2982
818.356	3028
818.497	2864
818.638	2754
818.778	2800
818.919	2796
819.06	2804
819.2	2872
819.341	2796
819.481	2788
819.622	2929
819.762	3081
819.903	3058
820.043	2914
820.184	2895
820.324	2883
820.465	3013
820.605	2971
820.746	3013
820.886	2925
821.026	3119
821.167	3154
821.307	3264
821.447	3237
821.588	3256
821.728	3165
821.868	3195
822.008	3058
822.149	3207
822.289	3256
822.429	3070
822.569	3070
822.709	3180
822.849	3009
822.99	3085
823.13	3169
823.27	3222
823.41	3085
823.55	3108
823.69	3161
823.83	3150
823.97	3081
824.11	2982
824.25	2963
824.389	3051
824.529	3104
824.669	3085
824.809	3188
824.949	3287
825.089	3264
825.228	3138
825.368	2963
825.508	2975
825.648	2975
825.787	3009
825.927	3028
826.067	2960
826.206	2929
826.346	3062
826.485	3055
826.625	3161
826.765	3294
826.904	3222
827.044	3009
827.183	2971
827.323	2918
827.462	3020
827.601	2929
827.741	2971
827.88	2971
828.02	2861
828.159	3013
828.298	3032
828.437	3104
828.577	3039
828.716	3306
828.855	3081
828.994	2922
829.134	2956
829.273	2982
829.412	2922
829.551	2887
829.69	2914
829.829	3005
829.968	3157
830.107	3062
830.246	3039
830.385	2952
830.524	2914
830.663	2861
830.802	2792
830.941	2727
831.08	2689
831.219	2788
831.357	2769
831.496	3020
831.635	2754
831.774	2712
831.913	2708
832.051	2583
832.19	2606
832.329	2731
832.467	2518
832.606	2530
832.744	2617
832.883	2625
833.022	2583
833.16	2701
833.299	2712
833.437	2731
833.576	2716
833.714	2792
833.852	2773
833.991	2777
834.129	2899
834.267	2826
834.406	2845
834.544	2910
834.682	2883
834.821	2895
834.959	3112
835.097	2937
835.235	3112
835.373	3058
835.511	3058
835.65	2998
835.788	3024
835.926	2899
836.064	2845
836.202	2864
836.34	3146
836.478	3207
836.615	3093
836.753	3169
836.891	3188
837.029	3199
837.167	3116
837.305	3097
837.443	3066
837.58	3005
837.718	3230
837.856	3081
837.993	3043
838.131	3142
838.269	3119
838.406	3138
838.544	3116
838.681	2990
838.819	2948
838.956	2842
839.094	2849
839.231	2948
839.369	3032
839.506	3458
839.643	3245
839.781	3055
839.918	2982
840.055	3097
840.193	3062
840.33	3089
840.467	3135
840.604	3195
840.742	3450
840.879	3108
841.016	3093
841.153	3138
841.29	3393
841.427	3298
841.564	3332
841.701	3359
841.838	3233
841.975	3195
842.112	3283
842.249	3131
842.385	3062
842.522	3294
842.659	3104
842.796	3108
842.933	3104
843.069	3066
843.206	3051
843.343	3180
843.479	3138
843.616	3195
843.752	2963
843.889	2861
844.025	3100
844.162	2918
844.298	3157
844.435	3001
844.571	2918
844.708	3108
844.844	3214
844.98	3272
845.117	3195
845.253	3097
845.389	3077
845.525	3135
845.661	3173
845.798	3066
845.934	3123
846.07	3089
846.206	3283
846.342	3370
846.478	3283
846.614	3077
846.75	3081
846.886	3070
847.022	3317
847.158	3165
847.294	3237
847.429	3260
847.565	3230
847.701	3469
847.837	3039
847.972	3013
848.108	3199
848.244	3188
848.379	3032
848.515	2990
848.65	2967
848.786	3013
848.921	2998
849.057	3131
849.192	3154
849.328	3081
849.463	3173
849.598	3104
849.734	3020
849.869	3024
850.004	2956
850.14	3005
850.275	2956
850.41	2872
850.545	2887
850.68	2937
850.815	3013
850.95	3009
851.085	3192
851.22	3135
851.355	3058
851.49	3043
851.625	3001
851.76	2998
851.895	2975
852.03	2929
852.165	3070
852.299	3157
852.434	3203
852.569	3180
852.703	3199
852.838	3268
852.973	3386
853.107	3340
853.242	3180
853.376	3146
853.511	3017
853.645	3043
853.78	3253
853.914	3138
854.048	3108
854.183	3112
854.317	3195
854.451	3294
854.585	3127
854.72	3112
854.854	3287
854.988	3100
855.122	3131
855.256	3043
855.39	3131
855.524	3306
855.658	3203
855.792	3184
855.926	3268
856.06	3275
856.194	3306
856.327	3176
856.461	3131
856.595	3135
856.729	3138
856.862	3256
856.996	3184
857.13	3188
857.263	3230
857.397	3332
857.53	3138
857.664	3192
857.797	3272
857.931	3268
858.064	3165
858.197	3260
858.331	3161
858.464	3116
858.597	3043
858.731	3123
858.864	3150
858.997	3093
859.13	3157
859.263	3184
859.396	3237
859.529	3135
859.662	3089
859.795	3085
859.928	3173
860.061	3291
860.194	3344
860.327	3161
860.46	3127
860.592	3249
860.725	3256
860.858	3279
860.99	3161
861.123	3119
861.256	3112
861.388	3211
861.521	3865
861.653	3013
861.786	3051
861.918	3009
862.05	3093
862.183	3146
862.315	3184
862.447	3180
862.58	3150
862.712	2986
862.844	2902
862.976	3028
863.108	3024
863.24	3355
863.372	2899
863.504	3005
863.636	2986
863.768	3055
863.9	3009
864.032	2929
864.164	2982
864.296	3066
864.428	3097
864.559	3119
864.691	3127
864.823	3119
864.954	3039
865.086	3032
865.217	2994
865.349	3001
865.48	3028
865.612	3036
865.743	3146
865.875	2994
866.006	2963
866.137	2998
866.269	2979
866.4	2948
866.531	2960
866.662	2906
866.793	2914
866.924	2891
867.055	3005
867.186	2937
867.317	2918
867.448	2842
867.579	2914
867.71	2845
867.841	2826
867.972	2933
868.103	2937
868.233	2906
868.364	2891
868.495	2922
868.625	3085
868.756	3199
868.886	2982
869.017	3051
869.147	3173
869.278	3154
869.408	3066
869.539	3020
869.669	3100
869.799	3062
869.929	3142
870.06	3146
870.19	3348
870.32	3306
870.45	3291
870.58	3393
870.71	3466
870.84	3458
870.97	3287
871.1	3275
871.23	3481
871.36	3473
871.489	3393
871.619	3409
871.749	3450
871.879	3439
872.008	3538
872.138	3389
872.267	3317
872.397	3150
872.526	3135
872.656	3058
872.785	3119
872.915	3268
873.044	3374
873.173	3249
873.303	3279
873.432	3253
873.561	3256
873.69	3150
873.819	3173
873.948	3222
874.077	3138
874.206	3074
874.335	3104
874.464	3241
874.593	3367
874.722	3268
874.851	3393
874.979	3420
875.108	3332
875.237	3241
875.365	3207
875.494	3154
875.623	3283
875.751	3100
875.88	3135
876.008	3203
876.136	3245
876.265	3397
876.393	3542
876.521	3439
876.65	3428
876.778	3367
876.906	3241
877.034	3222
877.162	3222
877.29	3207
877.418	3233
877.546	3233
877.674	3256
877.802	3249
877.93	3237
878.058	3188
878.185	3104
878.313	3211
878.441	3226
878.568	3127
878.696	3131
878.824	3237
878.951	3336
879.079	3477
879.206	3644
879.333	3481
879.461	3321
879.588	3359
879.715	3504
879.842	3618
879.97	3416
880.097	3188
880.224	3142
880.351	3207
880.478	3237
880.605	3218
880.732	3176
880.859	3492
880.986	3313
881.112	3317
881.239	3173
881.366	3104
881.493	3047
881.619	3009
881.746	3055
881.872	3119
881.999	3116
882.125	3154
882.252	3287
882.378	3329
882.505	3450
882.631	3302
882.757	3188
882.883	3218
883.01	3256
883.136	3180
883.262	3108
883.388	3104
883.514	3321
883.64	3393
883.766	3317
883.892	3214
884.018	3245
884.143	3401
884.269	3587
884.395	3241
884.52	3195
884.646	3222
884.772	3097
884.897	3135
885.023	3283
885.148	3351
885.274	3435
885.399	3416
885.524	3344
885.65	3302
885.775	3336
885.9	3291
886.025	3447
886.15	3378
886.275	3310
886.4	3260
886.525	3306
886.65	3279
886.775	3279
886.9	3542
887.025	3641
887.149	3401
887.274	3260
887.399	3207
887.523	3195
887.648	3199
887.773	3207
887.897	3367
888.021	3443
888.146	3287
888.27	3431
888.395	3538
888.519	3443
888.643	3458
888.767	3500
888.891	3370
889.015	3222
889.139	3279
889.263	3264
889.387	3424
889.511	3526
889.635	3481
889.759	3298
889.883	3279
890.006	3363
890.13	3458
890.254	3249
890.377	3374
890.501	3253
890.624	3218
890.748	3283
890.871	3173
890.995	3131
891.118	3085
891.241	3222
891.364	3222
891.488	3332
891.611	3180
891.734	3192
891.857	3287
891.98	3256
892.103	3336
892.226	3256
892.349	3199
892.471	3127
892.594	3272
892.717	3279
892.839	3253
892.962	3321
893.085	3363
893.207	3298
893.33	3211
893.452	3199
893.575	3336
893.697	3264
893.819	3500
893.941	3530
894.064	3428
894.186	3256
894.308	3306
894.43	3443
894.552	3504
894.674	3519
894.796	3298
894.918	3306
895.04	3268
895.161	3439
895.283	3405
895.405	3310
895.526	3370
895.648	3473
895.769	3416
895.891	3504
896.012	3462
896.134	3488
896.255	3443
896.376	3363
896.498	3386
896.619	3435
896.74	3386
896.861	3428
896.982	3694
897.103	3861
897.224	3603
897.345	3545
897.466	3473
897.587	3526
897.708	3633
897.828	3568
897.949	3458
898.07	3374
898.19	3443
898.311	3629
898.431	3458
898.552	3549
898.672	3614
898.792	3618
898.913	3568
899.033	3450
899.153	3306
899.273	3245
899.393	3298
899.513	3344
899.633	3344
899.753	3363
899.873	3317
899.993	3397
900.113	3344
900.232	3359
900.352	3359
900.472	3294
900.591	3195
900.711	3313
900.83	3233
900.95	3382
901.069	3488
901.189	3367
901.308	3176
901.427	3119
901.546	3176
901.665	3268
901.784	3359
901.904	3211
902.023	3154
902.141	3039
902.26	2994
902.379	3165
902.498	3097
902.617	3077
902.735	3241
902.854	3237
902.973	3203
903.091	3039
903.21	3093
903.328	3150
903.446	3112
903.565	3123
903.683	3226
903.801	3161
903.919	3260
904.038	3294
904.156	3188
904.274	3306
904.392	3272
904.51	3317
904.627	3340
904.745	3469
904.863	3485
904.981	3253
905.098	3169
905.216	3233
905.334	3283
905.451	3325
905.569	3306
905.686	3428
905.803	3435
905.921	3283
906.038	3496
906.155	3325
906.272	3226
906.389	3321
906.506	3237
906.623	3268
906.74	3294
906.857	3192
906.974	3294
907.091	3447
907.208	3549
907.324	3496
907.441	3389
907.557	3226
907.674	3279
907.79	3253
907.907	3340
908.023	3412
908.139	3378
908.256	3302
908.372	3374
908.488	3351
908.604	3245
908.72	3264
908.836	3260
908.952	3329
909.068	3351
909.184	3485
909.3	3374
909.415	3526
909.531	3458
909.647	3233
909.762	3344
909.878	3253
909.993	3355
910.108	3306
910.224	3336
910.339	3424
910.454	3355
910.57	3283
910.685	3245
910.8	3610
910.915	3576
911.03	3428
911.145	3302
911.259	3272
911.374	3294
911.489	3249
911.604	3203
911.718	3154
911.833	3180
911.947	3036
912.062	3028
912.176	3165
912.291	3207
912.405	3249
912.519	3439
912.633	3485
912.748	3321
912.862	3279
912.976	3165
913.09	3097
913.204	3184
913.318	3249
913.431	3359
913.545	3325
913.659	3428
913.772	3359
913.886	3176
914	3218
914.113	3355
914.226	3431
914.34	3397
914.453	3226
914.566	3409
914.68	3340
914.793	3313
914.906	3119
915.019	3135
915.132	3066
915.245	3214
915.358	3233
915.47	3237
915.583	3245
915.696	3283
915.809	3386
915.921	3416
916.034	3260
916.146	3241
916.259	3211
916.371	3370
916.483	3382
916.595	3226
916.708	3332
916.82	3393
916.932	3348
917.044	3359
917.156	3336
917.268	3272
917.38	3325
917.491	3306
917.603	3363
917.715	3466
917.826	3443
917.938	3393
918.049	3306
918.161	3420
918.272	3564
918.384	3557
918.495	3454
918.606	3359
918.717	3279
918.828	3397
918.939	3416
919.05	3275
919.161	3378
919.272	3207
919.383	3287
919.494	3458
919.604	3724
919.715	3481
919.826	3424
919.936	3496
920.047	3591
920.157	3561
920.267	3766
920.378	3675
920.488	3572
920.598	3797
920.708	3972
920.818	3827
920.928	3865
921.038	4029
921.148	4013
921.258	3713
921.368	3671
921.477	3614
921.587	3572
921.697	3481
921.806	3660
921.916	3507
922.025	3351
922.134	3382
922.244	3355
922.353	3401
922.462	3249
922.571	3249
922.68	3100
922.789	3066
922.898	3135
923.007	3070
923.116	3249
923.224	3207
923.333	3165
923.442	3077
923.55	3077
923.659	3146
923.767	3199
923.876	3135
923.984	3256
924.092	3108
924.201	3203
924.309	3249
924.417	3253
924.525	3184
924.633	3214
924.741	3979
924.849	3085
924.956	3287
925.064	3093
925.172	3009
925.279	3062
925.387	3195
925.494	3211
925.602	3344
925.709	3348
925.816	3173
925.924	3310
926.031	3386
926.138	3325
926.245	3401
926.352	3230
926.459	3401
926.566	3458
926.673	3306
926.779	3230
926.886	3222
926.993	3161
927.099	3112
927.206	3112
927.312	3104
927.419	3249
927.525	3173
927.631	3256
927.737	3169
927.843	3138
927.95	3036
928.056	3135
928.162	3157
928.267	3256
928.373	3797
928.479	3325
928.585	3074
928.69	3211
928.796	3283
928.901	3142
929.007	3055
929.112	3241
929.218	3195
929.323	3176
929.428	3154
929.533	3294
929.638	3116
929.743	3199
929.848	3279
929.953	3199
930.058	3165
930.163	2986
930.267	3097
930.372	3195
930.477	3047
930.581	3294
930.685	3203
930.79	3055
930.894	3116
930.998	3112
931.103	3272
931.207	2975
931.311	2979
931.415	2941
931.519	2788
931.623	2792
