Data from test_V78500241_852.txt Node
Date: Fri Mar 25 16:21:06 CST 2022
User: usil
Spectrometer: V785-0024
Trigger mode: 0
Integration Time (sec): 4.000000E-1
Scans to average: 1
Nonlinearity correction enabled: false
Boxcar width: 0
Storing dark spectrum: false
XAxis mode: Wavelengths
Number of Pixels in Spectrum: 1024
>>>>>Begin Spectral Data<<<<<
801.071	2929
801.214	3001
801.356	2880
801.499	2963
801.641	2872
801.783	2906
801.926	3020
802.068	2990
802.211	3024
802.353	3074
802.496	2986
802.638	3028
802.78	3074
802.923	3085
803.065	2994
803.208	2906
803.35	2941
803.492	2967
803.635	2918
803.777	2750
803.919	2883
804.061	3226
804.204	2925
804.346	2899
804.488	2868
804.63	3017
804.773	2880
804.915	2902
805.057	3108
805.199	2956
805.341	2986
805.483	3058
805.626	3009
805.768	2979
805.91	3089
806.052	3108
806.194	3017
806.336	3230
806.478	3055
806.62	2960
806.762	3009
806.904	3085
807.046	3176
807.188	2982
807.33	2922
807.472	3017
807.614	2963
807.756	2994
807.898	2925
808.04	2925
808.182	2975
808.324	2956
808.465	2906
808.607	2864
808.749	2804
808.891	2868
809.033	2960
809.174	3001
809.316	2883
809.458	2906
809.6	2811
809.741	2785
809.883	2777
810.025	2857
810.166	2872
810.308	2849
810.45	2857
810.591	2788
810.733	2762
810.875	2857
811.016	2800
811.158	2800
811.299	2804
811.441	2906
811.582	2910
811.724	2811
811.865	2826
812.007	2914
812.148	2876
812.29	2842
812.431	2937
812.573	2941
812.714	3032
812.855	3028
812.997	3104
813.138	3157
813.279	3009
813.421	2986
813.562	2994
813.703	2883
813.845	2880
813.986	2762
814.127	2724
814.268	2857
814.41	2853
814.551	2853
814.692	2872
814.833	2845
814.974	2914
815.115	2906
815.256	2864
815.397	2788
815.539	2910
815.68	2785
815.821	2777
815.962	2982
816.103	2944
816.244	2910
816.385	2872
816.526	2971
816.666	2948
816.807	2716
816.948	2918
817.089	2941
817.23	2834
817.371	2804
817.512	2788
817.653	2826
817.793	2853
817.934	2880
818.075	2998
818.216	2990
818.356	3055
818.497	2853
818.638	2807
818.778	2853
818.919	2773
819.06	2746
819.2	2853
819.341	2777
819.481	2819
819.622	2941
819.762	3093
819.903	3070
820.043	2960
820.184	2891
820.324	2910
820.465	3005
820.605	3020
820.746	3043
820.886	2922
821.026	3138
821.167	3161
821.307	3260
821.447	3298
821.588	3253
821.728	3203
821.868	3165
822.008	3066
822.149	3180
822.289	3195
822.429	3104
822.569	3051
822.709	3192
822.849	3020
822.99	3074
823.13	3165
823.27	3188
823.41	3100
823.55	3180
823.69	3150
823.83	3214
823.97	3135
824.11	3009
824.25	2994
824.389	3055
824.529	3081
824.669	3089
824.809	3199
824.949	3237
825.089	3199
825.228	3135
825.368	3013
825.508	3001
825.648	3028
825.787	3001
825.927	3036
826.067	2975
826.206	2979
826.346	3089
826.485	3097
826.625	3104
826.765	3226
826.904	3233
827.044	2994
827.183	2922
827.323	2880
827.462	3001
827.601	2941
827.741	2937
827.88	2952
828.02	2876
828.159	2967
828.298	3036
828.437	3150
828.577	3108
828.716	3268
828.855	3081
828.994	2960
829.134	2910
829.273	2956
829.412	2941
829.551	2891
829.69	2960
829.829	3051
829.968	3157
830.107	3028
830.246	3055
830.385	2941
830.524	2895
830.663	2891
830.802	2769
830.941	2701
831.08	2689
831.219	2815
831.357	2804
831.496	3005
831.635	2750
831.774	2678
831.913	2708
832.051	2602
832.19	2629
832.329	2731
832.467	2594
832.606	2545
832.744	2644
832.883	2617
833.022	2629
833.16	2712
833.299	2746
833.437	2746
833.576	2731
833.714	2739
833.852	2773
833.991	2796
834.129	2887
834.267	2857
834.406	2800
834.544	2857
834.682	2956
834.821	2895
834.959	3085
835.097	2922
835.235	3097
835.373	3039
835.511	3074
835.65	3009
835.788	2994
835.926	2849
836.064	2819
836.202	2864
836.34	3116
836.478	3135
836.615	3070
836.753	3165
836.891	3222
837.029	3192
837.167	3161
837.305	3119
837.443	3119
837.58	3024
837.718	3173
837.856	3138
837.993	3074
838.131	3180
838.269	3146
838.406	3131
838.544	3165
838.681	2956
838.819	2956
838.956	2849
839.094	2887
839.231	2960
839.369	3051
839.506	3409
839.643	3249
839.781	3062
839.918	2998
840.055	3081
840.193	3062
840.33	3131
840.467	3123
840.604	3184
840.742	3450
840.879	3089
841.016	3108
841.153	3127
841.29	3370
841.427	3332
841.564	3302
841.701	3332
841.838	3245
841.975	3211
842.112	3249
842.249	3157
842.385	3104
842.522	3287
842.659	3116
842.796	3104
842.933	3192
843.069	3070
843.206	3085
843.343	3188
843.479	3165
843.616	3176
843.752	2952
843.889	2918
844.025	3116
844.162	2925
844.298	3100
844.435	2982
844.571	2948
844.708	3081
844.844	3211
844.98	3294
845.117	3203
845.253	3070
845.389	3074
845.525	3116
845.661	3081
845.798	3032
845.934	3150
846.07	3085
846.206	3294
846.342	3374
846.478	3253
846.614	3112
846.75	3150
846.886	3066
847.022	3279
847.158	3161
847.294	3180
847.429	3268
847.565	3237
847.701	3481
847.837	3047
847.972	3013
848.108	3226
848.244	3154
848.379	3032
848.515	2960
848.65	2994
848.786	2982
848.921	3058
849.057	3142
849.192	3188
849.328	3077
849.463	3123
849.598	3097
849.734	3043
849.869	3005
850.004	2975
850.14	2986
850.275	2906
850.41	2853
850.545	2918
850.68	2963
850.815	2982
850.95	2990
851.085	3211
851.22	3142
851.355	3062
851.49	2963
851.625	3058
851.76	3047
851.895	2925
852.03	2971
852.165	3058
852.299	3173
852.434	3207
852.569	3157
852.703	3207
852.838	3241
852.973	3367
853.107	3397
853.242	3211
853.376	3127
853.511	3028
853.645	3081
853.78	3245
853.914	3138
854.048	3127
854.183	3146
854.317	3157
854.451	3348
854.585	3157
854.72	3097
854.854	3214
854.988	3074
855.122	3135
855.256	3013
855.39	3154
855.524	3237
855.658	3226
855.792	3165
855.926	3245
856.06	3268
856.194	3275
856.327	3157
856.461	3081
856.595	3135
856.729	3161
856.862	3249
856.996	3176
857.13	3192
857.263	3272
857.397	3298
857.53	3119
857.664	3260
857.797	3291
857.931	3275
858.064	3169
858.197	3222
858.331	3180
858.464	3108
858.597	3043
858.731	3161
858.864	3165
858.997	3123
859.13	3173
859.263	3203
859.396	3233
859.529	3074
859.662	3104
859.795	3055
859.928	3180
860.061	3298
860.194	3313
860.327	3142
860.46	3116
860.592	3260
860.725	3287
860.858	3291
860.99	3116
861.123	3051
861.256	3097
861.388	3138
861.521	3934
861.653	3055
861.786	2982
861.918	3020
862.05	3119
862.183	3097
862.315	3184
862.447	3249
862.58	3108
862.712	2975
862.844	2937
862.976	3032
863.108	3051
863.24	3367
863.372	2933
863.504	3005
863.636	2952
863.768	3024
863.9	3005
864.032	2914
864.164	2960
864.296	3047
864.428	3112
864.559	3146
864.691	3108
864.823	3116
864.954	3074
865.086	3032
865.217	3028
865.349	3028
865.48	3001
865.612	3043
865.743	3176
865.875	3024
866.006	2990
866.137	3024
866.269	2967
866.4	2925
866.531	2960
866.662	2937
866.793	2929
866.924	2910
867.055	3009
867.186	2948
867.317	2880
867.448	2849
867.579	2838
867.71	2853
867.841	2883
867.972	2906
868.103	2944
868.233	2899
868.364	2876
868.495	2918
868.625	3097
868.756	3173
868.886	2994
869.017	3032
869.147	3180
869.278	3230
869.408	3032
869.539	3043
869.669	3131
869.799	3032
869.929	3173
870.06	3108
870.19	3329
870.32	3370
870.45	3329
870.58	3409
870.71	3492
870.84	3450
870.97	3294
871.1	3272
871.23	3500
871.36	3511
871.489	3378
871.619	3416
871.749	3435
871.879	3424
872.008	3481
872.138	3367
872.267	3253
872.397	3176
872.526	3100
872.656	3028
872.785	3104
872.915	3253
873.044	3351
873.173	3237
873.303	3230
873.432	3249
873.561	3268
873.69	3211
873.819	3192
873.948	3207
874.077	3165
874.206	3104
874.335	3085
874.464	3233
874.593	3348
874.722	3275
874.851	3397
874.979	3393
875.108	3374
875.237	3218
875.365	3207
875.494	3218
875.623	3275
875.751	3104
875.88	3085
876.008	3237
876.136	3260
876.265	3374
876.393	3507
876.521	3401
876.65	3462
876.778	3355
876.906	3313
877.034	3233
877.162	3226
877.29	3184
877.418	3287
877.546	3237
877.674	3253
877.802	3294
877.93	3272
878.058	3154
878.185	3127
878.313	3241
878.441	3222
878.568	3093
878.696	3180
878.824	3260
878.951	3329
879.079	3458
879.206	3648
879.333	3485
879.461	3351
879.588	3329
879.715	3462
879.842	3595
879.97	3405
880.097	3214
880.224	3131
880.351	3176
880.478	3237
880.605	3199
880.732	3237
880.859	3504
880.986	3329
881.112	3348
881.239	3226
881.366	3119
881.493	3039
881.619	3039
881.746	3093
881.872	3070
881.999	3112
882.125	3180
882.252	3260
882.378	3283
882.505	3435
882.631	3336
882.757	3188
882.883	3180
883.01	3279
883.136	3207
883.262	3135
883.388	3135
883.514	3348
883.64	3409
883.766	3363
883.892	3218
884.018	3275
884.143	3412
884.269	3549
884.395	3222
884.52	3169
884.646	3218
884.772	3154
884.897	3112
885.023	3237
885.148	3317
885.274	3431
885.399	3389
885.524	3313
885.65	3245
885.775	3332
885.9	3260
886.025	3428
886.15	3355
886.275	3329
886.4	3260
886.525	3306
886.65	3306
886.775	3279
886.9	3507
887.025	3667
887.149	3412
887.274	3287
887.399	3207
887.523	3237
887.648	3180
887.773	3211
887.897	3420
888.021	3405
888.146	3306
888.27	3458
888.395	3515
888.519	3435
888.643	3466
888.767	3481
888.891	3298
889.015	3230
889.139	3321
889.263	3253
889.387	3412
889.511	3496
889.635	3458
889.759	3310
889.883	3336
890.006	3447
890.13	3492
890.254	3272
890.377	3329
890.501	3203
890.624	3230
890.748	3306
890.871	3195
890.995	3142
891.118	3093
891.241	3211
891.364	3253
891.488	3351
891.611	3165
891.734	3245
891.857	3287
891.98	3233
892.103	3302
892.226	3268
892.349	3214
892.471	3184
892.594	3256
892.717	3302
892.839	3268
892.962	3313
893.085	3359
893.207	3329
893.33	3161
893.452	3264
893.575	3351
893.697	3283
893.819	3458
893.941	3523
894.064	3496
894.186	3245
894.308	3272
894.43	3504
894.552	3584
894.674	3485
894.796	3272
894.918	3329
895.04	3302
895.161	3420
895.283	3412
895.405	3302
895.526	3378
895.648	3447
895.769	3439
895.891	3412
896.012	3488
896.134	3488
896.255	3409
896.376	3401
896.498	3389
896.619	3447
896.74	3351
896.861	3397
896.982	3705
897.103	3835
897.224	3610
897.345	3557
897.466	3431
897.587	3519
897.708	3698
897.828	3568
897.949	3477
898.07	3329
898.19	3405
898.311	3629
898.431	3466
898.552	3485
898.672	3656
898.792	3614
898.913	3564
899.033	3412
899.153	3283
899.273	3241
899.393	3291
899.513	3336
899.633	3302
899.753	3374
899.873	3336
899.993	3393
900.113	3359
900.232	3378
900.352	3332
900.472	3306
900.591	3207
900.711	3336
900.83	3249
900.95	3431
901.069	3481
901.189	3378
901.308	3218
901.427	3173
901.546	3230
901.665	3321
901.784	3359
901.904	3214
902.023	3138
902.141	3058
902.26	2986
902.379	3116
902.498	3081
902.617	3055
902.735	3211
902.854	3237
902.973	3180
903.091	3062
903.21	3074
903.328	3123
903.446	3112
903.565	3123
903.683	3192
903.801	3108
903.919	3294
904.038	3264
904.156	3203
904.274	3321
904.392	3260
904.51	3272
904.627	3348
904.745	3393
904.863	3519
904.981	3279
905.098	3165
905.216	3249
905.334	3351
905.451	3317
905.569	3306
905.686	3428
905.803	3431
905.921	3310
906.038	3481
906.155	3359
906.272	3253
906.389	3332
906.506	3253
906.623	3260
906.74	3298
906.857	3199
906.974	3279
907.091	3466
907.208	3534
907.324	3466
907.441	3420
907.557	3211
907.674	3233
907.79	3230
907.907	3245
908.023	3367
908.139	3389
908.256	3363
908.372	3355
908.488	3336
908.604	3256
908.72	3230
908.836	3321
908.952	3287
909.068	3386
909.184	3473
909.3	3378
909.415	3542
909.531	3466
909.647	3249
909.762	3287
909.878	3287
909.993	3405
910.108	3325
910.224	3401
910.339	3420
910.454	3332
910.57	3306
910.685	3272
910.8	3614
910.915	3564
911.03	3428
911.145	3340
911.259	3279
911.374	3317
911.489	3218
911.604	3233
911.718	3127
911.833	3165
911.947	3028
912.062	3001
912.176	3184
912.291	3207
912.405	3203
912.519	3393
912.633	3458
912.748	3310
912.862	3272
912.976	3222
913.09	3077
913.204	3108
913.318	3222
913.431	3321
913.545	3359
913.659	3416
913.772	3298
913.886	3226
914	3226
914.113	3355
914.226	3424
914.34	3340
914.453	3226
914.566	3412
914.68	3310
914.793	3283
914.906	3165
915.019	3157
915.132	3081
915.245	3180
915.358	3195
915.47	3249
915.583	3283
915.696	3291
915.809	3428
915.921	3443
916.034	3260
916.146	3275
916.259	3207
916.371	3389
916.483	3351
916.595	3283
916.708	3351
916.82	3355
916.932	3374
917.044	3367
917.156	3363
917.268	3203
917.38	3283
917.491	3310
917.603	3370
917.715	3488
917.826	3473
917.938	3401
918.049	3275
918.161	3431
918.272	3580
918.384	3542
918.495	3477
918.606	3344
918.717	3317
918.828	3409
918.939	3447
919.05	3287
919.161	3405
919.272	3218
919.383	3241
919.494	3526
919.604	3747
919.715	3523
919.826	3405
919.936	3477
920.047	3561
920.157	3534
920.267	3751
920.378	3663
920.488	3580
920.598	3789
920.708	3949
920.818	3838
920.928	3880
921.038	4017
921.148	3983
921.258	3671
921.368	3580
921.477	3587
921.587	3526
921.697	3458
921.806	3652
921.916	3545
922.025	3336
922.134	3367
922.244	3329
922.353	3443
922.462	3298
922.571	3256
922.68	3123
922.789	3089
922.898	3135
923.007	3097
923.116	3188
923.224	3184
923.333	3203
923.442	3093
923.55	3085
923.659	3165
923.767	3214
923.876	3108
923.984	3272
924.092	3077
924.201	3150
924.309	3211
924.417	3237
924.525	3207
924.633	3256
924.741	4017
924.849	3020
924.956	3249
925.064	3108
925.172	3013
925.279	3116
925.387	3207
925.494	3214
925.602	3386
925.709	3363
925.816	3230
925.924	3253
926.031	3332
926.138	3355
926.245	3367
926.352	3249
926.459	3424
926.566	3500
926.673	3279
926.779	3249
926.886	3298
926.993	3123
927.099	3154
927.206	3097
927.312	3085
927.419	3211
927.525	3173
927.631	3294
927.737	3131
927.843	3100
927.95	3036
928.056	3135
928.162	3150
928.267	3294
928.373	3740
928.479	3294
928.585	3066
928.69	3218
928.796	3260
928.901	3154
929.007	3081
929.112	3192
929.218	3203
929.323	3138
929.428	3203
929.533	3336
929.638	3112
929.743	3195
929.848	3302
929.953	3237
930.058	3142
930.163	3005
930.267	3066
930.372	3237
930.477	3051
930.581	3355
930.685	3146
930.79	3055
930.894	3100
930.998	3097
931.103	3264
931.207	2948
931.311	2956
931.415	2929
931.519	2773
931.623	2781
