Data from test_V78500241_962.txt Node
Date: Fri Mar 25 16:21:52 CST 2022
User: usil
Spectrometer: V785-0024
Trigger mode: 0
Integration Time (sec): 4.000000E-1
Scans to average: 1
Nonlinearity correction enabled: false
Boxcar width: 0
Storing dark spectrum: false
XAxis mode: Wavelengths
Number of Pixels in Spectrum: 1024
>>>>>Begin Spectral Data<<<<<
801.071	2883
801.214	2975
801.356	2857
801.499	2895
801.641	2876
801.783	2948
801.926	3074
802.068	2944
802.211	2941
802.353	3032
802.496	2952
802.638	3005
802.78	3047
802.923	3047
803.065	3032
803.208	2922
803.35	2922
803.492	2937
803.635	2952
803.777	2804
803.919	2887
804.061	3203
804.204	2963
804.346	2960
804.488	2849
804.63	3001
804.773	2880
804.915	2963
805.057	3123
805.199	2948
805.341	2975
805.483	3058
805.626	3047
805.768	2963
805.91	3089
806.052	3142
806.194	3066
806.336	3256
806.478	3051
806.62	2956
806.762	2982
806.904	3119
807.046	3184
807.188	3051
807.33	2914
807.472	2956
807.614	2918
807.756	3017
807.898	2937
808.04	2925
808.182	2979
808.324	2971
808.465	2910
808.607	2918
808.749	2804
808.891	2899
809.033	3013
809.174	3043
809.316	2891
809.458	2933
809.6	2800
809.741	2823
809.883	2788
810.025	2880
810.166	2929
810.308	2914
810.45	2868
810.591	2830
810.733	2811
810.875	2838
811.016	2796
811.158	2781
811.299	2838
811.441	2956
811.582	2925
811.724	2861
811.865	2899
812.007	2944
812.148	2906
812.29	2872
812.431	2906
812.573	2967
812.714	2982
812.855	3074
812.997	3062
813.138	3165
813.279	2998
813.421	3005
813.562	2948
813.703	2891
813.845	2922
813.986	2804
814.127	2762
814.268	2845
814.41	2891
814.551	2849
814.692	2891
814.833	2834
814.974	2937
815.115	2979
815.256	2845
815.397	2853
815.539	2857
815.68	2807
815.821	2872
815.962	2979
816.103	2967
816.244	2891
816.385	2880
816.526	2986
816.666	2975
816.807	2800
816.948	2902
817.089	2979
817.23	2906
817.371	2807
817.512	2792
817.653	2883
817.793	2872
817.934	2929
818.075	3013
818.216	3047
818.356	3043
818.497	2899
818.638	2845
818.778	2842
818.919	2830
819.06	2785
819.2	2883
819.341	2845
819.481	2834
819.622	2944
819.762	3150
819.903	3062
820.043	2944
820.184	2967
820.324	2937
820.465	3081
820.605	3039
820.746	3066
820.886	2975
821.026	3116
821.167	3188
821.307	3256
821.447	3310
821.588	3241
821.728	3237
821.868	3188
822.008	3070
822.149	3230
822.289	3199
822.429	3161
822.569	3089
822.709	3226
822.849	3085
822.99	3074
823.13	3161
823.27	3184
823.41	3116
823.55	3165
823.69	3161
823.83	3211
823.97	3089
824.11	3028
824.25	3017
824.389	3100
824.529	3169
824.669	3119
824.809	3203
824.949	3264
825.089	3283
825.228	3165
825.368	3066
825.508	2979
825.648	2994
825.787	3028
825.927	3020
826.067	3055
826.206	3001
826.346	3100
826.485	3085
826.625	3108
826.765	3275
826.904	3268
827.044	3005
827.183	2941
827.323	2887
827.462	3009
827.601	2937
827.741	2975
827.88	2975
828.02	2872
828.159	3032
828.298	3089
828.437	3119
828.577	3077
828.716	3275
828.855	3112
828.994	2929
829.134	2922
829.273	2941
829.412	2861
829.551	2876
829.69	2933
829.829	2990
829.968	3138
830.107	3032
830.246	3032
830.385	2937
830.524	2887
830.663	2838
830.802	2758
830.941	2686
831.08	2705
831.219	2788
831.357	2785
831.496	2975
831.635	2743
831.774	2678
831.913	2708
832.051	2575
832.19	2598
832.329	2674
832.467	2552
832.606	2511
832.744	2606
832.883	2613
833.022	2621
833.16	2701
833.299	2705
833.437	2701
833.576	2731
833.714	2750
833.852	2781
833.991	2766
834.129	2849
834.267	2815
834.406	2769
834.544	2899
834.682	2914
834.821	2906
834.959	3119
835.097	2929
835.235	3017
835.373	3020
835.511	3074
835.65	2967
835.788	2994
835.926	2857
836.064	2819
836.202	2872
836.34	3085
836.478	3188
836.615	3077
836.753	3146
836.891	3214
837.029	3199
837.167	3131
837.305	3062
837.443	3062
837.58	2948
837.718	3161
837.856	3097
837.993	3032
838.131	3135
838.269	3135
838.406	3123
838.544	3055
838.681	2944
838.819	2937
838.956	2861
839.094	2838
839.231	2963
839.369	3020
839.506	3393
839.643	3199
839.781	3039
839.918	2967
840.055	3024
840.193	3062
840.33	3062
840.467	3123
840.604	3165
840.742	3428
840.879	3066
841.016	3058
841.153	3108
841.29	3321
841.427	3306
841.564	3298
841.701	3363
841.838	3199
841.975	3214
842.112	3203
842.249	3097
842.385	3032
842.522	3279
842.659	3070
842.796	3036
842.933	3176
843.069	3020
843.206	3089
843.343	3211
843.479	3116
843.616	3135
843.752	2941
843.889	2922
844.025	3108
844.162	2906
844.298	3123
844.435	2982
844.571	2929
844.708	3093
844.844	3195
844.98	3241
845.117	3253
845.253	3058
845.389	3017
845.525	3100
845.661	3119
845.798	3001
845.934	3146
846.07	3104
846.206	3226
846.342	3336
846.478	3218
846.614	3062
846.75	3051
846.886	3062
847.022	3279
847.158	3176
847.294	3218
847.429	3275
847.565	3249
847.701	3545
847.837	3070
847.972	3020
848.108	3203
848.244	3161
848.379	3055
848.515	2944
848.65	2971
848.786	2990
848.921	3032
849.057	3119
849.192	3184
849.328	3108
849.463	3146
849.598	3081
849.734	3051
849.869	3009
850.004	2944
850.14	3017
850.275	2933
850.41	2861
850.545	2887
850.68	2929
850.815	2960
850.95	3013
851.085	3169
851.22	3108
851.355	3062
851.49	2998
851.625	2986
851.76	3020
851.895	2952
852.03	2937
852.165	3032
852.299	3146
852.434	3211
852.569	3142
852.703	3184
852.838	3245
852.973	3370
853.107	3332
853.242	3180
853.376	3116
853.511	2948
853.645	3074
853.78	3245
853.914	3108
854.048	3154
854.183	3085
854.317	3157
854.451	3317
854.585	3161
854.72	3104
854.854	3214
854.988	3032
855.122	3085
855.256	3013
855.39	3169
855.524	3230
855.658	3180
855.792	3188
855.926	3211
856.06	3218
856.194	3272
856.327	3161
856.461	3074
856.595	3062
856.729	3097
856.862	3207
856.996	3173
857.13	3195
857.263	3218
857.397	3298
857.53	3135
857.664	3195
857.797	3260
857.931	3268
858.064	3173
858.197	3199
858.331	3142
858.464	3081
858.597	2986
858.731	3116
858.864	3154
858.997	3055
859.13	3184
859.263	3184
859.396	3211
859.529	3081
859.662	3081
859.795	3055
859.928	3173
860.061	3287
860.194	3279
860.327	3123
860.46	3089
860.592	3268
860.725	3256
860.858	3226
860.99	3097
861.123	3028
861.256	3085
861.388	3165
861.521	3876
861.653	3017
861.786	2990
861.918	3017
862.05	3043
862.183	3070
862.315	3207
862.447	3222
862.58	3093
862.712	2986
862.844	2872
862.976	3001
863.108	3024
863.24	3389
863.372	2868
863.504	2948
863.636	2986
863.768	3028
863.9	3024
864.032	2929
864.164	2963
864.296	3032
864.428	3077
864.559	3081
864.691	3142
864.823	3097
864.954	3047
865.086	3043
865.217	2982
865.349	2975
865.48	2994
865.612	3024
865.743	3173
865.875	2994
866.006	2963
866.137	3005
866.269	2948
866.4	2933
866.531	2956
866.662	2880
866.793	2880
866.924	2899
867.055	2956
867.186	2922
867.317	2895
867.448	2876
867.579	2861
867.71	2872
867.841	2804
867.972	2906
868.103	2910
868.233	2876
868.364	2857
868.495	2891
868.625	3093
868.756	3195
868.886	2990
869.017	3013
869.147	3169
869.278	3180
869.408	3043
869.539	3070
869.669	3135
869.799	3005
869.929	3123
870.06	3135
870.19	3329
870.32	3245
870.45	3264
870.58	3397
870.71	3443
870.84	3416
870.97	3287
871.1	3245
871.23	3519
871.36	3485
871.489	3359
871.619	3397
871.749	3409
871.879	3420
872.008	3523
872.138	3374
872.267	3272
872.397	3108
872.526	3108
872.656	3001
872.785	3127
872.915	3279
873.044	3321
873.173	3237
873.303	3275
873.432	3268
873.561	3241
873.69	3184
873.819	3180
873.948	3207
874.077	3089
874.206	3017
874.335	3066
874.464	3192
874.593	3389
874.722	3233
874.851	3389
874.979	3344
875.108	3313
875.237	3199
875.365	3150
875.494	3165
875.623	3237
875.751	3070
875.88	3097
876.008	3173
876.136	3226
876.265	3378
876.393	3504
876.521	3420
876.65	3374
876.778	3313
876.906	3260
877.034	3184
877.162	3218
877.29	3214
877.418	3283
877.546	3249
877.674	3218
877.802	3214
877.93	3256
878.058	3173
878.185	3097
878.313	3245
878.441	3207
878.568	3066
878.696	3123
878.824	3256
878.951	3306
879.079	3439
879.206	3622
879.333	3409
879.461	3351
879.588	3386
879.715	3466
879.842	3557
879.97	3386
880.097	3150
880.224	3112
880.351	3184
880.478	3230
880.605	3165
880.732	3154
880.859	3530
880.986	3306
881.112	3317
881.239	3188
881.366	3077
881.493	3017
881.619	3047
881.746	3085
881.872	3100
881.999	3097
882.125	3157
882.252	3226
882.378	3275
882.505	3386
882.631	3317
882.757	3180
882.883	3230
883.01	3207
883.136	3173
883.262	3112
883.388	3097
883.514	3386
883.64	3428
883.766	3325
883.892	3199
884.018	3249
884.143	3435
884.269	3564
884.395	3279
884.52	3165
884.646	3192
884.772	3188
884.897	3119
885.023	3214
885.148	3325
885.274	3431
885.399	3363
885.524	3332
885.65	3268
885.775	3363
885.9	3298
886.025	3473
886.15	3386
886.275	3332
886.4	3233
886.525	3298
886.65	3325
886.775	3310
886.9	3553
887.025	3606
887.149	3431
887.274	3294
887.399	3203
887.523	3268
887.648	3245
887.773	3241
887.897	3397
888.021	3462
888.146	3359
888.27	3481
888.395	3564
888.519	3462
888.643	3519
888.767	3515
888.891	3363
889.015	3245
889.139	3348
889.263	3260
889.387	3458
889.511	3534
889.635	3469
889.759	3336
889.883	3363
890.006	3401
890.13	3526
890.254	3302
890.377	3412
890.501	3237
890.624	3233
890.748	3374
890.871	3237
890.995	3112
891.118	3116
891.241	3264
891.364	3245
891.488	3355
891.611	3184
891.734	3249
891.857	3332
891.98	3298
892.103	3386
892.226	3321
892.349	3245
892.471	3203
892.594	3317
892.717	3291
892.839	3298
892.962	3264
893.085	3397
893.207	3332
893.33	3203
893.452	3268
893.575	3386
893.697	3287
893.819	3511
893.941	3519
894.064	3485
894.186	3313
894.308	3298
894.43	3534
894.552	3591
894.674	3500
894.796	3321
894.918	3344
895.04	3325
895.161	3443
895.283	3386
895.405	3386
895.526	3382
895.648	3488
895.769	3428
895.891	3473
896.012	3542
896.134	3462
896.255	3424
896.376	3397
896.498	3447
896.619	3435
896.74	3405
896.861	3462
896.982	3736
897.103	3857
897.224	3663
897.345	3538
897.466	3462
897.587	3523
897.708	3667
897.828	3603
897.949	3473
898.07	3355
898.19	3450
898.311	3675
898.431	3504
898.552	3576
898.672	3580
898.792	3606
898.913	3576
899.033	3458
899.153	3310
899.273	3237
899.393	3329
899.513	3374
899.633	3355
899.753	3359
899.873	3329
899.993	3443
900.113	3336
900.232	3435
900.352	3374
900.472	3294
900.591	3218
900.711	3321
900.83	3283
900.95	3462
901.069	3515
901.189	3393
901.308	3203
901.427	3157
901.546	3173
901.665	3336
901.784	3336
901.904	3260
902.023	3211
902.141	3028
902.26	3036
902.379	3195
902.498	3135
902.617	3081
902.735	3218
902.854	3264
902.973	3237
903.091	3077
903.21	3070
903.328	3180
903.446	3157
903.565	3127
903.683	3222
903.801	3169
903.919	3313
904.038	3294
904.156	3237
904.274	3272
904.392	3245
904.51	3264
904.627	3363
904.745	3492
904.863	3545
904.981	3306
905.098	3214
905.216	3279
905.334	3302
905.451	3332
905.569	3370
905.686	3431
905.803	3511
905.921	3279
906.038	3447
906.155	3431
906.272	3306
906.389	3329
906.506	3256
906.623	3291
906.74	3268
906.857	3230
906.974	3279
907.091	3435
907.208	3603
907.324	3507
907.441	3389
907.557	3256
907.674	3268
907.79	3245
907.907	3344
908.023	3409
908.139	3409
908.256	3355
908.372	3416
908.488	3382
908.604	3310
908.72	3283
908.836	3283
908.952	3317
909.068	3382
909.184	3523
909.3	3435
909.415	3542
909.531	3515
909.647	3283
909.762	3359
909.878	3264
909.993	3351
910.108	3363
910.224	3363
910.339	3462
910.454	3367
910.57	3306
910.685	3283
910.8	3599
910.915	3538
911.03	3485
911.145	3317
911.259	3283
911.374	3370
911.489	3275
911.604	3253
911.718	3199
911.833	3180
911.947	3077
912.062	2998
912.176	3211
912.291	3226
912.405	3279
912.519	3458
912.633	3481
912.748	3317
912.862	3302
912.976	3203
913.09	3085
913.204	3199
913.318	3241
913.431	3409
913.545	3332
913.659	3447
913.772	3367
913.886	3275
914	3249
914.113	3367
914.226	3431
914.34	3405
914.453	3268
914.566	3462
914.68	3302
914.793	3359
914.906	3176
915.019	3138
915.132	3074
915.245	3192
915.358	3233
915.47	3279
915.583	3302
915.696	3313
915.809	3439
915.921	3416
916.034	3264
916.146	3294
916.259	3249
916.371	3420
916.483	3424
916.595	3268
916.708	3355
916.82	3389
916.932	3355
917.044	3397
917.156	3420
917.268	3287
917.38	3325
917.491	3317
917.603	3367
917.715	3481
917.826	3473
917.938	3412
918.049	3275
918.161	3454
918.272	3599
918.384	3580
918.495	3530
918.606	3378
918.717	3291
918.828	3431
918.939	3435
919.05	3332
919.161	3378
919.272	3207
919.383	3302
919.494	3515
919.604	3705
919.715	3507
919.826	3428
919.936	3507
920.047	3614
920.157	3545
920.267	3762
920.378	3606
920.488	3587
920.598	3789
920.708	3987
920.818	3873
920.928	3850
921.038	4029
921.148	4006
921.258	3736
921.368	3637
921.477	3644
921.587	3584
921.697	3504
921.806	3625
921.916	3542
922.025	3412
922.134	3386
922.244	3355
922.353	3443
922.462	3272
922.571	3283
922.68	3131
922.789	3085
922.898	3150
923.007	3161
923.116	3237
923.224	3218
923.333	3184
923.442	3146
923.55	3146
923.659	3131
923.767	3245
923.876	3131
923.984	3279
924.092	3142
924.201	3207
924.309	3264
924.417	3291
924.525	3180
924.633	3264
924.741	4223
924.849	3070
924.956	3268
925.064	3169
925.172	3013
925.279	3154
925.387	3165
925.494	3226
925.602	3389
925.709	3317
925.816	3192
925.924	3279
926.031	3409
926.138	3359
926.245	3355
926.352	3272
926.459	3424
926.566	3530
926.673	3351
926.779	3302
926.886	3272
926.993	3165
927.099	3138
927.206	3142
927.312	3116
927.419	3222
927.525	3230
927.631	3329
927.737	3169
927.843	3127
927.95	3028
928.056	3169
928.162	3199
928.267	3298
928.373	3854
928.479	3348
928.585	3066
928.69	3268
928.796	3264
928.901	3199
929.007	3036
929.112	3249
929.218	3180
929.323	3180
929.428	3173
929.533	3317
929.638	3165
929.743	3188
929.848	3253
929.953	3214
930.058	3123
930.163	3032
930.267	3116
930.372	3237
930.477	3051
930.581	3370
930.685	3207
930.79	3077
930.894	3169
930.998	3142
931.103	3249
931.207	2990
931.311	2971
931.415	2922
931.519	2819
931.623	2807
