Data from test_V78500241_173.txt Node
Date: Fri Mar 25 16:16:24 CST 2022
User: usil
Spectrometer: V785-0024
Trigger mode: 0
Integration Time (sec): 4.000000E-1
Scans to average: 1
Nonlinearity correction enabled: false
Boxcar width: 0
Storing dark spectrum: false
XAxis mode: Wavelengths
Number of Pixels in Spectrum: 1024
>>>>>Begin Spectral Data<<<<<
801.071	2910
801.214	2929
801.356	2876
801.499	2899
801.641	2872
801.783	2925
801.926	3085
802.068	2971
802.211	3013
802.353	3028
802.496	2979
802.638	3058
802.78	3058
802.923	3108
803.065	3028
803.208	2899
803.35	2906
803.492	2918
803.635	2944
803.777	2792
803.919	2864
804.061	3180
804.204	2948
804.346	2925
804.488	2861
804.63	2998
804.773	2845
804.915	2948
805.057	3081
805.199	2944
805.341	2986
805.483	3017
805.626	2967
805.768	2960
805.91	3074
806.052	3108
806.194	3036
806.336	3230
806.478	3001
806.62	2944
806.762	2948
806.904	3058
807.046	3192
807.188	2971
807.33	2929
807.472	3001
807.614	2914
807.756	3032
807.898	2899
808.04	2918
808.182	2982
808.324	2910
808.465	2895
808.607	2880
808.749	2861
808.891	2830
809.033	2960
809.174	3009
809.316	2891
809.458	2914
809.6	2819
809.741	2762
809.883	2807
810.025	2857
810.166	2876
810.308	2830
810.45	2845
810.591	2773
810.733	2796
810.875	2838
811.016	2792
811.158	2716
811.299	2815
811.441	2941
811.582	2918
811.724	2796
811.865	2842
812.007	2887
812.148	2902
812.29	2868
812.431	2918
812.573	2944
812.714	3017
812.855	3062
812.997	3093
813.138	3131
813.279	2979
813.421	2998
813.562	2948
813.703	2880
813.845	2891
813.986	2773
814.127	2785
814.268	2804
814.41	2864
814.551	2857
814.692	2891
814.833	2819
814.974	2883
815.115	2982
815.256	2838
815.397	2796
815.539	2838
815.68	2762
815.821	2830
815.962	2922
816.103	2914
816.244	2891
816.385	2876
816.526	2956
816.666	2902
816.807	2785
816.948	2902
817.089	2952
817.23	2838
817.371	2788
817.512	2785
817.653	2883
817.793	2868
817.934	2868
818.075	2975
818.216	2982
818.356	3043
818.497	2925
818.638	2788
818.778	2838
818.919	2815
819.06	2750
819.2	2899
819.341	2838
819.481	2842
819.622	2914
819.762	3108
819.903	3039
820.043	2975
820.184	2891
820.324	2891
820.465	3017
820.605	3066
820.746	3051
820.886	2952
821.026	3100
821.167	3184
821.307	3268
821.447	3321
821.588	3233
821.728	3233
821.868	3192
822.008	3081
822.149	3230
822.289	3211
822.429	3116
822.569	3138
822.709	3188
822.849	3024
822.99	3085
823.13	3176
823.27	3199
823.41	3108
823.55	3146
823.69	3184
823.83	3176
823.97	3119
824.11	2998
824.25	2982
824.389	3058
824.529	3108
824.669	3058
824.809	3188
824.949	3256
825.089	3237
825.228	3176
825.368	3017
825.508	2910
825.648	2933
825.787	2986
825.927	3020
826.067	2967
826.206	2963
826.346	3047
826.485	3070
826.625	3123
826.765	3272
826.904	3222
827.044	2990
827.183	2922
827.323	2861
827.462	3005
827.601	2941
827.741	2944
827.88	2967
828.02	2853
828.159	2967
828.298	3058
828.437	3165
828.577	3039
828.716	3230
828.855	3074
828.994	2925
829.134	2861
829.273	2895
829.412	2861
829.551	2876
829.69	2887
829.829	2944
829.968	3119
830.107	3020
830.246	3009
830.385	2925
830.524	2876
830.663	2819
830.802	2746
830.941	2667
831.08	2644
831.219	2800
831.357	2781
831.496	2960
831.635	2743
831.774	2670
831.913	2686
832.051	2575
832.19	2571
832.329	2705
832.467	2594
832.606	2518
832.744	2610
832.883	2587
833.022	2587
833.16	2693
833.299	2731
833.437	2705
833.576	2735
833.714	2746
833.852	2785
833.991	2769
834.129	2883
834.267	2842
834.406	2823
834.544	2891
834.682	2941
834.821	2918
834.959	3150
835.097	2944
835.235	3070
835.373	3036
835.511	3058
835.65	3039
835.788	3005
835.926	2887
836.064	2819
836.202	2887
836.34	3131
836.478	3207
836.615	3085
836.753	3180
836.891	3291
837.029	3226
837.167	3176
837.305	3127
837.443	3119
837.58	3020
837.718	3199
837.856	3112
837.993	3066
838.131	3161
838.269	3188
838.406	3176
838.544	3138
838.681	2971
838.819	2956
838.956	2853
839.094	2899
839.231	2986
839.369	3058
839.506	3428
839.643	3313
839.781	3077
839.918	3009
840.055	3127
840.193	3119
840.33	3093
840.467	3176
840.604	3203
840.742	3469
840.879	3116
841.016	3138
841.153	3146
841.29	3363
841.427	3313
841.564	3302
841.701	3363
841.838	3302
841.975	3230
842.112	3291
842.249	3142
842.385	3085
842.522	3321
842.659	3138
842.796	3097
842.933	3146
843.069	3123
843.206	3112
843.343	3249
843.479	3157
843.616	3146
843.752	2979
843.889	2944
844.025	3131
844.162	2937
844.298	3104
844.435	3017
844.571	2994
844.708	3119
844.844	3214
844.98	3302
845.117	3268
845.253	3131
845.389	3036
845.525	3112
845.661	3169
845.798	3070
845.934	3195
846.07	3108
846.206	3294
846.342	3389
846.478	3283
846.614	3173
846.75	3138
846.886	3093
847.022	3298
847.158	3165
847.294	3291
847.429	3306
847.565	3237
847.701	3564
847.837	3081
847.972	3051
848.108	3207
848.244	3211
848.379	3020
848.515	2963
848.65	2994
848.786	3024
848.921	3017
849.057	3169
849.192	3169
849.328	3074
849.463	3180
849.598	3093
849.734	3051
849.869	3024
850.004	2960
850.14	3028
850.275	2956
850.41	2861
850.545	2906
850.68	3020
850.815	3032
850.95	3017
851.085	3256
851.22	3161
851.355	3039
851.49	3017
851.625	3055
851.76	3085
851.895	2971
852.03	2971
852.165	3074
852.299	3135
852.434	3230
852.569	3173
852.703	3207
852.838	3291
852.973	3428
853.107	3378
853.242	3192
853.376	3146
853.511	3047
853.645	3112
853.78	3264
853.914	3188
854.048	3146
854.183	3119
854.317	3207
854.451	3336
854.585	3142
854.72	3146
854.854	3253
854.988	3093
855.122	3104
855.256	3036
855.39	3173
855.524	3256
855.658	3230
855.792	3218
855.926	3241
856.06	3291
856.194	3310
856.327	3214
856.461	3123
856.595	3112
856.729	3131
856.862	3264
856.996	3180
857.13	3226
857.263	3306
857.397	3306
857.53	3211
857.664	3237
857.797	3279
857.931	3325
858.064	3180
858.197	3256
858.331	3165
858.464	3146
858.597	3028
858.731	3203
858.864	3180
858.997	3123
859.13	3180
859.263	3203
859.396	3192
859.529	3142
859.662	3127
859.795	3116
859.928	3192
860.061	3374
860.194	3313
860.327	3188
860.46	3146
860.592	3306
860.725	3340
860.858	3317
860.99	3135
861.123	3112
861.256	3085
861.388	3192
861.521	3800
861.653	3036
861.786	3036
861.918	3028
862.05	3131
862.183	3116
862.315	3192
862.447	3264
862.58	3138
862.712	2990
862.844	2925
862.976	3047
863.108	3028
863.24	3348
863.372	2937
863.504	3013
863.636	2998
863.768	3085
863.9	3043
864.032	2929
864.164	3001
864.296	3077
864.428	3104
864.559	3169
864.691	3104
864.823	3146
864.954	3055
865.086	3070
865.217	3043
865.349	3009
865.48	3039
865.612	3028
865.743	3192
865.875	3036
866.006	2990
866.137	3020
866.269	3001
866.4	2979
866.531	2944
866.662	2933
866.793	2929
866.924	2952
867.055	3036
867.186	2975
867.317	2883
867.448	2880
867.579	2952
867.71	2887
867.841	2838
867.972	2918
868.103	2933
868.233	2906
868.364	2956
868.495	2960
868.625	3100
868.756	3211
868.886	3005
869.017	3070
869.147	3199
869.278	3199
869.408	3100
869.539	3077
869.669	3135
869.799	3074
869.929	3207
870.06	3169
870.19	3374
870.32	3325
870.45	3363
870.58	3397
870.71	3481
870.84	3511
870.97	3310
871.1	3283
871.23	3549
871.36	3477
871.489	3393
871.619	3473
871.749	3416
871.879	3526
872.008	3511
872.138	3397
872.267	3268
872.397	3173
872.526	3146
872.656	3043
872.785	3146
872.915	3291
873.044	3351
873.173	3260
873.303	3264
873.432	3279
873.561	3294
873.69	3230
873.819	3184
873.948	3230
874.077	3146
874.206	3081
874.335	3116
874.464	3260
874.593	3382
874.722	3275
874.851	3428
874.979	3374
875.108	3367
875.237	3256
875.365	3237
875.494	3203
875.623	3298
875.751	3119
875.88	3154
876.008	3230
876.136	3302
876.265	3409
876.393	3572
876.521	3477
876.65	3447
876.778	3363
876.906	3351
877.034	3237
877.162	3268
877.29	3233
877.418	3294
877.546	3279
877.674	3283
877.802	3230
877.93	3256
878.058	3150
878.185	3154
878.313	3230
878.441	3195
878.568	3119
878.696	3214
878.824	3291
878.951	3329
879.079	3492
879.206	3671
879.333	3466
879.461	3386
879.588	3428
879.715	3504
879.842	3622
879.97	3409
880.097	3184
880.224	3135
880.351	3233
880.478	3287
880.605	3214
880.732	3237
880.859	3515
880.986	3355
881.112	3363
881.239	3253
881.366	3100
881.493	3070
881.619	3066
881.746	3112
881.872	3108
881.999	3161
882.125	3184
882.252	3264
882.378	3348
882.505	3443
882.631	3317
882.757	3161
882.883	3211
883.01	3233
883.136	3176
883.262	3097
883.388	3173
883.514	3367
883.64	3424
883.766	3310
883.892	3237
884.018	3275
884.143	3443
884.269	3580
884.395	3233
884.52	3222
884.646	3199
884.772	3142
884.897	3142
885.023	3233
885.148	3386
885.274	3447
885.399	3359
885.524	3317
885.65	3245
885.775	3382
885.9	3306
886.025	3477
886.15	3382
886.275	3302
886.4	3203
886.525	3336
886.65	3310
886.775	3310
886.9	3538
887.025	3671
887.149	3431
887.274	3310
887.399	3222
887.523	3260
887.648	3203
887.773	3245
887.897	3378
888.021	3466
888.146	3332
888.27	3504
888.395	3568
888.519	3469
888.643	3500
888.767	3485
888.891	3351
889.015	3260
889.139	3348
889.263	3302
889.387	3435
889.511	3595
889.635	3488
889.759	3313
889.883	3321
890.006	3431
890.13	3542
890.254	3325
890.377	3348
890.501	3245
890.624	3192
890.748	3332
890.871	3230
890.995	3131
891.118	3077
891.241	3233
891.364	3237
891.488	3389
891.611	3184
891.734	3256
891.857	3336
891.98	3230
892.103	3378
892.226	3294
892.349	3218
892.471	3116
892.594	3279
892.717	3332
892.839	3329
892.962	3340
893.085	3405
893.207	3348
893.33	3192
893.452	3226
893.575	3397
893.697	3256
893.819	3534
893.941	3542
894.064	3447
894.186	3275
894.308	3306
894.43	3481
894.552	3553
894.674	3485
894.796	3302
894.918	3363
895.04	3302
895.161	3485
895.283	3405
895.405	3344
895.526	3389
895.648	3443
895.769	3473
895.891	3496
896.012	3523
896.134	3511
896.255	3466
896.376	3439
896.498	3386
896.619	3466
896.74	3374
896.861	3435
896.982	3743
897.103	3892
897.224	3603
897.345	3542
897.466	3416
897.587	3515
897.708	3679
897.828	3610
897.949	3458
898.07	3367
898.19	3485
898.311	3660
898.431	3466
898.552	3542
898.672	3618
898.792	3629
898.913	3542
899.033	3469
899.153	3344
899.273	3253
899.393	3294
899.513	3336
899.633	3332
899.753	3386
899.873	3367
899.993	3393
900.113	3321
900.232	3401
900.352	3329
900.472	3310
900.591	3207
900.711	3321
900.83	3291
900.95	3469
901.069	3523
901.189	3378
901.308	3207
901.427	3154
901.546	3165
901.665	3329
901.784	3340
901.904	3245
902.023	3180
902.141	3047
902.26	3055
902.379	3142
902.498	3097
902.617	3081
902.735	3256
902.854	3256
902.973	3214
903.091	3077
903.21	3081
903.328	3173
903.446	3089
903.565	3135
903.683	3230
903.801	3119
903.919	3287
904.038	3275
904.156	3233
904.274	3336
904.392	3325
904.51	3294
904.627	3348
904.745	3458
904.863	3492
904.981	3287
905.098	3218
905.216	3260
905.334	3329
905.451	3325
905.569	3317
905.686	3450
905.803	3454
905.921	3321
906.038	3454
906.155	3378
906.272	3313
906.389	3340
906.506	3245
906.623	3298
906.74	3279
906.857	3207
906.974	3302
907.091	3481
907.208	3580
907.324	3519
907.441	3450
907.557	3279
907.674	3298
907.79	3272
907.907	3340
908.023	3450
908.139	3409
908.256	3378
908.372	3431
908.488	3397
908.604	3294
908.72	3294
908.836	3355
908.952	3321
909.068	3405
909.184	3511
909.3	3477
909.415	3530
909.531	3511
909.647	3386
909.762	3348
909.878	3348
909.993	3439
910.108	3397
910.224	3420
910.339	3481
910.454	3393
910.57	3351
910.685	3283
910.8	3633
910.915	3610
911.03	3496
911.145	3310
911.259	3367
911.374	3374
911.489	3279
911.604	3283
911.718	3161
911.833	3214
911.947	3093
912.062	3058
912.176	3207
912.291	3294
912.405	3245
912.519	3488
912.633	3534
912.748	3393
912.862	3336
912.976	3218
913.09	3150
913.204	3184
913.318	3310
913.431	3389
913.545	3382
913.659	3447
913.772	3351
913.886	3283
914	3256
914.113	3428
914.226	3515
914.34	3439
914.453	3306
914.566	3462
914.68	3351
914.793	3397
914.906	3207
915.019	3150
915.132	3157
915.245	3241
915.358	3272
915.47	3291
915.583	3329
915.696	3386
915.809	3435
915.921	3488
916.034	3336
916.146	3306
916.259	3279
916.371	3439
916.483	3435
916.595	3336
916.708	3409
916.82	3401
916.932	3389
917.044	3412
917.156	3409
917.268	3310
917.38	3340
917.491	3370
917.603	3424
917.715	3523
917.826	3572
917.938	3500
918.049	3355
918.161	3504
918.272	3652
918.384	3633
918.495	3538
918.606	3409
918.717	3382
918.828	3424
918.939	3469
919.05	3378
919.161	3405
919.272	3256
919.383	3405
919.494	3564
919.604	3762
919.715	3523
919.826	3450
919.936	3500
920.047	3614
920.157	3618
920.267	3835
920.378	3663
920.488	3614
920.598	3835
920.708	4013
920.818	3876
920.928	3896
921.038	4090
921.148	4040
921.258	3732
921.368	3694
921.477	3728
921.587	3633
921.697	3500
921.806	3663
921.916	3587
922.025	3351
922.134	3393
922.244	3382
922.353	3488
922.462	3344
922.571	3275
922.68	3157
922.789	3138
922.898	3188
923.007	3154
923.116	3241
923.224	3230
923.333	3260
923.442	3195
923.55	3146
923.659	3176
923.767	3245
923.876	3150
923.984	3306
924.092	3161
924.201	3233
924.309	3294
924.417	3329
924.525	3237
924.633	3302
924.741	4227
924.849	3089
924.956	3306
925.064	3131
925.172	3074
925.279	3119
925.387	3214
925.494	3256
925.602	3389
925.709	3336
925.816	3249
925.924	3332
926.031	3477
926.138	3363
926.245	3412
926.352	3310
926.459	3458
926.566	3549
926.673	3386
926.779	3298
926.886	3291
926.993	3176
927.099	3233
927.206	3142
927.312	3154
927.419	3306
927.525	3287
927.631	3313
927.737	3203
927.843	3184
927.95	3131
928.056	3161
928.162	3268
928.267	3279
928.373	3937
928.479	3370
928.585	3131
928.69	3253
928.796	3348
928.901	3226
929.007	3097
929.112	3279
929.218	3188
929.323	3192
929.428	3214
929.533	3348
929.638	3188
929.743	3176
929.848	3302
929.953	3279
930.058	3192
930.163	3013
930.267	3112
930.372	3279
930.477	3062
930.581	3344
930.685	3237
930.79	3119
930.894	3142
930.998	3150
931.103	3321
931.207	3001
931.311	2994
931.415	2979
931.519	2845
931.623	2842
