Data from test_V78500241_1362.txt Node
Date: Fri Mar 25 16:24:38 CST 2022
User: usil
Spectrometer: V785-0024
Trigger mode: 0
Integration Time (sec): 4.000000E-1
Scans to average: 1
Nonlinearity correction enabled: false
Boxcar width: 0
Storing dark spectrum: false
XAxis mode: Wavelengths
Number of Pixels in Spectrum: 1024
>>>>>Begin Spectral Data<<<<<
801.071	2899
801.214	2933
801.356	2861
801.499	2902
801.641	2872
801.783	2895
801.926	3013
802.068	2960
802.211	2971
802.353	3020
802.496	2925
802.638	2967
802.78	3009
802.923	3039
803.065	2952
803.208	2895
803.35	2922
803.492	2899
803.635	2906
803.777	2743
803.919	2845
804.061	3192
804.204	2937
804.346	2857
804.488	2834
804.63	2937
804.773	2845
804.915	2918
805.057	3058
805.199	2941
805.341	2941
805.483	3001
805.626	3013
805.768	2944
805.91	3074
806.052	3116
806.194	3043
806.336	3218
806.478	2990
806.62	2902
806.762	2952
806.904	3036
807.046	3142
807.188	2960
807.33	2891
807.472	2979
807.614	2899
807.756	2971
807.898	2899
808.04	2910
808.182	2967
808.324	2922
808.465	2857
808.607	2880
808.749	2788
808.891	2819
809.033	2933
809.174	2948
809.316	2891
809.458	2880
809.6	2773
809.741	2750
809.883	2708
810.025	2819
810.166	2842
810.308	2842
810.45	2826
810.591	2766
810.733	2781
810.875	2807
811.016	2777
811.158	2727
811.299	2830
811.441	2925
811.582	2929
811.724	2819
811.865	2853
812.007	2914
812.148	2857
812.29	2823
812.431	2880
812.573	2956
812.714	2925
812.855	3047
812.997	3032
813.138	3131
813.279	3001
813.421	3020
813.562	2933
813.703	2891
813.845	2861
813.986	2762
814.127	2720
814.268	2811
814.41	2853
814.551	2842
814.692	2876
814.833	2788
814.974	2876
815.115	2944
815.256	2845
815.397	2811
815.539	2857
815.68	2773
815.821	2781
815.962	2956
816.103	2941
816.244	2842
816.385	2849
816.526	2979
816.666	2876
816.807	2727
816.948	2941
817.089	2883
817.23	2842
817.371	2788
817.512	2769
817.653	2830
817.793	2792
817.934	2906
818.075	2963
818.216	2975
818.356	3039
818.497	2857
818.638	2739
818.778	2834
818.919	2758
819.06	2777
819.2	2823
819.341	2800
819.481	2785
819.622	2906
819.762	3112
819.903	3039
820.043	2910
820.184	2891
820.324	2872
820.465	3020
820.605	3013
820.746	2960
820.886	2918
821.026	3070
821.167	3123
821.307	3268
821.447	3230
821.588	3226
821.728	3188
821.868	3211
822.008	3089
822.149	3188
822.289	3245
822.429	3097
822.569	3062
822.709	3203
822.849	3017
822.99	3036
823.13	3127
823.27	3169
823.41	3093
823.55	3142
823.69	3142
823.83	3138
823.97	3074
824.11	2956
824.25	2971
824.389	3066
824.529	3093
824.669	3036
824.809	3180
824.949	3214
825.089	3203
825.228	3161
825.368	2975
825.508	2952
825.648	2982
825.787	2994
825.927	2998
826.067	2990
826.206	2941
826.346	3039
826.485	3066
826.625	3116
826.765	3233
826.904	3230
827.044	3039
827.183	2929
827.323	2876
827.462	3009
827.601	2933
827.741	2937
827.88	2982
828.02	2838
828.159	3028
828.298	3055
828.437	3138
828.577	3062
828.716	3249
828.855	3089
828.994	2929
829.134	2902
829.273	2963
829.412	2895
829.551	2891
829.69	2914
829.829	3009
829.968	3157
830.107	3043
830.246	3047
830.385	2979
830.524	2944
830.663	2876
830.802	2777
830.941	2682
831.08	2667
831.219	2826
831.357	2773
831.496	2971
831.635	2754
831.774	2716
831.913	2701
832.051	2568
832.19	2617
832.329	2686
832.467	2610
832.606	2530
832.744	2606
832.883	2610
833.022	2629
833.16	2705
833.299	2731
833.437	2712
833.576	2743
833.714	2758
833.852	2769
833.991	2826
834.129	2857
834.267	2834
834.406	2834
834.544	2922
834.682	2918
834.821	2952
834.959	3070
835.097	2899
835.235	3093
835.373	3051
835.511	3036
835.65	3009
835.788	2990
835.926	2891
836.064	2842
836.202	2887
836.34	3165
836.478	3176
836.615	3097
836.753	3142
836.891	3226
837.029	3184
837.167	3146
837.305	3077
837.443	3070
837.58	3005
837.718	3157
837.856	3100
837.993	3058
838.131	3146
838.269	3146
838.406	3169
838.544	3127
838.681	2948
838.819	2952
838.956	2853
839.094	2868
839.231	2994
839.369	3081
839.506	3370
839.643	3226
839.781	3013
839.918	2971
840.055	3093
840.193	3066
840.33	3089
840.467	3138
840.604	3165
840.742	3428
840.879	3074
841.016	3081
841.153	3161
841.29	3348
841.427	3275
841.564	3279
841.701	3336
841.838	3287
841.975	3184
842.112	3306
842.249	3142
842.385	3070
842.522	3272
842.659	3127
842.796	3055
842.933	3146
843.069	3085
843.206	3077
843.343	3226
843.479	3138
843.616	3192
843.752	2937
843.889	2918
844.025	3131
844.162	2941
844.298	3074
844.435	2963
844.571	2941
844.708	3100
844.844	3192
844.98	3264
845.117	3230
845.253	3100
845.389	3051
845.525	3116
845.661	3157
845.798	3055
845.934	3154
846.07	3116
846.206	3253
846.342	3332
846.478	3268
846.614	3127
846.75	3097
846.886	3074
847.022	3268
847.158	3180
847.294	3233
847.429	3230
847.565	3230
847.701	3511
847.837	3089
847.972	3051
848.108	3199
848.244	3199
848.379	3005
848.515	2956
848.65	2960
848.786	2963
848.921	3001
849.057	3131
849.192	3176
849.328	3119
849.463	3142
849.598	3108
849.734	3089
849.869	2998
850.004	2963
850.14	3028
850.275	2963
850.41	2883
850.545	2941
850.68	2948
850.815	3009
850.95	2975
851.085	3199
851.22	3123
851.355	3028
851.49	3005
851.625	3039
851.76	3028
851.895	2975
852.03	2933
852.165	3070
852.299	3146
852.434	3188
852.569	3180
852.703	3169
852.838	3287
852.973	3344
853.107	3386
853.242	3150
853.376	3146
853.511	2979
853.645	3074
853.78	3302
853.914	3154
854.048	3131
854.183	3127
854.317	3199
854.451	3302
854.585	3138
854.72	3119
854.854	3237
854.988	3058
855.122	3085
855.256	3005
855.39	3093
855.524	3226
855.658	3222
855.792	3146
855.926	3199
856.06	3218
856.194	3287
856.327	3154
856.461	3127
856.595	3112
856.729	3108
856.862	3188
856.996	3188
857.13	3230
857.263	3291
857.397	3321
857.53	3157
857.664	3207
857.797	3226
857.931	3279
858.064	3192
858.197	3207
858.331	3176
858.464	3127
858.597	3005
858.731	3112
858.864	3157
858.997	3104
859.13	3157
859.263	3218
859.396	3241
859.529	3123
859.662	3127
859.795	3070
859.928	3157
860.061	3272
860.194	3291
860.327	3157
860.46	3127
860.592	3283
860.725	3275
860.858	3260
860.99	3150
861.123	3066
861.256	3017
861.388	3188
861.521	3740
861.653	3070
861.786	3001
861.918	3032
862.05	3081
862.183	3131
862.315	3165
862.447	3214
862.58	3127
862.712	2937
862.844	2891
862.976	3047
863.108	3032
863.24	3374
863.372	2922
863.504	3005
863.636	2994
863.768	3020
863.9	2956
864.032	2944
864.164	2971
864.296	3024
864.428	3116
864.559	3127
864.691	3100
864.823	3104
864.954	3051
865.086	3047
865.217	3077
865.349	2998
865.48	3028
865.612	3024
865.743	3173
865.875	3013
866.006	2990
866.137	3005
866.269	2986
866.4	2933
866.531	2937
866.662	2883
866.793	2925
866.924	2944
867.055	3028
867.186	2956
867.317	2861
867.448	2864
867.579	2876
867.71	2853
867.841	2830
867.972	2899
868.103	2925
868.233	2906
868.364	2914
868.495	2902
868.625	3104
868.756	3165
868.886	3001
869.017	3047
869.147	3195
869.278	3169
869.408	3047
869.539	3028
869.669	3093
869.799	3043
869.929	3207
870.06	3135
870.19	3313
870.32	3310
870.45	3317
870.58	3389
870.71	3477
870.84	3481
870.97	3329
871.1	3298
871.23	3462
871.36	3443
871.489	3370
871.619	3424
871.749	3412
871.879	3488
872.008	3477
872.138	3416
872.267	3275
872.397	3138
872.526	3081
872.656	3028
872.785	3100
872.915	3268
873.044	3359
873.173	3241
873.303	3310
873.432	3218
873.561	3294
873.69	3157
873.819	3176
873.948	3211
874.077	3150
874.206	3058
874.335	3112
874.464	3218
874.593	3374
874.722	3256
874.851	3389
874.979	3336
875.108	3336
875.237	3173
875.365	3188
875.494	3192
875.623	3218
875.751	3047
875.88	3138
876.008	3211
876.136	3253
876.265	3389
876.393	3538
876.521	3431
876.65	3359
876.778	3321
876.906	3260
877.034	3233
877.162	3241
877.29	3207
877.418	3275
877.546	3256
877.674	3260
877.802	3237
877.93	3264
878.058	3165
878.185	3108
878.313	3218
878.441	3230
878.568	3108
878.696	3157
878.824	3264
878.951	3310
879.079	3435
879.206	3599
879.333	3492
879.461	3344
879.588	3370
879.715	3488
879.842	3603
879.97	3397
880.097	3169
880.224	3138
880.351	3214
880.478	3253
880.605	3222
880.732	3203
880.859	3485
880.986	3348
881.112	3321
881.239	3195
881.366	3112
881.493	3028
881.619	3009
881.746	3077
881.872	3123
881.999	3142
882.125	3138
882.252	3268
882.378	3275
882.505	3424
882.631	3306
882.757	3192
882.883	3226
883.01	3249
883.136	3169
883.262	3081
883.388	3108
883.514	3321
883.64	3389
883.766	3325
883.892	3199
884.018	3211
884.143	3450
884.269	3549
884.395	3226
884.52	3154
884.646	3222
884.772	3127
884.897	3077
885.023	3184
885.148	3359
885.274	3431
885.399	3355
885.524	3268
885.65	3264
885.775	3310
885.9	3294
886.025	3462
886.15	3370
886.275	3325
886.4	3222
886.525	3302
886.65	3272
886.775	3283
886.9	3458
887.025	3644
887.149	3420
887.274	3310
887.399	3184
887.523	3226
887.648	3195
887.773	3207
887.897	3420
888.021	3393
888.146	3287
888.27	3447
888.395	3568
888.519	3439
888.643	3481
888.767	3454
888.891	3344
889.015	3241
889.139	3275
889.263	3226
889.387	3412
889.511	3534
889.635	3439
889.759	3310
889.883	3275
890.006	3359
890.13	3519
890.254	3268
890.377	3329
890.501	3180
890.624	3199
890.748	3336
890.871	3169
890.995	3089
891.118	3051
891.241	3192
891.364	3218
891.488	3374
891.611	3214
891.734	3214
891.857	3268
891.98	3279
892.103	3310
892.226	3298
892.349	3211
892.471	3131
892.594	3260
892.717	3306
892.839	3294
892.962	3279
893.085	3374
893.207	3332
893.33	3165
893.452	3214
893.575	3325
893.697	3230
893.819	3485
893.941	3515
894.064	3485
894.186	3249
894.308	3249
894.43	3462
894.552	3538
894.674	3481
894.796	3287
894.918	3298
895.04	3317
895.161	3431
895.283	3378
895.405	3294
895.526	3374
895.648	3454
895.769	3424
895.891	3469
896.012	3496
896.134	3492
896.255	3401
896.376	3412
896.498	3348
896.619	3447
896.74	3336
896.861	3443
896.982	3709
897.103	3842
897.224	3606
897.345	3534
897.466	3435
897.587	3485
897.708	3610
897.828	3519
897.949	3420
898.07	3310
898.19	3439
898.311	3587
898.431	3466
898.552	3549
898.672	3637
898.792	3599
898.913	3507
899.033	3412
899.153	3298
899.273	3214
899.393	3291
899.513	3336
899.633	3336
899.753	3363
899.873	3310
899.993	3382
900.113	3329
900.232	3401
900.352	3367
900.472	3272
900.591	3192
900.711	3329
900.83	3275
900.95	3435
901.069	3507
901.189	3370
901.308	3184
901.427	3154
901.546	3195
901.665	3291
901.784	3302
901.904	3214
902.023	3123
902.141	3036
902.26	3013
902.379	3146
902.498	3074
902.617	3051
902.735	3241
902.854	3173
902.973	3184
903.091	3066
903.21	3085
903.328	3138
903.446	3146
903.565	3108
903.683	3226
903.801	3173
903.919	3253
904.038	3256
904.156	3176
904.274	3268
904.392	3268
904.51	3298
904.627	3355
904.745	3447
904.863	3477
904.981	3245
905.098	3199
905.216	3222
905.334	3325
905.451	3253
905.569	3298
905.686	3462
905.803	3466
905.921	3268
906.038	3466
906.155	3336
906.272	3260
906.389	3336
906.506	3237
906.623	3260
906.74	3325
906.857	3176
906.974	3188
907.091	3431
907.208	3542
907.324	3443
907.441	3428
907.557	3237
907.674	3230
907.79	3233
907.907	3272
908.023	3393
908.139	3355
908.256	3332
908.372	3382
908.488	3389
908.604	3260
908.72	3230
908.836	3264
908.952	3272
909.068	3378
909.184	3485
909.3	3389
909.415	3477
909.531	3454
909.647	3268
909.762	3306
909.878	3279
909.993	3355
910.108	3325
910.224	3374
910.339	3389
910.454	3344
910.57	3306
910.685	3268
910.8	3584
910.915	3545
911.03	3405
911.145	3256
911.259	3272
911.374	3363
911.489	3245
911.604	3203
911.718	3165
911.833	3123
911.947	3020
912.062	2929
912.176	3161
912.291	3230
912.405	3188
912.519	3431
912.633	3485
912.748	3344
912.862	3264
912.976	3161
913.09	3043
913.204	3161
913.318	3226
913.431	3329
913.545	3344
913.659	3424
913.772	3329
913.886	3195
914	3233
914.113	3336
914.226	3386
914.34	3351
914.453	3199
914.566	3424
914.68	3313
914.793	3310
914.906	3123
915.019	3104
915.132	3070
915.245	3184
915.358	3199
915.47	3192
915.583	3249
915.696	3291
915.809	3428
915.921	3447
916.034	3260
916.146	3253
916.259	3222
916.371	3355
916.483	3363
916.595	3279
916.708	3306
916.82	3359
916.932	3340
917.044	3321
917.156	3355
917.268	3226
917.38	3264
917.491	3325
917.603	3348
917.715	3450
917.826	3435
917.938	3370
918.049	3272
918.161	3435
918.272	3595
918.384	3561
918.495	3469
918.606	3340
918.717	3260
918.828	3416
918.939	3370
919.05	3306
919.161	3363
919.272	3188
919.383	3310
919.494	3492
919.604	3686
919.715	3485
919.826	3412
919.936	3431
920.047	3595
920.157	3534
920.267	3747
920.378	3610
920.488	3595
920.598	3766
920.708	3964
920.818	3827
920.928	3831
921.038	4017
921.148	3983
921.258	3694
921.368	3652
921.477	3610
921.587	3496
921.697	3454
921.806	3591
921.916	3538
922.025	3351
922.134	3389
922.244	3321
922.353	3424
922.462	3291
922.571	3253
922.68	3100
922.789	3055
922.898	3116
923.007	3108
923.116	3192
923.224	3176
923.333	3195
923.442	3089
923.55	3070
923.659	3169
923.767	3184
923.876	3108
923.984	3233
924.092	3108
924.201	3192
924.309	3184
924.417	3264
924.525	3203
924.633	3241
924.741	4036
924.849	3047
924.956	3298
925.064	3142
925.172	3043
925.279	3108
925.387	3184
925.494	3199
925.602	3332
925.709	3310
925.816	3180
925.924	3279
926.031	3386
926.138	3287
926.245	3340
926.352	3268
926.459	3409
926.566	3469
926.673	3306
926.779	3249
926.886	3241
926.993	3127
927.099	3138
927.206	3112
927.312	3104
927.419	3222
927.525	3161
927.631	3272
927.737	3112
927.843	3112
927.95	3024
928.056	3142
928.162	3173
928.267	3264
928.373	3903
928.479	3287
928.585	3047
928.69	3180
928.796	3256
928.901	3192
929.007	3062
929.112	3192
929.218	3192
929.323	3123
929.428	3097
929.533	3302
929.638	3123
929.743	3173
929.848	3230
929.953	3230
930.058	3112
930.163	2971
930.267	3062
930.372	3195
930.477	3028
930.581	3317
930.685	3203
930.79	3074
930.894	3112
930.998	3108
931.103	3268
931.207	2914
931.311	2944
931.415	2918
931.519	2788
931.623	2826
