Data from test_V78500241_1564.txt Node
Date: Fri Mar 25 16:26:02 CST 2022
User: usil
Spectrometer: V785-0024
Trigger mode: 0
Integration Time (sec): 4.000000E-1
Scans to average: 1
Nonlinearity correction enabled: false
Boxcar width: 0
Storing dark spectrum: false
XAxis mode: Wavelengths
Number of Pixels in Spectrum: 1024
>>>>>Begin Spectral Data<<<<<
801.071	2902
801.214	2956
801.356	2845
801.499	2899
801.641	2887
801.783	2922
801.926	3020
802.068	3005
802.211	2982
802.353	3013
802.496	2944
802.638	3024
802.78	3036
802.923	3039
803.065	2982
803.208	2910
803.35	2906
803.492	2944
803.635	2937
803.777	2727
803.919	2849
804.061	3169
804.204	2960
804.346	2929
804.488	2834
804.63	2986
804.773	2880
804.915	2925
805.057	3089
805.199	2956
805.341	2975
805.483	3051
805.626	2960
805.768	2979
805.91	3077
806.052	3135
806.194	3032
806.336	3226
806.478	3024
806.62	2986
806.762	2967
806.904	3085
807.046	3214
807.188	3009
807.33	2922
807.472	3017
807.614	2941
807.756	2956
807.898	2899
808.04	2895
808.182	2979
808.324	2975
808.465	2853
808.607	2925
808.749	2823
808.891	2861
809.033	2990
809.174	2948
809.316	2842
809.458	2902
809.6	2796
809.741	2788
809.883	2781
810.025	2834
810.166	2880
810.308	2849
810.45	2857
810.591	2773
810.733	2785
810.875	2811
811.016	2785
811.158	2754
811.299	2819
811.441	2960
811.582	2902
811.724	2823
811.865	2819
812.007	2906
812.148	2899
812.29	2838
812.431	2883
812.573	2937
812.714	3013
812.855	3032
812.997	3085
813.138	3123
813.279	2986
813.421	2963
813.562	2963
813.703	2853
813.845	2933
813.986	2781
814.127	2731
814.268	2800
814.41	2826
814.551	2807
814.692	2883
814.833	2804
814.974	2922
815.115	2979
815.256	2845
815.397	2811
815.539	2891
815.68	2800
815.821	2815
815.962	2929
816.103	2941
816.244	2895
816.385	2887
816.526	2941
816.666	2925
816.807	2766
816.948	2872
817.089	2891
817.23	2807
817.371	2769
817.512	2815
817.653	2834
817.793	2834
817.934	2906
818.075	2967
818.216	2929
818.356	3043
818.497	2880
818.638	2807
818.778	2800
818.919	2826
819.06	2796
819.2	2876
819.341	2849
819.481	2792
819.622	2914
819.762	3131
819.903	3074
820.043	2937
820.184	2891
820.324	2876
820.465	3032
820.605	3020
820.746	3043
820.886	2883
821.026	3112
821.167	3161
821.307	3237
821.447	3287
821.588	3230
821.728	3214
821.868	3165
822.008	3093
822.149	3173
822.289	3188
822.429	3070
822.569	3066
822.709	3184
822.849	3043
822.99	3062
823.13	3150
823.27	3203
823.41	3104
823.55	3146
823.69	3100
823.83	3218
823.97	3100
824.11	2979
824.25	2986
824.389	3081
824.529	3085
824.669	3085
824.809	3203
824.949	3230
825.089	3203
825.228	3188
825.368	2990
825.508	2963
825.648	2941
825.787	3020
825.927	3005
826.067	2941
826.206	2960
826.346	3070
826.485	3028
826.625	3135
826.765	3256
826.904	3222
827.044	3013
827.183	2918
827.323	2857
827.462	2944
827.601	2952
827.741	2963
827.88	2944
828.02	2842
828.159	3009
828.298	3047
828.437	3135
828.577	3013
828.716	3268
828.855	3062
828.994	2891
829.134	2933
829.273	2922
829.412	2849
829.551	2845
829.69	2887
829.829	2967
829.968	3100
830.107	2998
830.246	3047
830.385	2925
830.524	2864
830.663	2804
830.802	2686
830.941	2636
831.08	2621
831.219	2777
831.357	2746
831.496	2963
831.635	2708
831.774	2670
831.913	2651
832.051	2526
832.19	2571
832.329	2705
832.467	2537
832.606	2457
832.744	2598
832.883	2568
833.022	2556
833.16	2625
833.299	2689
833.437	2705
833.576	2659
833.714	2716
833.852	2712
833.991	2750
834.129	2838
834.267	2834
834.406	2769
834.544	2887
834.682	2872
834.821	2845
834.959	3077
835.097	2910
835.235	3028
835.373	3013
835.511	3009
835.65	2918
835.788	2941
835.926	2842
836.064	2834
836.202	2830
836.34	3123
836.478	3135
836.615	3055
836.753	3135
836.891	3233
837.029	3157
837.167	3116
837.305	3058
837.443	3055
837.58	2994
837.718	3127
837.856	3051
837.993	3001
838.131	3131
838.269	3093
838.406	3104
838.544	3119
838.681	2922
838.819	2910
838.956	2853
839.094	2857
839.231	2880
839.369	3013
839.506	3386
839.643	3214
839.781	3020
839.918	2960
840.055	3043
840.193	3070
840.33	3062
840.467	3081
840.604	3154
840.742	3386
840.879	3089
841.016	3036
841.153	3093
841.29	3332
841.427	3291
841.564	3302
841.701	3275
841.838	3207
841.975	3180
842.112	3188
842.249	3119
842.385	3001
842.522	3272
842.659	3089
842.796	3066
842.933	3085
843.069	3036
843.206	3039
843.343	3157
843.479	3085
843.616	3157
843.752	2895
843.889	2891
844.025	3047
844.162	2868
844.298	3055
844.435	2937
844.571	2925
844.708	3077
844.844	3169
844.98	3241
845.117	3214
845.253	3066
845.389	3017
845.525	3089
845.661	3116
845.798	2982
845.934	3123
846.07	3074
846.206	3233
846.342	3291
846.478	3241
846.614	3051
846.75	3047
846.886	3032
847.022	3222
847.158	3131
847.294	3188
847.429	3218
847.565	3199
847.701	3450
847.837	3032
847.972	2982
848.108	3180
848.244	3135
848.379	2960
848.515	2899
848.65	2906
848.786	2952
848.921	3009
849.057	3119
849.192	3123
849.328	3104
849.463	3100
849.598	3024
849.734	3020
849.869	2956
850.004	2944
850.14	2986
850.275	2880
850.41	2823
850.545	2883
850.68	2937
850.815	2982
850.95	2982
851.085	3154
851.22	3108
851.355	3032
851.49	2990
851.625	3001
851.76	2967
851.895	2910
852.03	2910
852.165	3043
852.299	3127
852.434	3192
852.569	3112
852.703	3173
852.838	3237
852.973	3306
853.107	3370
853.242	3180
853.376	3074
853.511	2986
853.645	3032
853.78	3214
853.914	3116
854.048	3142
854.183	3043
854.317	3093
854.451	3294
854.585	3077
854.72	3119
854.854	3233
854.988	3028
855.122	3085
855.256	2967
855.39	3089
855.524	3222
855.658	3165
855.792	3150
855.926	3199
856.06	3195
856.194	3302
856.327	3169
856.461	3081
856.595	3085
856.729	3081
856.862	3222
856.996	3157
857.13	3203
857.263	3230
857.397	3268
857.53	3116
857.664	3195
857.797	3241
857.931	3237
858.064	3169
858.197	3241
858.331	3127
858.464	3100
858.597	3028
858.731	3070
858.864	3142
858.997	3043
859.13	3127
859.263	3180
859.396	3165
859.529	3077
859.662	3074
859.795	3058
859.928	3142
860.061	3268
860.194	3298
860.327	3112
860.46	3093
860.592	3226
860.725	3218
860.858	3245
860.99	3119
861.123	3062
861.256	3066
861.388	3157
861.521	3888
861.653	3024
861.786	2963
861.918	2975
862.05	3032
862.183	3081
862.315	3104
862.447	3176
862.58	3077
862.712	2952
862.844	2876
862.976	2998
863.108	3013
863.24	3310
863.372	2838
863.504	2975
863.636	2929
863.768	3020
863.9	3001
864.032	2891
864.164	2944
864.296	3005
864.428	3097
864.559	3074
864.691	3081
864.823	3043
864.954	3032
865.086	3039
865.217	2975
865.349	2925
865.48	2986
865.612	3020
865.743	3146
865.875	2963
866.006	2960
866.137	2941
866.269	2952
866.4	2910
866.531	2887
866.662	2883
866.793	2922
866.924	2899
867.055	3009
867.186	2906
867.317	2853
867.448	2845
867.579	2819
867.71	2834
867.841	2819
867.972	2891
868.103	2883
868.233	2872
868.364	2853
868.495	2906
868.625	3058
868.756	3173
868.886	2975
869.017	3005
869.147	3203
869.278	3150
869.408	3074
869.539	2998
869.669	3100
869.799	3028
869.929	3119
870.06	3108
870.19	3351
870.32	3245
870.45	3283
870.58	3378
870.71	3450
870.84	3473
870.97	3283
871.1	3249
871.23	3481
871.36	3466
871.489	3359
871.619	3386
871.749	3431
871.879	3424
872.008	3435
872.138	3325
872.267	3268
872.397	3123
872.526	3051
872.656	2990
872.785	3097
872.915	3199
873.044	3355
873.173	3203
873.303	3237
873.432	3272
873.561	3237
873.69	3173
873.819	3104
873.948	3173
874.077	3146
874.206	3055
874.335	3066
874.464	3199
874.593	3321
874.722	3237
874.851	3325
874.979	3355
875.108	3298
875.237	3199
875.365	3211
875.494	3176
875.623	3283
875.751	3066
875.88	3127
876.008	3218
876.136	3207
876.265	3332
876.393	3507
876.521	3428
876.65	3348
876.778	3317
876.906	3256
877.034	3180
877.162	3211
877.29	3199
877.418	3245
877.546	3211
877.674	3275
877.802	3249
877.93	3233
878.058	3180
878.185	3085
878.313	3184
878.441	3218
878.568	3070
878.696	3138
878.824	3275
878.951	3268
879.079	3458
879.206	3572
879.333	3447
879.461	3340
879.588	3348
879.715	3504
879.842	3610
879.97	3355
880.097	3165
880.224	3097
880.351	3150
880.478	3222
880.605	3192
880.732	3211
880.859	3454
880.986	3336
881.112	3306
881.239	3211
881.366	3085
881.493	3020
881.619	3020
881.746	3039
881.872	3081
881.999	3119
882.125	3138
882.252	3237
882.378	3279
882.505	3420
882.631	3279
882.757	3173
882.883	3211
883.01	3241
883.136	3119
883.262	3077
883.388	3093
883.514	3363
883.64	3382
883.766	3310
883.892	3192
884.018	3218
884.143	3401
884.269	3523
884.395	3233
884.52	3154
884.646	3180
884.772	3146
884.897	3123
885.023	3195
885.148	3363
885.274	3428
885.399	3370
885.524	3260
885.65	3253
885.775	3370
885.9	3279
886.025	3405
886.15	3378
886.275	3272
886.4	3203
886.525	3317
886.65	3218
886.775	3291
886.9	3481
887.025	3667
887.149	3378
887.274	3245
887.399	3184
887.523	3230
887.648	3135
887.773	3214
887.897	3317
888.021	3401
888.146	3329
888.27	3397
888.395	3526
888.519	3382
888.643	3439
888.767	3477
888.891	3283
889.015	3230
889.139	3264
889.263	3211
889.387	3393
889.511	3492
889.635	3466
889.759	3306
889.883	3321
890.006	3405
890.13	3477
890.254	3294
890.377	3321
890.501	3207
890.624	3165
890.748	3294
890.871	3165
890.995	3081
891.118	3013
891.241	3165
891.364	3256
891.488	3291
891.611	3154
891.734	3230
891.857	3256
891.98	3245
892.103	3313
892.226	3298
892.349	3241
892.471	3100
892.594	3272
892.717	3283
892.839	3256
892.962	3287
893.085	3359
893.207	3279
893.33	3138
893.452	3222
893.575	3355
893.697	3241
893.819	3466
893.941	3523
894.064	3450
894.186	3272
894.308	3298
894.43	3424
894.552	3523
894.674	3462
894.796	3272
894.918	3291
895.04	3283
895.161	3416
895.283	3412
895.405	3374
895.526	3351
895.648	3439
895.769	3397
895.891	3500
896.012	3488
896.134	3428
896.255	3409
896.376	3374
896.498	3370
896.619	3424
896.74	3409
896.861	3405
896.982	3679
897.103	3835
897.224	3568
897.345	3488
897.466	3397
897.587	3488
897.708	3606
897.828	3549
897.949	3401
898.07	3313
898.19	3420
898.311	3625
898.431	3439
898.552	3511
898.672	3576
898.792	3564
898.913	3492
899.033	3412
899.153	3302
899.273	3222
899.393	3275
899.513	3336
899.633	3291
899.753	3355
899.873	3321
899.993	3344
900.113	3336
900.232	3393
900.352	3359
900.472	3287
900.591	3230
900.711	3321
900.83	3218
900.95	3393
901.069	3492
901.189	3306
901.308	3176
901.427	3116
901.546	3188
901.665	3283
901.784	3340
901.904	3226
902.023	3161
902.141	3017
902.26	3013
902.379	3142
902.498	3097
902.617	3093
902.735	3211
902.854	3230
902.973	3218
903.091	3024
903.21	3043
903.328	3142
903.446	3127
903.565	3097
903.683	3226
903.801	3127
903.919	3207
904.038	3294
904.156	3138
904.274	3279
904.392	3237
904.51	3249
904.627	3302
904.745	3431
904.863	3504
904.981	3283
905.098	3169
905.216	3226
905.334	3287
905.451	3313
905.569	3310
905.686	3416
905.803	3466
905.921	3310
906.038	3424
906.155	3329
906.272	3294
906.389	3298
906.506	3279
906.623	3230
906.74	3256
906.857	3184
906.974	3268
907.091	3416
907.208	3526
907.324	3488
907.441	3374
907.557	3188
907.674	3245
907.79	3249
907.907	3302
908.023	3363
908.139	3355
908.256	3344
908.372	3378
908.488	3340
908.604	3245
908.72	3233
908.836	3268
908.952	3287
909.068	3321
909.184	3481
909.3	3386
909.415	3511
909.531	3477
909.647	3222
909.762	3283
909.878	3256
909.993	3355
910.108	3389
910.224	3325
910.339	3374
910.454	3370
910.57	3279
910.685	3214
910.8	3572
910.915	3526
911.03	3431
911.145	3256
911.259	3256
911.374	3336
911.489	3230
911.604	3233
911.718	3123
911.833	3135
911.947	3032
912.062	2982
912.176	3165
912.291	3173
912.405	3199
912.519	3405
912.633	3473
912.748	3317
912.862	3306
912.976	3176
913.09	3066
913.204	3123
913.318	3203
913.431	3317
913.545	3367
913.659	3393
913.772	3287
913.886	3188
914	3203
914.113	3386
914.226	3397
914.34	3359
914.453	3203
914.566	3443
914.68	3298
914.793	3291
914.906	3131
915.019	3093
915.132	3077
915.245	3165
915.358	3233
915.47	3184
915.583	3264
915.696	3287
915.809	3370
915.921	3424
916.034	3245
916.146	3256
916.259	3207
916.371	3348
916.483	3401
916.595	3275
916.708	3348
916.82	3355
916.932	3355
917.044	3340
917.156	3370
917.268	3260
917.38	3329
917.491	3298
917.603	3363
917.715	3458
917.826	3450
917.938	3344
918.049	3264
918.161	3405
918.272	3542
918.384	3545
918.495	3504
918.606	3363
918.717	3245
918.828	3370
918.939	3431
919.05	3256
919.161	3401
919.272	3161
919.383	3294
919.494	3500
919.604	3660
919.715	3515
919.826	3424
919.936	3462
920.047	3584
920.157	3549
920.267	3717
920.378	3633
920.488	3572
920.598	3766
920.708	3945
920.818	3785
920.928	3793
921.038	4059
921.148	4025
921.258	3762
921.368	3641
921.477	3591
921.587	3538
921.697	3488
921.806	3637
921.916	3538
922.025	3401
922.134	3386
922.244	3321
922.353	3416
922.462	3256
922.571	3268
922.68	3100
922.789	3074
922.898	3100
923.007	3081
923.116	3218
923.224	3180
923.333	3169
923.442	3085
923.55	3093
923.659	3176
923.767	3211
923.876	3112
923.984	3233
924.092	3123
924.201	3211
924.309	3195
924.417	3298
924.525	3169
924.633	3256
924.741	4200
924.849	3032
924.956	3260
925.064	3104
925.172	3039
925.279	3085
925.387	3211
925.494	3192
925.602	3348
925.709	3359
925.816	3173
925.924	3256
926.031	3359
926.138	3310
926.245	3348
926.352	3253
926.459	3416
926.566	3443
926.673	3321
926.779	3230
926.886	3241
926.993	3161
927.099	3119
927.206	3104
927.312	3119
927.419	3241
927.525	3188
927.631	3237
927.737	3154
927.843	3131
927.95	3043
928.056	3123
928.162	3150
928.267	3268
928.373	3869
928.479	3310
928.585	3066
928.69	3218
928.796	3226
928.901	3199
929.007	2998
929.112	3207
929.218	3173
929.323	3180
929.428	3146
929.533	3279
929.638	3085
929.743	3188
929.848	3245
929.953	3195
930.058	3131
930.163	2982
930.267	3028
930.372	3192
930.477	3024
930.581	3336
930.685	3135
930.79	3062
930.894	3119
930.998	3081
931.103	3283
931.207	2971
931.311	2948
931.415	2914
931.519	2766
931.623	2796
