Data from test_V78500241_1739.txt Node
Date: Fri Mar 25 16:27:15 CST 2022
User: usil
Spectrometer: V785-0024
Trigger mode: 0
Integration Time (sec): 4.000000E-1
Scans to average: 1
Nonlinearity correction enabled: false
Boxcar width: 0
Storing dark spectrum: false
XAxis mode: Wavelengths
Number of Pixels in Spectrum: 1024
>>>>>Begin Spectral Data<<<<<
801.071	2914
801.214	2933
801.356	2857
801.499	2887
801.641	2861
801.783	2914
801.926	3028
802.068	2971
802.211	3017
802.353	3017
802.496	2994
802.638	3017
802.78	2994
802.923	3070
803.065	3009
803.208	2895
803.35	2910
803.492	2922
803.635	2933
803.777	2716
803.919	2849
804.061	3176
804.204	2944
804.346	2891
804.488	2845
804.63	2979
804.773	2861
804.915	2925
805.057	3097
805.199	2929
805.341	3001
805.483	3024
805.626	2998
805.768	2971
805.91	3062
806.052	3093
806.194	3055
806.336	3192
806.478	3036
806.62	2948
806.762	2944
806.904	2990
807.046	3131
807.188	3009
807.33	2944
807.472	2971
807.614	2922
807.756	2967
807.898	2902
808.04	2872
808.182	2963
808.324	2937
808.465	2887
808.607	2849
808.749	2762
808.891	2842
809.033	3001
809.174	2994
809.316	2891
809.458	2876
809.6	2739
809.741	2754
809.883	2766
810.025	2857
810.166	2830
810.308	2811
810.45	2834
810.591	2754
810.733	2762
810.875	2842
811.016	2792
811.158	2746
811.299	2792
811.441	2914
811.582	2857
811.724	2826
811.865	2868
812.007	2895
812.148	2861
812.29	2861
812.431	2906
812.573	2952
812.714	2994
812.855	3036
812.997	3066
813.138	3127
813.279	2948
813.421	2982
813.562	2937
813.703	2868
813.845	2853
813.986	2773
814.127	2720
814.268	2807
814.41	2826
814.551	2830
814.692	2849
814.833	2796
814.974	2895
815.115	2986
815.256	2781
815.397	2804
815.539	2861
815.68	2758
815.821	2796
815.962	2933
816.103	2929
816.244	2845
816.385	2838
816.526	2956
816.666	2895
816.807	2720
816.948	2902
817.089	2899
817.23	2830
817.371	2807
817.512	2769
817.653	2853
817.793	2823
817.934	2861
818.075	2979
818.216	3024
818.356	3058
818.497	2895
818.638	2766
818.778	2834
818.919	2792
819.06	2754
819.2	2910
819.341	2815
819.481	2800
819.622	2902
819.762	3093
819.903	3051
820.043	2906
820.184	2887
820.324	2857
820.465	3028
820.605	3036
820.746	3024
820.886	2910
821.026	3081
821.167	3135
821.307	3256
821.447	3264
821.588	3199
821.728	3188
821.868	3207
822.008	3058
822.149	3192
822.289	3256
822.429	3093
822.569	3112
822.709	3157
822.849	3032
822.99	3066
823.13	3138
823.27	3184
823.41	3104
823.55	3161
823.69	3116
823.83	3184
823.97	3070
824.11	3001
824.25	2960
824.389	3051
824.529	3093
824.669	3024
824.809	3203
824.949	3279
825.089	3199
825.228	3154
825.368	3032
825.508	2971
825.648	2971
825.787	2998
825.927	2979
826.067	2990
826.206	2956
826.346	3074
826.485	3085
826.625	3138
826.765	3268
826.904	3192
827.044	3001
827.183	2914
827.323	2872
827.462	2994
827.601	2937
827.741	2948
827.88	2952
828.02	2853
828.159	2963
828.298	3036
828.437	3108
828.577	3043
828.716	3275
828.855	3058
828.994	2914
829.134	2876
829.273	2914
829.412	2861
829.551	2815
829.69	2868
829.829	2982
829.968	3116
830.107	3013
830.246	3020
830.385	2895
830.524	2872
830.663	2773
830.802	2724
830.941	2621
831.08	2651
831.219	2773
831.357	2731
831.496	2967
831.635	2674
831.774	2644
831.913	2663
832.051	2522
832.19	2575
832.329	2712
832.467	2545
832.606	2469
832.744	2598
832.883	2556
833.022	2568
833.16	2640
833.299	2693
833.437	2655
833.576	2705
833.714	2716
833.852	2712
833.991	2743
834.129	2819
834.267	2845
834.406	2777
834.544	2842
834.682	2883
834.821	2857
834.959	3116
835.097	2899
835.235	3043
835.373	3009
835.511	3001
835.65	2925
835.788	2975
835.926	2849
836.064	2804
836.202	2819
836.34	3043
836.478	3119
836.615	3055
836.753	3161
836.891	3211
837.029	3123
837.167	3123
837.305	3024
837.443	3020
837.58	2986
837.718	3108
837.856	3070
837.993	2998
838.131	3142
838.269	3074
838.406	3074
838.544	3039
838.681	2933
838.819	2952
838.956	2807
839.094	2815
839.231	2902
839.369	2998
839.506	3351
839.643	3176
839.781	2979
839.918	2960
840.055	3047
840.193	3024
840.33	3051
840.467	3051
840.604	3173
840.742	3374
840.879	3043
841.016	3051
841.153	3116
841.29	3321
841.427	3291
841.564	3241
841.701	3306
841.838	3207
841.975	3169
842.112	3203
842.249	3074
842.385	3028
842.522	3245
842.659	3058
842.796	3058
842.933	3070
843.069	3032
843.206	3077
843.343	3195
843.479	3127
843.616	3112
843.752	2883
843.889	2849
844.025	3055
844.162	2895
844.298	3081
844.435	2948
844.571	2910
844.708	3036
844.844	3203
844.98	3241
845.117	3226
845.253	3047
845.389	3036
845.525	3089
845.661	3093
845.798	2986
845.934	3112
846.07	3036
846.206	3184
846.342	3302
846.478	3214
846.614	3112
846.75	3036
846.886	3032
847.022	3218
847.158	3119
847.294	3218
847.429	3264
847.565	3203
847.701	3473
847.837	3047
847.972	2990
848.108	3119
848.244	3173
848.379	3017
848.515	2918
848.65	2910
848.786	2933
848.921	3009
849.057	3104
849.192	3123
849.328	3074
849.463	3112
849.598	3074
849.734	3017
849.869	2975
850.004	2910
850.14	2929
850.275	2941
850.41	2845
850.545	2906
850.68	2906
850.815	2952
850.95	2952
851.085	3161
851.22	3062
851.355	3009
851.49	2956
851.625	2990
851.76	3032
851.895	2918
852.03	2910
852.165	3032
852.299	3108
852.434	3199
852.569	3123
852.703	3214
852.838	3184
852.973	3340
853.107	3329
853.242	3146
853.376	3055
853.511	2979
853.645	3001
853.78	3207
853.914	3108
854.048	3081
854.183	3085
854.317	3165
854.451	3256
854.585	3131
854.72	3070
854.854	3203
854.988	3024
855.122	3097
855.256	3001
855.39	3146
855.524	3264
855.658	3142
855.792	3150
855.926	3195
856.06	3207
856.194	3245
856.327	3131
856.461	3077
856.595	3062
856.729	3085
856.862	3211
856.996	3138
857.13	3207
857.263	3249
857.397	3256
857.53	3100
857.664	3165
857.797	3241
857.931	3245
858.064	3108
858.197	3207
858.331	3108
858.464	3066
858.597	2994
858.731	3108
858.864	3150
858.997	3028
859.13	3173
859.263	3173
859.396	3176
859.529	3032
859.662	3066
859.795	3047
859.928	3127
860.061	3222
860.194	3294
860.327	3116
860.46	3104
860.592	3218
860.725	3211
860.858	3214
860.99	3066
861.123	3017
861.256	3043
861.388	3100
861.521	3960
861.653	3013
861.786	3005
861.918	2982
862.05	3047
862.183	3089
862.315	3135
862.447	3184
862.58	3077
862.712	2925
862.844	2891
862.976	3028
863.108	2963
863.24	3306
863.372	2876
863.504	2979
863.636	2933
863.768	2982
863.9	2994
864.032	2902
864.164	2933
864.296	2990
864.428	3043
864.559	3108
864.691	3066
864.823	3085
864.954	3062
865.086	3066
865.217	3013
865.349	2944
865.48	2960
865.612	3013
865.743	3131
865.875	2967
866.006	2941
866.137	2994
866.269	2963
866.4	2967
866.531	2914
866.662	2891
866.793	2883
866.924	2902
867.055	2933
867.186	2937
867.317	2883
867.448	2823
867.579	2842
867.71	2849
867.841	2796
867.972	2872
868.103	2895
868.233	2883
868.364	2853
868.495	2906
868.625	3077
868.756	3169
868.886	2960
869.017	3020
869.147	3161
869.278	3150
869.408	3043
869.539	3017
869.669	3127
869.799	3024
869.929	3127
870.06	3104
870.19	3325
870.32	3302
870.45	3325
870.58	3310
870.71	3488
870.84	3424
870.97	3306
871.1	3237
871.23	3454
871.36	3424
871.489	3344
871.619	3420
871.749	3416
871.879	3420
872.008	3477
872.138	3344
872.267	3241
872.397	3066
872.526	3104
872.656	2990
872.785	3104
872.915	3230
873.044	3329
873.173	3199
873.303	3264
873.432	3218
873.561	3192
873.69	3150
873.819	3112
873.948	3226
874.077	3108
874.206	3001
874.335	3074
874.464	3169
874.593	3351
874.722	3241
874.851	3397
874.979	3332
875.108	3321
875.237	3165
875.365	3154
875.494	3135
875.623	3237
875.751	3081
875.88	3074
876.008	3214
876.136	3176
876.265	3348
876.393	3485
876.521	3416
876.65	3389
876.778	3355
876.906	3226
877.034	3230
877.162	3237
877.29	3199
877.418	3249
877.546	3233
877.674	3260
877.802	3253
877.93	3237
878.058	3176
878.185	3085
878.313	3154
878.441	3237
878.568	3051
878.696	3116
878.824	3233
878.951	3302
879.079	3405
879.206	3610
879.333	3412
879.461	3313
879.588	3340
879.715	3424
879.842	3618
879.97	3382
880.097	3108
880.224	3135
880.351	3188
880.478	3214
880.605	3184
880.732	3180
880.859	3507
880.986	3287
881.112	3306
881.239	3199
881.366	3066
881.493	3024
881.619	3024
881.746	3074
881.872	3119
881.999	3081
882.125	3165
882.252	3245
882.378	3298
882.505	3424
882.631	3279
882.757	3135
882.883	3230
883.01	3184
883.136	3157
883.262	3112
883.388	3116
883.514	3336
883.64	3344
883.766	3302
883.892	3169
884.018	3226
884.143	3351
884.269	3534
884.395	3233
884.52	3165
884.646	3150
884.772	3123
884.897	3081
885.023	3214
885.148	3332
885.274	3363
885.399	3344
885.524	3260
885.65	3214
885.775	3283
885.9	3260
886.025	3412
886.15	3355
886.275	3264
886.4	3222
886.525	3298
886.65	3275
886.775	3256
886.9	3462
887.025	3652
887.149	3389
887.274	3264
887.399	3165
887.523	3180
887.648	3214
887.773	3169
887.897	3386
888.021	3370
888.146	3260
888.27	3405
888.395	3542
888.519	3439
888.643	3462
888.767	3447
888.891	3302
889.015	3249
889.139	3275
889.263	3237
889.387	3386
889.511	3507
889.635	3443
889.759	3287
889.883	3275
890.006	3382
890.13	3477
890.254	3268
890.377	3325
890.501	3192
890.624	3150
890.748	3321
890.871	3165
890.995	3112
891.118	3032
891.241	3226
891.364	3192
891.488	3317
891.611	3142
891.734	3199
891.857	3310
891.98	3245
892.103	3283
892.226	3313
892.349	3199
892.471	3116
892.594	3253
892.717	3287
892.839	3264
892.962	3287
893.085	3351
893.207	3294
893.33	3097
893.452	3184
893.575	3348
893.697	3241
893.819	3466
893.941	3519
894.064	3431
894.186	3268
894.308	3241
894.43	3428
894.552	3507
894.674	3473
894.796	3275
894.918	3283
895.04	3264
895.161	3401
895.283	3344
895.405	3317
895.526	3336
895.648	3409
895.769	3420
895.891	3466
896.012	3424
896.134	3466
896.255	3405
896.376	3374
896.498	3329
896.619	3431
896.74	3336
896.861	3363
896.982	3675
897.103	3869
897.224	3542
897.345	3496
897.466	3428
897.587	3504
897.708	3599
897.828	3530
897.949	3447
898.07	3306
898.19	3370
898.311	3572
898.431	3443
898.552	3504
898.672	3561
898.792	3591
898.913	3500
899.033	3405
899.153	3245
899.273	3180
899.393	3283
899.513	3310
899.633	3306
899.753	3283
899.873	3336
899.993	3332
900.113	3321
900.232	3389
900.352	3329
900.472	3264
900.591	3226
900.711	3275
900.83	3245
900.95	3416
901.069	3469
901.189	3351
901.308	3161
901.427	3104
901.546	3218
901.665	3310
901.784	3336
901.904	3184
902.023	3154
902.141	3009
902.26	3005
902.379	3123
902.498	3085
902.617	3066
902.735	3226
902.854	3237
902.973	3222
903.091	3058
903.21	3100
903.328	3146
903.446	3123
903.565	3150
903.683	3214
903.801	3180
903.919	3253
904.038	3298
904.156	3226
904.274	3325
904.392	3302
904.51	3348
904.627	3336
904.745	3447
904.863	3538
904.981	3287
905.098	3253
905.216	3272
905.334	3325
905.451	3336
905.569	3363
905.686	3443
905.803	3534
905.921	3287
906.038	3523
906.155	3386
906.272	3298
906.389	3378
906.506	3272
906.623	3283
906.74	3313
906.857	3218
906.974	3245
907.091	3511
907.208	3595
907.324	3511
907.441	3409
907.557	3291
907.674	3249
907.79	3260
907.907	3298
908.023	3420
908.139	3443
908.256	3348
908.372	3424
908.488	3367
908.604	3332
908.72	3272
908.836	3298
908.952	3348
909.068	3367
909.184	3511
909.3	3431
909.415	3534
909.531	3526
909.647	3291
909.762	3283
909.878	3279
909.993	3389
910.108	3412
910.224	3359
910.339	3450
910.454	3382
910.57	3351
910.685	3222
910.8	3622
910.915	3561
911.03	3431
911.145	3272
911.259	3291
911.374	3348
911.489	3268
911.604	3279
911.718	3127
911.833	3192
911.947	3055
912.062	3066
912.176	3207
912.291	3249
912.405	3237
912.519	3481
912.633	3477
912.748	3340
912.862	3348
912.976	3233
913.09	3089
913.204	3138
913.318	3279
913.431	3393
913.545	3321
913.659	3477
913.772	3382
913.886	3268
914	3268
914.113	3386
914.226	3443
914.34	3412
914.453	3222
914.566	3435
914.68	3329
914.793	3332
914.906	3176
915.019	3142
915.132	3112
915.245	3195
915.358	3237
915.47	3272
915.583	3294
915.696	3329
915.809	3450
915.921	3454
916.034	3283
916.146	3264
916.259	3268
916.371	3397
916.483	3420
916.595	3332
916.708	3313
916.82	3386
916.932	3409
917.044	3382
917.156	3367
917.268	3279
917.38	3310
917.491	3298
917.603	3397
917.715	3481
917.826	3504
917.938	3405
918.049	3294
918.161	3469
918.272	3599
918.384	3629
918.495	3542
918.606	3340
918.717	3302
918.828	3378
918.939	3435
919.05	3294
919.161	3389
919.272	3222
919.383	3306
919.494	3504
919.604	3720
919.715	3507
919.826	3477
919.936	3450
920.047	3629
920.157	3584
920.267	3774
920.378	3633
920.488	3595
920.598	3850
920.708	4013
920.818	3838
920.928	3876
921.038	4063
921.148	3987
921.258	3732
921.368	3671
921.477	3606
921.587	3580
921.697	3458
921.806	3652
921.916	3568
922.025	3393
922.134	3389
922.244	3332
922.353	3443
922.462	3317
922.571	3275
922.68	3150
922.789	3085
922.898	3146
923.007	3131
923.116	3222
923.224	3226
923.333	3203
923.442	3165
923.55	3184
923.659	3165
923.767	3237
923.876	3150
923.984	3294
924.092	3116
924.201	3249
924.309	3260
924.417	3272
924.525	3233
924.633	3245
924.741	4051
924.849	3093
924.956	3302
925.064	3165
925.172	3062
925.279	3150
925.387	3230
925.494	3233
925.602	3382
925.709	3351
925.816	3233
925.924	3340
926.031	3405
926.138	3329
926.245	3397
926.352	3264
926.459	3462
926.566	3496
926.673	3370
926.779	3298
926.886	3237
926.993	3176
927.099	3169
927.206	3154
927.312	3135
927.419	3294
927.525	3253
927.631	3283
927.737	3184
927.843	3161
927.95	3051
928.056	3154
928.162	3192
928.267	3279
928.373	3941
928.479	3321
928.585	3066
928.69	3226
928.796	3329
928.901	3226
929.007	3097
929.112	3241
929.218	3233
929.323	3123
929.428	3157
929.533	3313
929.638	3146
929.743	3161
929.848	3283
929.953	3214
930.058	3207
930.163	3051
930.267	3085
930.372	3211
930.477	3104
930.581	3363
930.685	3211
930.79	3089
930.894	3154
930.998	3119
931.103	3302
931.207	3024
931.311	2975
931.415	2933
931.519	2788
931.623	2819
