Data from test_V78500241_117.txt Node
Date: Fri Mar 25 16:16:00 CST 2022
User: usil
Spectrometer: V785-0024
Trigger mode: 0
Integration Time (sec): 4.000000E-1
Scans to average: 1
Nonlinearity correction enabled: false
Boxcar width: 0
Storing dark spectrum: false
XAxis mode: Wavelengths
Number of Pixels in Spectrum: 1024
>>>>>Begin Spectral Data<<<<<
801.071	2944
801.214	2990
801.356	2910
801.499	2933
801.641	2902
801.783	2952
801.926	3058
802.068	3009
802.211	3047
802.353	3097
802.496	2982
802.638	3081
802.78	3058
802.923	3081
803.065	3024
803.208	2941
803.35	2975
803.492	2998
803.635	2956
803.777	2826
803.919	2883
804.061	3233
804.204	2982
804.346	2925
804.488	2876
804.63	3024
804.773	2887
804.915	2960
805.057	3108
805.199	2948
805.341	2960
805.483	3070
805.626	3009
805.768	3017
805.91	3135
806.052	3131
806.194	3112
806.336	3264
806.478	3066
806.62	2990
806.762	3009
806.904	3066
807.046	3192
807.188	2998
807.33	2906
807.472	2967
807.614	2906
807.756	2990
807.898	2952
808.04	2937
808.182	2990
808.324	3005
808.465	2952
808.607	2880
808.749	2811
808.891	2883
809.033	2982
809.174	2967
809.316	2880
809.458	2880
809.6	2792
809.741	2800
809.883	2807
810.025	2880
810.166	2872
810.308	2849
810.45	2864
810.591	2777
810.733	2785
810.875	2823
811.016	2807
811.158	2785
811.299	2819
811.441	2952
811.582	2956
811.724	2834
811.865	2864
812.007	2918
812.148	2918
812.29	2861
812.431	2902
812.573	2937
812.714	3024
812.855	3055
812.997	3047
813.138	3108
813.279	3017
813.421	2998
813.562	2967
813.703	2876
813.845	2906
813.986	2785
814.127	2731
814.268	2826
814.41	2876
814.551	2826
814.692	2872
814.833	2834
814.974	2872
815.115	2975
815.256	2819
815.397	2834
815.539	2883
815.68	2792
815.821	2800
815.962	2967
816.103	2910
816.244	2887
816.385	2807
816.526	2948
816.666	2937
816.807	2754
816.948	2868
817.089	2899
817.23	2876
817.371	2800
817.512	2853
817.653	2834
817.793	2819
817.934	2880
818.075	2979
818.216	3017
818.356	3077
818.497	2944
818.638	2800
818.778	2845
818.919	2815
819.06	2766
819.2	2922
819.341	2826
819.481	2811
819.622	2975
819.762	3135
819.903	3077
820.043	2967
820.184	2960
820.324	2922
820.465	3009
820.605	3043
820.746	3055
820.886	2948
821.026	3127
821.167	3207
821.307	3287
821.447	3325
821.588	3268
821.728	3226
821.868	3272
822.008	3104
822.149	3211
822.289	3253
822.429	3146
822.569	3154
822.709	3245
822.849	3097
822.99	3085
823.13	3226
823.27	3272
823.41	3157
823.55	3207
823.69	3222
823.83	3226
823.97	3157
824.11	3070
824.25	3028
824.389	3131
824.529	3176
824.669	3150
824.809	3275
824.949	3294
825.089	3260
825.228	3222
825.368	3097
825.508	3032
825.648	3047
825.787	3093
825.927	3112
826.067	3055
826.206	3001
826.346	3104
826.485	3157
826.625	3173
826.765	3310
826.904	3249
827.044	3043
827.183	2990
827.323	2883
827.462	3047
827.601	2967
827.741	2941
827.88	3005
828.02	2925
828.159	3039
828.298	3100
828.437	3184
828.577	3100
828.716	3329
828.855	3173
828.994	2998
829.134	2925
829.273	2998
829.412	2899
829.551	2960
829.69	2922
829.829	3020
829.968	3211
830.107	3066
830.246	3093
830.385	2971
830.524	2986
830.663	2887
830.802	2766
830.941	2724
831.08	2670
831.219	2830
831.357	2796
831.496	3009
831.635	2777
831.774	2701
831.913	2720
832.051	2606
832.19	2651
832.329	2739
832.467	2602
832.606	2571
832.744	2636
832.883	2636
833.022	2640
833.16	2727
833.299	2758
833.437	2754
833.576	2735
833.714	2777
833.852	2762
833.991	2807
834.129	2891
834.267	2857
834.406	2834
834.544	2922
834.682	2944
834.821	2956
834.959	3127
835.097	2933
835.235	3108
835.373	3039
835.511	3093
835.65	3028
835.788	3001
835.926	2899
836.064	2876
836.202	2895
836.34	3123
836.478	3214
836.615	3104
836.753	3161
836.891	3233
837.029	3203
837.167	3161
837.305	3116
837.443	3074
837.58	3005
837.718	3154
837.856	3142
837.993	3123
838.131	3157
838.269	3184
838.406	3161
838.544	3173
838.681	2986
838.819	2975
838.956	2861
839.094	2887
839.231	3024
839.369	3089
839.506	3428
839.643	3275
839.781	3047
839.918	3032
840.055	3097
840.193	3142
840.33	3131
840.467	3161
840.604	3169
840.742	3492
840.879	3112
841.016	3116
841.153	3192
841.29	3389
841.427	3374
841.564	3306
841.701	3340
841.838	3306
841.975	3230
842.112	3245
842.249	3138
842.385	3089
842.522	3310
842.659	3142
842.796	3142
842.933	3131
843.069	3131
843.206	3077
843.343	3245
843.479	3222
843.616	3211
843.752	2963
843.889	2910
844.025	3135
844.162	2960
844.298	3131
844.435	3020
844.571	2990
844.708	3135
844.844	3211
844.98	3313
845.117	3272
845.253	3135
845.389	3070
845.525	3157
845.661	3135
845.798	3081
845.934	3199
846.07	3104
846.206	3268
846.342	3374
846.478	3306
846.614	3169
846.75	3097
846.886	3043
847.022	3294
847.158	3173
847.294	3249
847.429	3272
847.565	3275
847.701	3549
847.837	3104
847.972	3074
848.108	3226
848.244	3195
848.379	3028
848.515	2994
848.65	2990
848.786	3036
848.921	3093
849.057	3142
849.192	3199
849.328	3123
849.463	3138
849.598	3135
849.734	3081
849.869	3039
850.004	2994
850.14	3005
850.275	2963
850.41	2868
850.545	2910
850.68	2990
850.815	3032
850.95	3028
851.085	3214
851.22	3157
851.355	3104
851.49	3051
851.625	3055
851.76	3081
851.895	3009
852.03	2918
852.165	3108
852.299	3173
852.434	3222
852.569	3203
852.703	3230
852.838	3310
852.973	3409
853.107	3409
853.242	3218
853.376	3131
853.511	3009
853.645	3104
853.78	3291
853.914	3142
854.048	3173
854.183	3123
854.317	3192
854.451	3340
854.585	3173
854.72	3123
854.854	3256
854.988	3089
855.122	3119
855.256	2982
855.39	3165
855.524	3302
855.658	3245
855.792	3154
855.926	3207
856.06	3275
856.194	3313
856.327	3173
856.461	3146
856.595	3135
856.729	3131
856.862	3245
856.996	3245
857.13	3214
857.263	3237
857.397	3325
857.53	3176
857.664	3211
857.797	3249
857.931	3298
858.064	3233
858.197	3268
858.331	3176
858.464	3173
858.597	3020
858.731	3211
858.864	3180
858.997	3135
859.13	3207
859.263	3214
859.396	3272
859.529	3169
859.662	3085
859.795	3070
859.928	3180
860.061	3351
860.194	3363
860.327	3180
860.46	3112
860.592	3294
860.725	3298
860.858	3313
860.99	3135
861.123	3108
861.256	3047
861.388	3203
861.521	3774
861.653	3055
861.786	3039
861.918	3032
862.05	3104
862.183	3138
862.315	3192
862.447	3298
862.58	3157
862.712	3001
862.844	2914
862.976	3066
863.108	3013
863.24	3450
863.372	2941
863.504	3017
863.636	2986
863.768	3081
863.9	3047
864.032	2937
864.164	3032
864.296	3062
864.428	3138
864.559	3127
864.691	3135
864.823	3104
864.954	3085
865.086	3070
865.217	3020
865.349	3005
865.48	3032
865.612	3043
865.743	3188
865.875	3043
866.006	2971
866.137	3017
866.269	2986
866.4	2994
866.531	2956
866.662	2994
866.793	2929
866.924	2979
867.055	3009
867.186	2975
867.317	2933
867.448	2899
867.579	2902
867.71	2876
867.841	2861
867.972	2948
868.103	2967
868.233	2880
868.364	2902
868.495	2982
868.625	3093
868.756	3214
868.886	3032
869.017	3032
869.147	3199
869.278	3184
869.408	3112
869.539	3051
869.669	3108
869.799	3043
869.929	3180
870.06	3146
870.19	3367
870.32	3302
870.45	3336
870.58	3431
870.71	3504
870.84	3492
870.97	3374
871.1	3279
871.23	3549
871.36	3477
871.489	3378
871.619	3473
871.749	3466
871.879	3424
872.008	3542
872.138	3397
872.267	3344
872.397	3188
872.526	3127
872.656	3020
872.785	3123
872.915	3317
873.044	3397
873.173	3249
873.303	3294
873.432	3245
873.561	3264
873.69	3214
873.819	3184
873.948	3245
874.077	3192
874.206	3081
874.335	3093
874.464	3264
874.593	3386
874.722	3291
874.851	3439
874.979	3401
875.108	3359
875.237	3275
875.365	3211
875.494	3214
875.623	3275
875.751	3108
875.88	3138
876.008	3222
876.136	3256
876.265	3393
876.393	3564
876.521	3477
876.65	3409
876.778	3401
876.906	3283
877.034	3237
877.162	3272
877.29	3203
877.418	3302
877.546	3298
877.674	3283
877.802	3294
877.93	3241
878.058	3230
878.185	3154
878.313	3264
878.441	3275
878.568	3123
878.696	3207
878.824	3294
878.951	3325
879.079	3469
879.206	3663
879.333	3462
879.461	3401
879.588	3389
879.715	3519
879.842	3625
879.97	3454
880.097	3253
880.224	3180
880.351	3230
880.478	3245
880.605	3249
880.732	3184
880.859	3549
880.986	3321
881.112	3401
881.239	3218
881.366	3157
881.493	3051
881.619	3055
881.746	3108
881.872	3119
881.999	3119
882.125	3180
882.252	3287
882.378	3298
882.505	3462
882.631	3313
882.757	3161
882.883	3264
883.01	3264
883.136	3207
883.262	3119
883.388	3146
883.514	3351
883.64	3439
883.766	3336
883.892	3275
884.018	3249
884.143	3428
884.269	3587
884.395	3241
884.52	3199
884.646	3233
884.772	3119
884.897	3184
885.023	3203
885.148	3355
885.274	3496
885.399	3447
885.524	3291
885.65	3329
885.775	3367
885.9	3321
886.025	3485
886.15	3416
886.275	3359
886.4	3317
886.525	3363
886.65	3317
886.775	3302
886.9	3538
887.025	3637
887.149	3469
887.274	3298
887.399	3192
887.523	3222
887.648	3199
887.773	3203
887.897	3428
888.021	3462
888.146	3340
888.27	3462
888.395	3572
888.519	3492
888.643	3477
888.767	3477
888.891	3340
889.015	3268
889.139	3325
889.263	3275
889.387	3447
889.511	3526
889.635	3515
889.759	3340
889.883	3329
890.006	3420
890.13	3561
890.254	3370
890.377	3355
890.501	3233
890.624	3230
890.748	3355
890.871	3211
890.995	3142
891.118	3097
891.241	3233
891.364	3245
891.488	3313
891.611	3237
891.734	3253
891.857	3313
891.98	3291
892.103	3393
892.226	3310
892.349	3264
892.471	3142
892.594	3226
892.717	3310
892.839	3317
892.962	3359
893.085	3424
893.207	3310
893.33	3188
893.452	3264
893.575	3348
893.697	3298
893.819	3469
893.941	3580
894.064	3454
894.186	3348
894.308	3291
894.43	3466
894.552	3599
894.674	3477
894.796	3302
894.918	3359
895.04	3321
895.161	3431
895.283	3397
895.405	3313
895.526	3409
895.648	3450
895.769	3477
895.891	3530
896.012	3496
896.134	3504
896.255	3424
896.376	3424
896.498	3370
896.619	3458
896.74	3416
896.861	3466
896.982	3690
897.103	3873
897.224	3648
897.345	3564
897.466	3450
897.587	3542
897.708	3660
897.828	3603
897.949	3466
898.07	3348
898.19	3389
898.311	3606
898.431	3523
898.552	3511
898.672	3641
898.792	3603
898.913	3549
899.033	3462
899.153	3329
899.273	3268
899.393	3336
899.513	3363
899.633	3367
899.753	3428
899.873	3321
899.993	3428
900.113	3336
900.232	3389
900.352	3389
900.472	3325
900.591	3233
900.711	3336
900.83	3298
900.95	3420
901.069	3561
901.189	3409
901.308	3253
901.427	3154
901.546	3226
901.665	3325
901.784	3351
901.904	3256
902.023	3173
902.141	3066
902.26	3074
902.379	3188
902.498	3081
902.617	3116
902.735	3245
902.854	3268
902.973	3275
903.091	3058
903.21	3081
903.328	3173
903.446	3100
903.565	3116
903.683	3214
903.801	3161
903.919	3279
904.038	3329
904.156	3192
904.274	3340
904.392	3306
904.51	3294
904.627	3412
904.745	3519
904.863	3530
904.981	3298
905.098	3188
905.216	3306
905.334	3302
905.451	3344
905.569	3344
905.686	3450
905.803	3492
905.921	3306
906.038	3469
906.155	3405
906.272	3298
906.389	3370
906.506	3268
906.623	3294
906.74	3302
906.857	3211
906.974	3287
907.091	3477
907.208	3610
907.324	3473
907.441	3389
907.557	3283
907.674	3241
907.79	3218
907.907	3310
908.023	3386
908.139	3409
908.256	3313
908.372	3412
908.488	3378
908.604	3287
908.72	3249
908.836	3291
908.952	3332
909.068	3389
909.184	3450
909.3	3431
909.415	3515
909.531	3561
909.647	3306
909.762	3294
909.878	3329
909.993	3405
910.108	3370
910.224	3378
910.339	3424
910.454	3420
910.57	3332
910.685	3256
910.8	3606
910.915	3591
911.03	3488
911.145	3306
911.259	3291
911.374	3336
911.489	3283
911.604	3249
911.718	3154
911.833	3211
911.947	3028
912.062	3009
912.176	3218
912.291	3245
912.405	3260
912.519	3481
912.633	3473
912.748	3355
912.862	3344
912.976	3203
913.09	3116
913.204	3176
913.318	3237
913.431	3351
913.545	3378
913.659	3420
913.772	3382
913.886	3241
914	3207
914.113	3397
914.226	3454
914.34	3401
914.453	3249
914.566	3447
914.68	3363
914.793	3374
914.906	3192
915.019	3112
915.132	3131
915.245	3207
915.358	3241
915.47	3268
915.583	3283
915.696	3321
915.809	3462
915.921	3454
916.034	3310
916.146	3268
916.259	3268
916.371	3435
916.483	3363
916.595	3310
916.708	3363
916.82	3412
916.932	3340
917.044	3374
917.156	3382
917.268	3249
917.38	3313
917.491	3332
917.603	3397
917.715	3481
917.826	3477
917.938	3469
918.049	3298
918.161	3458
918.272	3606
918.384	3603
918.495	3507
918.606	3386
918.717	3332
918.828	3393
918.939	3431
919.05	3321
919.161	3412
919.272	3207
919.383	3325
919.494	3561
919.604	3686
919.715	3526
919.826	3439
919.936	3511
920.047	3610
920.157	3599
920.267	3823
920.378	3641
920.488	3564
920.598	3778
920.708	3975
920.818	3861
920.928	3846
921.038	4086
921.148	4093
921.258	3755
921.368	3652
921.477	3599
921.587	3553
921.697	3492
921.806	3667
921.916	3530
922.025	3359
922.134	3374
922.244	3378
922.353	3409
922.462	3291
922.571	3256
922.68	3146
922.789	3097
922.898	3154
923.007	3108
923.116	3188
923.224	3207
923.333	3211
923.442	3112
923.55	3142
923.659	3173
923.767	3230
923.876	3112
923.984	3233
924.092	3142
924.201	3211
924.309	3275
924.417	3313
924.525	3222
924.633	3283
924.741	4242
924.849	3024
924.956	3310
925.064	3123
925.172	3058
925.279	3116
925.387	3222
925.494	3249
925.602	3367
925.709	3382
925.816	3207
925.924	3321
926.031	3409
926.138	3355
926.245	3386
926.352	3272
926.459	3428
926.566	3477
926.673	3332
926.779	3264
926.886	3279
926.993	3192
927.099	3169
927.206	3131
927.312	3169
927.419	3264
927.525	3241
927.631	3325
927.737	3157
927.843	3123
927.95	3066
928.056	3135
928.162	3195
928.267	3249
928.373	3797
928.479	3393
928.585	3074
928.69	3245
928.796	3298
928.901	3203
929.007	3047
929.112	3222
929.218	3192
929.323	3173
929.428	3184
929.533	3306
929.638	3154
929.743	3169
929.848	3279
929.953	3245
930.058	3173
930.163	3009
930.267	3058
930.372	3256
930.477	3093
930.581	3340
930.685	3192
930.79	3093
930.894	3123
930.998	3127
931.103	3283
931.207	2994
931.311	2944
931.415	2952
931.519	2766
931.623	2826
