Data from test_V78500241_408.txt Node
Date: Fri Mar 25 16:18:01 CST 2022
User: usil
Spectrometer: V785-0024
Trigger mode: 0
Integration Time (sec): 4.000000E-1
Scans to average: 1
Nonlinearity correction enabled: false
Boxcar width: 0
Storing dark spectrum: false
XAxis mode: Wavelengths
Number of Pixels in Spectrum: 1024
>>>>>Begin Spectral Data<<<<<
801.071	2929
801.214	2963
801.356	2899
801.499	2925
801.641	2887
801.783	2944
801.926	3097
802.068	3017
802.211	3058
802.353	3097
802.496	3036
802.638	3070
802.78	3058
802.923	3104
803.065	3032
803.208	2941
803.35	2910
803.492	2963
803.635	2994
803.777	2754
803.919	2880
804.061	3245
804.204	2967
804.346	2948
804.488	2872
804.63	3009
804.773	2883
804.915	2937
805.057	3089
805.199	2952
805.341	3009
805.483	3051
805.626	3039
805.768	2952
805.91	3089
806.052	3116
806.194	3055
806.336	3264
806.478	3036
806.62	2963
806.762	2994
806.904	3100
807.046	3188
807.188	3005
807.33	2933
807.472	2994
807.614	2906
807.756	2990
807.898	2918
808.04	2929
808.182	3020
808.324	2975
808.465	2891
808.607	2906
808.749	2823
808.891	2861
809.033	3017
809.174	2998
809.316	2899
809.458	2899
809.6	2826
809.741	2823
809.883	2807
810.025	2853
810.166	2872
810.308	2872
810.45	2868
810.591	2800
810.733	2781
810.875	2853
811.016	2830
811.158	2792
811.299	2834
811.441	2922
811.582	2967
811.724	2845
811.865	2857
812.007	2929
812.148	2880
812.29	2876
812.431	2906
812.573	2967
812.714	3001
812.855	3070
812.997	3081
813.138	3127
813.279	3020
813.421	3017
813.562	2979
813.703	2895
813.845	2918
813.986	2815
814.127	2743
814.268	2857
814.41	2857
814.551	2834
814.692	2902
814.833	2842
814.974	2910
815.115	2941
815.256	2830
815.397	2819
815.539	2891
815.68	2788
815.821	2792
815.962	2963
816.103	2941
816.244	2864
816.385	2880
816.526	2990
816.666	2922
816.807	2773
816.948	2887
817.089	2960
817.23	2849
817.371	2819
817.512	2838
817.653	2853
817.793	2845
817.934	2887
818.075	2971
818.216	3032
818.356	3055
818.497	2902
818.638	2838
818.778	2853
818.919	2853
819.06	2739
819.2	2918
819.341	2815
819.481	2830
819.622	2944
819.762	3093
819.903	3077
820.043	2948
820.184	2944
820.324	2929
820.465	3055
820.605	3028
820.746	3039
820.886	2933
821.026	3116
821.167	3188
821.307	3287
821.447	3287
821.588	3287
821.728	3222
821.868	3211
822.008	3104
822.149	3268
822.289	3279
822.429	3097
822.569	3097
822.709	3188
822.849	3039
822.99	3066
823.13	3226
823.27	3214
823.41	3165
823.55	3218
823.69	3188
823.83	3180
823.97	3146
824.11	3009
824.25	3043
824.389	3058
824.529	3112
824.669	3104
824.809	3241
824.949	3268
825.089	3192
825.228	3203
825.368	2986
825.508	2971
825.648	2994
825.787	3009
825.927	3039
826.067	3020
826.206	2956
826.346	3039
826.485	3070
826.625	3123
826.765	3279
826.904	3230
827.044	3001
827.183	2925
827.323	2849
827.462	3020
827.601	2937
827.741	2952
827.88	2963
828.02	2823
828.159	2952
828.298	3032
828.437	3123
828.577	3058
828.716	3249
828.855	3062
828.994	2937
829.134	2910
829.273	2944
829.412	2891
829.551	2914
829.69	2906
829.829	3013
829.968	3138
830.107	3005
830.246	3062
830.385	2933
830.524	2876
830.663	2815
830.802	2766
830.941	2678
831.08	2682
831.219	2766
831.357	2758
831.496	2952
831.635	2750
831.774	2632
831.913	2659
832.051	2590
832.19	2602
832.329	2708
832.467	2568
832.606	2492
832.744	2606
832.883	2617
833.022	2583
833.16	2651
833.299	2674
833.437	2735
833.576	2731
833.714	2727
833.852	2758
833.991	2807
834.129	2883
834.267	2838
834.406	2804
834.544	2895
834.682	2918
834.821	2929
834.959	3066
835.097	2895
835.235	3051
835.373	3005
835.511	3047
835.65	2960
835.788	2975
835.926	2830
836.064	2853
836.202	2906
836.34	3142
836.478	3176
836.615	3047
836.753	3154
836.891	3218
837.029	3161
837.167	3100
837.305	3081
837.443	3039
837.58	3009
837.718	3131
837.856	3085
837.993	2998
838.131	3135
838.269	3138
838.406	3119
838.544	3104
838.681	2960
838.819	2918
838.956	2811
839.094	2845
839.231	2944
839.369	3024
839.506	3359
839.643	3226
839.781	3043
839.918	2979
840.055	3051
840.193	3051
840.33	3074
840.467	3131
840.604	3161
840.742	3435
840.879	3085
841.016	3081
841.153	3119
841.29	3336
841.427	3302
841.564	3283
841.701	3313
841.838	3245
841.975	3207
842.112	3256
842.249	3089
842.385	3024
842.522	3291
842.659	3097
842.796	3074
842.933	3142
843.069	3043
843.206	3062
843.343	3207
843.479	3119
843.616	3161
843.752	2914
843.889	2887
844.025	3081
844.162	2883
844.298	3131
844.435	2933
844.571	2941
844.708	3085
844.844	3195
844.98	3249
845.117	3188
845.253	3039
845.389	3001
845.525	3097
845.661	3093
845.798	3043
845.934	3184
846.07	3058
846.206	3184
846.342	3325
846.478	3207
846.614	3104
846.75	3043
846.886	2994
847.022	3298
847.158	3127
847.294	3218
847.429	3268
847.565	3226
847.701	3469
847.837	3055
847.972	3039
848.108	3184
848.244	3161
848.379	2990
848.515	2952
848.65	2971
848.786	2944
848.921	3062
849.057	3104
849.192	3199
849.328	3077
849.463	3085
849.598	3104
849.734	3009
849.869	3032
850.004	2929
850.14	2986
850.275	2967
850.41	2823
850.545	2910
850.68	2910
850.815	2986
850.95	2998
851.085	3169
851.22	3108
851.355	3051
851.49	3032
851.625	3017
851.76	3047
851.895	2956
852.03	2933
852.165	3070
852.299	3100
852.434	3169
852.569	3146
852.703	3157
852.838	3245
852.973	3355
853.107	3332
853.242	3165
853.376	3150
853.511	2971
853.645	3058
853.78	3249
853.914	3154
854.048	3127
854.183	3077
854.317	3146
854.451	3306
854.585	3093
854.72	3081
854.854	3237
854.988	3066
855.122	3077
855.256	2990
855.39	3116
855.524	3317
855.658	3195
855.792	3161
855.926	3211
856.06	3218
856.194	3253
856.327	3142
856.461	3097
856.595	3077
856.729	3100
856.862	3226
856.996	3207
857.13	3207
857.263	3241
857.397	3287
857.53	3127
857.664	3188
857.797	3272
857.931	3245
858.064	3157
858.197	3253
858.331	3150
858.464	3070
858.597	3024
858.731	3123
858.864	3135
858.997	3142
859.13	3146
859.263	3207
859.396	3150
859.529	3108
859.662	3058
859.795	3066
859.928	3161
860.061	3313
860.194	3302
860.327	3131
860.46	3085
860.592	3207
860.725	3207
860.858	3253
860.99	3119
861.123	3062
861.256	3036
861.388	3165
861.521	3819
861.653	3039
861.786	2975
861.918	2994
862.05	3055
862.183	3058
862.315	3138
862.447	3184
862.58	3104
862.712	2986
862.844	2891
862.976	3020
863.108	3028
863.24	3435
863.372	2861
863.504	2979
863.636	2979
863.768	3074
863.9	3001
864.032	2941
864.164	2941
864.296	3009
864.428	3089
864.559	3131
864.691	3097
864.823	3085
864.954	3043
865.086	3047
865.217	3009
865.349	2967
865.48	3005
865.612	3013
865.743	3192
865.875	3017
866.006	2956
866.137	2975
866.269	2963
866.4	2944
866.531	2922
866.662	2876
866.793	2891
866.924	2918
867.055	2975
867.186	2910
867.317	2906
867.448	2857
867.579	2857
867.71	2864
867.841	2830
867.972	2937
868.103	2906
868.233	2914
868.364	2891
868.495	2891
868.625	3066
868.756	3195
868.886	2971
869.017	3036
869.147	3157
869.278	3165
869.408	3058
869.539	3028
869.669	3108
869.799	3024
869.929	3138
870.06	3112
870.19	3336
870.32	3268
870.45	3306
870.58	3367
870.71	3469
870.84	3485
870.97	3306
871.1	3260
871.23	3462
871.36	3481
871.489	3367
871.619	3405
871.749	3401
871.879	3443
872.008	3492
872.138	3412
872.267	3283
872.397	3146
872.526	3138
872.656	3024
872.785	3135
872.915	3218
873.044	3329
873.173	3214
873.303	3245
873.432	3260
873.561	3253
873.69	3176
873.819	3154
873.948	3173
874.077	3066
874.206	3051
874.335	3112
874.464	3188
874.593	3355
874.722	3241
874.851	3416
874.979	3348
875.108	3351
875.237	3207
875.365	3203
875.494	3127
875.623	3226
875.751	3074
875.88	3127
876.008	3211
876.136	3233
876.265	3351
876.393	3504
876.521	3389
876.65	3409
876.778	3359
876.906	3249
877.034	3180
877.162	3256
877.29	3173
877.418	3222
877.546	3256
877.674	3226
877.802	3226
877.93	3260
878.058	3131
878.185	3135
878.313	3207
878.441	3188
878.568	3074
878.696	3154
878.824	3253
878.951	3317
879.079	3469
879.206	3625
879.333	3466
879.461	3363
879.588	3355
879.715	3485
879.842	3580
879.97	3359
880.097	3169
880.224	3154
880.351	3180
880.478	3253
880.605	3173
880.732	3188
880.859	3538
880.986	3325
881.112	3310
881.239	3169
881.366	3123
881.493	3017
881.619	3009
881.746	3066
881.872	3055
881.999	3097
882.125	3176
882.252	3253
882.378	3298
882.505	3454
882.631	3253
882.757	3146
882.883	3211
883.01	3214
883.136	3146
883.262	3127
883.388	3131
883.514	3340
883.64	3370
883.766	3287
883.892	3192
884.018	3256
884.143	3405
884.269	3557
884.395	3211
884.52	3150
884.646	3173
884.772	3127
884.897	3081
885.023	3237
885.148	3336
885.274	3450
885.399	3397
885.524	3302
885.65	3268
885.775	3298
885.9	3294
886.025	3439
886.15	3359
886.275	3298
886.4	3207
886.525	3363
886.65	3283
886.775	3287
886.9	3557
887.025	3595
887.149	3439
887.274	3253
887.399	3169
887.523	3195
887.648	3222
887.773	3188
887.897	3336
888.021	3409
888.146	3313
888.27	3485
888.395	3523
888.519	3447
888.643	3428
888.767	3416
888.891	3279
889.015	3207
889.139	3272
889.263	3237
889.387	3428
889.511	3485
889.635	3393
889.759	3302
889.883	3321
890.006	3378
890.13	3473
890.254	3275
890.377	3355
890.501	3199
890.624	3188
890.748	3336
890.871	3192
890.995	3108
891.118	3036
891.241	3214
891.364	3237
891.488	3325
891.611	3157
891.734	3214
891.857	3268
891.98	3256
892.103	3321
892.226	3275
892.349	3180
892.471	3108
892.594	3241
892.717	3287
892.839	3275
892.962	3279
893.085	3348
893.207	3272
893.33	3146
893.452	3237
893.575	3313
893.697	3272
893.819	3416
893.941	3504
894.064	3469
894.186	3245
894.308	3310
894.43	3435
894.552	3538
894.674	3443
894.796	3249
894.918	3321
895.04	3291
895.161	3443
895.283	3382
895.405	3291
895.526	3367
895.648	3435
895.769	3412
895.891	3469
896.012	3450
896.134	3439
896.255	3447
896.376	3397
896.498	3355
896.619	3431
896.74	3370
896.861	3405
896.982	3663
897.103	3823
897.224	3587
897.345	3507
897.466	3450
897.587	3504
897.708	3587
897.828	3523
897.949	3409
898.07	3313
898.19	3386
898.311	3557
898.431	3477
898.552	3496
898.672	3610
898.792	3564
898.913	3538
899.033	3412
899.153	3298
899.273	3245
899.393	3310
899.513	3306
899.633	3336
899.753	3321
899.873	3291
899.993	3424
900.113	3336
900.232	3389
900.352	3359
900.472	3313
900.591	3195
900.711	3302
900.83	3253
900.95	3412
901.069	3481
901.189	3321
901.308	3173
901.427	3146
901.546	3233
901.665	3302
901.784	3313
901.904	3218
902.023	3142
902.141	3055
902.26	3028
902.379	3146
902.498	3081
902.617	3051
902.735	3176
902.854	3256
902.973	3150
903.091	3005
903.21	3036
903.328	3081
903.446	3089
903.565	3112
903.683	3218
903.801	3127
903.919	3272
904.038	3233
904.156	3195
904.274	3291
904.392	3237
904.51	3287
904.627	3332
904.745	3447
904.863	3488
904.981	3291
905.098	3199
905.216	3214
905.334	3241
905.451	3302
905.569	3313
905.686	3431
905.803	3431
905.921	3272
906.038	3401
906.155	3313
906.272	3253
906.389	3302
906.506	3230
906.623	3237
906.74	3287
906.857	3173
906.974	3264
907.091	3416
907.208	3557
907.324	3477
907.441	3367
907.557	3226
907.674	3218
907.79	3199
907.907	3256
908.023	3348
908.139	3332
908.256	3367
908.372	3351
908.488	3344
908.604	3275
908.72	3241
908.836	3272
908.952	3268
909.068	3363
909.184	3466
909.3	3397
909.415	3515
909.531	3477
909.647	3264
909.762	3287
909.878	3272
909.993	3348
910.108	3344
910.224	3336
910.339	3412
910.454	3351
910.57	3306
910.685	3226
910.8	3610
910.915	3553
911.03	3439
911.145	3268
911.259	3272
911.374	3332
911.489	3230
911.604	3218
911.718	3127
911.833	3165
911.947	3039
912.062	2979
912.176	3154
912.291	3241
912.405	3211
912.519	3405
912.633	3439
912.748	3306
912.862	3268
912.976	3230
913.09	3074
913.204	3131
913.318	3245
913.431	3344
913.545	3336
913.659	3386
913.772	3344
913.886	3230
914	3211
914.113	3332
914.226	3439
914.34	3370
914.453	3184
914.566	3382
914.68	3283
914.793	3325
914.906	3127
915.019	3127
915.132	3020
915.245	3176
915.358	3199
915.47	3214
915.583	3245
915.696	3268
915.809	3420
915.921	3431
916.034	3272
916.146	3253
916.259	3245
916.371	3405
916.483	3351
916.595	3287
916.708	3332
916.82	3310
916.932	3336
917.044	3317
917.156	3370
917.268	3256
917.38	3272
917.491	3256
917.603	3310
917.715	3439
917.826	3428
917.938	3370
918.049	3283
918.161	3443
918.272	3542
918.384	3572
918.495	3466
918.606	3332
918.717	3287
918.828	3340
918.939	3389
919.05	3233
919.161	3355
919.272	3203
919.383	3283
919.494	3511
919.604	3660
919.715	3485
919.826	3409
919.936	3462
920.047	3572
920.157	3542
920.267	3785
920.378	3614
920.488	3595
920.598	3793
920.708	3960
920.818	3831
920.928	3846
921.038	4013
921.148	4002
921.258	3686
921.368	3652
921.477	3557
921.587	3530
921.697	3473
921.806	3660
921.916	3542
922.025	3317
922.134	3351
922.244	3310
922.353	3409
922.462	3272
922.571	3184
922.68	3131
922.789	3081
922.898	3135
923.007	3066
923.116	3180
923.224	3150
923.333	3169
923.442	3085
923.55	3089
923.659	3135
923.767	3192
923.876	3108
923.984	3173
924.092	3112
924.201	3207
924.309	3218
924.417	3256
924.525	3150
924.633	3199
924.741	4162
924.849	3055
924.956	3272
925.064	3062
925.172	3036
925.279	3100
925.387	3226
925.494	3203
925.602	3340
925.709	3317
925.816	3192
925.924	3294
926.031	3348
926.138	3317
926.245	3340
926.352	3249
926.459	3363
926.566	3454
926.673	3287
926.779	3256
926.886	3249
926.993	3161
927.099	3085
927.206	3097
927.312	3131
927.419	3264
927.525	3165
927.631	3279
927.737	3135
927.843	3112
927.95	3032
928.056	3165
928.162	3203
928.267	3249
928.373	3876
928.479	3325
928.585	3047
928.69	3199
928.796	3260
928.901	3131
929.007	3070
929.112	3207
929.218	3184
929.323	3180
929.428	3150
929.533	3306
929.638	3138
929.743	3195
929.848	3237
929.953	3188
930.058	3135
930.163	3017
930.267	3051
930.372	3214
930.477	3028
930.581	3306
930.685	3180
930.79	3058
930.894	3093
930.998	3036
931.103	3272
931.207	2979
931.311	2960
931.415	2922
931.519	2754
931.623	2788
