Data from test_V78500241_1291.txt Node
Date: Fri Mar 25 16:24:08 CST 2022
User: usil
Spectrometer: V785-0024
Trigger mode: 0
Integration Time (sec): 4.000000E-1
Scans to average: 1
Nonlinearity correction enabled: false
Boxcar width: 0
Storing dark spectrum: false
XAxis mode: Wavelengths
Number of Pixels in Spectrum: 1024
>>>>>Begin Spectral Data<<<<<
801.071	2914
801.214	2929
801.356	2826
801.499	2887
801.641	2868
801.783	2914
801.926	3017
802.068	2963
802.211	3020
802.353	3009
802.496	2925
802.638	2998
802.78	3058
802.923	3055
803.065	2952
803.208	2864
803.35	2899
803.492	2910
803.635	2918
803.777	2743
803.919	2872
804.061	3176
804.204	2937
804.346	2910
804.488	2807
804.63	2982
804.773	2857
804.915	2902
805.057	3070
805.199	2910
805.341	2979
805.483	3032
805.626	2956
805.768	2960
805.91	3047
806.052	3112
806.194	3009
806.336	3237
806.478	3009
806.62	2952
806.762	3001
806.904	3024
807.046	3150
807.188	2982
807.33	2895
807.472	2986
807.614	2887
807.756	2986
807.898	2914
808.04	2891
808.182	2963
808.324	2906
808.465	2868
808.607	2861
808.749	2788
808.891	2838
809.033	2986
809.174	2967
809.316	2880
809.458	2883
809.6	2724
809.741	2777
809.883	2773
810.025	2864
810.166	2834
810.308	2819
810.45	2853
810.591	2735
810.733	2777
810.875	2823
811.016	2769
811.158	2746
811.299	2762
811.441	2887
811.582	2899
811.724	2788
811.865	2845
812.007	2933
812.148	2891
812.29	2838
812.431	2861
812.573	2944
812.714	2960
812.855	3051
812.997	3036
813.138	3112
813.279	3024
813.421	2967
813.562	2922
813.703	2853
813.845	2902
813.986	2766
814.127	2701
814.268	2815
814.41	2842
814.551	2826
814.692	2887
814.833	2788
814.974	2864
815.115	2933
815.256	2845
815.397	2788
815.539	2849
815.68	2773
815.821	2792
815.962	2929
816.103	2937
816.244	2872
816.385	2853
816.526	2982
816.666	2933
816.807	2758
816.948	2876
817.089	2883
817.23	2845
817.371	2758
817.512	2800
817.653	2845
817.793	2788
817.934	2880
818.075	2941
818.216	2971
818.356	2986
818.497	2861
818.638	2781
818.778	2804
818.919	2769
819.06	2735
819.2	2849
819.341	2762
819.481	2792
819.622	2910
819.762	3116
819.903	3062
820.043	2922
820.184	2933
820.324	2902
820.465	2986
820.605	2998
820.746	3020
820.886	2925
821.026	3112
821.167	3169
821.307	3207
821.447	3287
821.588	3207
821.728	3180
821.868	3199
822.008	3051
822.149	3184
822.289	3275
822.429	3123
822.569	3051
822.709	3188
822.849	3051
822.99	3104
823.13	3161
823.27	3237
823.41	3112
823.55	3176
823.69	3176
823.83	3188
823.97	3119
824.11	3051
824.25	3024
824.389	3077
824.529	3150
824.669	3116
824.809	3195
824.949	3283
825.089	3272
825.228	3165
825.368	3009
825.508	2986
825.648	3013
825.787	3047
825.927	3020
826.067	3013
826.206	2998
826.346	3070
826.485	3104
826.625	3127
826.765	3298
826.904	3241
827.044	3055
827.183	2990
827.323	2899
827.462	3058
827.601	2960
827.741	2975
827.88	2994
828.02	2937
828.159	3024
828.298	3055
828.437	3142
828.577	3081
828.716	3291
828.855	3100
828.994	3001
829.134	2952
829.273	2948
829.412	2895
829.551	2895
829.69	2956
829.829	3028
829.968	3157
830.107	2994
830.246	3074
830.385	2956
830.524	2914
830.663	2861
830.802	2773
830.941	2689
831.08	2670
831.219	2800
831.357	2826
831.496	2975
831.635	2712
831.774	2689
831.913	2693
832.051	2583
832.19	2621
832.329	2727
832.467	2583
832.606	2503
832.744	2625
832.883	2613
833.022	2621
833.16	2689
833.299	2686
833.437	2746
833.576	2720
833.714	2750
833.852	2769
833.991	2807
834.129	2861
834.267	2883
834.406	2868
834.544	2868
834.682	2910
834.821	2899
834.959	3085
835.097	2910
835.235	3135
835.373	3005
835.511	3100
835.65	2971
835.788	3001
835.926	2880
836.064	2857
836.202	2861
836.34	3112
836.478	3180
836.615	3062
836.753	3146
836.891	3264
837.029	3173
837.167	3116
837.305	3089
837.443	3077
837.58	2994
837.718	3173
837.856	3074
837.993	3051
838.131	3127
838.269	3146
838.406	3127
838.544	3127
838.681	2975
838.819	2933
838.956	2868
839.094	2853
839.231	2933
839.369	3093
839.506	3378
839.643	3249
839.781	3036
839.918	2994
840.055	3081
840.193	3070
840.33	3097
840.467	3097
840.604	3188
840.742	3435
840.879	3081
841.016	3089
841.153	3108
841.29	3370
841.427	3336
841.564	3310
841.701	3355
841.838	3287
841.975	3222
842.112	3214
842.249	3146
842.385	3047
842.522	3321
842.659	3100
842.796	3089
842.933	3135
843.069	3047
843.206	3047
843.343	3195
843.479	3131
843.616	3150
843.752	2918
843.889	2910
844.025	3142
844.162	2948
844.298	3131
844.435	2982
844.571	2910
844.708	3089
844.844	3233
844.98	3249
845.117	3211
845.253	3085
845.389	3070
845.525	3180
845.661	3108
845.798	3017
845.934	3142
846.07	3093
846.206	3207
846.342	3351
846.478	3230
846.614	3146
846.75	3081
846.886	3074
847.022	3283
847.158	3127
847.294	3226
847.429	3233
847.565	3211
847.701	3507
847.837	3074
847.972	3013
848.108	3207
848.244	3161
848.379	3020
848.515	2982
848.65	2937
848.786	2967
848.921	3055
849.057	3135
849.192	3188
849.328	3089
849.463	3100
849.598	3077
849.734	3070
849.869	2963
850.004	2937
850.14	2990
850.275	2956
850.41	2872
850.545	2925
850.68	2963
850.815	2986
850.95	2971
851.085	3184
851.22	3123
851.355	3051
851.49	3043
851.625	3055
851.76	3062
851.895	2956
852.03	2929
852.165	3047
852.299	3108
852.434	3222
852.569	3169
852.703	3226
852.838	3294
852.973	3348
853.107	3370
853.242	3214
853.376	3123
853.511	2986
853.645	3066
853.78	3230
853.914	3161
854.048	3135
854.183	3119
854.317	3173
854.451	3340
854.585	3157
854.72	3100
854.854	3222
854.988	3051
855.122	3104
855.256	2967
855.39	3119
855.524	3268
855.658	3203
855.792	3218
855.926	3180
856.06	3233
856.194	3325
856.327	3199
856.461	3066
856.595	3116
856.729	3108
856.862	3275
856.996	3131
857.13	3184
857.263	3253
857.397	3287
857.53	3165
857.664	3214
857.797	3283
857.931	3302
858.064	3173
858.197	3214
858.331	3138
858.464	3127
858.597	3039
858.731	3127
858.864	3157
858.997	3100
859.13	3157
859.263	3207
859.396	3245
859.529	3150
859.662	3089
859.795	3074
859.928	3192
860.061	3291
860.194	3256
860.327	3142
860.46	3131
860.592	3264
860.725	3256
860.858	3241
860.99	3123
861.123	3085
861.256	3062
861.388	3157
861.521	3728
861.653	3039
861.786	2990
861.918	3001
862.05	3077
862.183	3100
862.315	3142
862.447	3199
862.58	3131
862.712	2952
862.844	2861
862.976	3077
863.108	3036
863.24	3294
863.372	2918
863.504	2982
863.636	2971
863.768	3093
863.9	3020
864.032	2933
864.164	2948
864.296	2998
864.428	3077
864.559	3138
864.691	3066
864.823	3104
864.954	3039
865.086	3055
865.217	2990
865.349	2982
865.48	3020
865.612	3070
865.743	3176
865.875	3039
866.006	2948
866.137	2998
866.269	2956
866.4	2937
866.531	2933
866.662	2899
866.793	2910
866.924	2914
867.055	3013
867.186	2895
867.317	2891
867.448	2842
867.579	2857
867.71	2887
867.841	2845
867.972	2933
868.103	2960
868.233	2891
868.364	2906
868.495	2918
868.625	3119
868.756	3192
868.886	2971
869.017	3093
869.147	3169
869.278	3184
869.408	3081
869.539	3043
869.669	3138
869.799	3070
869.929	3135
870.06	3112
870.19	3359
870.32	3336
870.45	3310
870.58	3344
870.71	3447
870.84	3462
870.97	3329
871.1	3233
871.23	3488
871.36	3466
871.489	3359
871.619	3409
871.749	3424
871.879	3462
872.008	3454
872.138	3374
872.267	3256
872.397	3184
872.526	3142
872.656	3005
872.785	3116
872.915	3310
873.044	3359
873.173	3214
873.303	3241
873.432	3222
873.561	3260
873.69	3157
873.819	3131
873.948	3199
874.077	3116
874.206	3089
874.335	3123
874.464	3218
874.593	3374
874.722	3256
874.851	3412
874.979	3355
875.108	3344
875.237	3233
875.365	3176
875.494	3161
875.623	3268
875.751	3146
875.88	3093
876.008	3237
876.136	3241
876.265	3348
876.393	3523
876.521	3450
876.65	3462
876.778	3355
876.906	3268
877.034	3207
877.162	3253
877.29	3226
877.418	3291
877.546	3249
877.674	3233
877.802	3188
877.93	3233
878.058	3165
878.185	3123
878.313	3207
878.441	3253
878.568	3104
878.696	3135
878.824	3298
878.951	3329
879.079	3507
879.206	3606
879.333	3435
879.461	3340
879.588	3363
879.715	3500
879.842	3587
879.97	3401
880.097	3192
880.224	3188
880.351	3195
880.478	3230
880.605	3245
880.732	3169
880.859	3485
880.986	3291
881.112	3363
881.239	3218
881.366	3123
881.493	3043
881.619	3047
881.746	3074
881.872	3062
881.999	3116
882.125	3146
882.252	3264
882.378	3317
882.505	3450
882.631	3256
882.757	3214
882.883	3218
883.01	3233
883.136	3169
883.262	3097
883.388	3150
883.514	3348
883.64	3359
883.766	3351
883.892	3192
884.018	3260
884.143	3416
884.269	3572
884.395	3249
884.52	3154
884.646	3211
884.772	3150
884.897	3131
885.023	3260
885.148	3355
885.274	3435
885.399	3389
885.524	3306
885.65	3264
885.775	3321
885.9	3294
886.025	3424
886.15	3370
886.275	3264
886.4	3264
886.525	3336
886.65	3275
886.775	3287
886.9	3469
887.025	3603
887.149	3416
887.274	3253
887.399	3207
887.523	3199
887.648	3211
887.773	3233
887.897	3401
888.021	3378
888.146	3294
888.27	3454
888.395	3526
888.519	3462
888.643	3435
888.767	3469
888.891	3317
889.015	3260
889.139	3294
889.263	3199
889.387	3405
889.511	3530
889.635	3435
889.759	3283
889.883	3287
890.006	3416
890.13	3488
890.254	3283
890.377	3336
890.501	3222
890.624	3226
890.748	3336
890.871	3199
890.995	3112
891.118	3108
891.241	3214
891.364	3203
891.488	3302
891.611	3150
891.734	3230
891.857	3253
891.98	3237
892.103	3355
892.226	3230
892.349	3245
892.471	3127
892.594	3245
892.717	3325
892.839	3310
892.962	3287
893.085	3378
893.207	3287
893.33	3154
893.452	3222
893.575	3367
893.697	3260
893.819	3458
893.941	3496
894.064	3481
894.186	3256
894.308	3275
894.43	3473
894.552	3523
894.674	3454
894.796	3241
894.918	3367
895.04	3310
895.161	3439
895.283	3431
895.405	3325
895.526	3370
895.648	3397
895.769	3454
895.891	3428
896.012	3507
896.134	3458
896.255	3389
896.376	3393
896.498	3393
896.619	3458
896.74	3409
896.861	3424
896.982	3713
897.103	3846
897.224	3603
897.345	3511
897.466	3450
897.587	3496
897.708	3580
897.828	3542
897.949	3469
898.07	3340
898.19	3416
898.311	3591
898.431	3416
898.552	3538
898.672	3576
898.792	3606
898.913	3485
899.033	3409
899.153	3287
899.273	3199
899.393	3283
899.513	3317
899.633	3317
899.753	3355
899.873	3344
899.993	3374
900.113	3336
900.232	3374
900.352	3332
900.472	3306
900.591	3199
900.711	3348
900.83	3230
900.95	3428
901.069	3504
901.189	3332
901.308	3142
901.427	3131
901.546	3214
901.665	3302
901.784	3325
901.904	3180
902.023	3138
902.141	3043
902.26	2982
902.379	3176
902.498	3093
902.617	3077
902.735	3203
902.854	3222
902.973	3195
903.091	3047
903.21	3058
903.328	3157
903.446	3116
903.565	3100
903.683	3188
903.801	3093
903.919	3233
904.038	3302
904.156	3203
904.274	3306
904.392	3287
904.51	3287
904.627	3367
904.745	3443
904.863	3485
904.981	3287
905.098	3165
905.216	3306
905.334	3294
905.451	3298
905.569	3317
905.686	3424
905.803	3428
905.921	3275
906.038	3447
906.155	3351
906.272	3291
906.389	3348
906.506	3233
906.623	3249
906.74	3291
906.857	3245
906.974	3260
907.091	3439
907.208	3545
907.324	3496
907.441	3397
907.557	3264
907.674	3222
907.79	3249
907.907	3275
908.023	3367
908.139	3359
908.256	3310
908.372	3363
908.488	3340
908.604	3272
908.72	3207
908.836	3302
908.952	3317
909.068	3355
909.184	3500
909.3	3401
909.415	3469
909.531	3481
909.647	3249
909.762	3351
909.878	3260
909.993	3382
910.108	3344
910.224	3355
910.339	3401
910.454	3348
910.57	3268
910.685	3233
910.8	3591
910.915	3553
911.03	3431
911.145	3329
911.259	3272
911.374	3287
911.489	3237
911.604	3260
911.718	3112
911.833	3104
911.947	3024
912.062	2975
912.176	3154
912.291	3180
912.405	3218
912.519	3443
912.633	3416
912.748	3313
912.862	3302
912.976	3138
913.09	3116
913.204	3146
913.318	3214
913.431	3291
913.545	3370
913.659	3428
913.772	3355
913.886	3241
914	3192
914.113	3397
914.226	3431
914.34	3378
914.453	3207
914.566	3378
914.68	3291
914.793	3348
914.906	3165
915.019	3112
915.132	3028
915.245	3188
915.358	3180
915.47	3253
915.583	3268
915.696	3272
915.809	3367
915.921	3389
916.034	3253
916.146	3241
916.259	3253
916.371	3359
916.483	3336
916.595	3287
916.708	3351
916.82	3317
916.932	3344
917.044	3370
917.156	3370
917.268	3241
917.38	3302
917.491	3317
917.603	3355
917.715	3450
917.826	3477
917.938	3409
918.049	3260
918.161	3401
918.272	3580
918.384	3561
918.495	3519
918.606	3306
918.717	3306
918.828	3382
918.939	3424
919.05	3329
919.161	3355
919.272	3192
919.383	3291
919.494	3504
919.604	3690
919.715	3507
919.826	3405
919.936	3481
920.047	3568
920.157	3523
920.267	3751
920.378	3625
920.488	3553
920.598	3797
920.708	3975
920.818	3831
920.928	3793
921.038	4029
921.148	3972
921.258	3713
921.368	3648
921.477	3606
921.587	3568
921.697	3473
921.806	3648
921.916	3515
922.025	3363
922.134	3389
922.244	3317
922.353	3416
922.462	3245
922.571	3233
922.68	3131
922.789	3089
922.898	3116
923.007	3116
923.116	3218
923.224	3131
923.333	3195
923.442	3062
923.55	3097
923.659	3108
923.767	3188
923.876	3123
923.984	3249
924.092	3127
924.201	3207
924.309	3207
924.417	3264
924.525	3199
924.633	3237
924.741	4036
924.849	3047
924.956	3268
925.064	3127
925.172	3051
925.279	3104
925.387	3214
925.494	3173
925.602	3374
925.709	3344
925.816	3218
925.924	3298
926.031	3378
926.138	3283
926.245	3363
926.352	3264
926.459	3397
926.566	3462
926.673	3306
926.779	3211
926.886	3214
926.993	3176
927.099	3123
927.206	3119
927.312	3108
927.419	3218
927.525	3195
927.631	3249
927.737	3142
927.843	3123
927.95	2998
928.056	3138
928.162	3207
928.267	3249
928.373	3884
928.479	3310
928.585	3051
928.69	3199
928.796	3298
928.901	3157
929.007	3017
929.112	3199
929.218	3150
929.323	3135
929.428	3161
929.533	3306
929.638	3127
929.743	3150
929.848	3256
929.953	3199
930.058	3116
930.163	2998
930.267	3039
930.372	3218
930.477	3036
930.581	3294
930.685	3203
930.79	3085
930.894	3116
930.998	3093
931.103	3306
931.207	2994
931.311	2906
931.415	2914
931.519	2739
931.623	2823
