Data from test_V78500241_691.txt Node
Date: Fri Mar 25 16:19:59 CST 2022
User: usil
Spectrometer: V785-0024
Trigger mode: 0
Integration Time (sec): 4.000000E-1
Scans to average: 1
Nonlinearity correction enabled: false
Boxcar width: 0
Storing dark spectrum: false
XAxis mode: Wavelengths
Number of Pixels in Spectrum: 1024
>>>>>Begin Spectral Data<<<<<
801.071	2925
801.214	2960
801.356	2910
801.499	2899
801.641	2868
801.783	2937
801.926	3058
802.068	2960
802.211	2979
802.353	3047
802.496	2941
802.638	3009
802.78	3020
802.923	3097
803.065	3036
803.208	2880
803.35	2933
803.492	2922
803.635	2922
803.777	2769
803.919	2880
804.061	3195
804.204	2975
804.346	2937
804.488	2857
804.63	2990
804.773	2872
804.915	2925
805.057	3097
805.199	2948
805.341	2960
805.483	3043
805.626	2998
805.768	2960
805.91	3093
806.052	3081
806.194	3055
806.336	3222
806.478	3055
806.62	2914
806.762	2971
806.904	3036
807.046	3169
807.188	2982
807.33	2906
807.472	2986
807.614	2899
807.756	2990
807.898	2883
808.04	2891
808.182	2967
808.324	2944
808.465	2842
808.607	2883
808.749	2807
808.891	2857
809.033	2998
809.174	2979
809.316	2914
809.458	2876
809.6	2762
809.741	2807
809.883	2773
810.025	2807
810.166	2838
810.308	2826
810.45	2857
810.591	2758
810.733	2792
810.875	2811
811.016	2773
811.158	2766
811.299	2796
811.441	2925
811.582	2902
811.724	2796
811.865	2811
812.007	2864
812.148	2861
812.29	2857
812.431	2914
812.573	2952
812.714	2971
812.855	3024
812.997	3062
813.138	3135
813.279	3028
813.421	2963
813.562	2975
813.703	2842
813.845	2891
813.986	2788
814.127	2746
814.268	2788
814.41	2830
814.551	2769
814.692	2887
814.833	2819
814.974	2902
815.115	2937
815.256	2788
815.397	2819
815.539	2880
815.68	2777
815.821	2758
815.962	2929
816.103	2937
816.244	2891
816.385	2842
816.526	2979
816.666	2929
816.807	2750
816.948	2922
817.089	2895
817.23	2853
817.371	2769
817.512	2739
817.653	2811
817.793	2842
817.934	2868
818.075	2979
818.216	2986
818.356	2994
818.497	2891
818.638	2815
818.778	2815
818.919	2811
819.06	2735
819.2	2883
819.341	2804
819.481	2792
819.622	2906
819.762	3074
819.903	3051
820.043	2956
820.184	2902
820.324	2922
820.465	3039
820.605	3017
820.746	3066
820.886	2948
821.026	3135
821.167	3184
821.307	3256
821.447	3302
821.588	3233
821.728	3211
821.868	3199
822.008	3100
822.149	3165
822.289	3230
822.429	3093
822.569	3104
822.709	3211
822.849	3051
822.99	3108
823.13	3195
823.27	3188
823.41	3135
823.55	3150
823.69	3203
823.83	3233
823.97	3138
824.11	3020
824.25	2998
824.389	3085
824.529	3138
824.669	3070
824.809	3203
824.949	3287
825.089	3279
825.228	3241
825.368	3036
825.508	3032
825.648	3024
825.787	3013
825.927	3085
826.067	3005
826.206	3005
826.346	3077
826.485	3112
826.625	3154
826.765	3348
826.904	3230
827.044	3009
827.183	3013
827.323	2895
827.462	3028
827.601	2944
827.741	2963
827.88	2982
828.02	2910
828.159	3032
828.298	3066
828.437	3131
828.577	3104
828.716	3279
828.855	3119
828.994	2971
829.134	2937
829.273	2963
829.412	2937
829.551	2941
829.69	2937
829.829	3028
829.968	3146
830.107	3039
830.246	3070
830.385	2990
830.524	2899
830.663	2868
830.802	2743
830.941	2701
831.08	2682
831.219	2777
831.357	2788
831.496	2960
831.635	2773
831.774	2682
831.913	2686
832.051	2571
832.19	2606
832.329	2731
832.467	2598
832.606	2533
832.744	2629
832.883	2613
833.022	2632
833.16	2701
833.299	2720
833.437	2754
833.576	2746
833.714	2746
833.852	2769
833.991	2804
834.129	2853
834.267	2883
834.406	2800
834.544	2922
834.682	2914
834.821	2922
834.959	3108
835.097	2899
835.235	3116
835.373	3013
835.511	3028
835.65	2975
835.788	2960
835.926	2823
836.064	2845
836.202	2880
836.34	3104
836.478	3188
836.615	3085
836.753	3161
836.891	3237
837.029	3173
837.167	3135
837.305	3085
837.443	3074
837.58	3009
837.718	3165
837.856	3077
837.993	3074
838.131	3138
838.269	3154
838.406	3119
838.544	3131
838.681	2948
838.819	2925
838.956	2849
839.094	2845
839.231	2937
839.369	3028
839.506	3397
839.643	3214
839.781	3058
839.918	2994
840.055	3081
840.193	3077
840.33	3123
840.467	3097
840.604	3195
840.742	3439
840.879	3055
841.016	3097
841.153	3154
841.29	3367
841.427	3329
841.564	3306
841.701	3329
841.838	3245
841.975	3195
842.112	3207
842.249	3116
842.385	3097
842.522	3291
842.659	3127
842.796	3081
842.933	3119
843.069	3074
843.206	3032
843.343	3199
843.479	3146
843.616	3165
843.752	2929
843.889	2864
844.025	3100
844.162	2922
844.298	3100
844.435	2994
844.571	2925
844.708	3131
844.844	3199
844.98	3272
845.117	3211
845.253	3058
845.389	3066
845.525	3131
845.661	3131
845.798	3051
845.934	3184
846.07	3051
846.206	3226
846.342	3325
846.478	3249
846.614	3112
846.75	3108
846.886	3017
847.022	3233
847.158	3195
847.294	3222
847.429	3256
847.565	3222
847.701	3473
847.837	3001
847.972	3047
848.108	3173
848.244	3161
848.379	3001
848.515	2956
848.65	2975
848.786	2982
848.921	3009
849.057	3116
849.192	3161
849.328	3138
849.463	3138
849.598	3116
849.734	3081
849.869	3020
850.004	2918
850.14	2998
850.275	2933
850.41	2842
850.545	2906
850.68	2963
850.815	2963
850.95	2990
851.085	3233
851.22	3138
851.355	3058
851.49	2994
851.625	2994
851.76	3028
851.895	2944
852.03	2922
852.165	3055
852.299	3165
852.434	3195
852.569	3173
852.703	3192
852.838	3298
852.973	3313
853.107	3351
853.242	3214
853.376	3154
853.511	3013
853.645	3070
853.78	3260
853.914	3135
854.048	3131
854.183	3127
854.317	3142
854.451	3310
854.585	3154
854.72	3119
854.854	3237
854.988	3077
855.122	3085
855.256	3024
855.39	3146
855.524	3245
855.658	3222
855.792	3180
855.926	3241
856.06	3294
856.194	3291
856.327	3135
856.461	3089
856.595	3100
856.729	3131
856.862	3275
856.996	3146
857.13	3218
857.263	3275
857.397	3291
857.53	3161
857.664	3222
857.797	3279
857.931	3317
858.064	3195
858.197	3218
858.331	3131
858.464	3108
858.597	3047
858.731	3150
858.864	3176
858.997	3097
859.13	3214
859.263	3173
859.396	3245
859.529	3116
859.662	3123
859.795	3104
859.928	3138
860.061	3294
860.194	3329
860.327	3150
860.46	3127
860.592	3264
860.725	3264
860.858	3237
860.99	3112
861.123	3070
861.256	3077
861.388	3176
861.521	3926
861.653	3043
861.786	3009
861.918	2975
862.05	3108
862.183	3142
862.315	3184
862.447	3218
862.58	3116
862.712	2963
862.844	2910
862.976	3047
863.108	3028
863.24	3412
863.372	2902
863.504	2975
863.636	2971
863.768	3051
863.9	3020
864.032	2910
864.164	2910
864.296	3051
864.428	3085
864.559	3116
864.691	3100
864.823	3093
864.954	3116
865.086	3062
865.217	2971
865.349	2975
865.48	3005
865.612	3070
865.743	3165
865.875	3005
866.006	2967
866.137	2963
866.269	2967
866.4	2952
866.531	2960
866.662	2918
866.793	2933
866.924	2918
867.055	2982
867.186	2948
867.317	2933
867.448	2891
867.579	2842
867.71	2853
867.841	2868
867.972	2925
868.103	2918
868.233	2922
868.364	2899
868.495	2925
868.625	3100
868.756	3146
868.886	2990
869.017	3062
869.147	3207
869.278	3207
869.408	3070
869.539	2998
869.669	3131
869.799	3119
869.929	3150
870.06	3127
870.19	3310
870.32	3268
870.45	3340
870.58	3382
870.71	3443
870.84	3477
870.97	3291
871.1	3279
871.23	3534
871.36	3492
871.489	3351
871.619	3435
871.749	3424
871.879	3431
872.008	3496
872.138	3367
872.267	3306
872.397	3169
872.526	3135
872.656	3017
872.785	3108
872.915	3256
873.044	3336
873.173	3230
873.303	3272
873.432	3260
873.561	3222
873.69	3161
873.819	3173
873.948	3192
874.077	3112
874.206	3047
874.335	3097
874.464	3222
874.593	3389
874.722	3253
874.851	3416
874.979	3351
875.108	3306
875.237	3207
875.365	3184
875.494	3146
875.623	3279
875.751	3074
875.88	3123
876.008	3207
876.136	3249
876.265	3363
876.393	3534
876.521	3447
876.65	3420
876.778	3370
876.906	3279
877.034	3195
877.162	3245
877.29	3169
877.418	3272
877.546	3272
877.674	3253
877.802	3230
877.93	3218
878.058	3165
878.185	3142
878.313	3211
878.441	3237
878.568	3085
878.696	3165
878.824	3249
878.951	3329
879.079	3466
879.206	3591
879.333	3488
879.461	3310
879.588	3363
879.715	3473
879.842	3587
879.97	3389
880.097	3176
880.224	3150
880.351	3180
880.478	3241
880.605	3207
880.732	3188
880.859	3504
880.986	3344
881.112	3329
881.239	3226
881.366	3100
881.493	3047
881.619	3028
881.746	3097
881.872	3112
881.999	3093
882.125	3146
882.252	3230
882.378	3313
882.505	3447
882.631	3321
882.757	3154
882.883	3195
883.01	3245
883.136	3165
883.262	3112
883.388	3131
883.514	3321
883.64	3389
883.766	3329
883.892	3218
884.018	3275
884.143	3412
884.269	3549
884.395	3199
884.52	3135
884.646	3192
884.772	3154
884.897	3093
885.023	3192
885.148	3378
885.274	3462
885.399	3393
885.524	3264
885.65	3279
885.775	3329
885.9	3264
886.025	3424
886.15	3378
886.275	3325
886.4	3207
886.525	3321
886.65	3279
886.775	3283
886.9	3519
887.025	3633
887.149	3420
887.274	3249
887.399	3218
887.523	3203
887.648	3188
887.773	3249
887.897	3378
888.021	3386
888.146	3291
888.27	3454
888.395	3511
888.519	3435
888.643	3443
888.767	3458
888.891	3294
889.015	3195
889.139	3298
889.263	3207
889.387	3397
889.511	3553
889.635	3511
889.759	3321
889.883	3329
890.006	3359
890.13	3504
890.254	3283
890.377	3363
890.501	3226
890.624	3192
890.748	3310
890.871	3184
890.995	3104
891.118	3081
891.241	3230
891.364	3214
891.488	3332
891.611	3211
891.734	3207
891.857	3325
891.98	3241
892.103	3336
892.226	3302
892.349	3211
892.471	3116
892.594	3226
892.717	3287
892.839	3302
892.962	3294
893.085	3370
893.207	3306
893.33	3199
893.452	3173
893.575	3325
893.697	3249
893.819	3485
893.941	3507
894.064	3439
894.186	3279
894.308	3272
894.43	3428
894.552	3542
894.674	3466
894.796	3237
894.918	3313
895.04	3283
895.161	3439
895.283	3374
895.405	3291
895.526	3409
895.648	3431
895.769	3466
895.891	3504
896.012	3488
896.134	3477
896.255	3409
896.376	3389
896.498	3367
896.619	3420
896.74	3405
896.861	3393
896.982	3671
897.103	3827
897.224	3610
897.345	3477
897.466	3420
897.587	3496
897.708	3614
897.828	3557
897.949	3473
898.07	3325
898.19	3382
898.311	3606
898.431	3443
898.552	3481
898.672	3599
898.792	3633
898.913	3504
899.033	3439
899.153	3306
899.273	3203
899.393	3287
899.513	3329
899.633	3310
899.753	3348
899.873	3336
899.993	3370
900.113	3336
900.232	3435
900.352	3336
900.472	3302
900.591	3233
900.711	3325
900.83	3237
900.95	3416
901.069	3469
901.189	3386
901.308	3184
901.427	3157
901.546	3195
901.665	3279
901.784	3325
901.904	3195
902.023	3131
902.141	3032
902.26	2990
902.379	3135
902.498	3081
902.617	3051
902.735	3199
902.854	3245
902.973	3173
903.091	3074
903.21	3085
903.328	3127
903.446	3093
903.565	3123
903.683	3184
903.801	3131
903.919	3233
904.038	3317
904.156	3188
904.274	3291
904.392	3283
904.51	3302
904.627	3310
904.745	3447
904.863	3488
904.981	3249
905.098	3233
905.216	3226
905.334	3287
905.451	3310
905.569	3283
905.686	3447
905.803	3469
905.921	3283
906.038	3424
906.155	3370
906.272	3287
906.389	3298
906.506	3245
906.623	3264
906.74	3279
906.857	3165
906.974	3275
907.091	3431
907.208	3561
907.324	3454
907.441	3401
907.557	3218
907.674	3241
907.79	3249
907.907	3298
908.023	3378
908.139	3378
908.256	3340
908.372	3382
908.488	3359
908.604	3237
908.72	3245
908.836	3279
908.952	3279
909.068	3378
909.184	3485
909.3	3412
909.415	3523
909.531	3450
909.647	3268
909.762	3313
909.878	3264
909.993	3374
910.108	3329
910.224	3321
910.339	3382
910.454	3344
910.57	3306
910.685	3291
910.8	3591
910.915	3545
911.03	3473
911.145	3241
911.259	3260
911.374	3313
911.489	3253
911.604	3226
911.718	3135
911.833	3127
911.947	3058
912.062	3009
912.176	3161
912.291	3218
912.405	3226
912.519	3382
912.633	3458
912.748	3332
912.862	3291
912.976	3230
913.09	3070
913.204	3123
913.318	3176
913.431	3367
913.545	3348
913.659	3397
913.772	3329
913.886	3211
914	3184
914.113	3355
914.226	3420
914.34	3348
914.453	3203
914.566	3405
914.68	3283
914.793	3275
914.906	3146
915.019	3119
915.132	3055
915.245	3184
915.358	3237
915.47	3230
915.583	3275
915.696	3321
915.809	3431
915.921	3393
916.034	3275
916.146	3260
916.259	3298
916.371	3382
916.483	3405
916.595	3260
916.708	3340
916.82	3340
916.932	3310
917.044	3355
917.156	3321
917.268	3207
917.38	3317
917.491	3283
917.603	3363
917.715	3473
917.826	3447
917.938	3367
918.049	3272
918.161	3412
918.272	3595
918.384	3557
918.495	3443
918.606	3329
918.717	3272
918.828	3363
918.939	3420
919.05	3336
919.161	3367
919.272	3180
919.383	3264
919.494	3523
919.604	3671
919.715	3462
919.826	3420
919.936	3523
920.047	3572
920.157	3595
920.267	3751
920.378	3595
920.488	3553
920.598	3781
920.708	3892
920.818	3835
920.928	3816
921.038	3972
921.148	3949
921.258	3705
921.368	3614
921.477	3603
921.587	3538
921.697	3469
921.806	3629
921.916	3511
922.025	3344
922.134	3363
922.244	3272
922.353	3428
922.462	3268
922.571	3245
922.68	3074
922.789	3085
922.898	3150
923.007	3089
923.116	3211
923.224	3180
923.333	3138
923.442	3112
923.55	3116
923.659	3100
923.767	3226
923.876	3104
923.984	3218
924.092	3116
924.201	3188
924.309	3195
924.417	3256
924.525	3237
924.633	3241
924.741	4013
924.849	3020
924.956	3268
925.064	3097
925.172	3051
925.279	3089
925.387	3184
925.494	3226
925.602	3332
925.709	3332
925.816	3203
925.924	3302
926.031	3424
926.138	3359
926.245	3386
926.352	3233
926.459	3405
926.566	3466
926.673	3291
926.779	3264
926.886	3256
926.993	3157
927.099	3123
927.206	3089
927.312	3127
927.419	3184
927.525	3226
927.631	3245
927.737	3131
927.843	3135
927.95	3036
928.056	3127
928.162	3131
928.267	3291
928.373	3865
928.479	3287
928.585	3028
928.69	3195
928.796	3306
928.901	3173
929.007	3036
929.112	3241
929.218	3184
929.323	3169
929.428	3127
929.533	3306
929.638	3093
929.743	3165
929.848	3260
929.953	3237
930.058	3180
930.163	2990
930.267	3036
930.372	3222
930.477	3009
930.581	3329
930.685	3154
930.79	3058
930.894	3138
930.998	3104
931.103	3279
931.207	2941
931.311	2929
931.415	2899
931.519	2807
931.623	2800
