Data from test_V78500241_253.txt Node
Date: Fri Mar 25 16:16:57 CST 2022
User: usil
Spectrometer: V785-0024
Trigger mode: 0
Integration Time (sec): 4.000000E-1
Scans to average: 1
Nonlinearity correction enabled: false
Boxcar width: 0
Storing dark spectrum: false
XAxis mode: Wavelengths
Number of Pixels in Spectrum: 1024
>>>>>Begin Spectral Data<<<<<
801.071	2933
801.214	2956
801.356	2857
801.499	2906
801.641	2910
801.783	2925
801.926	3036
802.068	2960
802.211	2979
802.353	3032
802.496	2937
802.638	3009
802.78	3005
802.923	3077
803.065	2998
803.208	2899
803.35	2891
803.492	2952
803.635	2914
803.777	2743
803.919	2853
804.061	3173
804.204	2910
804.346	2906
804.488	2834
804.63	2982
804.773	2872
804.915	2922
805.057	3108
805.199	2933
805.341	2941
805.483	3028
805.626	3028
805.768	2948
805.91	3081
806.052	3119
806.194	3020
806.336	3207
806.478	3024
806.62	2952
806.762	2952
806.904	3032
807.046	3154
807.188	2967
807.33	2891
807.472	3005
807.614	2883
807.756	2990
807.898	2902
808.04	2883
808.182	2963
808.324	2952
808.465	2899
808.607	2857
808.749	2807
808.891	2868
809.033	2971
809.174	2982
809.316	2872
809.458	2864
809.6	2773
809.741	2769
809.883	2823
810.025	2853
810.166	2845
810.308	2864
810.45	2864
810.591	2766
810.733	2766
810.875	2811
811.016	2777
811.158	2750
811.299	2823
811.441	2937
811.582	2861
811.724	2811
811.865	2830
812.007	2925
812.148	2849
812.29	2864
812.431	2902
812.573	2925
812.714	2948
812.855	3039
812.997	3058
813.138	3135
813.279	3024
813.421	3001
813.562	2994
813.703	2857
813.845	2918
813.986	2762
814.127	2743
814.268	2811
814.41	2853
814.551	2830
814.692	2868
814.833	2807
814.974	2872
815.115	2971
815.256	2788
815.397	2788
815.539	2906
815.68	2788
815.821	2788
815.962	2967
816.103	2941
816.244	2895
816.385	2876
816.526	2975
816.666	2922
816.807	2716
816.948	2899
817.089	2899
817.23	2876
817.371	2792
817.512	2815
817.653	2853
817.793	2800
817.934	2895
818.075	2971
818.216	3020
818.356	3032
818.497	2887
818.638	2769
818.778	2819
818.919	2762
819.06	2777
819.2	2853
819.341	2796
819.481	2766
819.622	2960
819.762	3119
819.903	3039
820.043	2944
820.184	2899
820.324	2910
820.465	3020
820.605	3047
820.746	3001
820.886	2948
821.026	3116
821.167	3169
821.307	3279
821.447	3256
821.588	3218
821.728	3207
821.868	3188
822.008	3058
822.149	3184
822.289	3241
822.429	3097
822.569	3085
822.709	3176
822.849	3039
822.99	3043
823.13	3165
823.27	3203
823.41	3100
823.55	3131
823.69	3154
823.83	3180
823.97	3119
824.11	3066
824.25	3005
824.389	3043
824.529	3119
824.669	3051
824.809	3195
824.949	3260
825.089	3233
825.228	3146
825.368	2990
825.508	2971
825.648	2971
825.787	3020
825.927	3051
826.067	2948
826.206	2971
826.346	3066
826.485	3085
826.625	3116
826.765	3264
826.904	3222
827.044	2952
827.183	2918
827.323	2849
827.462	3013
827.601	2933
827.741	2918
827.88	2960
828.02	2857
828.159	2979
828.298	3024
828.437	3112
828.577	3024
828.716	3260
828.855	3070
828.994	2910
829.134	2880
829.273	2918
829.412	2842
829.551	2876
829.69	2868
829.829	2982
829.968	3142
830.107	2990
830.246	3005
830.385	2914
830.524	2857
830.663	2800
830.802	2697
830.941	2625
831.08	2655
831.219	2750
831.357	2769
831.496	2933
831.635	2735
831.774	2670
831.913	2640
832.051	2541
832.19	2583
832.329	2674
832.467	2530
832.606	2480
832.744	2560
832.883	2579
833.022	2564
833.16	2651
833.299	2663
833.437	2682
833.576	2708
833.714	2724
833.852	2727
833.991	2746
834.129	2823
834.267	2819
834.406	2773
834.544	2861
834.682	2906
834.821	2838
834.959	3089
835.097	2880
835.235	3062
835.373	2982
835.511	3032
835.65	2929
835.788	2944
835.926	2807
836.064	2830
836.202	2861
836.34	3085
836.478	3135
836.615	3062
836.753	3127
836.891	3176
837.029	3184
837.167	3112
837.305	3089
837.443	3066
837.58	2979
837.718	3097
837.856	3089
837.993	3005
838.131	3142
838.269	3104
838.406	3089
838.544	3108
838.681	2937
838.819	2933
838.956	2792
839.094	2842
839.231	2887
839.369	3043
839.506	3348
839.643	3214
839.781	2994
839.918	2979
840.055	3039
840.193	3066
840.33	3058
840.467	3070
840.604	3195
840.742	3431
840.879	3043
841.016	3036
841.153	3150
841.29	3355
841.427	3264
841.564	3249
841.701	3344
841.838	3214
841.975	3146
842.112	3199
842.249	3116
842.385	3070
842.522	3253
842.659	3070
842.796	3058
842.933	3119
843.069	3058
843.206	3043
843.343	3180
843.479	3135
843.616	3180
843.752	2868
843.889	2929
844.025	3058
844.162	2868
844.298	3074
844.435	2925
844.571	2906
844.708	3055
844.844	3214
844.98	3211
845.117	3195
845.253	3028
845.389	2975
845.525	3089
845.661	3108
845.798	3028
845.934	3108
846.07	3036
846.206	3245
846.342	3294
846.478	3211
846.614	3127
846.75	3077
846.886	3017
847.022	3272
847.158	3173
847.294	3233
847.429	3226
847.565	3188
847.701	3443
847.837	3020
847.972	2998
848.108	3165
848.244	3173
848.379	2979
848.515	2975
848.65	2902
848.786	2952
848.921	2986
849.057	3112
849.192	3138
849.328	3058
849.463	3135
849.598	3039
849.734	3032
849.869	2967
850.004	2944
850.14	2933
850.275	2895
850.41	2826
850.545	2883
850.68	2944
850.815	2979
850.95	2975
851.085	3203
851.22	3127
851.355	3051
851.49	2986
851.625	2975
851.76	2967
851.895	2963
852.03	2918
852.165	3020
852.299	3135
852.434	3203
852.569	3146
852.703	3195
852.838	3264
852.973	3317
853.107	3310
853.242	3188
853.376	3123
853.511	2998
853.645	3039
853.78	3237
853.914	3108
854.048	3138
854.183	3097
854.317	3161
854.451	3272
854.585	3154
854.72	3070
854.854	3154
854.988	3074
855.122	3100
855.256	2971
855.39	3081
855.524	3256
855.658	3188
855.792	3173
855.926	3192
856.06	3192
856.194	3260
856.327	3161
856.461	3081
856.595	3100
856.729	3074
856.862	3199
856.996	3123
857.13	3207
857.263	3237
857.397	3272
857.53	3142
857.664	3173
857.797	3287
857.931	3249
858.064	3157
858.197	3233
858.331	3135
858.464	3077
858.597	3028
858.731	3131
858.864	3169
858.997	3123
859.13	3131
859.263	3203
859.396	3207
859.529	3112
859.662	3074
859.795	3047
859.928	3119
860.061	3291
860.194	3283
860.327	3104
860.46	3100
860.592	3226
860.725	3272
860.858	3245
860.99	3108
861.123	3081
861.256	3051
861.388	3127
861.521	3842
861.653	2990
861.786	3017
861.918	2979
862.05	3081
862.183	3108
862.315	3135
862.447	3195
862.58	3123
862.712	2952
862.844	2849
862.976	3017
863.108	3009
863.24	3310
863.372	2868
863.504	2979
863.636	2941
863.768	3058
863.9	2967
864.032	2956
864.164	2922
864.296	3017
864.428	3066
864.559	3085
864.691	3089
864.823	3058
864.954	3028
865.086	3020
865.217	2986
865.349	2956
865.48	2967
865.612	3032
865.743	3154
865.875	2948
866.006	2914
866.137	2975
866.269	2971
866.4	2925
866.531	2918
866.662	2891
866.793	2902
866.924	2876
867.055	2960
867.186	2937
867.317	2876
867.448	2849
867.579	2838
867.71	2868
867.841	2804
867.972	2937
868.103	2922
868.233	2899
868.364	2868
868.495	2914
868.625	3081
868.756	3169
868.886	2975
869.017	3009
869.147	3169
869.278	3161
869.408	3058
869.539	3024
869.669	3100
869.799	3039
869.929	3108
870.06	3112
870.19	3340
870.32	3302
870.45	3283
870.58	3382
870.71	3481
870.84	3466
870.97	3294
871.1	3233
871.23	3481
871.36	3458
871.489	3351
871.619	3405
871.749	3454
871.879	3462
872.008	3443
872.138	3332
872.267	3306
872.397	3154
872.526	3108
872.656	3028
872.785	3070
872.915	3253
873.044	3317
873.173	3230
873.303	3226
873.432	3272
873.561	3253
873.69	3188
873.819	3142
873.948	3203
874.077	3135
874.206	3028
874.335	3100
874.464	3241
874.593	3378
874.722	3237
874.851	3409
874.979	3332
875.108	3310
875.237	3199
875.365	3154
875.494	3173
875.623	3260
875.751	3066
875.88	3135
876.008	3176
876.136	3233
876.265	3332
876.393	3542
876.521	3424
876.65	3389
876.778	3306
876.906	3260
877.034	3199
877.162	3233
877.29	3142
877.418	3237
877.546	3226
877.674	3256
877.802	3256
877.93	3275
878.058	3165
878.185	3104
878.313	3184
878.441	3173
878.568	3070
878.696	3184
878.824	3241
878.951	3298
879.079	3435
879.206	3667
879.333	3504
879.461	3344
879.588	3340
879.715	3458
879.842	3576
879.97	3389
880.097	3161
880.224	3142
880.351	3199
880.478	3222
880.605	3195
880.732	3176
880.859	3511
880.986	3317
881.112	3310
881.239	3218
881.366	3100
881.493	3020
881.619	2994
881.746	3036
881.872	3127
881.999	3108
882.125	3112
882.252	3249
882.378	3264
882.505	3401
882.631	3298
882.757	3142
882.883	3195
883.01	3218
883.136	3150
883.262	3093
883.388	3104
883.514	3313
883.64	3386
883.766	3313
883.892	3199
884.018	3294
884.143	3439
884.269	3572
884.395	3180
884.52	3161
884.646	3211
884.772	3146
884.897	3089
885.023	3226
885.148	3325
885.274	3409
885.399	3393
885.524	3291
885.65	3260
885.775	3310
885.9	3283
886.025	3447
886.15	3359
886.275	3302
886.4	3230
886.525	3294
886.65	3253
886.775	3294
886.9	3481
887.025	3660
887.149	3428
887.274	3283
887.399	3188
887.523	3199
887.648	3165
887.773	3214
887.897	3401
888.021	3412
888.146	3272
888.27	3477
888.395	3526
888.519	3435
888.643	3416
888.767	3454
888.891	3321
889.015	3237
889.139	3264
889.263	3237
889.387	3378
889.511	3511
889.635	3462
889.759	3264
889.883	3321
890.006	3355
890.13	3485
890.254	3310
890.377	3321
890.501	3256
890.624	3199
890.748	3336
890.871	3180
890.995	3116
891.118	3058
891.241	3195
891.364	3218
891.488	3325
891.611	3199
891.734	3222
891.857	3294
891.98	3230
892.103	3344
892.226	3272
892.349	3245
892.471	3104
892.594	3203
892.717	3298
892.839	3291
892.962	3306
893.085	3355
893.207	3291
893.33	3180
893.452	3222
893.575	3344
893.697	3233
893.819	3447
893.941	3507
894.064	3439
894.186	3275
894.308	3279
894.43	3469
894.552	3500
894.674	3469
894.796	3283
894.918	3298
895.04	3291
895.161	3424
895.283	3382
895.405	3306
895.526	3393
895.648	3450
895.769	3393
895.891	3405
896.012	3466
896.134	3458
896.255	3443
896.376	3382
896.498	3382
896.619	3428
896.74	3393
896.861	3389
896.982	3694
897.103	3873
897.224	3564
897.345	3500
897.466	3469
897.587	3557
897.708	3656
897.828	3568
897.949	3454
898.07	3367
898.19	3450
898.311	3618
898.431	3443
898.552	3526
898.672	3614
898.792	3564
898.913	3507
899.033	3401
899.153	3302
899.273	3211
899.393	3291
899.513	3313
899.633	3332
899.753	3367
899.873	3359
899.993	3367
900.113	3321
900.232	3363
900.352	3355
900.472	3325
900.591	3207
900.711	3317
900.83	3279
900.95	3447
901.069	3496
901.189	3359
901.308	3154
901.427	3138
901.546	3207
901.665	3321
901.784	3310
901.904	3180
902.023	3165
902.141	2982
902.26	3020
902.379	3150
902.498	3077
902.617	3066
902.735	3218
902.854	3260
902.973	3184
903.091	3070
903.21	3058
903.328	3142
903.446	3119
903.565	3112
903.683	3195
903.801	3135
903.919	3237
904.038	3291
904.156	3150
904.274	3275
904.392	3256
904.51	3317
904.627	3317
904.745	3401
904.863	3530
904.981	3256
905.098	3169
905.216	3272
905.334	3291
905.451	3321
905.569	3336
905.686	3454
905.803	3450
905.921	3264
906.038	3458
906.155	3363
906.272	3268
906.389	3348
906.506	3214
906.623	3230
906.74	3294
906.857	3192
906.974	3291
907.091	3454
907.208	3568
907.324	3492
907.441	3405
907.557	3275
907.674	3237
907.79	3199
907.907	3287
908.023	3370
908.139	3405
908.256	3370
908.372	3351
908.488	3344
908.604	3291
908.72	3253
908.836	3294
908.952	3302
909.068	3363
909.184	3526
909.3	3397
909.415	3534
909.531	3507
909.647	3275
909.762	3310
909.878	3279
909.993	3409
910.108	3351
910.224	3283
910.339	3382
910.454	3355
910.57	3287
910.685	3249
910.8	3599
910.915	3545
911.03	3439
911.145	3313
911.259	3264
911.374	3321
911.489	3272
911.604	3222
911.718	3135
911.833	3146
911.947	3055
912.062	3028
912.176	3169
912.291	3199
912.405	3249
912.519	3473
912.633	3469
912.748	3317
912.862	3268
912.976	3161
913.09	3051
913.204	3138
913.318	3214
913.431	3367
913.545	3359
913.659	3401
913.772	3332
913.886	3245
914	3188
914.113	3359
914.226	3374
914.34	3370
914.453	3249
914.566	3450
914.68	3302
914.793	3291
914.906	3154
915.019	3116
915.132	3062
915.245	3176
915.358	3211
915.47	3214
915.583	3260
915.696	3325
915.809	3412
915.921	3409
916.034	3283
916.146	3233
916.259	3233
916.371	3382
916.483	3378
916.595	3233
916.708	3332
916.82	3351
916.932	3355
917.044	3332
917.156	3359
917.268	3249
917.38	3313
917.491	3279
917.603	3359
917.715	3454
917.826	3462
917.938	3382
918.049	3264
918.161	3431
918.272	3561
918.384	3580
918.495	3496
918.606	3340
918.717	3302
918.828	3367
918.939	3424
919.05	3287
919.161	3367
919.272	3169
919.383	3287
919.494	3534
919.604	3671
919.715	3447
919.826	3428
919.936	3454
920.047	3564
920.157	3576
920.267	3778
920.378	3576
920.488	3595
920.598	3781
920.708	3956
920.818	3812
920.928	3846
921.038	3987
921.148	4032
921.258	3686
921.368	3652
921.477	3584
921.587	3511
921.697	3447
921.806	3637
921.916	3534
922.025	3363
922.134	3397
922.244	3302
922.353	3409
922.462	3275
922.571	3226
922.68	3104
922.789	3127
922.898	3180
923.007	3161
923.116	3230
923.224	3169
923.333	3154
923.442	3100
923.55	3131
923.659	3165
923.767	3230
923.876	3135
923.984	3249
924.092	3135
924.201	3207
924.309	3222
924.417	3256
924.525	3199
924.633	3222
924.741	4234
924.849	3047
924.956	3294
925.064	3119
925.172	3013
925.279	3100
925.387	3203
925.494	3169
925.602	3355
925.709	3325
925.816	3226
925.924	3287
926.031	3386
926.138	3321
926.245	3351
926.352	3272
926.459	3439
926.566	3481
926.673	3325
926.779	3275
926.886	3294
926.993	3142
927.099	3169
927.206	3116
927.312	3104
927.419	3245
927.525	3169
927.631	3245
927.737	3150
927.843	3119
927.95	3074
928.056	3119
928.162	3195
928.267	3275
928.373	3873
928.479	3317
928.585	3085
928.69	3211
928.796	3275
928.901	3184
929.007	3043
929.112	3211
929.218	3195
929.323	3161
929.428	3176
929.533	3313
929.638	3123
929.743	3176
929.848	3275
929.953	3230
930.058	3138
930.163	2967
930.267	3039
930.372	3165
930.477	3051
930.581	3359
930.685	3169
930.79	3089
930.894	3123
930.998	3142
931.103	3253
931.207	2956
931.311	2937
931.415	2899
931.519	2807
931.623	2807
