Data from test_V78500241_1485.txt Node
Date: Fri Mar 25 16:25:29 CST 2022
User: usil
Spectrometer: V785-0024
Trigger mode: 0
Integration Time (sec): 4.000000E-1
Scans to average: 1
Nonlinearity correction enabled: false
Boxcar width: 0
Storing dark spectrum: false
XAxis mode: Wavelengths
Number of Pixels in Spectrum: 1024
>>>>>Begin Spectral Data<<<<<
801.071	2876
801.214	2986
801.356	2826
801.499	2918
801.641	2823
801.783	2933
801.926	3055
802.068	2982
802.211	3009
802.353	2998
802.496	2979
802.638	2960
802.78	3028
802.923	3039
803.065	3017
803.208	2864
803.35	2910
803.492	2937
803.635	2925
803.777	2777
803.919	2849
804.061	3188
804.204	2918
804.346	2887
804.488	2849
804.63	2956
804.773	2895
804.915	2914
805.057	3051
805.199	2929
805.341	2975
805.483	3062
805.626	2990
805.768	2960
805.91	3058
806.052	3138
806.194	3028
806.336	3226
806.478	3024
806.62	2979
806.762	2960
806.904	2998
807.046	3157
807.188	2971
807.33	2937
807.472	2971
807.614	2880
807.756	3020
807.898	2925
808.04	2899
808.182	3001
808.324	2910
808.465	2910
808.607	2872
808.749	2766
808.891	2842
809.033	2929
809.174	2975
809.316	2895
809.458	2872
809.6	2792
809.741	2777
809.883	2781
810.025	2857
810.166	2868
810.308	2826
810.45	2861
810.591	2758
810.733	2777
810.875	2857
811.016	2746
811.158	2739
811.299	2826
811.441	2895
811.582	2922
811.724	2819
811.865	2819
812.007	2937
812.148	2861
812.29	2857
812.431	2902
812.573	2960
812.714	2960
812.855	3028
812.997	3047
813.138	3123
813.279	3017
813.421	2979
813.562	2960
813.703	2857
813.845	2891
813.986	2781
814.127	2724
814.268	2785
814.41	2842
814.551	2823
814.692	2864
814.833	2804
814.974	2929
815.115	2960
815.256	2796
815.397	2823
815.539	2868
815.68	2762
815.821	2819
815.962	2967
816.103	2925
816.244	2883
816.385	2876
816.526	2963
816.666	2910
816.807	2766
816.948	2914
817.089	2883
817.23	2834
817.371	2777
817.512	2788
817.653	2807
817.793	2815
817.934	2872
818.075	2948
818.216	2963
818.356	3013
818.497	2868
818.638	2777
818.778	2815
818.919	2796
819.06	2739
819.2	2864
819.341	2807
819.481	2807
819.622	2960
819.762	3089
819.903	3013
820.043	2929
820.184	2902
820.324	2910
820.465	3001
820.605	3058
820.746	3013
820.886	2922
821.026	3093
821.167	3150
821.307	3260
821.447	3275
821.588	3264
821.728	3192
821.868	3176
822.008	3043
822.149	3161
822.289	3222
822.429	3089
822.569	3089
822.709	3176
822.849	3020
822.99	3074
823.13	3173
823.27	3233
823.41	3070
823.55	3123
823.69	3165
823.83	3199
823.97	3116
824.11	3066
824.25	2994
824.389	3062
824.529	3100
824.669	3017
824.809	3199
824.949	3241
825.089	3249
825.228	3138
825.368	2994
825.508	2922
825.648	2967
825.787	3017
825.927	2998
826.067	2937
826.206	2944
826.346	3055
826.485	3070
826.625	3146
826.765	3279
826.904	3203
827.044	2982
827.183	2906
827.323	2872
827.462	2941
827.601	2906
827.741	2910
827.88	2941
828.02	2868
828.159	2960
828.298	3005
828.437	3104
828.577	3036
828.716	3222
828.855	3093
828.994	2880
829.134	2902
829.273	2925
829.412	2845
829.551	2807
829.69	2925
829.829	2998
829.968	3131
830.107	2994
830.246	2998
830.385	2948
830.524	2842
830.663	2811
830.802	2686
830.941	2651
831.08	2667
831.219	2750
831.357	2743
831.496	2914
831.635	2693
831.774	2648
831.913	2682
832.051	2526
832.19	2571
832.329	2701
832.467	2518
832.606	2503
832.744	2579
832.883	2549
833.022	2549
833.16	2674
833.299	2678
833.437	2670
833.576	2712
833.714	2712
833.852	2727
833.991	2750
834.129	2845
834.267	2823
834.406	2811
834.544	2861
834.682	2883
834.821	2857
834.959	3070
835.097	2876
835.235	3047
835.373	3013
835.511	2998
835.65	2952
835.788	2937
835.926	2800
836.064	2807
836.202	2838
836.34	3093
836.478	3195
836.615	3024
836.753	3135
836.891	3207
837.029	3173
837.167	3123
837.305	3032
837.443	3020
837.58	2960
837.718	3100
837.856	3039
837.993	3005
838.131	3123
838.269	3085
838.406	3138
838.544	3074
838.681	2948
838.819	2918
838.956	2819
839.094	2849
839.231	2868
839.369	3028
839.506	3428
839.643	3176
839.781	2994
839.918	2952
840.055	3051
840.193	3036
840.33	3062
840.467	3074
840.604	3119
840.742	3409
840.879	3036
841.016	3032
841.153	3157
841.29	3363
841.427	3287
841.564	3226
841.701	3264
841.838	3176
841.975	3150
842.112	3165
842.249	3104
842.385	3043
842.522	3253
842.659	3051
842.796	3032
842.933	3081
843.069	3039
843.206	3066
843.343	3123
843.479	3077
843.616	3108
843.752	2902
843.889	2853
844.025	3074
844.162	2895
844.298	3093
844.435	2975
844.571	2929
844.708	3062
844.844	3192
844.98	3222
845.117	3195
845.253	3051
845.389	3013
845.525	3070
845.661	3100
845.798	3028
845.934	3119
846.07	3028
846.206	3203
846.342	3283
846.478	3226
846.614	3085
846.75	3055
846.886	2975
847.022	3214
847.158	3108
847.294	3176
847.429	3222
847.565	3157
847.701	3458
847.837	3013
847.972	2982
848.108	3150
848.244	3097
848.379	2956
848.515	2948
848.65	2918
848.786	2975
848.921	2975
849.057	3100
849.192	3165
849.328	3077
849.463	3119
849.598	3055
849.734	3036
849.869	2975
850.004	2891
850.14	2986
850.275	2902
850.41	2872
850.545	2868
850.68	2933
850.815	2941
850.95	2960
851.085	3184
851.22	3123
851.355	3066
851.49	2967
851.625	3001
851.76	3024
851.895	2925
852.03	2887
852.165	3020
852.299	3070
852.434	3173
852.569	3142
852.703	3188
852.838	3260
852.973	3329
853.107	3298
853.242	3165
853.376	3100
853.511	2941
853.645	3070
853.78	3176
853.914	3100
854.048	3097
854.183	3127
854.317	3116
854.451	3272
854.585	3116
854.72	3100
854.854	3165
854.988	3036
855.122	3097
855.256	2979
855.39	3097
855.524	3203
855.658	3142
855.792	3131
855.926	3173
856.06	3192
856.194	3279
856.327	3142
856.461	3047
856.595	3074
856.729	3074
856.862	3176
856.996	3127
857.13	3211
857.263	3249
857.397	3260
857.53	3116
857.664	3203
857.797	3253
857.931	3249
858.064	3161
858.197	3169
858.331	3173
858.464	3100
858.597	2994
858.731	3112
858.864	3116
858.997	3100
859.13	3131
859.263	3237
859.396	3188
859.529	3074
859.662	3074
859.795	3043
859.928	3142
860.061	3287
860.194	3272
860.327	3131
860.46	3066
860.592	3226
860.725	3218
860.858	3241
860.99	3081
861.123	3062
861.256	3017
861.388	3161
861.521	3854
861.653	2975
861.786	2975
861.918	2971
862.05	3089
862.183	3097
862.315	3169
862.447	3195
862.58	3043
862.712	2937
862.844	2876
862.976	3005
863.108	3036
863.24	3325
863.372	2857
863.504	2982
863.636	2929
863.768	3043
863.9	2967
864.032	2922
864.164	2941
864.296	3013
864.428	3097
864.559	3070
864.691	3055
864.823	3093
864.954	3074
865.086	3051
865.217	2933
865.349	2952
865.48	2994
865.612	3005
865.743	3142
865.875	2990
866.006	2941
866.137	2990
866.269	2933
866.4	2922
866.531	2864
866.662	2906
866.793	2895
866.924	2887
867.055	2967
867.186	2902
867.317	2910
867.448	2807
867.579	2830
867.71	2902
867.841	2834
867.972	2895
868.103	2902
868.233	2887
868.364	2872
868.495	2880
868.625	3097
868.756	3135
868.886	2960
869.017	3005
869.147	3157
869.278	3173
869.408	3028
869.539	3017
869.669	3100
869.799	3036
869.929	3127
870.06	3116
870.19	3351
870.32	3340
870.45	3298
870.58	3386
870.71	3450
870.84	3496
870.97	3283
871.1	3245
871.23	3485
871.36	3458
871.489	3389
871.619	3374
871.749	3393
871.879	3458
872.008	3454
872.138	3317
872.267	3275
872.397	3100
872.526	3093
872.656	2998
872.785	3051
872.915	3226
873.044	3268
873.173	3192
873.303	3253
873.432	3245
873.561	3211
873.69	3150
873.819	3112
873.948	3173
874.077	3123
874.206	2990
874.335	3070
874.464	3218
874.593	3340
874.722	3279
874.851	3405
874.979	3321
875.108	3294
875.237	3188
875.365	3161
875.494	3173
875.623	3260
875.751	3074
875.88	3123
876.008	3192
876.136	3237
876.265	3302
876.393	3488
876.521	3409
876.65	3397
876.778	3283
876.906	3253
877.034	3180
877.162	3199
877.29	3188
877.418	3230
877.546	3222
877.674	3237
877.802	3214
877.93	3195
878.058	3138
878.185	3119
878.313	3207
878.441	3199
878.568	3036
878.696	3097
878.824	3233
878.951	3272
879.079	3454
879.206	3660
879.333	3431
879.461	3321
879.588	3344
879.715	3473
879.842	3580
879.97	3351
880.097	3142
880.224	3097
880.351	3188
880.478	3237
880.605	3165
880.732	3180
880.859	3504
880.986	3291
881.112	3317
881.239	3169
881.366	3089
881.493	3036
881.619	2990
881.746	3085
881.872	3055
881.999	3108
882.125	3104
882.252	3188
882.378	3294
882.505	3409
882.631	3264
882.757	3169
882.883	3253
883.01	3230
883.136	3169
883.262	3047
883.388	3100
883.514	3313
883.64	3367
883.766	3272
883.892	3173
884.018	3237
884.143	3393
884.269	3568
884.395	3195
884.52	3176
884.646	3119
884.772	3089
884.897	3108
885.023	3176
885.148	3325
885.274	3393
885.399	3367
885.524	3268
885.65	3272
885.775	3298
885.9	3325
886.025	3424
886.15	3367
886.275	3268
886.4	3211
886.525	3298
886.65	3272
886.775	3291
886.9	3443
887.025	3606
887.149	3428
887.274	3241
887.399	3188
887.523	3199
887.648	3161
887.773	3195
887.897	3351
888.021	3412
888.146	3302
888.27	3386
888.395	3526
888.519	3450
888.643	3416
888.767	3454
888.891	3329
889.015	3230
889.139	3298
889.263	3230
889.387	3412
889.511	3507
889.635	3454
889.759	3268
889.883	3279
890.006	3374
890.13	3511
890.254	3272
890.377	3355
890.501	3180
890.624	3165
890.748	3298
890.871	3180
890.995	3093
891.118	3093
891.241	3146
891.364	3226
891.488	3329
891.611	3176
891.734	3192
891.857	3256
891.98	3245
892.103	3351
892.226	3287
892.349	3169
892.471	3123
892.594	3245
892.717	3332
892.839	3218
892.962	3287
893.085	3363
893.207	3264
893.33	3112
893.452	3203
893.575	3348
893.697	3207
893.819	3462
893.941	3488
894.064	3466
894.186	3256
894.308	3241
894.43	3428
894.552	3538
894.674	3450
894.796	3272
894.918	3253
895.04	3275
895.161	3401
895.283	3409
895.405	3306
895.526	3340
895.648	3389
895.769	3382
895.891	3477
896.012	3488
896.134	3450
896.255	3405
896.376	3332
896.498	3367
896.619	3397
896.74	3367
896.861	3416
896.982	3641
897.103	3808
897.224	3591
897.345	3496
897.466	3428
897.587	3458
897.708	3637
897.828	3523
897.949	3439
898.07	3344
898.19	3412
898.311	3587
898.431	3462
898.552	3488
898.672	3580
898.792	3587
898.913	3504
899.033	3378
899.153	3279
899.273	3218
899.393	3245
899.513	3310
899.633	3317
899.753	3329
899.873	3306
899.993	3374
900.113	3329
900.232	3359
900.352	3325
900.472	3283
900.591	3230
900.711	3287
900.83	3241
900.95	3443
901.069	3485
901.189	3367
901.308	3188
901.427	3108
901.546	3203
901.665	3268
901.784	3279
901.904	3226
902.023	3142
902.141	2998
902.26	2994
902.379	3169
902.498	3070
902.617	3020
902.735	3245
902.854	3176
902.973	3192
903.091	3047
903.21	3070
903.328	3112
903.446	3123
903.565	3100
903.683	3207
903.801	3116
903.919	3230
904.038	3256
904.156	3176
904.274	3287
904.392	3279
904.51	3291
904.627	3344
904.745	3412
904.863	3473
904.981	3245
905.098	3188
905.216	3218
905.334	3287
905.451	3283
905.569	3268
905.686	3401
905.803	3428
905.921	3279
906.038	3367
906.155	3340
906.272	3291
906.389	3302
906.506	3245
906.623	3268
906.74	3260
906.857	3207
906.974	3287
907.091	3431
907.208	3526
907.324	3439
907.441	3378
907.557	3230
907.674	3233
907.79	3199
907.907	3237
908.023	3351
908.139	3359
908.256	3313
908.372	3325
908.488	3332
908.604	3279
908.72	3211
908.836	3249
908.952	3306
909.068	3355
909.184	3500
909.3	3382
909.415	3511
909.531	3450
909.647	3256
909.762	3275
909.878	3268
909.993	3367
910.108	3317
910.224	3325
910.339	3378
910.454	3302
910.57	3279
910.685	3211
910.8	3568
910.915	3507
911.03	3450
911.145	3272
911.259	3264
911.374	3332
911.489	3222
911.604	3230
911.718	3104
911.833	3138
911.947	3001
912.062	2948
912.176	3116
912.291	3203
912.405	3211
912.519	3382
912.633	3412
912.748	3332
912.862	3245
912.976	3188
913.09	3074
913.204	3108
913.318	3199
913.431	3317
913.545	3340
913.659	3389
913.772	3340
913.886	3237
914	3211
914.113	3351
914.226	3382
914.34	3363
914.453	3230
914.566	3382
914.68	3241
914.793	3317
914.906	3135
915.019	3043
915.132	3039
915.245	3188
915.358	3157
915.47	3192
915.583	3222
915.696	3275
915.809	3435
915.921	3424
916.034	3237
916.146	3241
916.259	3195
916.371	3348
916.483	3348
916.595	3245
916.708	3310
916.82	3317
916.932	3317
917.044	3382
917.156	3329
917.268	3226
917.38	3310
917.491	3306
917.603	3370
917.715	3435
917.826	3458
917.938	3363
918.049	3264
918.161	3435
918.272	3584
918.384	3595
918.495	3511
918.606	3317
918.717	3298
918.828	3393
918.939	3428
919.05	3302
919.161	3401
919.272	3184
919.383	3336
919.494	3507
919.604	3732
919.715	3481
919.826	3424
919.936	3488
920.047	3603
920.157	3587
920.267	3823
920.378	3595
920.488	3580
920.598	3800
920.708	3983
920.818	3823
920.928	3827
921.038	4074
921.148	4048
921.258	3781
921.368	3648
921.477	3603
921.587	3576
921.697	3492
921.806	3698
921.916	3561
922.025	3378
922.134	3412
922.244	3355
922.353	3435
922.462	3275
922.571	3283
922.68	3173
922.789	3093
922.898	3195
923.007	3142
923.116	3230
923.224	3230
923.333	3233
923.442	3180
923.55	3161
923.659	3195
923.767	3321
923.876	3173
923.984	3275
924.092	3165
924.201	3226
924.309	3268
924.417	3317
924.525	3211
924.633	3287
924.741	4219
924.849	3093
924.956	3287
925.064	3112
925.172	3058
925.279	3135
925.387	3233
925.494	3253
925.602	3367
925.709	3306
925.816	3245
925.924	3306
926.031	3412
926.138	3329
926.245	3409
926.352	3268
926.459	3492
926.566	3466
926.673	3378
926.779	3313
926.886	3283
926.993	3203
927.099	3169
927.206	3138
927.312	3165
927.419	3268
927.525	3222
927.631	3310
927.737	3188
927.843	3154
927.95	3047
928.056	3169
928.162	3203
928.267	3363
928.373	3812
928.479	3340
928.585	3116
928.69	3233
928.796	3279
928.901	3195
929.007	3089
929.112	3241
929.218	3222
929.323	3226
929.428	3195
929.533	3329
929.638	3116
929.743	3237
929.848	3321
929.953	3214
930.058	3173
930.163	3009
930.267	3085
930.372	3203
930.477	3093
930.581	3401
930.685	3214
930.79	3112
930.894	3150
930.998	3138
931.103	3329
931.207	2998
931.311	2952
931.415	2929
931.519	2834
931.623	2857
