Data from test_V78500241_1024.txt Node
Date: Fri Mar 25 16:22:17 CST 2022
User: usil
Spectrometer: V785-0024
Trigger mode: 0
Integration Time (sec): 4.000000E-1
Scans to average: 1
Nonlinearity correction enabled: false
Boxcar width: 0
Storing dark spectrum: false
XAxis mode: Wavelengths
Number of Pixels in Spectrum: 1024
>>>>>Begin Spectral Data<<<<<
801.071	2918
801.214	2960
801.356	2849
801.499	2902
801.641	2819
801.783	2918
801.926	3043
802.068	2956
802.211	3009
802.353	3036
802.496	2963
802.638	3009
802.78	3036
802.923	3108
803.065	3024
803.208	2929
803.35	2876
803.492	2925
803.635	2929
803.777	2766
803.919	2868
804.061	3180
804.204	2979
804.346	2899
804.488	2830
804.63	2986
804.773	2880
804.915	2944
805.057	3108
805.199	2952
805.341	2960
805.483	3058
805.626	2986
805.768	2952
805.91	3070
806.052	3093
806.194	3055
806.336	3203
806.478	3024
806.62	2960
806.762	2994
806.904	3020
807.046	3157
807.188	2979
807.33	2944
807.472	3001
807.614	2937
807.756	2952
807.898	2948
808.04	2914
808.182	2967
808.324	2941
808.465	2838
808.607	2899
808.749	2769
808.891	2819
809.033	3005
809.174	2960
809.316	2883
809.458	2880
809.6	2785
809.741	2804
809.883	2762
810.025	2845
810.166	2838
810.308	2842
810.45	2872
810.591	2788
810.733	2766
810.875	2823
811.016	2826
811.158	2758
811.299	2804
811.441	2925
811.582	2895
811.724	2830
811.865	2842
812.007	2910
812.148	2883
812.29	2876
812.431	2883
812.573	2929
812.714	2956
812.855	3039
812.997	3070
813.138	3093
813.279	3024
813.421	3036
813.562	2948
813.703	2891
813.845	2918
813.986	2773
814.127	2731
814.268	2804
814.41	2823
814.551	2796
814.692	2891
814.833	2842
814.974	2883
815.115	2971
815.256	2819
815.397	2796
815.539	2880
815.68	2773
815.821	2811
815.962	2933
816.103	2933
816.244	2861
816.385	2872
816.526	2971
816.666	2914
816.807	2743
816.948	2887
817.089	2902
817.23	2857
817.371	2785
817.512	2807
817.653	2864
817.793	2830
817.934	2887
818.075	2952
818.216	3017
818.356	3017
818.497	2872
818.638	2804
818.778	2826
818.919	2788
819.06	2743
819.2	2864
819.341	2819
819.481	2838
819.622	2933
819.762	3100
819.903	3047
820.043	2925
820.184	2910
820.324	2864
820.465	3009
820.605	3005
820.746	3009
820.886	2933
821.026	3112
821.167	3138
821.307	3268
821.447	3279
821.588	3233
821.728	3169
821.868	3161
822.008	3089
822.149	3165
822.289	3203
822.429	3108
822.569	3093
822.709	3199
822.849	3028
822.99	3085
823.13	3188
823.27	3203
823.41	3085
823.55	3142
823.69	3138
823.83	3173
823.97	3085
824.11	3001
824.25	2998
824.389	3062
824.529	3116
824.669	3089
824.809	3207
824.949	3256
825.089	3199
825.228	3161
825.368	3001
825.508	2944
825.648	2933
825.787	3024
825.927	3039
826.067	2937
826.206	2941
826.346	3047
826.485	3058
826.625	3104
826.765	3245
826.904	3192
827.044	3024
827.183	2929
827.323	2857
827.462	2975
827.601	2925
827.741	2899
827.88	2944
828.02	2861
828.159	2971
828.298	2998
828.437	3100
828.577	3039
828.716	3253
828.855	3066
828.994	2902
829.134	2891
829.273	2929
829.412	2876
829.551	2807
829.69	2906
829.829	2971
829.968	3116
830.107	2998
830.246	3036
830.385	2929
830.524	2918
830.663	2811
830.802	2724
830.941	2602
831.08	2667
831.219	2785
831.357	2735
831.496	2975
831.635	2720
831.774	2640
831.913	2659
832.051	2579
832.19	2571
832.329	2667
832.467	2522
832.606	2469
832.744	2602
832.883	2587
833.022	2583
833.16	2640
833.299	2731
833.437	2655
833.576	2716
833.714	2724
833.852	2697
833.991	2769
834.129	2826
834.267	2830
834.406	2796
834.544	2883
834.682	2849
834.821	2857
834.959	3047
835.097	2925
835.235	3024
835.373	2998
835.511	2975
835.65	2960
835.788	2933
835.926	2861
836.064	2807
836.202	2834
836.34	3089
836.478	3157
836.615	3020
836.753	3077
836.891	3218
837.029	3188
837.167	3093
837.305	3074
837.443	3055
837.58	2975
837.718	3157
837.856	3097
837.993	3024
838.131	3100
838.269	3119
838.406	3112
838.544	3100
838.681	2910
838.819	2922
838.956	2826
839.094	2864
839.231	2910
839.369	3051
839.506	3317
839.643	3211
839.781	3032
839.918	2960
840.055	3062
840.193	3020
840.33	3116
840.467	3108
840.604	3131
840.742	3374
840.879	3047
841.016	3055
841.153	3104
841.29	3355
841.427	3283
841.564	3222
841.701	3329
841.838	3214
841.975	3150
842.112	3237
842.249	3055
842.385	3055
842.522	3249
842.659	3058
842.796	3043
842.933	3097
843.069	3055
843.206	3028
843.343	3192
843.479	3100
843.616	3146
843.752	2876
843.889	2861
844.025	3074
844.162	2895
844.298	3089
844.435	2941
844.571	2918
844.708	3062
844.844	3157
844.98	3249
845.117	3226
845.253	3013
845.389	3017
845.525	3104
845.661	3093
845.798	3013
845.934	3142
846.07	3036
846.206	3218
846.342	3306
846.478	3203
846.614	3051
846.75	3058
846.886	3017
847.022	3249
847.158	3131
847.294	3211
847.429	3256
847.565	3222
847.701	3500
847.837	3024
847.972	3028
848.108	3154
848.244	3135
848.379	2956
848.515	2960
848.65	2922
848.786	2967
848.921	3028
849.057	3070
849.192	3146
849.328	3051
849.463	3146
849.598	3074
849.734	3020
849.869	2963
850.004	2922
850.14	2975
850.275	2899
850.41	2819
850.545	2830
850.68	2899
850.815	2975
850.95	2960
851.085	3192
851.22	3077
851.355	3032
851.49	2979
851.625	2998
851.76	2994
851.895	2937
852.03	2910
852.165	3032
852.299	3100
852.434	3161
852.569	3123
852.703	3138
852.838	3264
852.973	3336
853.107	3313
853.242	3180
853.376	3051
853.511	2952
853.645	3028
853.78	3195
853.914	3112
854.048	3074
854.183	3089
854.317	3131
854.451	3291
854.585	3123
854.72	3097
854.854	3169
854.988	3062
855.122	3070
855.256	2952
855.39	3108
855.524	3237
855.658	3142
855.792	3138
855.926	3150
856.06	3222
856.194	3249
856.327	3173
856.461	3055
856.595	3066
856.729	3066
856.862	3218
856.996	3199
857.13	3207
857.263	3256
857.397	3253
857.53	3081
857.664	3157
857.797	3245
857.931	3275
858.064	3157
858.197	3173
858.331	3169
858.464	3089
858.597	3024
858.731	3123
858.864	3146
858.997	3055
859.13	3169
859.263	3203
859.396	3188
859.529	3081
859.662	3093
859.795	3039
859.928	3123
860.061	3264
860.194	3275
860.327	3119
860.46	3062
860.592	3249
860.725	3245
860.858	3245
860.99	3074
861.123	3055
861.256	3051
861.388	3176
861.521	3827
861.653	3005
861.786	2990
861.918	3005
862.05	3077
862.183	3104
862.315	3169
862.447	3173
862.58	3055
862.712	2979
862.844	2864
862.976	3039
863.108	2967
863.24	3397
863.372	2857
863.504	2937
863.636	2982
863.768	3013
863.9	2998
864.032	2914
864.164	2933
864.296	2979
864.428	3085
864.559	3058
864.691	3039
864.823	3051
864.954	3020
865.086	3020
865.217	3005
865.349	2941
865.48	2967
865.612	2967
865.743	3123
865.875	2948
866.006	2914
866.137	3005
866.269	2937
866.4	2941
866.531	2948
866.662	2887
866.793	2868
866.924	2910
867.055	2975
867.186	2876
867.317	2887
867.448	2838
867.579	2849
867.71	2857
867.841	2800
867.972	2902
868.103	2906
868.233	2883
868.364	2864
868.495	2872
868.625	3039
868.756	3097
868.886	2994
869.017	3047
869.147	3188
869.278	3184
869.408	3036
869.539	2994
869.669	3100
869.799	3028
869.929	3169
870.06	3112
870.19	3336
870.32	3264
870.45	3310
870.58	3393
870.71	3424
870.84	3439
870.97	3283
871.1	3249
871.23	3500
871.36	3412
871.489	3348
871.619	3382
871.749	3386
871.879	3466
872.008	3439
872.138	3344
872.267	3253
872.397	3150
872.526	3112
872.656	3043
872.785	3093
872.915	3211
873.044	3329
873.173	3230
873.303	3230
873.432	3214
873.561	3275
873.69	3150
873.819	3100
873.948	3184
874.077	3062
874.206	3039
874.335	3085
874.464	3226
874.593	3359
874.722	3192
874.851	3397
874.979	3332
875.108	3291
875.237	3188
875.365	3173
875.494	3154
875.623	3260
875.751	3116
875.88	3104
876.008	3184
876.136	3214
876.265	3355
876.393	3526
876.521	3397
876.65	3393
876.778	3340
876.906	3268
877.034	3165
877.162	3222
877.29	3203
877.418	3272
877.546	3279
877.674	3256
877.802	3233
877.93	3214
878.058	3135
878.185	3093
878.313	3180
878.441	3184
878.568	3051
878.696	3180
878.824	3237
878.951	3348
879.079	3458
879.206	3610
879.333	3382
879.461	3310
879.588	3348
879.715	3515
879.842	3538
879.97	3393
880.097	3142
880.224	3150
880.351	3176
880.478	3195
880.605	3184
880.732	3157
880.859	3477
880.986	3321
881.112	3294
881.239	3214
881.366	3123
881.493	3047
881.619	2994
881.746	3066
881.872	3066
881.999	3135
882.125	3135
882.252	3245
882.378	3272
882.505	3420
882.631	3313
882.757	3165
882.883	3218
883.01	3207
883.136	3176
883.262	3112
883.388	3131
883.514	3332
883.64	3370
883.766	3287
883.892	3218
884.018	3226
884.143	3416
884.269	3538
884.395	3214
884.52	3142
884.646	3192
884.772	3116
884.897	3100
885.023	3218
885.148	3321
885.274	3416
885.399	3374
885.524	3256
885.65	3249
885.775	3298
885.9	3256
886.025	3420
886.15	3363
886.275	3275
886.4	3211
886.525	3310
886.65	3230
886.775	3249
886.9	3500
887.025	3633
887.149	3370
887.274	3253
887.399	3184
887.523	3192
887.648	3226
887.773	3184
887.897	3340
888.021	3370
888.146	3291
888.27	3405
888.395	3496
888.519	3431
888.643	3473
888.767	3428
888.891	3306
889.015	3211
889.139	3310
889.263	3287
889.387	3378
889.511	3519
889.635	3450
889.759	3253
889.883	3298
890.006	3363
890.13	3462
890.254	3272
890.377	3355
890.501	3150
890.624	3222
890.748	3264
890.871	3180
890.995	3112
891.118	3047
891.241	3176
891.364	3207
891.488	3336
891.611	3188
891.734	3211
891.857	3275
891.98	3222
892.103	3325
892.226	3279
892.349	3230
892.471	3142
892.594	3237
892.717	3256
892.839	3279
892.962	3283
893.085	3359
893.207	3291
893.33	3146
893.452	3249
893.575	3348
893.697	3249
893.819	3500
893.941	3469
894.064	3424
894.186	3294
894.308	3279
894.43	3412
894.552	3564
894.674	3462
894.796	3260
894.918	3294
895.04	3302
895.161	3431
895.283	3412
895.405	3291
895.526	3340
895.648	3393
895.769	3416
895.891	3447
896.012	3469
896.134	3454
896.255	3405
896.376	3389
896.498	3348
896.619	3416
896.74	3340
896.861	3389
896.982	3652
897.103	3835
897.224	3576
897.345	3530
897.466	3409
897.587	3462
897.708	3625
897.828	3519
897.949	3428
898.07	3348
898.19	3393
898.311	3606
898.431	3420
898.552	3466
898.672	3568
898.792	3564
898.913	3485
899.033	3401
899.153	3321
899.273	3230
899.393	3260
899.513	3313
899.633	3279
899.753	3317
899.873	3317
899.993	3386
900.113	3348
900.232	3367
900.352	3321
900.472	3253
900.591	3207
900.711	3294
900.83	3253
900.95	3428
901.069	3431
901.189	3294
901.308	3165
901.427	3138
901.546	3161
901.665	3275
901.784	3336
901.904	3188
902.023	3169
902.141	3005
902.26	3013
902.379	3112
902.498	3085
902.617	3066
902.735	3195
902.854	3207
902.973	3195
903.091	3028
903.21	3058
903.328	3138
903.446	3116
903.565	3116
903.683	3218
903.801	3127
903.919	3237
904.038	3253
904.156	3165
904.274	3298
904.392	3264
904.51	3294
904.627	3325
904.745	3409
904.863	3477
904.981	3237
905.098	3169
905.216	3233
905.334	3256
905.451	3325
905.569	3298
905.686	3386
905.803	3443
905.921	3283
906.038	3431
906.155	3367
906.272	3237
906.389	3359
906.506	3214
906.623	3283
906.74	3283
906.857	3195
906.974	3211
907.091	3454
907.208	3542
907.324	3462
907.441	3386
907.557	3203
907.674	3237
907.79	3195
907.907	3256
908.023	3382
908.139	3382
908.256	3389
908.372	3363
908.488	3344
908.604	3264
908.72	3268
908.836	3253
908.952	3275
909.068	3310
909.184	3504
909.3	3370
909.415	3485
909.531	3462
909.647	3275
909.762	3264
909.878	3283
909.993	3351
910.108	3321
910.224	3317
910.339	3424
910.454	3332
910.57	3268
910.685	3199
910.8	3568
910.915	3526
911.03	3431
911.145	3287
911.259	3302
911.374	3348
911.489	3237
911.604	3176
911.718	3146
911.833	3146
911.947	3020
912.062	3001
912.176	3192
912.291	3188
912.405	3188
912.519	3428
912.633	3458
912.748	3336
912.862	3253
912.976	3150
913.09	3058
913.204	3150
913.318	3237
913.431	3321
913.545	3336
913.659	3374
913.772	3329
913.886	3211
914	3199
914.113	3340
914.226	3401
914.34	3382
914.453	3195
914.566	3428
914.68	3313
914.793	3329
914.906	3165
915.019	3131
915.132	3081
915.245	3154
915.358	3188
915.47	3264
915.583	3237
915.696	3291
915.809	3382
915.921	3416
916.034	3253
916.146	3249
916.259	3241
916.371	3336
916.483	3397
916.595	3237
916.708	3313
916.82	3313
916.932	3321
917.044	3378
917.156	3336
917.268	3253
917.38	3275
917.491	3283
917.603	3363
917.715	3485
917.826	3450
917.938	3386
918.049	3279
918.161	3443
918.272	3580
918.384	3564
918.495	3496
918.606	3332
918.717	3287
918.828	3393
918.939	3378
919.05	3264
919.161	3344
919.272	3169
919.383	3294
919.494	3507
919.604	3644
919.715	3443
919.826	3420
919.936	3458
920.047	3614
920.157	3519
920.267	3743
920.378	3618
920.488	3580
920.598	3766
920.708	3945
920.818	3778
920.928	3812
921.038	3979
921.148	3975
921.258	3679
921.368	3633
921.477	3591
921.587	3549
921.697	3485
921.806	3625
921.916	3485
922.025	3351
922.134	3340
922.244	3382
922.353	3428
922.462	3249
922.571	3207
922.68	3100
922.789	3043
922.898	3123
923.007	3138
923.116	3195
923.224	3192
923.333	3176
923.442	3112
923.55	3081
923.659	3165
923.767	3241
923.876	3104
923.984	3230
924.092	3116
924.201	3169
924.309	3195
924.417	3256
924.525	3180
924.633	3260
924.741	4227
924.849	3051
924.956	3211
925.064	3077
925.172	3028
925.279	3112
925.387	3195
925.494	3211
925.602	3329
925.709	3302
925.816	3169
925.924	3317
926.031	3389
926.138	3332
926.245	3344
926.352	3253
926.459	3412
926.566	3454
926.673	3302
926.779	3275
926.886	3218
926.993	3135
927.099	3112
927.206	3100
927.312	3127
927.419	3211
927.525	3237
927.631	3275
927.737	3165
927.843	3116
927.95	3028
928.056	3150
928.162	3184
928.267	3287
928.373	3850
928.479	3268
928.585	3036
928.69	3199
928.796	3264
928.901	3154
929.007	3032
929.112	3192
929.218	3157
929.323	3180
929.428	3127
929.533	3321
929.638	3142
929.743	3184
929.848	3268
929.953	3214
930.058	3119
930.163	2998
930.267	3032
930.372	3180
930.477	3047
930.581	3294
930.685	3195
930.79	3047
930.894	3123
930.998	3081
931.103	3249
931.207	2948
931.311	2933
931.415	2914
931.519	2781
931.623	2785
