Data from test_V78500241_401.txt Node
Date: Fri Mar 25 16:17:58 CST 2022
User: usil
Spectrometer: V785-0024
Trigger mode: 0
Integration Time (sec): 4.000000E-1
Scans to average: 1
Nonlinearity correction enabled: false
Boxcar width: 0
Storing dark spectrum: false
XAxis mode: Wavelengths
Number of Pixels in Spectrum: 1024
>>>>>Begin Spectral Data<<<<<
801.071	2922
801.214	2937
801.356	2902
801.499	2891
801.641	2849
801.783	2906
801.926	3043
802.068	2922
802.211	2979
802.353	3005
802.496	2948
802.638	2971
802.78	3032
802.923	3077
803.065	2990
803.208	2891
803.35	2849
803.492	2914
803.635	2895
803.777	2788
803.919	2853
804.061	3188
804.204	2906
804.346	2899
804.488	2857
804.63	2998
804.773	2868
804.915	2914
805.057	3055
805.199	2906
805.341	2937
805.483	3001
805.626	2990
805.768	2948
805.91	3097
806.052	3089
806.194	3013
806.336	3207
806.478	2998
806.62	2971
806.762	2952
806.904	3028
807.046	3154
807.188	2975
807.33	2914
807.472	3009
807.614	2895
807.756	2994
807.898	2914
808.04	2910
808.182	2960
808.324	2952
808.465	2845
808.607	2899
808.749	2792
808.891	2834
809.033	2982
809.174	2929
809.316	2876
809.458	2902
809.6	2746
809.741	2796
809.883	2769
810.025	2842
810.166	2826
810.308	2845
810.45	2830
810.591	2777
810.733	2785
810.875	2796
811.016	2758
811.158	2746
811.299	2781
811.441	2895
811.582	2887
811.724	2842
811.865	2857
812.007	2880
812.148	2895
812.29	2861
812.431	2876
812.573	2914
812.714	2971
812.855	3066
812.997	3077
813.138	3116
813.279	2952
813.421	2986
813.562	2937
813.703	2864
813.845	2861
813.986	2785
814.127	2727
814.268	2781
814.41	2838
814.551	2807
814.692	2864
814.833	2807
814.974	2891
815.115	2982
815.256	2842
815.397	2796
815.539	2883
815.68	2743
815.821	2804
815.962	2982
816.103	2948
816.244	2845
816.385	2872
816.526	2982
816.666	2929
816.807	2762
816.948	2883
817.089	2891
817.23	2834
817.371	2781
817.512	2785
817.653	2834
817.793	2800
817.934	2868
818.075	2944
818.216	2944
818.356	3032
818.497	2883
818.638	2807
818.778	2853
818.919	2807
819.06	2754
819.2	2880
819.341	2769
819.481	2800
819.622	2929
819.762	3097
819.903	3058
820.043	2925
820.184	2902
820.324	2918
820.465	3009
820.605	3005
820.746	3028
820.886	2925
821.026	3100
821.167	3135
821.307	3264
821.447	3275
821.588	3230
821.728	3192
821.868	3199
822.008	3070
822.149	3180
822.289	3222
822.429	3093
822.569	3089
822.709	3138
822.849	3024
822.99	3074
823.13	3195
823.27	3230
823.41	3074
823.55	3154
823.69	3146
823.83	3173
823.97	3074
824.11	3017
824.25	2963
824.389	3062
824.529	3112
824.669	3081
824.809	3154
824.949	3253
825.089	3222
825.228	3165
825.368	2994
825.508	2956
825.648	2994
825.787	3036
825.927	2975
826.067	2963
826.206	2960
826.346	3036
826.485	3043
826.625	3085
826.765	3241
826.904	3199
827.044	2990
827.183	2941
827.323	2819
827.462	2971
827.601	2914
827.741	2944
827.88	2929
828.02	2861
828.159	2941
828.298	3005
828.437	3089
828.577	3066
828.716	3237
828.855	3074
828.994	2880
829.134	2876
829.273	2864
829.412	2861
829.551	2861
829.69	2899
829.829	2975
829.968	3116
830.107	2986
830.246	3009
830.385	2883
830.524	2868
830.663	2819
830.802	2693
830.941	2644
831.08	2636
831.219	2762
831.357	2750
831.496	2933
831.635	2705
831.774	2670
831.913	2632
832.051	2518
832.19	2564
832.329	2663
832.467	2533
832.606	2499
832.744	2564
832.883	2564
833.022	2587
833.16	2644
833.299	2651
833.437	2701
833.576	2670
833.714	2697
833.852	2705
833.991	2750
834.129	2842
834.267	2804
834.406	2766
834.544	2899
834.682	2880
834.821	2857
834.959	3024
835.097	2895
835.235	3024
835.373	2986
835.511	3024
835.65	2948
835.788	2941
835.926	2819
836.064	2804
836.202	2823
836.34	3081
836.478	3165
836.615	3074
836.753	3097
836.891	3192
837.029	3142
837.167	3104
837.305	3077
837.443	3062
837.58	2952
837.718	3116
837.856	3028
837.993	3024
838.131	3112
838.269	3127
838.406	3116
838.544	3093
838.681	2971
838.819	2918
838.956	2815
839.094	2807
839.231	2944
839.369	3020
839.506	3359
839.643	3199
839.781	3020
839.918	2952
840.055	3005
840.193	3043
840.33	3055
840.467	3108
840.604	3146
840.742	3397
840.879	3043
841.016	3032
841.153	3104
841.29	3344
841.427	3241
841.564	3264
841.701	3298
841.838	3207
841.975	3146
842.112	3211
842.249	3085
842.385	3051
842.522	3226
842.659	3043
842.796	3074
842.933	3039
843.069	3032
843.206	3028
843.343	3192
843.479	3077
843.616	3157
843.752	2922
843.889	2895
844.025	3089
844.162	2883
844.298	3070
844.435	2975
844.571	2944
844.708	3081
844.844	3199
844.98	3199
845.117	3165
845.253	3043
845.389	3024
845.525	3089
845.661	3097
845.798	2994
845.934	3089
846.07	3001
846.206	3211
846.342	3344
846.478	3226
846.614	3097
846.75	3028
846.886	3032
847.022	3241
847.158	3142
847.294	3173
847.429	3275
847.565	3214
847.701	3481
847.837	3043
847.972	2975
848.108	3146
848.244	3138
848.379	3001
848.515	2925
848.65	2956
848.786	2929
848.921	2994
849.057	3123
849.192	3154
849.328	3055
849.463	3142
849.598	3081
849.734	3051
849.869	2990
850.004	2933
850.14	2960
850.275	2902
850.41	2838
850.545	2815
850.68	2902
850.815	2925
850.95	2948
851.085	3173
851.22	3119
851.355	3013
851.49	2971
851.625	2994
851.76	3017
851.895	2922
852.03	2910
852.165	3028
852.299	3097
852.434	3195
852.569	3123
852.703	3184
852.838	3207
852.973	3344
853.107	3325
853.242	3161
853.376	3108
853.511	2933
853.645	3020
853.78	3222
853.914	3116
854.048	3066
854.183	3097
854.317	3127
854.451	3306
854.585	3127
854.72	3097
854.854	3207
854.988	3032
855.122	3070
855.256	2994
855.39	3104
855.524	3214
855.658	3123
855.792	3161
855.926	3154
856.06	3214
856.194	3230
856.327	3165
856.461	3062
856.595	3047
856.729	3104
856.862	3199
856.996	3131
857.13	3184
857.263	3203
857.397	3241
857.53	3100
857.664	3173
857.797	3260
857.931	3237
858.064	3123
858.197	3230
858.331	3108
858.464	3039
858.597	2986
858.731	3100
858.864	3142
858.997	3089
859.13	3176
859.263	3176
859.396	3211
859.529	3070
859.662	3051
859.795	3043
859.928	3100
860.061	3268
860.194	3237
860.327	3112
860.46	3070
860.592	3233
860.725	3237
860.858	3256
860.99	3051
861.123	3043
861.256	3074
861.388	3142
861.521	3857
861.653	3009
861.786	2986
861.918	2982
862.05	3043
862.183	3097
862.315	3131
862.447	3199
862.58	3077
862.712	2933
862.844	2872
862.976	3009
863.108	2963
863.24	3412
863.372	2845
863.504	2925
863.636	2982
863.768	2994
863.9	2986
864.032	2914
864.164	2952
864.296	3001
864.428	3062
864.559	3085
864.691	3066
864.823	3032
864.954	3032
865.086	3066
865.217	2975
865.349	2941
865.48	2971
865.612	3024
865.743	3150
865.875	2998
866.006	2944
866.137	2994
866.269	2922
866.4	2956
866.531	2925
866.662	2842
866.793	2887
866.924	2914
867.055	2956
867.186	2933
867.317	2883
867.448	2815
867.579	2834
867.71	2834
867.841	2811
867.972	2929
868.103	2880
868.233	2910
868.364	2853
868.495	2887
868.625	3039
868.756	3165
868.886	2971
869.017	3001
869.147	3169
869.278	3104
869.408	3058
869.539	3001
869.669	3070
869.799	3074
869.929	3138
870.06	3135
870.19	3329
870.32	3287
870.45	3329
870.58	3374
870.71	3405
870.84	3439
870.97	3268
871.1	3199
871.23	3481
871.36	3466
871.489	3367
871.619	3374
871.749	3386
871.879	3420
872.008	3492
872.138	3351
872.267	3268
872.397	3127
872.526	3097
872.656	3020
872.785	3074
872.915	3218
873.044	3310
873.173	3207
873.303	3245
873.432	3207
873.561	3226
873.69	3157
873.819	3192
873.948	3207
874.077	3108
874.206	3043
874.335	3036
874.464	3207
874.593	3348
874.722	3226
874.851	3386
874.979	3336
875.108	3302
875.237	3176
875.365	3112
875.494	3184
875.623	3222
875.751	3085
875.88	3135
876.008	3165
876.136	3226
876.265	3370
876.393	3477
876.521	3405
876.65	3393
876.778	3306
876.906	3218
877.034	3188
877.162	3203
877.29	3211
877.418	3237
877.546	3279
877.674	3237
877.802	3298
877.93	3230
878.058	3123
878.185	3116
878.313	3176
878.441	3218
878.568	3047
878.696	3157
878.824	3214
878.951	3329
879.079	3405
879.206	3622
879.333	3416
879.461	3359
879.588	3351
879.715	3458
879.842	3561
879.97	3367
880.097	3157
880.224	3116
880.351	3195
880.478	3241
880.605	3245
880.732	3188
880.859	3462
880.986	3298
881.112	3317
881.239	3207
881.366	3085
881.493	3047
881.619	3036
881.746	3116
881.872	3085
881.999	3097
882.125	3135
882.252	3222
882.378	3272
882.505	3424
882.631	3283
882.757	3157
882.883	3211
883.01	3214
883.136	3157
883.262	3112
883.388	3104
883.514	3351
883.64	3363
883.766	3306
883.892	3169
884.018	3233
884.143	3401
884.269	3507
884.395	3207
884.52	3176
884.646	3173
884.772	3119
884.897	3100
885.023	3207
885.148	3306
885.274	3389
885.399	3367
885.524	3264
885.65	3233
885.775	3313
885.9	3256
886.025	3435
886.15	3359
886.275	3306
886.4	3264
886.525	3321
886.65	3294
886.775	3287
886.9	3473
887.025	3667
887.149	3378
887.274	3233
887.399	3188
887.523	3226
887.648	3192
887.773	3188
887.897	3340
888.021	3397
888.146	3317
888.27	3439
888.395	3549
888.519	3443
888.643	3443
888.767	3462
888.891	3317
889.015	3294
889.139	3275
889.263	3230
889.387	3378
889.511	3523
889.635	3458
889.759	3294
889.883	3283
890.006	3374
890.13	3481
890.254	3283
890.377	3348
890.501	3211
890.624	3207
890.748	3291
890.871	3203
890.995	3100
891.118	3062
891.241	3173
891.364	3241
891.488	3325
891.611	3180
891.734	3249
891.857	3268
891.98	3237
892.103	3340
892.226	3283
892.349	3199
892.471	3085
892.594	3214
892.717	3279
892.839	3260
892.962	3275
893.085	3389
893.207	3291
893.33	3146
893.452	3207
893.575	3329
893.697	3249
893.819	3458
893.941	3481
894.064	3447
894.186	3275
894.308	3272
894.43	3435
894.552	3542
894.674	3477
894.796	3298
894.918	3332
895.04	3291
895.161	3431
895.283	3405
895.405	3291
895.526	3351
895.648	3428
895.769	3412
895.891	3424
896.012	3477
896.134	3454
896.255	3428
896.376	3397
896.498	3302
896.619	3409
896.74	3351
896.861	3428
896.982	3652
897.103	3827
897.224	3599
897.345	3504
897.466	3450
897.587	3515
897.708	3644
897.828	3572
897.949	3401
898.07	3340
898.19	3389
898.311	3633
898.431	3420
898.552	3515
898.672	3568
898.792	3618
898.913	3507
899.033	3454
899.153	3283
899.273	3233
899.393	3291
899.513	3332
899.633	3298
899.753	3329
899.873	3344
899.993	3374
900.113	3355
900.232	3397
900.352	3370
900.472	3283
900.591	3222
900.711	3294
900.83	3256
900.95	3424
901.069	3485
901.189	3363
901.308	3154
901.427	3127
901.546	3188
901.665	3256
901.784	3363
901.904	3241
902.023	3142
902.141	3009
902.26	3028
902.379	3116
902.498	3062
902.617	3039
902.735	3184
902.854	3218
902.973	3195
903.091	3047
903.21	3020
903.328	3127
903.446	3138
903.565	3112
903.683	3199
903.801	3119
903.919	3241
904.038	3245
904.156	3161
904.274	3298
904.392	3226
904.51	3260
904.627	3325
904.745	3443
904.863	3515
904.981	3199
905.098	3203
905.216	3245
905.334	3306
905.451	3302
905.569	3310
905.686	3409
905.803	3420
905.921	3321
906.038	3458
906.155	3348
906.272	3275
906.389	3317
906.506	3218
906.623	3272
906.74	3237
906.857	3188
906.974	3245
907.091	3473
907.208	3545
907.324	3473
907.441	3393
907.557	3241
907.674	3253
907.79	3199
907.907	3279
908.023	3412
908.139	3348
908.256	3317
908.372	3367
908.488	3340
908.604	3264
908.72	3253
908.836	3287
908.952	3275
909.068	3386
909.184	3504
909.3	3363
909.415	3504
909.531	3469
909.647	3249
909.762	3272
909.878	3245
909.993	3332
910.108	3287
910.224	3340
910.339	3431
910.454	3332
910.57	3306
910.685	3253
910.8	3603
910.915	3523
911.03	3458
911.145	3237
911.259	3306
911.374	3268
911.489	3253
911.604	3211
911.718	3112
911.833	3161
911.947	3017
912.062	2975
912.176	3161
912.291	3161
912.405	3218
912.519	3450
912.633	3454
912.748	3321
912.862	3233
912.976	3146
913.09	3074
913.204	3138
913.318	3245
913.431	3329
913.545	3348
913.659	3405
913.772	3348
913.886	3195
914	3184
914.113	3370
914.226	3439
914.34	3370
914.453	3199
914.566	3393
914.68	3249
914.793	3275
914.906	3173
915.019	3112
915.132	3070
915.245	3188
915.358	3203
915.47	3237
915.583	3233
915.696	3306
915.809	3389
915.921	3435
916.034	3287
916.146	3222
916.259	3249
916.371	3336
916.483	3351
916.595	3283
916.708	3321
916.82	3348
916.932	3351
917.044	3332
917.156	3348
917.268	3253
917.38	3260
917.491	3287
917.603	3370
917.715	3420
917.826	3435
917.938	3344
918.049	3264
918.161	3397
918.272	3542
918.384	3576
918.495	3477
918.606	3317
918.717	3256
918.828	3401
918.939	3386
919.05	3237
919.161	3401
919.272	3188
919.383	3321
919.494	3492
919.604	3694
919.715	3492
919.826	3351
919.936	3469
920.047	3557
920.157	3519
920.267	3797
920.378	3622
920.488	3545
920.598	3736
920.708	3964
920.818	3816
920.928	3831
921.038	3987
921.148	4032
921.258	3709
921.368	3591
921.477	3580
921.587	3545
921.697	3454
921.806	3637
921.916	3511
922.025	3336
922.134	3367
922.244	3272
922.353	3466
922.462	3237
922.571	3237
922.68	3074
922.789	3081
922.898	3169
923.007	3119
923.116	3173
923.224	3180
923.333	3157
923.442	3085
923.55	3089
923.659	3150
923.767	3218
923.876	3127
923.984	3249
924.092	3135
924.201	3192
924.309	3214
924.417	3275
924.525	3169
924.633	3211
924.741	4112
924.849	3062
924.956	3214
925.064	3081
925.172	3032
925.279	3112
925.387	3173
925.494	3214
925.602	3329
925.709	3332
925.816	3192
925.924	3272
926.031	3397
926.138	3317
926.245	3378
926.352	3256
926.459	3439
926.566	3443
926.673	3329
926.779	3249
926.886	3272
926.993	3188
927.099	3146
927.206	3146
927.312	3112
927.419	3218
927.525	3169
927.631	3253
927.737	3138
927.843	3131
927.95	2998
928.056	3108
928.162	3173
928.267	3233
928.373	3888
928.479	3279
928.585	3070
928.69	3222
928.796	3260
928.901	3180
929.007	3089
929.112	3218
929.218	3161
929.323	3127
929.428	3176
929.533	3298
929.638	3100
929.743	3180
929.848	3222
929.953	3203
930.058	3135
930.163	2979
930.267	3070
930.372	3214
930.477	3028
930.581	3317
930.685	3184
930.79	3001
930.894	3127
930.998	3089
931.103	3279
931.207	2975
931.311	2918
931.415	2948
931.519	2807
931.623	2800
