Data from test_V78500241_710.txt Node
Date: Fri Mar 25 16:20:07 CST 2022
User: usil
Spectrometer: V785-0024
Trigger mode: 0
Integration Time (sec): 4.000000E-1
Scans to average: 1
Nonlinearity correction enabled: false
Boxcar width: 0
Storing dark spectrum: false
XAxis mode: Wavelengths
Number of Pixels in Spectrum: 1024
>>>>>Begin Spectral Data<<<<<
801.071	2925
801.214	2914
801.356	2849
801.499	2906
801.641	2857
801.783	2910
801.926	3051
802.068	2979
802.211	3009
802.353	3013
802.496	2963
802.638	3028
802.78	3017
802.923	3066
803.065	2971
803.208	2922
803.35	2929
803.492	2941
803.635	2922
803.777	2743
803.919	2868
804.061	3192
804.204	2937
804.346	2929
804.488	2845
804.63	2975
804.773	2902
804.915	2925
805.057	3062
805.199	2925
805.341	2971
805.483	3032
805.626	2979
805.768	2933
805.91	3047
806.052	3135
806.194	3017
806.336	3241
806.478	3047
806.62	2952
806.762	2979
806.904	3047
807.046	3157
807.188	3017
807.33	2902
807.472	2979
807.614	2868
807.756	2975
807.898	2880
808.04	2899
808.182	2975
808.324	2941
808.465	2861
808.607	2906
808.749	2785
808.891	2807
809.033	2952
809.174	2994
809.316	2883
809.458	2861
809.6	2758
809.741	2739
809.883	2758
810.025	2830
810.166	2830
810.308	2849
810.45	2849
810.591	2785
810.733	2743
810.875	2804
811.016	2796
811.158	2773
811.299	2842
811.441	2906
811.582	2910
811.724	2811
811.865	2845
812.007	2918
812.148	2838
812.29	2823
812.431	2868
812.573	2929
812.714	2963
812.855	3020
812.997	3039
813.138	3066
813.279	2998
813.421	2975
813.562	2963
813.703	2861
813.845	2899
813.986	2788
814.127	2743
814.268	2807
814.41	2883
814.551	2819
814.692	2887
814.833	2804
814.974	2880
815.115	2944
815.256	2807
815.397	2804
815.539	2857
815.68	2769
815.821	2777
815.962	2929
816.103	2933
816.244	2838
816.385	2872
816.526	2986
816.666	2906
816.807	2746
816.948	2895
817.089	2899
817.23	2857
817.371	2769
817.512	2773
817.653	2815
817.793	2804
817.934	2868
818.075	2967
818.216	3013
818.356	3009
818.497	2883
818.638	2800
818.778	2807
818.919	2788
819.06	2754
819.2	2899
819.341	2792
819.481	2815
819.622	2956
819.762	3097
819.903	3036
820.043	2902
820.184	2899
820.324	2891
820.465	3001
820.605	3051
820.746	3051
820.886	2895
821.026	3104
821.167	3222
821.307	3241
821.447	3268
821.588	3188
821.728	3169
821.868	3165
822.008	3028
822.149	3142
822.289	3192
822.429	3108
822.569	3047
822.709	3203
822.849	3070
822.99	3047
823.13	3161
823.27	3161
823.41	3100
823.55	3089
823.69	3142
823.83	3192
823.97	3104
824.11	3017
824.25	2986
824.389	3047
824.529	3085
824.669	3055
824.809	3173
824.949	3260
825.089	3207
825.228	3142
825.368	2990
825.508	2952
825.648	2979
825.787	3055
825.927	2990
826.067	2956
826.206	2937
826.346	3009
826.485	3097
826.625	3146
826.765	3275
826.904	3207
827.044	2982
827.183	2918
827.323	2864
827.462	2944
827.601	2872
827.741	2902
827.88	2971
828.02	2868
828.159	2982
828.298	3017
828.437	3123
828.577	3009
828.716	3241
828.855	3070
828.994	2876
829.134	2880
829.273	2937
829.412	2838
829.551	2845
829.69	2906
829.829	2982
829.968	3119
830.107	2990
830.246	3024
830.385	2933
830.524	2883
830.663	2834
830.802	2739
830.941	2636
831.08	2644
831.219	2743
831.357	2750
831.496	2948
831.635	2727
831.774	2655
831.913	2629
832.051	2549
832.19	2590
832.329	2678
832.467	2492
832.606	2480
832.744	2564
832.883	2579
833.022	2541
833.16	2663
833.299	2667
833.437	2720
833.576	2716
833.714	2727
833.852	2731
833.991	2777
834.129	2804
834.267	2853
834.406	2807
834.544	2864
834.682	2887
834.821	2902
834.959	3032
835.097	2880
835.235	3020
835.373	3001
835.511	3009
835.65	2956
835.788	2937
835.926	2819
836.064	2796
836.202	2842
836.34	3043
836.478	3127
836.615	3020
836.753	3104
836.891	3195
837.029	3161
837.167	3097
837.305	3055
837.443	3028
837.58	2944
837.718	3157
837.856	3028
837.993	3020
838.131	3112
838.269	3089
838.406	3085
838.544	3039
838.681	2925
838.819	2925
838.956	2807
839.094	2842
839.231	2933
839.369	3005
839.506	3317
839.643	3214
839.781	3009
839.918	2990
840.055	3043
840.193	3066
840.33	3066
840.467	3066
840.604	3146
840.742	3393
840.879	3039
841.016	3089
841.153	3081
841.29	3329
841.427	3287
841.564	3272
841.701	3291
841.838	3176
841.975	3195
842.112	3207
842.249	3104
842.385	3013
842.522	3230
842.659	3089
842.796	3074
842.933	3093
843.069	3051
843.206	3032
843.343	3173
843.479	3070
843.616	3146
843.752	2910
843.889	2838
844.025	3058
844.162	2872
844.298	3043
844.435	2933
844.571	2887
844.708	3066
844.844	3192
844.98	3233
845.117	3203
845.253	3043
845.389	2982
845.525	3077
845.661	3123
845.798	3001
845.934	3108
846.07	3074
846.206	3188
846.342	3283
846.478	3226
846.614	3093
846.75	3062
846.886	2990
847.022	3218
847.158	3097
847.294	3214
847.429	3245
847.565	3203
847.701	3481
847.837	3009
847.972	2975
848.108	3146
848.244	3165
848.379	2979
848.515	2956
848.65	2944
848.786	2952
848.921	2975
849.057	3070
849.192	3165
849.328	3051
849.463	3104
849.598	3028
849.734	3051
849.869	2971
850.004	2895
850.14	2948
850.275	2918
850.41	2830
850.545	2876
850.68	2944
850.815	2937
850.95	2986
851.085	3157
851.22	3085
851.355	3036
851.49	2956
851.625	2998
851.76	2967
851.895	2906
852.03	2906
852.165	3013
852.299	3089
852.434	3173
852.569	3142
852.703	3142
852.838	3275
852.973	3363
853.107	3321
853.242	3135
853.376	3112
853.511	2933
853.645	3047
853.78	3188
853.914	3116
854.048	3127
854.183	3039
854.317	3150
854.451	3306
854.585	3112
854.72	3077
854.854	3230
854.988	3058
855.122	3058
855.256	2944
855.39	3131
855.524	3230
855.658	3173
855.792	3112
855.926	3169
856.06	3241
856.194	3249
856.327	3169
856.461	3066
856.595	3112
856.729	3108
856.862	3226
856.996	3131
857.13	3161
857.263	3237
857.397	3233
857.53	3104
857.664	3188
857.797	3233
857.931	3226
858.064	3154
858.197	3211
858.331	3180
858.464	3108
858.597	3013
858.731	3085
858.864	3116
858.997	3081
859.13	3142
859.263	3146
859.396	3207
859.529	3093
859.662	3074
859.795	3074
859.928	3127
860.061	3256
860.194	3253
860.327	3154
860.46	3066
860.592	3199
860.725	3253
860.858	3253
860.99	3108
861.123	3009
861.256	3055
861.388	3127
861.521	3953
861.653	3028
861.786	2956
861.918	3001
862.05	3051
862.183	3074
862.315	3138
862.447	3165
862.58	3119
862.712	2922
862.844	2864
862.976	3017
863.108	2982
863.24	3428
863.372	2864
863.504	2925
863.636	2937
863.768	3032
863.9	2979
864.032	2910
864.164	2971
864.296	2986
864.428	3066
864.559	3108
864.691	3055
864.823	3066
864.954	3039
865.086	2998
865.217	2971
865.349	2925
865.48	3020
865.612	3009
865.743	3150
865.875	2982
866.006	2925
866.137	2971
866.269	2925
866.4	2956
866.531	2937
866.662	2868
866.793	2895
866.924	2914
867.055	2971
867.186	2941
867.317	2849
867.448	2880
867.579	2853
867.71	2842
867.841	2849
867.972	2883
868.103	2861
868.233	2883
868.364	2895
868.495	2864
868.625	3070
868.756	3138
868.886	2948
869.017	3009
869.147	3169
869.278	3180
869.408	3047
869.539	3013
869.669	3043
869.799	3043
869.929	3157
870.06	3085
870.19	3325
870.32	3291
870.45	3298
870.58	3401
870.71	3397
870.84	3450
870.97	3279
871.1	3230
871.23	3435
871.36	3469
871.489	3329
871.619	3374
871.749	3443
871.879	3424
872.008	3462
872.138	3401
872.267	3245
872.397	3135
872.526	3097
872.656	3039
872.785	3097
872.915	3203
873.044	3306
873.173	3260
873.303	3203
873.432	3233
873.561	3230
873.69	3176
873.819	3154
873.948	3203
874.077	3104
874.206	2979
874.335	3100
874.464	3237
874.593	3325
874.722	3214
874.851	3382
874.979	3378
875.108	3294
875.237	3207
875.365	3157
875.494	3184
875.623	3203
875.751	3081
875.88	3104
876.008	3180
876.136	3222
876.265	3351
876.393	3492
876.521	3439
876.65	3389
876.778	3332
876.906	3237
877.034	3176
877.162	3253
877.29	3146
877.418	3279
877.546	3218
877.674	3245
877.802	3184
877.93	3233
878.058	3119
878.185	3077
878.313	3192
878.441	3188
878.568	3051
878.696	3169
878.824	3253
878.951	3275
879.079	3439
879.206	3637
879.333	3424
879.461	3321
879.588	3336
879.715	3481
879.842	3587
879.97	3405
880.097	3188
880.224	3142
880.351	3173
880.478	3237
880.605	3188
880.732	3176
880.859	3485
880.986	3291
881.112	3332
881.239	3188
881.366	3100
881.493	3039
881.619	3020
881.746	3028
881.872	3055
881.999	3097
882.125	3097
882.252	3256
882.378	3279
882.505	3416
882.631	3272
882.757	3127
882.883	3188
883.01	3207
883.136	3127
883.262	3116
883.388	3104
883.514	3298
883.64	3325
883.766	3294
883.892	3173
884.018	3214
884.143	3416
884.269	3542
884.395	3214
884.52	3131
884.646	3184
884.772	3116
884.897	3051
885.023	3195
885.148	3329
885.274	3450
885.399	3405
885.524	3275
885.65	3237
885.775	3287
885.9	3294
886.025	3389
886.15	3351
886.275	3306
886.4	3230
886.525	3336
886.65	3268
886.775	3272
886.9	3500
887.025	3599
887.149	3420
887.274	3272
887.399	3188
887.523	3218
887.648	3188
887.773	3161
887.897	3336
888.021	3389
888.146	3283
888.27	3435
888.395	3534
888.519	3450
888.643	3431
888.767	3477
888.891	3298
889.015	3256
889.139	3283
889.263	3241
889.387	3382
889.511	3530
889.635	3389
889.759	3249
889.883	3275
890.006	3401
890.13	3511
890.254	3241
890.377	3302
890.501	3176
890.624	3154
890.748	3302
890.871	3165
890.995	3066
891.118	3062
891.241	3176
891.364	3195
891.488	3313
891.611	3165
891.734	3214
891.857	3317
891.98	3249
892.103	3336
892.226	3264
892.349	3173
892.471	3127
892.594	3237
892.717	3310
892.839	3275
892.962	3313
893.085	3382
893.207	3306
893.33	3161
893.452	3184
893.575	3348
893.697	3203
893.819	3481
893.941	3481
894.064	3466
894.186	3268
894.308	3275
894.43	3439
894.552	3530
894.674	3458
894.796	3256
894.918	3275
895.04	3302
895.161	3420
895.283	3397
895.405	3340
895.526	3325
895.648	3359
895.769	3405
895.891	3443
896.012	3481
896.134	3492
896.255	3409
896.376	3344
896.498	3374
896.619	3420
896.74	3389
896.861	3416
896.982	3644
897.103	3835
897.224	3564
897.345	3519
897.466	3409
897.587	3500
897.708	3572
897.828	3523
897.949	3450
898.07	3310
898.19	3462
898.311	3584
898.431	3447
898.552	3504
898.672	3584
898.792	3557
898.913	3500
899.033	3412
899.153	3283
899.273	3249
899.393	3264
899.513	3298
899.633	3306
899.753	3302
899.873	3313
899.993	3359
900.113	3363
900.232	3393
900.352	3321
900.472	3275
900.591	3214
900.711	3275
900.83	3237
900.95	3405
901.069	3507
901.189	3370
901.308	3188
901.427	3116
901.546	3184
901.665	3275
901.784	3336
901.904	3173
902.023	3150
902.141	3017
902.26	2994
902.379	3104
902.498	3074
902.617	3028
902.735	3195
902.854	3268
902.973	3184
903.091	3043
903.21	3039
903.328	3169
903.446	3085
903.565	3112
903.683	3214
903.801	3123
903.919	3226
904.038	3313
904.156	3176
904.274	3310
904.392	3226
904.51	3291
904.627	3310
904.745	3393
904.863	3485
904.981	3272
905.098	3161
905.216	3192
905.334	3291
905.451	3291
905.569	3291
905.686	3420
905.803	3409
905.921	3253
906.038	3386
906.155	3348
906.272	3256
906.389	3332
906.506	3203
906.623	3272
906.74	3287
906.857	3192
906.974	3291
907.091	3439
907.208	3572
907.324	3469
907.441	3397
907.557	3237
907.674	3253
907.79	3230
907.907	3306
908.023	3397
908.139	3389
908.256	3306
908.372	3359
908.488	3363
908.604	3222
908.72	3237
908.836	3256
908.952	3291
909.068	3317
909.184	3477
909.3	3370
909.415	3485
909.531	3428
909.647	3275
909.762	3279
909.878	3230
909.993	3367
910.108	3348
910.224	3344
910.339	3389
910.454	3378
910.57	3272
910.685	3230
910.8	3599
910.915	3530
911.03	3389
911.145	3260
911.259	3268
911.374	3294
911.489	3241
911.604	3195
911.718	3116
911.833	3154
911.947	3013
912.062	2956
912.176	3154
912.291	3184
912.405	3214
912.519	3393
912.633	3462
912.748	3363
912.862	3260
912.976	3188
913.09	3070
913.204	3093
913.318	3211
913.431	3329
913.545	3325
913.659	3401
913.772	3325
913.886	3214
914	3214
914.113	3329
914.226	3416
914.34	3401
914.453	3222
914.566	3412
914.68	3272
914.793	3279
914.906	3112
915.019	3100
915.132	3058
915.245	3199
915.358	3207
915.47	3222
915.583	3260
915.696	3291
915.809	3386
915.921	3409
916.034	3249
916.146	3283
916.259	3211
916.371	3386
916.483	3363
916.595	3283
916.708	3313
916.82	3310
916.932	3340
917.044	3313
917.156	3340
917.268	3237
917.38	3279
917.491	3340
917.603	3363
917.715	3412
917.826	3477
917.938	3389
918.049	3272
918.161	3412
918.272	3572
918.384	3542
918.495	3496
918.606	3363
918.717	3287
918.828	3336
918.939	3405
919.05	3298
919.161	3351
919.272	3195
919.383	3264
919.494	3511
919.604	3675
919.715	3549
919.826	3416
919.936	3450
920.047	3572
920.157	3538
920.267	3759
920.378	3603
920.488	3530
920.598	3740
920.708	3934
920.818	3819
920.928	3850
921.038	4017
921.148	4010
921.258	3694
921.368	3644
921.477	3564
921.587	3545
921.697	3492
921.806	3641
921.916	3504
922.025	3329
922.134	3389
922.244	3310
922.353	3424
922.462	3233
922.571	3237
922.68	3108
922.789	3097
922.898	3116
923.007	3074
923.116	3173
923.224	3157
923.333	3157
923.442	3112
923.55	3074
923.659	3157
923.767	3211
923.876	3100
923.984	3226
924.092	3104
924.201	3195
924.309	3253
924.417	3241
924.525	3188
924.633	3249
924.741	4158
924.849	3051
924.956	3256
925.064	3119
925.172	3058
925.279	3070
925.387	3180
925.494	3165
925.602	3367
925.709	3332
925.816	3195
925.924	3268
926.031	3355
926.138	3310
926.245	3374
926.352	3226
926.459	3389
926.566	3496
926.673	3317
926.779	3218
926.886	3260
926.993	3161
927.099	3100
927.206	3104
927.312	3081
927.419	3226
927.525	3173
927.631	3268
927.737	3135
927.843	3138
927.95	3009
928.056	3135
928.162	3150
928.267	3226
928.373	3873
928.479	3329
928.585	3043
928.69	3195
928.796	3279
928.901	3154
929.007	3028
929.112	3218
929.218	3188
929.323	3176
929.428	3146
929.533	3329
929.638	3154
929.743	3165
929.848	3241
929.953	3222
930.058	3104
930.163	3001
930.267	3074
930.372	3207
930.477	2998
930.581	3313
930.685	3161
930.79	3032
930.894	3142
930.998	3097
931.103	3291
931.207	2963
931.311	2952
931.415	2922
931.519	2785
931.623	2807
