Data from test_V78500241_474.txt Node
Date: Fri Mar 25 16:18:29 CST 2022
User: usil
Spectrometer: V785-0024
Trigger mode: 0
Integration Time (sec): 4.000000E-1
Scans to average: 1
Nonlinearity correction enabled: false
Boxcar width: 0
Storing dark spectrum: false
XAxis mode: Wavelengths
Number of Pixels in Spectrum: 1024
>>>>>Begin Spectral Data<<<<<
801.071	2918
801.214	2918
801.356	2880
801.499	2864
801.641	2864
801.783	2922
801.926	3058
802.068	2952
802.211	2994
802.353	3032
802.496	2952
802.638	3013
802.78	3043
802.923	3058
803.065	3062
803.208	2895
803.35	2918
803.492	2922
803.635	2956
803.777	2762
803.919	2857
804.061	3184
804.204	2956
804.346	2899
804.488	2815
804.63	3017
804.773	2906
804.915	2910
805.057	3097
805.199	2914
805.341	2982
805.483	3032
805.626	2986
805.768	2948
805.91	3055
806.052	3097
806.194	3009
806.336	3226
806.478	3001
806.62	2948
806.762	2975
806.904	3036
807.046	3146
807.188	2975
807.33	2937
807.472	2994
807.614	2899
807.756	3001
807.898	2910
808.04	2883
808.182	2933
808.324	2933
808.465	2918
808.607	2899
808.749	2811
808.891	2849
809.033	3005
809.174	2948
809.316	2872
809.458	2899
809.6	2785
809.741	2773
809.883	2754
810.025	2849
810.166	2887
810.308	2826
810.45	2872
810.591	2769
810.733	2762
810.875	2819
811.016	2727
811.158	2739
811.299	2819
811.441	2941
811.582	2914
811.724	2830
811.865	2819
812.007	2914
812.148	2876
812.29	2815
812.431	2872
812.573	2933
812.714	2998
812.855	3028
812.997	3039
813.138	3100
813.279	3017
813.421	2944
813.562	2956
813.703	2891
813.845	2891
813.986	2781
814.127	2731
814.268	2819
814.41	2823
814.551	2811
814.692	2872
814.833	2864
814.974	2883
815.115	2952
815.256	2834
815.397	2785
815.539	2853
815.68	2746
815.821	2773
815.962	2933
816.103	2902
816.244	2876
816.385	2895
816.526	2956
816.666	2910
816.807	2727
816.948	2895
817.089	2910
817.23	2849
817.371	2773
817.512	2796
817.653	2826
817.793	2800
817.934	2887
818.075	2948
818.216	2986
818.356	2986
818.497	2845
818.638	2796
818.778	2811
818.919	2788
819.06	2788
819.2	2895
819.341	2819
819.481	2823
819.622	2914
819.762	3074
819.903	3028
820.043	2929
820.184	2883
820.324	2906
820.465	3032
820.605	3013
820.746	2994
820.886	2887
821.026	3093
821.167	3157
821.307	3199
821.447	3268
821.588	3256
821.728	3214
821.868	3203
822.008	3074
822.149	3211
822.289	3222
822.429	3104
822.569	3097
822.709	3165
822.849	3017
822.99	3085
823.13	3161
823.27	3230
823.41	3097
823.55	3112
823.69	3150
823.83	3188
823.97	3089
824.11	2986
824.25	3013
824.389	3055
824.529	3116
824.669	3055
824.809	3176
824.949	3233
825.089	3203
825.228	3157
825.368	2975
825.508	2937
825.648	2963
825.787	2986
825.927	3020
826.067	2967
826.206	2963
826.346	3074
826.485	3093
826.625	3089
826.765	3249
826.904	3188
827.044	2982
827.183	2948
827.323	2899
827.462	2986
827.601	2899
827.741	2910
827.88	2933
828.02	2830
828.159	2979
828.298	3013
828.437	3077
828.577	3058
828.716	3214
828.855	3047
828.994	2922
829.134	2891
829.273	2918
829.412	2845
829.551	2849
829.69	2857
829.829	2975
829.968	3123
830.107	3009
830.246	3009
830.385	2906
830.524	2838
830.663	2819
830.802	2735
830.941	2644
831.08	2686
831.219	2743
831.357	2785
831.496	2895
831.635	2670
831.774	2655
831.913	2632
832.051	2545
832.19	2602
832.329	2670
832.467	2522
832.606	2476
832.744	2564
832.883	2568
833.022	2590
833.16	2674
833.299	2667
833.437	2708
833.576	2667
833.714	2697
833.852	2689
833.991	2766
834.129	2838
834.267	2819
834.406	2758
834.544	2857
834.682	2868
834.821	2872
834.959	3062
835.097	2880
835.235	3062
835.373	2971
835.511	2986
835.65	2937
835.788	2986
835.926	2823
836.064	2804
836.202	2773
836.34	3093
836.478	3127
836.615	3009
836.753	3116
836.891	3207
837.029	3146
837.167	3089
837.305	3081
837.443	3013
837.58	2952
837.718	3157
837.856	3081
837.993	3055
838.131	3138
838.269	3127
838.406	3108
838.544	3100
838.681	2925
838.819	2906
838.956	2807
839.094	2792
839.231	2922
839.369	2990
839.506	3359
839.643	3222
839.781	2982
839.918	2975
840.055	3020
840.193	3081
840.33	3051
840.467	3138
840.604	3112
840.742	3397
840.879	3047
841.016	3009
841.153	3097
841.29	3298
841.427	3222
841.564	3249
841.701	3313
841.838	3222
841.975	3165
842.112	3207
842.249	3066
842.385	3020
842.522	3283
842.659	3043
842.796	3020
842.933	3104
843.069	3039
843.206	3009
843.343	3119
843.479	3097
843.616	3119
843.752	2906
843.889	2880
844.025	3085
844.162	2883
844.298	3085
844.435	2975
844.571	2876
844.708	3058
844.844	3203
844.98	3218
845.117	3173
845.253	3043
845.389	2960
845.525	3119
845.661	3039
845.798	3001
845.934	3173
846.07	3020
846.206	3188
846.342	3298
846.478	3230
846.614	3093
846.75	3039
846.886	3043
847.022	3249
847.158	3146
847.294	3165
847.429	3245
847.565	3165
847.701	3424
847.837	3009
847.972	3005
848.108	3123
848.244	3127
848.379	2967
848.515	2952
848.65	2895
848.786	2941
848.921	2986
849.057	3100
849.192	3138
849.328	3077
849.463	3112
849.598	3024
849.734	3024
849.869	2986
850.004	2918
850.14	2944
850.275	2853
850.41	2845
850.545	2887
850.68	2899
850.815	2933
850.95	2941
851.085	3165
851.22	3108
851.355	3013
851.49	2979
851.625	2963
851.76	3009
851.895	2941
852.03	2910
852.165	3013
852.299	3104
852.434	3214
852.569	3081
852.703	3150
852.838	3256
852.973	3302
853.107	3302
853.242	3150
853.376	3081
853.511	2971
853.645	3066
853.78	3226
853.914	3108
854.048	3081
854.183	3070
854.317	3146
854.451	3287
854.585	3131
854.72	3089
854.854	3173
854.988	3051
855.122	3036
855.256	2941
855.39	3097
855.524	3199
855.658	3233
855.792	3116
855.926	3165
856.06	3192
856.194	3268
856.327	3184
856.461	3066
856.595	3074
856.729	3077
856.862	3203
856.996	3154
857.13	3169
857.263	3237
857.397	3241
857.53	3093
857.664	3192
857.797	3230
857.931	3233
858.064	3150
858.197	3207
858.331	3161
858.464	3100
858.597	2990
858.731	3097
858.864	3097
858.997	3070
859.13	3123
859.263	3199
859.396	3192
859.529	3062
859.662	3043
859.795	3043
859.928	3138
860.061	3260
860.194	3264
860.327	3165
860.46	3089
860.592	3218
860.725	3222
860.858	3245
860.99	3089
861.123	3039
861.256	3028
861.388	3112
861.521	3956
861.653	3017
861.786	2944
861.918	3013
862.05	3047
862.183	3081
862.315	3116
862.447	3169
862.58	3112
862.712	2899
862.844	2861
862.976	3024
863.108	2998
863.24	3325
863.372	2868
863.504	2967
863.636	2914
863.768	3001
863.9	2998
864.032	2902
864.164	2979
864.296	2986
864.428	3081
864.559	3081
864.691	3047
864.823	3077
864.954	2971
865.086	2986
865.217	3001
865.349	2944
865.48	2963
865.612	3036
865.743	3104
865.875	2956
866.006	2944
866.137	2963
866.269	2937
866.4	2925
866.531	2887
866.662	2861
866.793	2883
866.924	2857
867.055	2979
867.186	2883
867.317	2853
867.448	2838
867.579	2876
867.71	2815
867.841	2781
867.972	2880
868.103	2910
868.233	2899
868.364	2887
868.495	2887
868.625	3055
868.756	3119
868.886	2933
869.017	3017
869.147	3146
869.278	3184
869.408	3051
869.539	3024
869.669	3058
869.799	3024
869.929	3146
870.06	3093
870.19	3294
870.32	3249
870.45	3264
870.58	3340
870.71	3416
870.84	3454
870.97	3275
871.1	3237
871.23	3473
871.36	3428
871.489	3332
871.619	3367
871.749	3382
871.879	3405
872.008	3454
872.138	3332
872.267	3245
872.397	3119
872.526	3089
872.656	2998
872.785	3043
872.915	3199
873.044	3283
873.173	3188
873.303	3218
873.432	3207
873.561	3241
873.69	3161
873.819	3165
873.948	3211
874.077	3108
874.206	3009
874.335	3074
874.464	3180
874.593	3317
874.722	3192
874.851	3370
874.979	3348
875.108	3294
875.237	3211
875.365	3116
875.494	3131
875.623	3241
875.751	3058
875.88	3119
876.008	3184
876.136	3241
876.265	3325
876.393	3538
876.521	3420
876.65	3393
876.778	3321
876.906	3226
877.034	3195
877.162	3211
877.29	3165
877.418	3245
877.546	3253
877.674	3249
877.802	3268
877.93	3233
878.058	3161
878.185	3112
878.313	3203
878.441	3203
878.568	3074
878.696	3150
878.824	3260
878.951	3302
879.079	3370
879.206	3618
879.333	3454
879.461	3363
879.588	3367
879.715	3496
879.842	3629
879.97	3386
880.097	3169
880.224	3135
880.351	3233
880.478	3241
880.605	3249
880.732	3211
880.859	3538
880.986	3325
881.112	3317
881.239	3230
881.366	3142
881.493	3093
881.619	3024
881.746	3108
881.872	3142
881.999	3154
882.125	3173
882.252	3260
882.378	3283
882.505	3466
882.631	3275
882.757	3199
882.883	3264
883.01	3249
883.136	3188
883.262	3116
883.388	3142
883.514	3367
883.64	3405
883.766	3325
883.892	3203
884.018	3275
884.143	3469
884.269	3618
884.395	3260
884.52	3184
884.646	3211
884.772	3138
884.897	3161
885.023	3237
885.148	3367
885.274	3496
885.399	3431
885.524	3329
885.65	3310
885.775	3325
885.9	3302
886.025	3405
886.15	3416
886.275	3348
886.4	3268
886.525	3340
886.65	3321
886.775	3287
886.9	3530
887.025	3671
887.149	3416
887.274	3306
887.399	3241
887.523	3264
887.648	3207
887.773	3195
887.897	3370
888.021	3428
888.146	3329
888.27	3450
888.395	3564
888.519	3485
888.643	3492
888.767	3496
888.891	3332
889.015	3279
889.139	3313
889.263	3294
889.387	3458
889.511	3523
889.635	3473
889.759	3306
889.883	3321
890.006	3416
890.13	3538
890.254	3310
890.377	3420
890.501	3275
890.624	3203
890.748	3306
890.871	3222
890.995	3116
891.118	3062
891.241	3249
891.364	3249
891.488	3329
891.611	3230
891.734	3253
891.857	3306
891.98	3264
892.103	3355
892.226	3279
892.349	3241
892.471	3150
892.594	3329
892.717	3329
892.839	3268
892.962	3313
893.085	3378
893.207	3317
893.33	3199
893.452	3230
893.575	3367
893.697	3253
893.819	3526
893.941	3545
894.064	3488
894.186	3264
894.308	3245
894.43	3466
894.552	3584
894.674	3481
894.796	3317
894.918	3317
895.04	3332
895.161	3469
895.283	3409
895.405	3401
895.526	3363
895.648	3439
895.769	3458
895.891	3504
896.012	3500
896.134	3485
896.255	3428
896.376	3409
896.498	3325
896.619	3458
896.74	3351
896.861	3397
896.982	3652
897.103	3804
897.224	3618
897.345	3523
897.466	3435
897.587	3519
897.708	3629
897.828	3564
897.949	3473
898.07	3359
898.19	3431
898.311	3648
898.431	3481
898.552	3545
898.672	3622
898.792	3580
898.913	3614
899.033	3458
899.153	3298
899.273	3249
899.393	3298
899.513	3363
899.633	3348
899.753	3382
899.873	3359
899.993	3367
900.113	3348
900.232	3401
900.352	3374
900.472	3310
900.591	3230
900.711	3294
900.83	3214
900.95	3405
901.069	3492
901.189	3355
901.308	3195
901.427	3192
901.546	3249
901.665	3313
901.784	3389
901.904	3237
902.023	3222
902.141	3047
902.26	3013
902.379	3150
902.498	3097
902.617	3058
902.735	3192
902.854	3249
902.973	3218
903.091	3085
903.21	3093
903.328	3154
903.446	3154
903.565	3169
903.683	3268
903.801	3146
903.919	3245
904.038	3332
904.156	3184
904.274	3336
904.392	3283
904.51	3329
904.627	3374
904.745	3496
904.863	3507
904.981	3298
905.098	3230
905.216	3245
905.334	3310
905.451	3325
905.569	3359
905.686	3462
905.803	3466
905.921	3329
906.038	3435
906.155	3378
906.272	3275
906.389	3367
906.506	3268
906.623	3287
906.74	3294
906.857	3195
906.974	3260
907.091	3450
907.208	3580
907.324	3504
907.441	3431
907.557	3245
907.674	3275
907.79	3253
907.907	3329
908.023	3428
908.139	3393
908.256	3363
908.372	3378
908.488	3393
908.604	3317
908.72	3233
908.836	3310
908.952	3310
909.068	3363
909.184	3504
909.3	3450
909.415	3504
909.531	3504
909.647	3313
909.762	3302
909.878	3264
909.993	3374
910.108	3348
910.224	3382
910.339	3424
910.454	3393
910.57	3317
910.685	3294
910.8	3606
910.915	3572
911.03	3450
911.145	3306
911.259	3306
911.374	3329
911.489	3275
911.604	3283
911.718	3165
911.833	3165
911.947	3055
912.062	2990
912.176	3207
912.291	3211
912.405	3249
912.519	3481
912.633	3492
912.748	3340
912.862	3287
912.976	3211
913.09	3097
913.204	3169
913.318	3264
913.431	3340
913.545	3401
913.659	3401
913.772	3389
913.886	3226
914	3207
914.113	3382
914.226	3443
914.34	3367
914.453	3253
914.566	3412
914.68	3340
914.793	3279
914.906	3150
915.019	3119
915.132	3062
915.245	3199
915.358	3253
915.47	3272
915.583	3253
915.696	3313
915.809	3428
915.921	3466
916.034	3264
916.146	3279
916.259	3260
916.371	3420
916.483	3374
916.595	3287
916.708	3382
916.82	3386
916.932	3329
917.044	3348
917.156	3359
917.268	3233
917.38	3310
917.491	3302
917.603	3416
917.715	3443
917.826	3488
917.938	3401
918.049	3294
918.161	3435
918.272	3603
918.384	3603
918.495	3542
918.606	3397
918.717	3291
918.828	3428
918.939	3469
919.05	3355
919.161	3424
919.272	3218
919.383	3287
919.494	3515
919.604	3717
919.715	3477
919.826	3458
919.936	3462
920.047	3580
920.157	3576
920.267	3812
920.378	3622
920.488	3587
920.598	3808
920.708	3983
920.818	3861
920.928	3850
921.038	4002
921.148	3994
921.258	3713
921.368	3614
921.477	3599
921.587	3534
921.697	3439
921.806	3618
921.916	3511
922.025	3367
922.134	3409
922.244	3321
922.353	3401
922.462	3313
922.571	3256
922.68	3138
922.789	3119
922.898	3146
923.007	3123
923.116	3226
923.224	3195
923.333	3195
923.442	3131
923.55	3108
923.659	3173
923.767	3237
923.876	3142
923.984	3226
924.092	3138
924.201	3169
924.309	3241
924.417	3272
924.525	3222
924.633	3230
924.741	4013
924.849	3081
924.956	3294
925.064	3119
925.172	3058
925.279	3131
925.387	3249
925.494	3233
925.602	3370
925.709	3367
925.816	3218
925.924	3317
926.031	3367
926.138	3329
926.245	3367
926.352	3279
926.459	3405
926.566	3469
926.673	3363
926.779	3272
926.886	3253
926.993	3154
927.099	3157
927.206	3108
927.312	3135
927.419	3241
927.525	3226
927.631	3272
927.737	3127
927.843	3146
927.95	3036
928.056	3161
928.162	3176
928.267	3275
928.373	3835
928.479	3321
928.585	3066
928.69	3233
928.796	3279
928.901	3173
929.007	3058
929.112	3226
929.218	3176
929.323	3154
929.428	3199
929.533	3321
929.638	3142
929.743	3207
929.848	3256
929.953	3203
930.058	3157
930.163	2994
930.267	3066
930.372	3203
930.477	3036
930.581	3340
930.685	3207
930.79	3055
930.894	3150
930.998	3116
931.103	3298
931.207	2941
931.311	2933
931.415	2933
931.519	2807
931.623	2845
