Data from test_V78500241_479.txt Node
Date: Fri Mar 25 16:18:31 CST 2022
User: usil
Spectrometer: V785-0024
Trigger mode: 0
Integration Time (sec): 4.000000E-1
Scans to average: 1
Nonlinearity correction enabled: false
Boxcar width: 0
Storing dark spectrum: false
XAxis mode: Wavelengths
Number of Pixels in Spectrum: 1024
>>>>>Begin Spectral Data<<<<<
801.071	2910
801.214	2929
801.356	2868
801.499	2895
801.641	2857
801.783	2872
801.926	3001
802.068	2960
802.211	2986
802.353	3017
802.496	2952
802.638	2971
802.78	3036
802.923	3051
803.065	2975
803.208	2880
803.35	2891
803.492	2929
803.635	2906
803.777	2724
803.919	2845
804.061	3176
804.204	2914
804.346	2826
804.488	2826
804.63	2952
804.773	2861
804.915	2899
805.057	3047
805.199	2906
805.341	2937
805.483	2979
805.626	2944
805.768	2967
805.91	3043
806.052	3089
806.194	2998
806.336	3203
806.478	3001
806.62	2971
806.762	2956
806.904	3017
807.046	3150
807.188	2960
807.33	2887
807.472	2963
807.614	2880
807.756	2929
807.898	2910
808.04	2853
808.182	2975
808.324	2960
808.465	2876
808.607	2891
808.749	2826
808.891	2861
809.033	2967
809.174	2941
809.316	2899
809.458	2902
809.6	2807
809.741	2781
809.883	2807
810.025	2883
810.166	2883
810.308	2857
810.45	2838
810.591	2766
810.733	2826
810.875	2849
811.016	2807
811.158	2758
811.299	2792
811.441	2990
811.582	2918
811.724	2838
811.865	2834
812.007	2910
812.148	2899
812.29	2891
812.431	2914
812.573	2956
812.714	2986
812.855	3066
812.997	3036
813.138	3112
813.279	3051
813.421	3032
813.562	3013
813.703	2883
813.845	2864
813.986	2800
814.127	2769
814.268	2842
814.41	2895
814.551	2864
814.692	2929
814.833	2857
814.974	2941
815.115	2994
815.256	2891
815.397	2830
815.539	2914
815.68	2823
815.821	2819
815.962	2982
816.103	2956
816.244	2883
816.385	2883
816.526	3009
816.666	2937
816.807	2773
816.948	2895
817.089	2948
817.23	2876
817.371	2807
817.512	2830
817.653	2887
817.793	2838
817.934	2929
818.075	2986
818.216	3039
818.356	3013
818.497	2876
818.638	2788
818.778	2823
818.919	2811
819.06	2807
819.2	2922
819.341	2857
819.481	2804
819.622	2948
819.762	3131
819.903	3070
820.043	2929
820.184	2929
820.324	2899
820.465	3013
820.605	3058
820.746	3036
820.886	2975
821.026	3142
821.167	3169
821.307	3279
821.447	3294
821.588	3260
821.728	3241
821.868	3188
822.008	3097
822.149	3211
822.289	3249
822.429	3104
822.569	3123
822.709	3192
822.849	3036
822.99	3089
823.13	3207
823.27	3230
823.41	3127
823.55	3180
823.69	3165
823.83	3211
823.97	3062
824.11	3020
824.25	3024
824.389	3089
824.529	3135
824.669	3077
824.809	3237
824.949	3279
825.089	3207
825.228	3207
825.368	2967
825.508	2952
825.648	2979
825.787	3009
825.927	3036
826.067	2979
826.206	2967
826.346	3070
826.485	3108
826.625	3093
826.765	3275
826.904	3256
827.044	2994
827.183	2933
827.323	2899
827.462	2975
827.601	2929
827.741	2944
827.88	2944
828.02	2906
828.159	3005
828.298	3089
828.437	3173
828.577	3058
828.716	3279
828.855	3112
828.994	2910
829.134	2861
829.273	2929
829.412	2895
829.551	2861
829.69	2872
829.829	3024
829.968	3169
830.107	3017
830.246	3047
830.385	2948
830.524	2902
830.663	2823
830.802	2739
830.941	2689
831.08	2651
831.219	2777
831.357	2769
831.496	2963
831.635	2743
831.774	2670
831.913	2663
832.051	2560
832.19	2621
832.329	2720
832.467	2583
832.606	2526
832.744	2587
832.883	2636
833.022	2625
833.16	2678
833.299	2708
833.437	2708
833.576	2724
833.714	2758
833.852	2788
833.991	2796
834.129	2880
834.267	2826
834.406	2842
834.544	2925
834.682	2914
834.821	2895
834.959	3138
835.097	2910
835.235	3123
835.373	3032
835.511	3036
835.65	2994
835.788	2975
835.926	2876
836.064	2819
836.202	2861
836.34	3104
836.478	3157
836.615	3066
836.753	3180
836.891	3192
837.029	3180
837.167	3173
837.305	3066
837.443	3036
837.58	2986
837.718	3195
837.856	3119
837.993	3100
838.131	3138
838.269	3135
838.406	3123
838.544	3081
838.681	2975
838.819	2982
838.956	2853
839.094	2868
839.231	2929
839.369	3009
839.506	3393
839.643	3260
839.781	3013
839.918	2994
840.055	3066
840.193	3108
840.33	3104
840.467	3112
840.604	3157
840.742	3431
840.879	3089
841.016	3047
841.153	3119
841.29	3367
841.427	3325
841.564	3275
841.701	3294
841.838	3245
841.975	3192
842.112	3203
842.249	3104
842.385	3036
842.522	3264
842.659	3104
842.796	3100
842.933	3119
843.069	3055
843.206	3051
843.343	3211
843.479	3108
843.616	3199
843.752	2899
843.889	2902
844.025	3081
844.162	2925
844.298	3081
844.435	2975
844.571	2918
844.708	3089
844.844	3211
844.98	3218
845.117	3199
845.253	3070
845.389	3051
845.525	3116
845.661	3119
845.798	3017
845.934	3154
846.07	3089
846.206	3237
846.342	3351
846.478	3253
846.614	3123
846.75	3043
846.886	3055
847.022	3291
847.158	3176
847.294	3241
847.429	3260
847.565	3207
847.701	3485
847.837	3100
847.972	3036
848.108	3203
848.244	3173
848.379	3028
848.515	2956
848.65	2960
848.786	2944
848.921	3036
849.057	3135
849.192	3142
849.328	3093
849.463	3116
849.598	3097
849.734	3051
849.869	3051
850.004	2944
850.14	2998
850.275	2918
850.41	2891
850.545	2902
850.68	2956
850.815	2971
850.95	2994
851.085	3188
851.22	3154
851.355	3039
851.49	3001
851.625	2975
851.76	3020
851.895	2960
852.03	2910
852.165	3066
852.299	3146
852.434	3165
852.569	3180
852.703	3173
852.838	3237
852.973	3321
853.107	3351
853.242	3161
853.376	3119
853.511	3024
853.645	3020
853.78	3218
853.914	3123
854.048	3093
854.183	3104
854.317	3138
854.451	3336
854.585	3157
854.72	3085
854.854	3199
854.988	3089
855.122	3116
855.256	3009
855.39	3131
855.524	3233
855.658	3184
855.792	3161
855.926	3188
856.06	3222
856.194	3283
856.327	3146
856.461	3097
856.595	3119
856.729	3116
856.862	3222
856.996	3150
857.13	3214
857.263	3233
857.397	3291
857.53	3138
857.664	3230
857.797	3291
857.931	3279
858.064	3173
858.197	3233
858.331	3165
858.464	3093
858.597	3043
858.731	3131
858.864	3100
858.997	3074
859.13	3188
859.263	3184
859.396	3195
859.529	3077
859.662	3070
859.795	3066
859.928	3131
860.061	3291
860.194	3313
860.327	3169
860.46	3127
860.592	3264
860.725	3245
860.858	3237
860.99	3131
861.123	3032
861.256	3070
861.388	3188
861.521	3835
861.653	3001
861.786	2994
861.918	2998
862.05	3097
862.183	3112
862.315	3192
862.447	3241
862.58	3097
862.712	2918
862.844	2868
862.976	3047
863.108	3047
863.24	3348
863.372	2902
863.504	2963
863.636	2979
863.768	3074
863.9	3005
864.032	2914
864.164	2975
864.296	3055
864.428	3081
864.559	3089
864.691	3055
864.823	3112
864.954	3043
865.086	3039
865.217	3009
865.349	2986
865.48	3024
865.612	3005
865.743	3146
865.875	3017
866.006	2948
866.137	3028
866.269	2925
866.4	2925
866.531	2914
866.662	2910
866.793	2899
866.924	2895
867.055	2975
867.186	2933
867.317	2872
867.448	2872
867.579	2872
867.71	2842
867.841	2834
867.972	2967
868.103	2883
868.233	2906
868.364	2872
868.495	2887
868.625	3074
868.756	3192
868.886	3020
869.017	3051
869.147	3169
869.278	3192
869.408	3039
869.539	3036
869.669	3131
869.799	3039
869.929	3138
870.06	3108
870.19	3317
870.32	3272
870.45	3302
870.58	3336
870.71	3473
870.84	3454
870.97	3294
871.1	3226
871.23	3530
871.36	3462
871.489	3355
871.619	3382
871.749	3428
871.879	3416
872.008	3488
872.138	3344
872.267	3256
872.397	3157
872.526	3112
872.656	3039
872.785	3085
872.915	3249
873.044	3329
873.173	3233
873.303	3249
873.432	3245
873.561	3241
873.69	3146
873.819	3116
873.948	3245
874.077	3093
874.206	3066
874.335	3081
874.464	3218
874.593	3363
874.722	3268
874.851	3416
874.979	3374
875.108	3321
875.237	3169
875.365	3180
875.494	3195
875.623	3256
875.751	3104
875.88	3142
876.008	3176
876.136	3214
876.265	3374
876.393	3523
876.521	3443
876.65	3389
876.778	3336
876.906	3283
877.034	3230
877.162	3226
877.29	3146
877.418	3291
877.546	3230
877.674	3249
877.802	3268
877.93	3211
878.058	3180
878.185	3142
878.313	3241
878.441	3241
878.568	3104
878.696	3184
878.824	3272
878.951	3329
879.079	3462
879.206	3671
879.333	3447
879.461	3355
879.588	3374
879.715	3526
879.842	3641
879.97	3424
880.097	3230
880.224	3195
880.351	3279
880.478	3287
880.605	3253
880.732	3230
880.859	3526
880.986	3317
881.112	3374
881.239	3241
881.366	3142
881.493	3089
881.619	3066
881.746	3135
881.872	3154
881.999	3146
882.125	3218
882.252	3302
882.378	3336
882.505	3485
882.631	3370
882.757	3203
882.883	3233
883.01	3279
883.136	3184
883.262	3142
883.388	3138
883.514	3363
883.64	3447
883.766	3332
883.892	3211
884.018	3287
884.143	3469
884.269	3587
884.395	3241
884.52	3176
884.646	3222
884.772	3161
884.897	3150
885.023	3233
885.148	3401
885.274	3420
885.399	3386
885.524	3325
885.65	3325
885.775	3363
885.9	3325
886.025	3450
886.15	3416
886.275	3348
886.4	3264
886.525	3306
886.65	3294
886.775	3313
886.9	3549
887.025	3694
887.149	3447
887.274	3287
887.399	3230
887.523	3237
887.648	3237
887.773	3230
887.897	3420
888.021	3458
888.146	3351
888.27	3473
888.395	3564
888.519	3485
888.643	3454
888.767	3462
888.891	3336
889.015	3313
889.139	3329
889.263	3218
889.387	3450
889.511	3515
889.635	3481
889.759	3310
889.883	3332
890.006	3409
890.13	3553
890.254	3313
890.377	3340
890.501	3241
890.624	3188
890.748	3359
890.871	3233
890.995	3195
891.118	3104
891.241	3256
891.364	3256
891.488	3348
891.611	3226
891.734	3237
891.857	3313
891.98	3237
892.103	3344
892.226	3310
892.349	3272
892.471	3135
892.594	3253
892.717	3329
892.839	3268
892.962	3332
893.085	3378
893.207	3336
893.33	3203
893.452	3233
893.575	3389
893.697	3302
893.819	3458
893.941	3530
894.064	3515
894.186	3306
894.308	3325
894.43	3473
894.552	3568
894.674	3466
894.796	3310
894.918	3291
895.04	3283
895.161	3492
895.283	3431
895.405	3340
895.526	3386
895.648	3462
895.769	3420
895.891	3519
896.012	3519
896.134	3481
896.255	3439
896.376	3428
896.498	3386
896.619	3477
896.74	3397
896.861	3435
896.982	3705
897.103	3854
897.224	3614
897.345	3542
897.466	3473
897.587	3485
897.708	3644
897.828	3576
897.949	3473
898.07	3386
898.19	3424
898.311	3686
898.431	3466
898.552	3549
898.672	3610
898.792	3606
898.913	3580
899.033	3424
899.153	3329
899.273	3253
899.393	3264
899.513	3397
899.633	3291
899.753	3393
899.873	3355
899.993	3439
900.113	3382
900.232	3420
900.352	3374
900.472	3313
900.591	3249
900.711	3310
900.83	3317
900.95	3450
901.069	3553
901.189	3386
901.308	3199
901.427	3154
901.546	3241
901.665	3325
901.784	3409
901.904	3253
902.023	3123
902.141	3047
902.26	3032
902.379	3138
902.498	3100
902.617	3097
902.735	3256
902.854	3249
902.973	3233
903.091	3104
903.21	3093
903.328	3207
903.446	3089
903.565	3131
903.683	3241
903.801	3176
903.919	3275
904.038	3283
904.156	3211
904.274	3310
904.392	3264
904.51	3313
904.627	3370
904.745	3504
904.863	3526
904.981	3275
905.098	3188
905.216	3237
905.334	3310
905.451	3344
905.569	3344
905.686	3469
905.803	3488
905.921	3294
906.038	3439
906.155	3370
906.272	3306
906.389	3359
906.506	3256
906.623	3275
906.74	3287
906.857	3233
906.974	3313
907.091	3523
907.208	3599
907.324	3469
907.441	3424
907.557	3249
907.674	3275
907.79	3214
907.907	3310
908.023	3397
908.139	3401
908.256	3351
908.372	3428
908.488	3389
908.604	3302
908.72	3272
908.836	3283
908.952	3363
909.068	3359
909.184	3542
909.3	3435
909.415	3526
909.531	3481
909.647	3283
909.762	3287
909.878	3302
909.993	3378
910.108	3351
910.224	3336
910.339	3435
910.454	3348
910.57	3329
910.685	3249
910.8	3637
910.915	3603
911.03	3504
911.145	3321
911.259	3310
911.374	3382
911.489	3287
911.604	3291
911.718	3123
911.833	3195
911.947	3070
912.062	3039
912.176	3173
912.291	3230
912.405	3222
912.519	3420
912.633	3534
912.748	3378
912.862	3291
912.976	3161
913.09	3070
913.204	3188
913.318	3230
913.431	3329
913.545	3370
913.659	3450
913.772	3344
913.886	3230
914	3214
914.113	3363
914.226	3424
914.34	3344
914.453	3245
914.566	3424
914.68	3321
914.793	3340
914.906	3222
915.019	3127
915.132	3081
915.245	3173
915.358	3211
915.47	3279
915.583	3287
915.696	3336
915.809	3466
915.921	3450
916.034	3291
916.146	3283
916.259	3249
916.371	3389
916.483	3382
916.595	3291
916.708	3336
916.82	3367
916.932	3393
917.044	3397
917.156	3351
917.268	3275
917.38	3340
917.491	3317
917.603	3389
917.715	3462
917.826	3500
917.938	3420
918.049	3321
918.161	3454
918.272	3603
918.384	3606
918.495	3496
918.606	3370
918.717	3302
918.828	3405
918.939	3420
919.05	3393
919.161	3420
919.272	3192
919.383	3336
919.494	3542
919.604	3720
919.715	3500
919.826	3428
919.936	3485
920.047	3614
920.157	3584
920.267	3759
920.378	3603
920.488	3557
920.598	3816
920.708	3983
920.818	3854
920.928	3869
921.038	4017
921.148	4040
921.258	3724
921.368	3644
921.477	3572
921.587	3614
921.697	3481
921.806	3648
921.916	3523
922.025	3370
922.134	3378
922.244	3332
922.353	3454
922.462	3313
922.571	3253
922.68	3116
922.789	3108
922.898	3135
923.007	3131
923.116	3195
923.224	3218
923.333	3192
923.442	3165
923.55	3131
923.659	3165
923.767	3237
923.876	3138
923.984	3260
924.092	3161
924.201	3195
924.309	3222
924.417	3291
924.525	3249
924.633	3233
924.741	3991
924.849	3032
924.956	3283
925.064	3112
925.172	3070
925.279	3127
925.387	3230
925.494	3222
925.602	3317
925.709	3367
925.816	3199
925.924	3317
926.031	3401
926.138	3325
926.245	3401
926.352	3279
926.459	3439
926.566	3473
926.673	3359
926.779	3256
926.886	3287
926.993	3165
927.099	3146
927.206	3123
927.312	3142
927.419	3245
927.525	3226
927.631	3302
927.737	3131
927.843	3150
927.95	3058
928.056	3180
928.162	3203
928.267	3268
928.373	3850
928.479	3306
928.585	3055
928.69	3233
928.796	3287
928.901	3180
929.007	3085
929.112	3233
929.218	3199
929.323	3180
929.428	3165
929.533	3325
929.638	3100
929.743	3192
929.848	3264
929.953	3245
930.058	3142
930.163	3028
930.267	3051
930.372	3253
930.477	3039
930.581	3329
930.685	3169
930.79	3062
930.894	3142
930.998	3108
931.103	3298
931.207	2982
931.311	2918
931.415	2918
931.519	2777
931.623	2819
