Data from test_V78500241_1928.txt Node
Date: Fri Mar 25 16:28:33 CST 2022
User: usil
Spectrometer: V785-0024
Trigger mode: 0
Integration Time (sec): 4.000000E-1
Scans to average: 1
Nonlinearity correction enabled: false
Boxcar width: 0
Storing dark spectrum: false
XAxis mode: Wavelengths
Number of Pixels in Spectrum: 1024
>>>>>Begin Spectral Data<<<<<
801.071	2887
801.214	2918
801.356	2861
801.499	2910
801.641	2868
801.783	2929
801.926	3024
802.068	2933
802.211	3001
802.353	3047
802.496	2952
802.638	3001
802.78	3032
802.923	3066
803.065	2994
803.208	2899
803.35	2899
803.492	2895
803.635	2937
803.777	2727
803.919	2842
804.061	3184
804.204	2922
804.346	2918
804.488	2815
804.63	2982
804.773	2887
804.915	2895
805.057	3081
805.199	2925
805.341	2956
805.483	3039
805.626	2963
805.768	2986
805.91	3058
806.052	3127
806.194	3043
806.336	3211
806.478	3043
806.62	2967
806.762	2948
806.904	3036
807.046	3138
807.188	2990
807.33	2910
807.472	2979
807.614	2864
807.756	2952
807.898	2941
808.04	2895
808.182	2998
808.324	2933
808.465	2891
808.607	2872
808.749	2750
808.891	2807
809.033	2994
809.174	2979
809.316	2853
809.458	2883
809.6	2758
809.741	2762
809.883	2762
810.025	2826
810.166	2876
810.308	2823
810.45	2861
810.591	2769
810.733	2743
810.875	2834
811.016	2754
811.158	2735
811.299	2800
811.441	2906
811.582	2891
811.724	2826
811.865	2830
812.007	2891
812.148	2872
812.29	2834
812.431	2925
812.573	2922
812.714	3017
812.855	3039
812.997	3032
813.138	3146
813.279	2982
813.421	3013
813.562	2967
813.703	2853
813.845	2899
813.986	2773
814.127	2705
814.268	2807
814.41	2834
814.551	2804
814.692	2914
814.833	2800
814.974	2876
815.115	2952
815.256	2804
815.397	2807
815.539	2842
815.68	2754
815.821	2788
815.962	2929
816.103	2891
816.244	2891
816.385	2838
816.526	2960
816.666	2876
816.807	2735
816.948	2899
817.089	2872
817.23	2838
817.371	2777
817.512	2792
817.653	2845
817.793	2792
817.934	2880
818.075	2967
818.216	2956
818.356	3001
818.497	2895
818.638	2796
818.778	2800
818.919	2807
819.06	2766
819.2	2853
819.341	2800
819.481	2830
819.622	2914
819.762	3043
819.903	3085
820.043	2952
820.184	2887
820.324	2899
820.465	3005
820.605	2990
820.746	3039
820.886	2918
821.026	3119
821.167	3119
821.307	3207
821.447	3230
821.588	3253
821.728	3192
821.868	3169
822.008	3093
822.149	3154
822.289	3233
822.429	3070
822.569	3062
822.709	3169
822.849	3005
822.99	3081
823.13	3131
823.27	3188
823.41	3077
823.55	3150
823.69	3138
823.83	3211
823.97	3089
824.11	2998
824.25	2982
824.389	3020
824.529	3062
824.669	3047
824.809	3161
824.949	3233
825.089	3245
825.228	3169
825.368	2998
825.508	2948
825.648	2941
825.787	3013
825.927	3047
826.067	2948
826.206	2918
826.346	3036
826.485	3036
826.625	3070
826.765	3237
826.904	3173
827.044	2994
827.183	2933
827.323	2819
827.462	2941
827.601	2929
827.741	2941
827.88	2963
828.02	2834
828.159	2982
828.298	3051
828.437	3127
828.577	3066
828.716	3214
828.855	3074
828.994	2891
829.134	2868
829.273	2880
829.412	2910
829.551	2857
829.69	2899
829.829	2971
829.968	3100
830.107	3039
830.246	3017
830.385	2887
830.524	2830
830.663	2830
830.802	2743
830.941	2644
831.08	2648
831.219	2746
831.357	2724
831.496	2941
831.635	2697
831.774	2651
831.913	2670
832.051	2533
832.19	2590
832.329	2663
832.467	2530
832.606	2503
832.744	2564
832.883	2598
833.022	2560
833.16	2636
833.299	2670
833.437	2693
833.576	2682
833.714	2689
833.852	2705
833.991	2724
834.129	2826
834.267	2830
834.406	2796
834.544	2864
834.682	2842
834.821	2880
834.959	3062
835.097	2872
835.235	3058
835.373	2975
835.511	2994
835.65	2918
835.788	2933
835.926	2845
836.064	2785
836.202	2823
836.34	3085
836.478	3116
836.615	3043
836.753	3131
836.891	3184
837.029	3146
837.167	3104
837.305	3047
837.443	3077
837.58	2937
837.718	3142
837.856	3047
837.993	3020
838.131	3112
838.269	3066
838.406	3066
838.544	3097
838.681	2902
838.819	2872
838.956	2826
839.094	2842
839.231	2925
839.369	2979
839.506	3359
839.643	3218
839.781	3001
839.918	2929
840.055	3047
840.193	3032
840.33	3039
840.467	3051
840.604	3142
840.742	3401
840.879	3043
841.016	3024
841.153	3085
841.29	3317
841.427	3275
841.564	3249
841.701	3264
841.838	3214
841.975	3173
842.112	3176
842.249	3070
842.385	3013
842.522	3253
842.659	3077
842.796	3001
842.933	3127
843.069	3047
843.206	3062
843.343	3127
843.479	3093
843.616	3131
843.752	2895
843.889	2861
844.025	3028
844.162	2826
844.298	3055
844.435	2963
844.571	2960
844.708	3093
844.844	3123
844.98	3199
845.117	3176
845.253	3047
845.389	2990
845.525	3112
845.661	3062
845.798	2948
845.934	3119
846.07	3024
846.206	3222
846.342	3313
846.478	3207
846.614	3104
846.75	3024
846.886	2986
847.022	3207
847.158	3123
847.294	3154
847.429	3237
847.565	3176
847.701	3431
847.837	3036
847.972	2998
848.108	3146
848.244	3104
848.379	2998
848.515	2933
848.65	2922
848.786	2944
848.921	3005
849.057	3077
849.192	3154
849.328	3039
849.463	3097
849.598	3028
849.734	3047
849.869	2952
850.004	2891
850.14	2960
850.275	2922
850.41	2815
850.545	2853
850.68	2864
850.815	2952
850.95	2952
851.085	3150
851.22	3070
851.355	3039
851.49	2986
851.625	3013
851.76	2994
851.895	2910
852.03	2918
852.165	3055
852.299	3123
852.434	3138
852.569	3180
852.703	3184
852.838	3294
852.973	3348
853.107	3329
853.242	3161
853.376	3081
853.511	2956
853.645	3017
853.78	3230
853.914	3146
854.048	3119
854.183	3085
854.317	3157
854.451	3325
854.585	3131
854.72	3062
854.854	3214
854.988	3043
855.122	3150
855.256	2998
855.39	3138
855.524	3264
855.658	3192
855.792	3169
855.926	3233
856.06	3283
856.194	3317
856.327	3184
856.461	3123
856.595	3127
856.729	3100
856.862	3253
856.996	3180
857.13	3237
857.263	3253
857.397	3317
857.53	3180
857.664	3211
857.797	3275
857.931	3298
858.064	3176
858.197	3222
858.331	3195
858.464	3131
858.597	3024
858.731	3176
858.864	3173
858.997	3123
859.13	3157
859.263	3222
859.396	3233
859.529	3150
859.662	3093
859.795	3093
859.928	3176
860.061	3268
860.194	3344
860.327	3165
860.46	3138
860.592	3272
860.725	3283
860.858	3306
860.99	3116
861.123	3070
861.256	3062
861.388	3150
861.521	3865
861.653	3074
861.786	3013
861.918	3020
862.05	3104
862.183	3077
862.315	3157
862.447	3245
862.58	3142
862.712	3017
862.844	2914
862.976	3066
863.108	3047
863.24	3351
863.372	2918
863.504	3013
863.636	2990
863.768	3032
863.9	3005
864.032	2914
864.164	2971
864.296	3070
864.428	3104
864.559	3138
864.691	3077
864.823	3112
864.954	3058
865.086	3070
865.217	3047
865.349	2963
865.48	2994
865.612	3036
865.743	3180
865.875	3028
866.006	2960
866.137	3001
866.269	2986
866.4	2941
866.531	2937
866.662	2906
866.793	2937
866.924	2937
867.055	2982
867.186	2971
867.317	2925
867.448	2891
867.579	2880
867.71	2883
867.841	2864
867.972	2952
868.103	2933
868.233	2906
868.364	2891
868.495	2929
868.625	3112
868.756	3207
868.886	3020
869.017	3043
869.147	3161
869.278	3184
869.408	3062
869.539	3051
869.669	3100
869.799	3093
869.929	3116
870.06	3165
870.19	3306
870.32	3294
870.45	3359
870.58	3420
870.71	3469
870.84	3473
870.97	3294
871.1	3264
871.23	3526
871.36	3469
871.489	3397
871.619	3420
871.749	3424
871.879	3466
872.008	3469
872.138	3389
872.267	3348
872.397	3169
872.526	3104
872.656	3001
872.785	3104
872.915	3260
873.044	3359
873.173	3260
873.303	3245
873.432	3264
873.561	3321
873.69	3165
873.819	3142
873.948	3237
874.077	3142
874.206	3058
874.335	3119
874.464	3199
874.593	3359
874.722	3294
874.851	3405
874.979	3386
875.108	3363
875.237	3218
875.365	3241
875.494	3188
875.623	3279
875.751	3108
875.88	3123
876.008	3245
876.136	3291
876.265	3450
876.393	3519
876.521	3435
876.65	3435
876.778	3340
876.906	3287
877.034	3211
877.162	3291
877.29	3222
877.418	3264
877.546	3268
877.674	3310
877.802	3249
877.93	3237
878.058	3203
878.185	3116
878.313	3249
878.441	3237
878.568	3077
878.696	3161
878.824	3294
878.951	3310
879.079	3523
879.206	3648
879.333	3450
879.461	3393
879.588	3405
879.715	3511
879.842	3622
879.97	3409
880.097	3203
880.224	3154
880.351	3241
880.478	3260
880.605	3230
880.732	3199
880.859	3557
880.986	3367
881.112	3336
881.239	3226
881.366	3104
881.493	3058
881.619	3051
881.746	3062
881.872	3146
881.999	3112
882.125	3142
882.252	3287
882.378	3294
882.505	3466
882.631	3268
882.757	3214
882.883	3230
883.01	3264
883.136	3173
883.262	3108
883.388	3154
883.514	3348
883.64	3355
883.766	3302
883.892	3203
884.018	3256
884.143	3393
884.269	3587
884.395	3241
884.52	3161
884.646	3211
884.772	3154
884.897	3116
885.023	3245
885.148	3348
885.274	3424
885.399	3386
885.524	3283
885.65	3283
885.775	3355
885.9	3321
886.025	3443
886.15	3382
886.275	3329
886.4	3275
886.525	3344
886.65	3279
886.775	3287
886.9	3496
887.025	3663
887.149	3428
887.274	3268
887.399	3203
887.523	3192
887.648	3211
887.773	3233
887.897	3370
888.021	3447
888.146	3359
888.27	3462
888.395	3568
888.519	3443
888.643	3477
888.767	3507
888.891	3378
889.015	3268
889.139	3317
889.263	3294
889.387	3420
889.511	3553
889.635	3443
889.759	3313
889.883	3329
890.006	3409
890.13	3507
890.254	3272
890.377	3348
890.501	3249
890.624	3203
890.748	3287
890.871	3192
890.995	3093
891.118	3077
891.241	3211
891.364	3256
891.488	3336
891.611	3184
891.734	3294
891.857	3348
891.98	3287
892.103	3344
892.226	3294
892.349	3222
892.471	3150
892.594	3283
892.717	3306
892.839	3325
892.962	3340
893.085	3367
893.207	3317
893.33	3184
893.452	3253
893.575	3355
893.697	3291
893.819	3515
893.941	3542
894.064	3462
894.186	3275
894.308	3298
894.43	3496
894.552	3564
894.674	3462
894.796	3268
894.918	3344
895.04	3313
895.161	3469
895.283	3431
895.405	3310
895.526	3386
895.648	3488
895.769	3416
895.891	3481
896.012	3519
896.134	3447
896.255	3439
896.376	3393
896.498	3397
896.619	3447
896.74	3355
896.861	3405
896.982	3717
897.103	3861
897.224	3614
897.345	3526
897.466	3431
897.587	3515
897.708	3614
897.828	3545
897.949	3462
898.07	3325
898.19	3412
898.311	3633
898.431	3511
898.552	3538
898.672	3622
898.792	3587
898.913	3538
899.033	3466
899.153	3275
899.273	3249
899.393	3306
899.513	3367
899.633	3329
899.753	3317
899.873	3340
899.993	3389
900.113	3332
900.232	3393
900.352	3374
900.472	3298
900.591	3241
900.711	3291
900.83	3237
900.95	3431
901.069	3519
901.189	3409
901.308	3203
901.427	3123
901.546	3180
901.665	3291
901.784	3332
901.904	3249
902.023	3184
902.141	3017
902.26	3020
902.379	3184
902.498	3089
902.617	3089
902.735	3195
902.854	3241
902.973	3245
903.091	3055
903.21	3104
903.328	3199
903.446	3165
903.565	3116
903.683	3218
903.801	3131
903.919	3294
904.038	3310
904.156	3165
904.274	3302
904.392	3237
904.51	3344
904.627	3344
904.745	3435
904.863	3557
904.981	3283
905.098	3184
905.216	3279
905.334	3325
905.451	3317
905.569	3310
905.686	3435
905.803	3481
905.921	3275
906.038	3454
906.155	3367
906.272	3291
906.389	3378
906.506	3264
906.623	3279
906.74	3268
906.857	3211
906.974	3283
907.091	3450
907.208	3580
907.324	3485
907.441	3393
907.557	3214
907.674	3245
907.79	3230
907.907	3287
908.023	3382
908.139	3386
908.256	3351
908.372	3382
908.488	3393
908.604	3268
908.72	3237
908.836	3294
908.952	3310
909.068	3367
909.184	3492
909.3	3458
909.415	3515
909.531	3500
909.647	3306
909.762	3313
909.878	3260
909.993	3355
910.108	3355
910.224	3344
910.339	3431
910.454	3378
910.57	3294
910.685	3275
910.8	3614
910.915	3572
911.03	3473
911.145	3287
911.259	3313
911.374	3317
911.489	3249
911.604	3237
911.718	3100
911.833	3188
911.947	3055
912.062	2994
912.176	3154
912.291	3218
912.405	3188
912.519	3488
912.633	3481
912.748	3329
912.862	3294
912.976	3165
913.09	3074
913.204	3135
913.318	3230
913.431	3401
913.545	3321
913.659	3412
913.772	3382
913.886	3195
914	3207
914.113	3348
914.226	3416
914.34	3401
914.453	3218
914.566	3409
914.68	3287
914.793	3302
914.906	3150
915.019	3116
915.132	3085
915.245	3192
915.358	3230
915.47	3214
915.583	3249
915.696	3332
915.809	3447
915.921	3485
916.034	3268
916.146	3249
916.259	3226
916.371	3386
916.483	3382
916.595	3336
916.708	3363
916.82	3344
916.932	3313
917.044	3329
917.156	3340
917.268	3256
917.38	3298
917.491	3313
917.603	3355
917.715	3473
917.826	3454
917.938	3374
918.049	3287
918.161	3416
918.272	3584
918.384	3564
918.495	3530
918.606	3348
918.717	3310
918.828	3344
918.939	3367
919.05	3325
919.161	3367
919.272	3176
919.383	3279
919.494	3530
919.604	3701
919.715	3481
919.826	3435
919.936	3500
920.047	3576
920.157	3580
920.267	3770
920.378	3641
920.488	3557
920.598	3823
920.708	3949
920.818	3846
920.928	3835
921.038	4067
921.148	4029
921.258	3724
921.368	3606
921.477	3618
921.587	3553
921.697	3519
921.806	3660
921.916	3591
922.025	3416
922.134	3409
922.244	3348
922.353	3477
922.462	3310
922.571	3256
922.68	3146
922.789	3108
922.898	3188
923.007	3146
923.116	3230
923.224	3226
923.333	3211
923.442	3142
923.55	3157
923.659	3207
923.767	3294
923.876	3176
923.984	3313
924.092	3173
924.201	3249
924.309	3253
924.417	3294
924.525	3241
924.633	3302
924.741	4196
924.849	3062
924.956	3329
925.064	3119
925.172	3081
925.279	3131
925.387	3192
925.494	3222
925.602	3420
925.709	3367
925.816	3275
925.924	3325
926.031	3439
926.138	3374
926.245	3363
926.352	3291
926.459	3481
926.566	3542
926.673	3351
926.779	3298
926.886	3279
926.993	3211
927.099	3184
927.206	3146
927.312	3157
927.419	3245
927.525	3241
927.631	3310
927.737	3199
927.843	3184
927.95	3074
928.056	3154
928.162	3253
928.267	3241
928.373	3896
928.479	3378
928.585	3142
928.69	3275
928.796	3310
928.901	3230
929.007	3066
929.112	3253
929.218	3245
929.323	3199
929.428	3195
929.533	3329
929.638	3199
929.743	3203
929.848	3275
929.953	3249
930.058	3192
930.163	3074
930.267	3116
930.372	3237
930.477	3100
930.581	3344
930.685	3203
930.79	3127
930.894	3138
930.998	3138
931.103	3321
931.207	3036
931.311	2975
931.415	2952
931.519	2815
931.623	2849
