Data from test_V78500241_1917.txt Node
Date: Fri Mar 25 16:28:29 CST 2022
User: usil
Spectrometer: V785-0024
Trigger mode: 0
Integration Time (sec): 4.000000E-1
Scans to average: 1
Nonlinearity correction enabled: false
Boxcar width: 0
Storing dark spectrum: false
XAxis mode: Wavelengths
Number of Pixels in Spectrum: 1024
>>>>>Begin Spectral Data<<<<<
801.071	2868
801.214	2902
801.356	2842
801.499	2914
801.641	2876
801.783	2922
801.926	3028
802.068	2975
802.211	2971
802.353	3028
802.496	2956
802.638	3017
802.78	2998
802.923	3047
803.065	3017
803.208	2891
803.35	2899
803.492	2891
803.635	2918
803.777	2727
803.919	2826
804.061	3142
804.204	2922
804.346	2899
804.488	2823
804.63	2975
804.773	2853
804.915	2861
805.057	3039
805.199	2902
805.341	2952
805.483	3017
805.626	2952
805.768	2960
805.91	3077
806.052	3066
806.194	3051
806.336	3222
806.478	2975
806.62	2982
806.762	2899
806.904	3077
807.046	3119
807.188	2937
807.33	2937
807.472	2948
807.614	2906
807.756	2982
807.898	2922
808.04	2883
808.182	3001
808.324	2937
808.465	2883
808.607	2887
808.749	2792
808.891	2838
809.033	2998
809.174	2967
809.316	2876
809.458	2899
809.6	2739
809.741	2773
809.883	2735
810.025	2842
810.166	2838
810.308	2826
810.45	2849
810.591	2785
810.733	2754
810.875	2830
811.016	2807
811.158	2731
811.299	2838
811.441	2944
811.582	2872
811.724	2796
811.865	2792
812.007	2906
812.148	2880
812.29	2823
812.431	2891
812.573	2963
812.714	2952
812.855	3039
812.997	3047
813.138	3108
813.279	3020
813.421	2918
813.562	2952
813.703	2872
813.845	2902
813.986	2777
814.127	2701
814.268	2811
814.41	2800
814.551	2800
814.692	2861
814.833	2830
814.974	2887
815.115	2956
815.256	2838
815.397	2792
815.539	2864
815.68	2792
815.821	2800
815.962	2941
816.103	2914
816.244	2895
816.385	2876
816.526	2960
816.666	2941
816.807	2769
816.948	2842
817.089	2914
817.23	2834
817.371	2766
817.512	2807
817.653	2830
817.793	2819
817.934	2887
818.075	2963
818.216	2952
818.356	2990
818.497	2857
818.638	2758
818.778	2800
818.919	2758
819.06	2735
819.2	2868
819.341	2758
819.481	2785
819.622	2933
819.762	3093
819.903	3081
820.043	2891
820.184	2914
820.324	2872
820.465	3017
820.605	3036
820.746	3032
820.886	2925
821.026	3108
821.167	3169
821.307	3249
821.447	3275
821.588	3256
821.728	3218
821.868	3222
822.008	3100
822.149	3199
822.289	3230
822.429	3047
822.569	3104
822.709	3161
822.849	3005
822.99	3062
823.13	3173
823.27	3222
823.41	3131
823.55	3131
823.69	3123
823.83	3184
823.97	3089
824.11	2982
824.25	2956
824.389	3017
824.529	3070
824.669	3055
824.809	3207
824.949	3249
825.089	3214
825.228	3138
825.368	3005
825.508	2914
825.648	2960
825.787	3017
825.927	3039
826.067	2952
826.206	2956
826.346	3028
826.485	3043
826.625	3131
826.765	3245
826.904	3211
827.044	2986
827.183	2899
827.323	2838
827.462	2963
827.601	2864
827.741	2914
827.88	2925
828.02	2823
828.159	2998
828.298	3024
828.437	3112
828.577	2990
828.716	3222
828.855	3043
828.994	2914
829.134	2895
829.273	2906
829.412	2842
829.551	2842
829.69	2872
829.829	2998
829.968	3104
830.107	3043
830.246	3009
830.385	2914
830.524	2861
830.663	2796
830.802	2727
830.941	2640
831.08	2648
831.219	2754
831.357	2720
831.496	2952
831.635	2697
831.774	2629
831.913	2667
832.051	2568
832.19	2587
832.329	2705
832.467	2556
832.606	2495
832.744	2606
832.883	2602
833.022	2602
833.16	2670
833.299	2712
833.437	2655
833.576	2682
833.714	2743
833.852	2727
833.991	2766
834.129	2861
834.267	2845
834.406	2830
834.544	2910
834.682	2929
834.821	2861
834.959	3077
835.097	2948
835.235	3085
835.373	3032
835.511	3055
835.65	2998
835.788	2979
835.926	2849
836.064	2811
836.202	2883
836.34	3154
836.478	3169
836.615	3066
836.753	3184
836.891	3241
837.029	3203
837.167	3116
837.305	3138
837.443	3081
837.58	3024
837.718	3138
837.856	3100
837.993	3062
838.131	3169
838.269	3142
838.406	3108
838.544	3131
838.681	2990
838.819	2971
838.956	2845
839.094	2883
839.231	2960
839.369	3047
839.506	3393
839.643	3237
839.781	3066
839.918	3017
840.055	3081
840.193	3074
840.33	3097
840.467	3173
840.604	3218
840.742	3469
840.879	3127
841.016	3081
841.153	3161
841.29	3355
841.427	3321
841.564	3287
841.701	3351
841.838	3283
841.975	3203
842.112	3241
842.249	3131
842.385	3070
842.522	3313
842.659	3142
842.796	3097
842.933	3131
843.069	3116
843.206	3047
843.343	3173
843.479	3135
843.616	3157
843.752	2960
843.889	2899
844.025	3104
844.162	2902
844.298	3055
844.435	2963
844.571	2963
844.708	3127
844.844	3188
844.98	3268
845.117	3218
845.253	3089
845.389	3058
845.525	3131
845.661	3131
845.798	3036
845.934	3161
846.07	3085
846.206	3260
846.342	3348
846.478	3268
846.614	3146
846.75	3051
846.886	3070
847.022	3256
847.158	3142
847.294	3192
847.429	3294
847.565	3226
847.701	3504
847.837	3043
847.972	3028
848.108	3161
848.244	3199
848.379	3032
848.515	3001
848.65	2948
848.786	3009
848.921	3077
849.057	3135
849.192	3188
849.328	3070
849.463	3135
849.598	3043
849.734	3062
849.869	3028
850.004	2967
850.14	2990
850.275	2899
850.41	2872
850.545	2899
850.68	2952
850.815	2967
850.95	3020
851.085	3207
851.22	3123
851.355	3074
851.49	2998
851.625	3032
851.76	3039
851.895	2967
852.03	2941
852.165	3077
852.299	3127
852.434	3222
852.569	3195
852.703	3176
852.838	3321
852.973	3389
853.107	3317
853.242	3192
853.376	3127
853.511	3013
853.645	3058
853.78	3253
853.914	3135
854.048	3135
854.183	3108
854.317	3157
854.451	3306
854.585	3142
854.72	3097
854.854	3226
854.988	3077
855.122	3100
855.256	3005
855.39	3112
855.524	3226
855.658	3211
855.792	3184
855.926	3226
856.06	3233
856.194	3306
856.327	3199
856.461	3097
856.595	3116
856.729	3119
856.862	3256
856.996	3192
857.13	3222
857.263	3283
857.397	3321
857.53	3135
857.664	3203
857.797	3275
857.931	3283
858.064	3169
858.197	3260
858.331	3154
858.464	3119
858.597	3047
858.731	3176
858.864	3138
858.997	3089
859.13	3154
859.263	3173
859.396	3245
859.529	3097
859.662	3104
859.795	3085
859.928	3188
860.061	3344
860.194	3310
860.327	3142
860.46	3150
860.592	3253
860.725	3283
860.858	3260
860.99	3161
861.123	3066
861.256	3104
861.388	3154
861.521	3857
861.653	3062
861.786	2990
861.918	3036
862.05	3089
862.183	3119
862.315	3184
862.447	3233
862.58	3131
862.712	2956
862.844	2887
862.976	3093
863.108	3028
863.24	3363
863.372	2906
863.504	2990
863.636	2982
863.768	3058
863.9	3036
864.032	2933
864.164	3001
864.296	3055
864.428	3131
864.559	3123
864.691	3119
864.823	3058
864.954	3066
865.086	3077
865.217	3043
865.349	3013
865.48	2994
865.612	3017
865.743	3154
865.875	3009
866.006	2967
866.137	3017
866.269	2929
866.4	2967
866.531	2941
866.662	2929
866.793	2906
866.924	2944
867.055	3024
867.186	2941
867.317	2910
867.448	2868
867.579	2887
867.71	2891
867.841	2868
867.972	2933
868.103	2948
868.233	2960
868.364	2925
868.495	2944
868.625	3104
868.756	3165
868.886	2952
869.017	3036
869.147	3192
869.278	3192
869.408	3055
869.539	3070
869.669	3131
869.799	3066
869.929	3142
870.06	3116
870.19	3367
870.32	3325
870.45	3298
870.58	3401
870.71	3496
870.84	3435
870.97	3302
871.1	3237
871.23	3488
871.36	3466
871.489	3397
871.619	3439
871.749	3450
871.879	3458
872.008	3515
872.138	3378
872.267	3283
872.397	3184
872.526	3127
872.656	3055
872.785	3127
872.915	3291
873.044	3329
873.173	3272
873.303	3283
873.432	3272
873.561	3222
873.69	3188
873.819	3165
873.948	3199
874.077	3154
874.206	3066
874.335	3123
874.464	3256
874.593	3363
874.722	3256
874.851	3401
874.979	3329
875.108	3306
875.237	3245
875.365	3169
875.494	3203
875.623	3279
875.751	3085
875.88	3146
876.008	3214
876.136	3222
876.265	3378
876.393	3549
876.521	3450
876.65	3363
876.778	3340
876.906	3283
877.034	3214
877.162	3253
877.29	3226
877.418	3249
877.546	3253
877.674	3283
877.802	3256
877.93	3233
878.058	3195
878.185	3112
878.313	3230
878.441	3218
878.568	3100
878.696	3150
878.824	3268
878.951	3294
879.079	3458
879.206	3610
879.333	3473
879.461	3355
879.588	3393
879.715	3492
879.842	3606
879.97	3374
880.097	3192
880.224	3161
880.351	3207
880.478	3237
880.605	3203
880.732	3249
880.859	3523
880.986	3321
881.112	3329
881.239	3211
881.366	3157
881.493	3074
881.619	3036
881.746	3089
881.872	3108
881.999	3127
882.125	3169
882.252	3310
882.378	3291
882.505	3435
882.631	3306
882.757	3123
882.883	3226
883.01	3245
883.136	3180
883.262	3150
883.388	3157
883.514	3348
883.64	3389
883.766	3317
883.892	3207
884.018	3279
884.143	3450
884.269	3580
884.395	3241
884.52	3173
884.646	3207
884.772	3142
884.897	3123
885.023	3222
885.148	3359
885.274	3420
885.399	3389
885.524	3306
885.65	3283
885.775	3340
885.9	3294
886.025	3469
886.15	3382
886.275	3310
886.4	3283
886.525	3363
886.65	3306
886.775	3321
886.9	3504
887.025	3648
887.149	3401
887.274	3279
887.399	3184
887.523	3214
887.648	3214
887.773	3222
887.897	3329
888.021	3439
888.146	3287
888.27	3466
888.395	3561
888.519	3428
888.643	3431
888.767	3504
888.891	3359
889.015	3264
889.139	3321
889.263	3264
889.387	3420
889.511	3553
889.635	3458
889.759	3272
889.883	3329
890.006	3428
890.13	3488
890.254	3279
890.377	3359
890.501	3241
890.624	3207
890.748	3336
890.871	3169
890.995	3135
891.118	3081
891.241	3203
891.364	3237
891.488	3325
891.611	3184
891.734	3249
891.857	3302
891.98	3275
892.103	3378
892.226	3272
892.349	3253
892.471	3089
892.594	3245
892.717	3325
892.839	3260
892.962	3329
893.085	3393
893.207	3310
893.33	3165
893.452	3218
893.575	3374
893.697	3260
893.819	3435
893.941	3542
894.064	3450
894.186	3275
894.308	3291
894.43	3454
894.552	3572
894.674	3454
894.796	3272
894.918	3317
895.04	3298
895.161	3450
895.283	3367
895.405	3325
895.526	3397
895.648	3431
895.769	3431
895.891	3469
896.012	3473
896.134	3477
896.255	3435
896.376	3439
896.498	3355
896.619	3416
896.74	3370
896.861	3393
896.982	3720
897.103	3888
897.224	3591
897.345	3511
897.466	3428
897.587	3473
897.708	3618
897.828	3545
897.949	3466
898.07	3363
898.19	3397
898.311	3618
898.431	3435
898.552	3526
898.672	3606
898.792	3591
898.913	3534
899.033	3424
899.153	3264
899.273	3268
899.393	3317
899.513	3344
899.633	3332
899.753	3325
899.873	3340
899.993	3386
900.113	3336
900.232	3412
900.352	3355
900.472	3302
900.591	3203
900.711	3306
900.83	3245
900.95	3439
901.069	3538
901.189	3359
901.308	3180
901.427	3192
901.546	3226
901.665	3317
901.784	3306
901.904	3192
902.023	3135
902.141	3043
902.26	3024
902.379	3146
902.498	3119
902.617	3047
902.735	3222
902.854	3211
902.973	3184
903.091	3051
903.21	3047
903.328	3154
903.446	3093
903.565	3085
903.683	3226
903.801	3112
903.919	3211
904.038	3275
904.156	3180
904.274	3302
904.392	3256
904.51	3272
904.627	3329
904.745	3420
904.863	3507
904.981	3256
905.098	3146
905.216	3237
905.334	3294
905.451	3310
905.569	3332
905.686	3447
905.803	3439
905.921	3298
906.038	3420
906.155	3382
906.272	3298
906.389	3325
906.506	3241
906.623	3294
906.74	3336
906.857	3184
906.974	3283
907.091	3443
907.208	3580
907.324	3507
907.441	3428
907.557	3256
907.674	3241
907.79	3260
907.907	3275
908.023	3435
908.139	3393
908.256	3336
908.372	3447
908.488	3397
908.604	3279
908.72	3260
908.836	3329
908.952	3287
909.068	3348
909.184	3542
909.3	3431
909.415	3511
909.531	3488
909.647	3306
909.762	3351
909.878	3313
909.993	3389
910.108	3393
910.224	3370
910.339	3405
910.454	3386
910.57	3329
910.685	3283
910.8	3618
910.915	3549
911.03	3466
911.145	3332
911.259	3336
911.374	3378
911.489	3291
911.604	3279
911.718	3176
911.833	3184
911.947	3097
912.062	3047
912.176	3241
912.291	3245
912.405	3268
912.519	3447
912.633	3500
912.748	3412
912.862	3306
912.976	3188
913.09	3104
913.204	3165
913.318	3272
913.431	3370
913.545	3412
913.659	3439
913.772	3348
913.886	3294
914	3279
914.113	3393
914.226	3447
914.34	3389
914.453	3260
914.566	3428
914.68	3329
914.793	3397
914.906	3222
915.019	3169
915.132	3119
915.245	3214
915.358	3199
915.47	3291
915.583	3298
915.696	3355
915.809	3416
915.921	3469
916.034	3321
916.146	3298
916.259	3226
916.371	3481
916.483	3412
916.595	3313
916.708	3344
916.82	3367
916.932	3370
917.044	3409
917.156	3393
917.268	3283
917.38	3332
917.491	3313
917.603	3416
917.715	3466
917.826	3507
917.938	3447
918.049	3302
918.161	3454
918.272	3625
918.384	3641
918.495	3511
918.606	3355
918.717	3329
918.828	3416
918.939	3466
919.05	3367
919.161	3443
919.272	3195
919.383	3336
919.494	3549
919.604	3717
919.715	3496
919.826	3443
919.936	3507
920.047	3622
920.157	3614
920.267	3793
920.378	3660
920.488	3614
920.598	3797
920.708	4013
920.818	3888
920.928	3869
921.038	4051
921.148	4067
921.258	3747
921.368	3644
921.477	3614
921.587	3526
921.697	3492
921.806	3671
921.916	3549
922.025	3355
922.134	3382
922.244	3393
922.353	3454
922.462	3264
922.571	3256
922.68	3165
922.789	3097
922.898	3150
923.007	3146
923.116	3253
923.224	3192
923.333	3222
923.442	3131
923.55	3116
923.659	3138
923.767	3233
923.876	3169
923.984	3294
924.092	3165
924.201	3222
924.309	3260
924.417	3321
924.525	3218
924.633	3279
924.741	4211
924.849	3070
924.956	3313
925.064	3135
925.172	3100
925.279	3154
925.387	3237
925.494	3260
925.602	3439
925.709	3370
925.816	3222
925.924	3317
926.031	3492
926.138	3374
926.245	3382
926.352	3283
926.459	3424
926.566	3542
926.673	3374
926.779	3313
926.886	3241
926.993	3192
927.099	3180
927.206	3135
927.312	3150
927.419	3279
927.525	3249
927.631	3310
927.737	3169
927.843	3150
927.95	3051
928.056	3199
928.162	3241
928.267	3294
928.373	3915
928.479	3348
928.585	3070
928.69	3233
928.796	3291
928.901	3237
929.007	3047
929.112	3237
929.218	3192
929.323	3199
929.428	3195
929.533	3367
929.638	3176
929.743	3233
929.848	3275
929.953	3272
930.058	3161
930.163	3028
930.267	3081
930.372	3218
930.477	3081
930.581	3378
930.685	3241
930.79	3100
930.894	3173
930.998	3184
931.103	3378
931.207	2990
931.311	2979
931.415	2956
931.519	2796
931.623	2838
