Data from test_V78500241_460.txt Node
Date: Fri Mar 25 16:18:23 CST 2022
User: usil
Spectrometer: V785-0024
Trigger mode: 0
Integration Time (sec): 4.000000E-1
Scans to average: 1
Nonlinearity correction enabled: false
Boxcar width: 0
Storing dark spectrum: false
XAxis mode: Wavelengths
Number of Pixels in Spectrum: 1024
>>>>>Begin Spectral Data<<<<<
801.071	2918
801.214	2937
801.356	2891
801.499	2823
801.641	2872
801.783	2910
801.926	3032
802.068	3009
802.211	2990
802.353	3020
802.496	2960
802.638	2998
802.78	3032
802.923	3074
803.065	2975
803.208	2891
803.35	2918
803.492	2960
803.635	2937
803.777	2754
803.919	2872
804.061	3241
804.204	2937
804.346	2933
804.488	2857
804.63	2960
804.773	2830
804.915	2910
805.057	3104
805.199	2918
805.341	2975
805.483	3043
805.626	3017
805.768	2948
805.91	3074
806.052	3112
806.194	2998
806.336	3199
806.478	3036
806.62	2952
806.762	2948
806.904	3058
807.046	3173
807.188	2967
807.33	2914
807.472	3009
807.614	2902
807.756	2944
807.898	2925
808.04	2899
808.182	2971
808.324	2971
808.465	2925
808.607	2872
808.749	2785
808.891	2868
809.033	2929
809.174	2979
809.316	2899
809.458	2864
809.6	2754
809.741	2785
809.883	2731
810.025	2861
810.166	2872
810.308	2853
810.45	2834
810.591	2758
810.733	2758
810.875	2788
811.016	2758
811.158	2746
811.299	2796
811.441	2880
811.582	2941
811.724	2823
811.865	2792
812.007	2918
812.148	2849
812.29	2864
812.431	2910
812.573	2948
812.714	2941
812.855	3081
812.997	3001
813.138	3097
813.279	3058
813.421	3013
813.562	2952
813.703	2883
813.845	2899
813.986	2769
814.127	2739
814.268	2857
814.41	2830
814.551	2781
814.692	2864
814.833	2830
814.974	2906
815.115	2929
815.256	2849
815.397	2792
815.539	2849
815.68	2792
815.821	2804
815.962	2960
816.103	2902
816.244	2887
816.385	2883
816.526	2979
816.666	2925
816.807	2758
816.948	2838
817.089	2880
817.23	2845
817.371	2804
817.512	2785
817.653	2815
817.793	2815
817.934	2906
818.075	2998
818.216	2990
818.356	3039
818.497	2891
818.638	2773
818.778	2807
818.919	2823
819.06	2727
819.2	2887
819.341	2811
819.481	2762
819.622	2922
819.762	3089
819.903	3039
820.043	2883
820.184	2922
820.324	2891
820.465	2982
820.605	2998
820.746	3005
820.886	2910
821.026	3104
821.167	3142
821.307	3226
821.447	3302
821.588	3211
821.728	3192
821.868	3192
822.008	3074
822.149	3188
822.289	3249
822.429	3100
822.569	3051
822.709	3214
822.849	3028
822.99	3051
823.13	3161
823.27	3203
823.41	3081
823.55	3154
823.69	3131
823.83	3203
823.97	3051
824.11	2986
824.25	3009
824.389	3074
824.529	3108
824.669	3058
824.809	3165
824.949	3249
825.089	3180
825.228	3150
825.368	2982
825.508	2941
825.648	2937
825.787	2982
825.927	2979
826.067	2960
826.206	2967
826.346	3017
826.485	3043
826.625	3097
826.765	3264
826.904	3188
827.044	3001
827.183	2952
827.323	2883
827.462	2967
827.601	2887
827.741	2929
827.88	2948
828.02	2857
828.159	2979
828.298	3051
828.437	3074
828.577	3005
828.716	3214
828.855	3066
828.994	2899
829.134	2883
829.273	2906
829.412	2849
829.551	2826
829.69	2883
829.829	2990
829.968	3131
830.107	2990
830.246	3043
830.385	2956
830.524	2864
830.663	2815
830.802	2750
830.941	2636
831.08	2686
831.219	2762
831.357	2758
831.496	2952
831.635	2697
831.774	2667
831.913	2674
832.051	2518
832.19	2560
832.329	2651
832.467	2537
832.606	2457
832.744	2571
832.883	2568
833.022	2541
833.16	2632
833.299	2659
833.437	2701
833.576	2716
833.714	2731
833.852	2705
833.991	2766
834.129	2842
834.267	2792
834.406	2796
834.544	2815
834.682	2902
834.821	2887
834.959	3051
835.097	2899
835.235	3077
835.373	2990
835.511	3009
835.65	2963
835.788	2960
835.926	2819
836.064	2781
836.202	2849
836.34	3051
836.478	3161
836.615	3051
836.753	3138
836.891	3199
837.029	3146
837.167	3093
837.305	3036
837.443	3024
837.58	2914
837.718	3119
837.856	3074
837.993	3013
838.131	3123
838.269	3070
838.406	3093
838.544	3055
838.681	2933
838.819	2937
838.956	2788
839.094	2815
839.231	2883
839.369	2986
839.506	3344
839.643	3237
839.781	2994
839.918	2933
840.055	3043
840.193	3024
840.33	3093
840.467	3085
840.604	3116
840.742	3359
840.879	3062
841.016	3036
841.153	3161
841.29	3294
841.427	3272
841.564	3264
841.701	3275
841.838	3222
841.975	3176
842.112	3207
842.249	3062
842.385	3032
842.522	3256
842.659	3097
842.796	3043
842.933	3104
843.069	3039
843.206	3066
843.343	3161
843.479	3100
843.616	3093
843.752	2883
843.889	2872
844.025	3093
844.162	2830
844.298	3055
844.435	2956
844.571	2914
844.708	3108
844.844	3157
844.98	3264
845.117	3207
845.253	3009
845.389	2982
845.525	3074
845.661	3074
845.798	3028
845.934	3108
846.07	3055
846.206	3218
846.342	3291
846.478	3192
846.614	3062
846.75	3039
846.886	3032
847.022	3230
847.158	3119
847.294	3195
847.429	3222
847.565	3176
847.701	3458
847.837	3017
847.972	2979
848.108	3157
848.244	3131
848.379	2967
848.515	2933
848.65	2922
848.786	2956
848.921	3017
849.057	3032
849.192	3138
849.328	3077
849.463	3097
849.598	3066
849.734	3028
849.869	2967
850.004	2895
850.14	2960
850.275	2902
850.41	2842
850.545	2883
850.68	2925
850.815	2948
850.95	2933
851.085	3199
851.22	3058
851.355	3009
851.49	2982
851.625	2998
851.76	3028
851.895	2922
852.03	2887
852.165	3043
852.299	3085
852.434	3207
852.569	3123
852.703	3131
852.838	3218
852.973	3344
853.107	3302
853.242	3165
853.376	3142
853.511	2944
853.645	3001
853.78	3249
853.914	3116
854.048	3100
854.183	3043
854.317	3116
854.451	3298
854.585	3150
854.72	3093
854.854	3176
854.988	3036
855.122	3077
855.256	2956
855.39	3123
855.524	3222
855.658	3203
855.792	3176
855.926	3150
856.06	3214
856.194	3275
856.327	3123
856.461	3062
856.595	3104
856.729	3097
856.862	3207
856.996	3154
857.13	3169
857.263	3226
857.397	3226
857.53	3097
857.664	3195
857.797	3214
857.931	3226
858.064	3157
858.197	3207
858.331	3150
858.464	3074
858.597	2998
858.731	3112
858.864	3116
858.997	3097
859.13	3165
859.263	3195
859.396	3207
859.529	3089
859.662	3058
859.795	3047
859.928	3135
860.061	3226
860.194	3256
860.327	3127
860.46	3089
860.592	3233
860.725	3279
860.858	3294
860.99	3119
861.123	3051
861.256	3024
861.388	3108
861.521	3941
861.653	3020
861.786	2967
861.918	3024
862.05	3024
862.183	3062
862.315	3116
862.447	3203
862.58	3062
862.712	2960
862.844	2880
862.976	3047
863.108	3005
863.24	3321
863.372	2902
863.504	2975
863.636	2937
863.768	3017
863.9	2967
864.032	2891
864.164	2937
864.296	3039
864.428	3085
864.559	3104
864.691	3036
864.823	3032
864.954	3001
865.086	3005
865.217	2994
865.349	2914
865.48	2979
865.612	3024
865.743	3123
865.875	2967
866.006	2910
866.137	2960
866.269	2941
866.4	2948
866.531	2925
866.662	2906
866.793	2895
866.924	2864
867.055	2967
867.186	2929
867.317	2887
867.448	2796
867.579	2861
867.71	2815
867.841	2834
867.972	2933
868.103	2887
868.233	2891
868.364	2864
868.495	2895
868.625	3062
868.756	3135
868.886	2979
869.017	3039
869.147	3154
869.278	3161
869.408	3032
869.539	3013
869.669	3070
869.799	3009
869.929	3119
870.06	3085
870.19	3321
870.32	3241
870.45	3298
870.58	3382
870.71	3439
870.84	3412
870.97	3275
871.1	3264
871.23	3466
871.36	3447
871.489	3310
871.619	3340
871.749	3374
871.879	3424
872.008	3485
872.138	3351
872.267	3291
872.397	3154
872.526	3066
872.656	3009
872.785	3047
872.915	3241
873.044	3249
873.173	3241
873.303	3222
873.432	3264
873.561	3233
873.69	3138
873.819	3104
873.948	3169
874.077	3085
874.206	3028
874.335	3058
874.464	3180
874.593	3313
874.722	3230
874.851	3397
874.979	3355
875.108	3287
875.237	3184
875.365	3165
875.494	3154
875.623	3241
875.751	3070
875.88	3116
876.008	3184
876.136	3222
876.265	3367
876.393	3542
876.521	3412
876.65	3367
876.778	3359
876.906	3222
877.034	3211
877.162	3207
877.29	3146
877.418	3214
877.546	3245
877.674	3218
877.802	3264
877.93	3226
878.058	3112
878.185	3097
878.313	3195
878.441	3207
878.568	3085
878.696	3112
878.824	3230
878.951	3249
879.079	3420
879.206	3610
879.333	3447
879.461	3310
879.588	3306
879.715	3462
879.842	3561
879.97	3348
880.097	3173
880.224	3135
880.351	3203
880.478	3169
880.605	3142
880.732	3173
880.859	3481
880.986	3321
881.112	3287
881.239	3214
881.366	3070
881.493	3009
881.619	3009
881.746	3089
881.872	3062
881.999	3036
882.125	3116
882.252	3245
882.378	3279
882.505	3447
882.631	3325
882.757	3108
882.883	3161
883.01	3184
883.136	3142
883.262	3070
883.388	3100
883.514	3291
883.64	3355
883.766	3344
883.892	3192
884.018	3199
884.143	3401
884.269	3515
884.395	3180
884.52	3154
884.646	3146
884.772	3142
884.897	3066
885.023	3214
885.148	3317
885.274	3382
885.399	3325
885.524	3253
885.65	3226
885.775	3287
885.9	3302
886.025	3393
886.15	3359
886.275	3298
886.4	3184
886.525	3279
886.65	3245
886.775	3260
886.9	3485
887.025	3637
887.149	3409
887.274	3230
887.399	3199
887.523	3211
887.648	3157
887.773	3188
887.897	3374
888.021	3370
888.146	3260
888.27	3492
888.395	3523
888.519	3439
888.643	3416
888.767	3462
888.891	3306
889.015	3233
889.139	3287
889.263	3241
889.387	3435
889.511	3511
889.635	3458
889.759	3310
889.883	3313
890.006	3401
890.13	3488
890.254	3321
890.377	3355
890.501	3249
890.624	3192
890.748	3313
890.871	3192
890.995	3123
891.118	3112
891.241	3245
891.364	3203
891.488	3359
891.611	3207
891.734	3195
891.857	3291
891.98	3279
892.103	3370
892.226	3321
892.349	3272
892.471	3157
892.594	3245
892.717	3283
892.839	3283
892.962	3306
893.085	3332
893.207	3351
893.33	3199
893.452	3260
893.575	3386
893.697	3310
893.819	3515
893.941	3553
894.064	3511
894.186	3325
894.308	3287
894.43	3469
894.552	3595
894.674	3488
894.796	3298
894.918	3374
895.04	3306
895.161	3473
895.283	3428
895.405	3355
895.526	3409
895.648	3443
895.769	3454
895.891	3477
896.012	3523
896.134	3515
896.255	3492
896.376	3447
896.498	3374
896.619	3492
896.74	3420
896.861	3458
896.982	3705
897.103	3907
897.224	3637
897.345	3519
897.466	3477
897.587	3526
897.708	3641
897.828	3557
897.949	3477
898.07	3336
898.19	3397
898.311	3656
898.431	3473
898.552	3545
898.672	3595
898.792	3606
898.913	3507
899.033	3458
899.153	3332
899.273	3279
899.393	3275
899.513	3336
899.633	3374
899.753	3416
899.873	3329
899.993	3412
900.113	3389
900.232	3424
900.352	3336
900.472	3287
900.591	3233
900.711	3336
900.83	3256
900.95	3462
901.069	3530
901.189	3374
901.308	3249
901.427	3169
901.546	3207
901.665	3340
901.784	3374
901.904	3264
902.023	3199
902.141	3070
902.26	3032
902.379	3169
902.498	3116
902.617	3100
902.735	3188
902.854	3272
902.973	3214
903.091	3077
903.21	3104
903.328	3165
903.446	3150
903.565	3131
903.683	3260
903.801	3123
903.919	3253
904.038	3325
904.156	3195
904.274	3340
904.392	3291
904.51	3325
904.627	3374
904.745	3469
904.863	3523
904.981	3245
905.098	3192
905.216	3260
905.334	3321
905.451	3310
905.569	3321
905.686	3431
905.803	3515
905.921	3302
906.038	3473
906.155	3370
906.272	3298
906.389	3348
906.506	3249
906.623	3256
906.74	3302
906.857	3188
906.974	3287
907.091	3477
907.208	3625
907.324	3500
907.441	3431
907.557	3256
907.674	3233
907.79	3226
907.907	3329
908.023	3405
908.139	3374
908.256	3329
908.372	3412
908.488	3355
908.604	3325
908.72	3264
908.836	3306
908.952	3317
909.068	3401
909.184	3519
909.3	3412
909.415	3564
909.531	3500
909.647	3306
909.762	3370
909.878	3310
909.993	3443
910.108	3355
910.224	3386
910.339	3450
910.454	3409
910.57	3310
910.685	3294
910.8	3599
910.915	3568
911.03	3481
911.145	3294
911.259	3310
911.374	3325
911.489	3268
911.604	3298
911.718	3161
911.833	3173
911.947	3070
912.062	2990
912.176	3184
912.291	3241
912.405	3237
912.519	3488
912.633	3511
912.748	3317
912.862	3329
912.976	3192
913.09	3081
913.204	3150
913.318	3256
913.431	3344
913.545	3378
913.659	3450
913.772	3397
913.886	3241
914	3226
914.113	3416
914.226	3412
914.34	3443
914.453	3287
914.566	3462
914.68	3313
914.793	3336
914.906	3180
915.019	3135
915.132	3104
915.245	3237
915.358	3249
915.47	3264
915.583	3325
915.696	3302
915.809	3447
915.921	3454
916.034	3294
916.146	3253
916.259	3230
916.371	3447
916.483	3382
916.595	3313
916.708	3382
916.82	3386
916.932	3340
917.044	3351
917.156	3359
917.268	3294
917.38	3313
917.491	3332
917.603	3412
917.715	3447
917.826	3473
917.938	3416
918.049	3253
918.161	3469
918.272	3614
918.384	3591
918.495	3534
918.606	3374
918.717	3279
918.828	3424
918.939	3450
919.05	3294
919.161	3359
919.272	3222
919.383	3355
919.494	3507
919.604	3698
919.715	3504
919.826	3439
919.936	3469
920.047	3591
920.157	3576
920.267	3789
920.378	3663
920.488	3534
920.598	3785
920.708	3968
920.818	3846
920.928	3846
921.038	4059
921.148	3991
921.258	3778
921.368	3671
921.477	3591
921.587	3557
921.697	3420
921.806	3690
921.916	3564
922.025	3382
922.134	3386
922.244	3344
922.353	3485
922.462	3313
922.571	3226
922.68	3146
922.789	3093
922.898	3203
923.007	3161
923.116	3230
923.224	3207
923.333	3226
923.442	3112
923.55	3138
923.659	3184
923.767	3245
923.876	3173
923.984	3253
924.092	3146
924.201	3260
924.309	3245
924.417	3306
924.525	3195
924.633	3268
924.741	4025
924.849	3104
924.956	3313
925.064	3131
925.172	3066
925.279	3154
925.387	3249
925.494	3226
925.602	3401
925.709	3363
925.816	3226
925.924	3313
926.031	3409
926.138	3351
926.245	3359
926.352	3272
926.459	3428
926.566	3473
926.673	3321
926.779	3249
926.886	3291
926.993	3176
927.099	3127
927.206	3146
927.312	3154
927.419	3237
927.525	3249
927.631	3283
927.737	3165
927.843	3199
927.95	2990
928.056	3127
928.162	3176
928.267	3283
928.373	3804
928.479	3355
928.585	3089
928.69	3233
928.796	3298
928.901	3176
929.007	3100
929.112	3211
929.218	3165
929.323	3184
929.428	3173
929.533	3336
929.638	3161
929.743	3157
929.848	3291
929.953	3256
930.058	3157
930.163	3020
930.267	3085
930.372	3211
930.477	3058
930.581	3317
930.685	3230
930.79	3074
930.894	3127
930.998	3116
931.103	3298
931.207	3013
931.311	3001
931.415	2933
931.519	2804
931.623	2853
