Data from test_V78500241_1494.txt Node
Date: Fri Mar 25 16:25:33 CST 2022
User: usil
Spectrometer: V785-0024
Trigger mode: 0
Integration Time (sec): 4.000000E-1
Scans to average: 1
Nonlinearity correction enabled: false
Boxcar width: 0
Storing dark spectrum: false
XAxis mode: Wavelengths
Number of Pixels in Spectrum: 1024
>>>>>Begin Spectral Data<<<<<
801.071	2880
801.214	2922
801.356	2872
801.499	2910
801.641	2876
801.783	2918
801.926	3070
802.068	3009
802.211	3009
802.353	3066
802.496	2986
802.638	3024
802.78	3055
802.923	3077
803.065	3005
803.208	2883
803.35	2880
803.492	2914
803.635	2910
803.777	2766
803.919	2849
804.061	3165
804.204	2941
804.346	2918
804.488	2826
804.63	2979
804.773	2883
804.915	2918
805.057	3055
805.199	2922
805.341	2963
805.483	3051
805.626	2963
805.768	2967
805.91	3089
806.052	3123
806.194	2998
806.336	3237
806.478	3032
806.62	2971
806.762	2956
806.904	3043
807.046	3157
807.188	2986
807.33	2956
807.472	2952
807.614	2914
807.756	2967
807.898	2895
808.04	2941
808.182	2971
808.324	2990
808.465	2887
808.607	2845
808.749	2807
808.891	2819
809.033	2975
809.174	2948
809.316	2880
809.458	2876
809.6	2788
809.741	2762
809.883	2769
810.025	2834
810.166	2880
810.308	2861
810.45	2880
810.591	2785
810.733	2762
810.875	2853
811.016	2762
811.158	2781
811.299	2796
811.441	2925
811.582	2857
811.724	2815
811.865	2819
812.007	2883
812.148	2868
812.29	2845
812.431	2902
812.573	2922
812.714	2971
812.855	2998
812.997	3062
813.138	3093
813.279	2979
813.421	2990
813.562	2910
813.703	2838
813.845	2910
813.986	2792
814.127	2724
814.268	2849
814.41	2857
814.551	2815
814.692	2819
814.833	2838
814.974	2868
815.115	2948
815.256	2807
815.397	2807
815.539	2876
815.68	2769
815.821	2785
815.962	2906
816.103	2914
816.244	2868
816.385	2887
816.526	2960
816.666	2929
816.807	2750
816.948	2872
817.089	2883
817.23	2842
817.371	2796
817.512	2800
817.653	2853
817.793	2819
817.934	2861
818.075	2952
818.216	2963
818.356	2979
818.497	2880
818.638	2792
818.778	2834
818.919	2792
819.06	2743
819.2	2876
819.341	2800
819.481	2792
819.622	2944
819.762	3062
819.903	3024
820.043	2883
820.184	2914
820.324	2906
820.465	3017
820.605	2990
820.746	3017
820.886	2933
821.026	3093
821.167	3195
821.307	3253
821.447	3260
821.588	3184
821.728	3245
821.868	3180
822.008	3093
822.149	3203
822.289	3241
822.429	3112
822.569	3089
822.709	3207
822.849	3013
822.99	3066
823.13	3161
823.27	3222
823.41	3123
823.55	3146
823.69	3119
823.83	3192
823.97	3104
824.11	2994
824.25	3013
824.389	3036
824.529	3108
824.669	3036
824.809	3184
824.949	3233
825.089	3180
825.228	3173
825.368	2998
825.508	2933
825.648	2971
825.787	3001
825.927	3017
826.067	2960
826.206	2986
826.346	3020
826.485	3081
826.625	3100
826.765	3268
826.904	3195
827.044	2952
827.183	2944
827.323	2868
827.462	2933
827.601	2902
827.741	2925
827.88	2929
828.02	2861
828.159	2914
828.298	3043
828.437	3097
828.577	3081
828.716	3218
828.855	3043
828.994	2861
829.134	2899
829.273	2891
829.412	2853
829.551	2834
829.69	2914
829.829	2967
829.968	3154
830.107	2986
830.246	3009
830.385	2895
830.524	2891
830.663	2769
830.802	2762
830.941	2693
831.08	2651
831.219	2762
831.357	2750
831.496	2967
831.635	2712
831.774	2636
831.913	2663
832.051	2522
832.19	2579
832.329	2674
832.467	2537
832.606	2488
832.744	2564
832.883	2587
833.022	2590
833.16	2644
833.299	2705
833.437	2697
833.576	2670
833.714	2727
833.852	2705
833.991	2777
834.129	2819
834.267	2796
834.406	2769
834.544	2857
834.682	2891
834.821	2834
834.959	3051
835.097	2887
835.235	3013
835.373	3005
835.511	2948
835.65	2956
835.788	2941
835.926	2823
836.064	2792
836.202	2887
836.34	3074
836.478	3116
836.615	3005
836.753	3123
836.891	3173
837.029	3157
837.167	3119
837.305	3062
837.443	3005
837.58	2960
837.718	3104
837.856	3074
837.993	3047
838.131	3100
838.269	3077
838.406	3085
838.544	3055
838.681	2906
838.819	2910
838.956	2823
839.094	2830
839.231	2914
839.369	3001
839.506	3374
839.643	3211
839.781	3001
839.918	2956
840.055	3032
840.193	3013
840.33	3043
840.467	3089
840.604	3123
840.742	3367
840.879	3051
841.016	3013
841.153	3116
841.29	3344
841.427	3275
841.564	3245
841.701	3306
841.838	3226
841.975	3165
842.112	3207
842.249	3093
842.385	3009
842.522	3268
842.659	3085
842.796	3043
842.933	3077
843.069	3043
843.206	3043
843.343	3192
843.479	3089
843.616	3119
843.752	2876
843.889	2861
844.025	3081
844.162	2826
844.298	3085
844.435	2937
844.571	2910
844.708	3081
844.844	3195
844.98	3245
845.117	3195
845.253	3070
845.389	2982
845.525	3066
845.661	3074
845.798	3036
845.934	3123
846.07	3062
846.206	3203
846.342	3256
846.478	3226
846.614	3036
846.75	3066
846.886	3036
847.022	3214
847.158	3116
847.294	3165
847.429	3188
847.565	3214
847.701	3515
847.837	3005
847.972	3017
848.108	3142
848.244	3135
848.379	2967
848.515	2918
848.65	2914
848.786	2967
848.921	3001
849.057	3097
849.192	3154
849.328	3070
849.463	3100
849.598	3039
849.734	3024
849.869	2967
850.004	2891
850.14	2948
850.275	2895
850.41	2853
850.545	2925
850.68	2941
850.815	2971
850.95	2941
851.085	3176
851.22	3097
851.355	3001
851.49	2963
851.625	3024
851.76	3047
851.895	2929
852.03	2925
852.165	3036
852.299	3119
852.434	3161
852.569	3104
852.703	3165
852.838	3226
852.973	3344
853.107	3306
853.242	3150
853.376	3070
853.511	2944
853.645	3017
853.78	3237
853.914	3116
854.048	3100
854.183	3070
854.317	3138
854.451	3279
854.585	3150
854.72	3074
854.854	3207
854.988	3070
855.122	3081
855.256	2994
855.39	3108
855.524	3211
855.658	3199
855.792	3131
855.926	3188
856.06	3222
856.194	3214
856.327	3100
856.461	3039
856.595	3062
856.729	3077
856.862	3207
856.996	3123
857.13	3207
857.263	3207
857.397	3268
857.53	3089
857.664	3138
857.797	3237
857.931	3218
858.064	3131
858.197	3195
858.331	3104
858.464	3089
858.597	3017
858.731	3119
858.864	3104
858.997	3047
859.13	3119
859.263	3146
859.396	3233
859.529	3093
859.662	3051
859.795	3028
859.928	3135
860.061	3256
860.194	3249
860.327	3116
860.46	3108
860.592	3230
860.725	3237
860.858	3230
860.99	3100
861.123	3066
861.256	3055
861.388	3150
861.521	3861
861.653	2971
861.786	3001
861.918	2971
862.05	3081
862.183	3093
862.315	3165
862.447	3184
862.58	3089
862.712	2960
862.844	2834
862.976	2994
863.108	2979
863.24	3313
863.372	2845
863.504	2975
863.636	2963
863.768	3032
863.9	2960
864.032	2895
864.164	2952
864.296	2975
864.428	3112
864.559	3081
864.691	3051
864.823	3077
864.954	3043
865.086	3024
865.217	2994
865.349	2960
865.48	2994
865.612	3020
865.743	3135
865.875	2971
866.006	2929
866.137	2979
866.269	2941
866.4	2902
866.531	2887
866.662	2868
866.793	2925
866.924	2883
867.055	2937
867.186	2899
867.317	2887
867.448	2800
867.579	2853
867.71	2811
867.841	2845
867.972	2925
868.103	2906
868.233	2845
868.364	2823
868.495	2880
868.625	3070
868.756	3135
868.886	2982
869.017	3020
869.147	3199
869.278	3131
869.408	3051
869.539	3009
869.669	3074
869.799	3062
869.929	3150
870.06	3085
870.19	3287
870.32	3268
870.45	3260
870.58	3374
870.71	3450
870.84	3416
870.97	3275
871.1	3230
871.23	3431
871.36	3477
871.489	3378
871.619	3389
871.749	3389
871.879	3447
872.008	3488
872.138	3348
872.267	3241
872.397	3131
872.526	3081
872.656	3024
872.785	3051
872.915	3249
873.044	3283
873.173	3207
873.303	3207
873.432	3222
873.561	3237
873.69	3142
873.819	3085
873.948	3199
874.077	3108
874.206	2990
874.335	3081
874.464	3211
874.593	3317
874.722	3230
874.851	3401
874.979	3329
875.108	3321
875.237	3188
875.365	3165
875.494	3176
875.623	3245
875.751	3093
875.88	3070
876.008	3192
876.136	3184
876.265	3351
876.393	3473
876.521	3401
876.65	3359
876.778	3302
876.906	3230
877.034	3195
877.162	3184
877.29	3169
877.418	3256
877.546	3249
877.674	3211
877.802	3226
877.93	3199
878.058	3135
878.185	3081
878.313	3154
878.441	3154
878.568	3062
878.696	3119
878.824	3207
878.951	3283
879.079	3435
879.206	3584
879.333	3485
879.461	3317
879.588	3348
879.715	3500
879.842	3557
879.97	3351
880.097	3116
880.224	3119
880.351	3173
880.478	3154
880.605	3173
880.732	3150
880.859	3458
880.986	3313
881.112	3336
881.239	3188
881.366	3043
881.493	3036
881.619	3028
881.746	3089
881.872	3070
881.999	3070
882.125	3146
882.252	3233
882.378	3298
882.505	3435
882.631	3306
882.757	3169
882.883	3237
883.01	3211
883.136	3157
883.262	3077
883.388	3131
883.514	3325
883.64	3351
883.766	3336
883.892	3214
884.018	3272
884.143	3431
884.269	3534
884.395	3230
884.52	3188
884.646	3233
884.772	3138
884.897	3100
885.023	3173
885.148	3359
885.274	3500
885.399	3386
885.524	3325
885.65	3260
885.775	3321
885.9	3298
886.025	3462
886.15	3359
886.275	3332
886.4	3260
886.525	3325
886.65	3294
886.775	3313
886.9	3538
887.025	3644
887.149	3450
887.274	3287
887.399	3192
887.523	3226
887.648	3222
887.773	3241
887.897	3409
888.021	3443
888.146	3313
888.27	3454
888.395	3572
888.519	3462
888.643	3504
888.767	3466
888.891	3348
889.015	3317
889.139	3340
889.263	3272
889.387	3454
889.511	3584
889.635	3500
889.759	3287
889.883	3310
890.006	3409
890.13	3511
890.254	3291
890.377	3370
890.501	3268
890.624	3237
890.748	3340
890.871	3169
890.995	3127
891.118	3085
891.241	3230
891.364	3249
891.488	3382
891.611	3222
891.734	3283
891.857	3332
891.98	3253
892.103	3359
892.226	3302
892.349	3260
892.471	3146
892.594	3291
892.717	3340
892.839	3325
892.962	3329
893.085	3374
893.207	3325
893.33	3192
893.452	3249
893.575	3359
893.697	3291
893.819	3477
893.941	3549
894.064	3492
894.186	3306
894.308	3325
894.43	3511
894.552	3553
894.674	3488
894.796	3283
894.918	3340
895.04	3348
895.161	3447
895.283	3477
895.405	3332
895.526	3374
895.648	3454
895.769	3431
895.891	3549
896.012	3507
896.134	3511
896.255	3454
896.376	3435
896.498	3393
896.619	3458
896.74	3393
896.861	3462
896.982	3732
897.103	3846
897.224	3625
897.345	3545
897.466	3466
897.587	3511
897.708	3618
897.828	3557
897.949	3462
898.07	3370
898.19	3420
898.311	3644
898.431	3458
898.552	3576
898.672	3629
898.792	3633
898.913	3595
899.033	3462
899.153	3306
899.273	3226
899.393	3272
899.513	3351
899.633	3363
899.753	3405
899.873	3317
899.993	3389
900.113	3374
900.232	3370
900.352	3382
900.472	3321
900.591	3253
900.711	3355
900.83	3249
900.95	3481
901.069	3492
901.189	3348
901.308	3207
901.427	3173
901.546	3226
901.665	3298
901.784	3359
901.904	3264
902.023	3188
902.141	3039
902.26	2998
902.379	3184
902.498	3112
902.617	3104
902.735	3233
902.854	3264
902.973	3214
903.091	3047
903.21	3058
903.328	3146
903.446	3150
903.565	3131
903.683	3218
903.801	3131
903.919	3283
904.038	3325
904.156	3207
904.274	3351
904.392	3310
904.51	3291
904.627	3348
904.745	3450
904.863	3530
904.981	3321
905.098	3199
905.216	3306
905.334	3355
905.451	3310
905.569	3355
905.686	3469
905.803	3473
905.921	3306
906.038	3454
906.155	3393
906.272	3287
906.389	3359
906.506	3260
906.623	3313
906.74	3310
906.857	3245
906.974	3283
907.091	3496
907.208	3610
907.324	3507
907.441	3412
907.557	3260
907.674	3260
907.79	3245
907.907	3321
908.023	3374
908.139	3405
908.256	3412
908.372	3370
908.488	3401
908.604	3291
908.72	3249
908.836	3275
908.952	3313
909.068	3367
909.184	3488
909.3	3382
909.415	3538
909.531	3538
909.647	3291
909.762	3306
909.878	3253
909.993	3374
910.108	3378
910.224	3363
910.339	3397
910.454	3351
910.57	3321
910.685	3272
910.8	3572
910.915	3595
911.03	3458
911.145	3245
911.259	3287
911.374	3336
911.489	3302
911.604	3275
911.718	3188
911.833	3157
911.947	3055
912.062	3001
912.176	3199
912.291	3230
912.405	3283
912.519	3412
912.633	3496
912.748	3340
912.862	3287
912.976	3184
913.09	3085
913.204	3176
913.318	3226
913.431	3378
913.545	3389
913.659	3397
913.772	3325
913.886	3218
914	3230
914.113	3382
914.226	3428
914.34	3428
914.453	3214
914.566	3454
914.68	3302
914.793	3325
914.906	3165
915.019	3123
915.132	3123
915.245	3207
915.358	3233
915.47	3230
915.583	3302
915.696	3291
915.809	3443
915.921	3458
916.034	3306
916.146	3294
916.259	3294
916.371	3424
916.483	3359
916.595	3272
916.708	3374
916.82	3363
916.932	3367
917.044	3401
917.156	3374
917.268	3268
917.38	3306
917.491	3317
917.603	3351
917.715	3504
917.826	3447
917.938	3447
918.049	3283
918.161	3466
918.272	3568
918.384	3591
918.495	3549
918.606	3355
918.717	3310
918.828	3386
918.939	3420
919.05	3317
919.161	3359
919.272	3203
919.383	3264
919.494	3549
919.604	3682
919.715	3507
919.826	3424
919.936	3435
920.047	3606
920.157	3561
920.267	3785
920.378	3656
920.488	3629
920.598	3850
920.708	4025
920.818	3835
920.928	3823
921.038	4010
921.148	3975
921.258	3736
921.368	3679
921.477	3576
921.587	3587
921.697	3488
921.806	3675
921.916	3496
922.025	3374
922.134	3401
922.244	3329
922.353	3466
922.462	3287
922.571	3245
922.68	3135
922.789	3089
922.898	3161
923.007	3093
923.116	3211
923.224	3249
923.333	3203
923.442	3100
923.55	3123
923.659	3161
923.767	3218
923.876	3161
923.984	3264
924.092	3119
924.201	3218
924.309	3272
924.417	3287
924.525	3222
924.633	3283
924.741	4044
924.849	3085
924.956	3287
925.064	3157
925.172	3081
925.279	3154
925.387	3173
925.494	3188
925.602	3378
925.709	3374
925.816	3218
925.924	3321
926.031	3424
926.138	3359
926.245	3374
926.352	3283
926.459	3409
926.566	3519
926.673	3332
926.779	3302
926.886	3245
926.993	3188
927.099	3142
927.206	3119
927.312	3131
927.419	3260
927.525	3226
927.631	3291
927.737	3161
927.843	3180
927.95	3074
928.056	3142
928.162	3157
928.267	3268
928.373	3808
928.479	3344
928.585	3089
928.69	3214
928.796	3294
928.901	3199
929.007	3055
929.112	3214
929.218	3192
929.323	3180
929.428	3173
929.533	3306
929.638	3146
929.743	3211
929.848	3268
929.953	3253
930.058	3142
930.163	3009
930.267	3047
930.372	3222
930.477	3055
930.581	3313
930.685	3199
930.79	3070
930.894	3112
930.998	3135
931.103	3317
931.207	2975
931.311	2948
931.415	2922
931.519	2823
931.623	2815
