Data from test_V78500241_664.txt Node
Date: Fri Mar 25 16:19:48 CST 2022
User: usil
Spectrometer: V785-0024
Trigger mode: 0
Integration Time (sec): 4.000000E-1
Scans to average: 1
Nonlinearity correction enabled: false
Boxcar width: 0
Storing dark spectrum: false
XAxis mode: Wavelengths
Number of Pixels in Spectrum: 1024
>>>>>Begin Spectral Data<<<<<
801.071	2864
801.214	2937
801.356	2838
801.499	2887
801.641	2849
801.783	2883
801.926	3058
802.068	2960
802.211	2994
802.353	3058
802.496	2975
802.638	2986
802.78	3028
802.923	3043
803.065	2990
803.208	2853
803.35	2902
803.492	2994
803.635	2910
803.777	2739
803.919	2842
804.061	3211
804.204	2933
804.346	2891
804.488	2880
804.63	2963
804.773	2883
804.915	2876
805.057	3074
805.199	2906
805.341	2952
805.483	3024
805.626	2979
805.768	2925
805.91	3104
806.052	3123
806.194	3062
806.336	3241
806.478	3013
806.62	2944
806.762	3001
806.904	3051
807.046	3169
807.188	2941
807.33	2929
807.472	2994
807.614	2910
807.756	2967
807.898	2887
808.04	2868
808.182	2967
808.324	2925
808.465	2853
808.607	2880
808.749	2785
808.891	2868
809.033	2979
809.174	2963
809.316	2925
809.458	2883
809.6	2777
809.741	2773
809.883	2777
810.025	2807
810.166	2815
810.308	2815
810.45	2861
810.591	2804
810.733	2743
810.875	2838
811.016	2807
811.158	2785
811.299	2811
811.441	2910
811.582	2868
811.724	2834
811.865	2834
812.007	2891
812.148	2876
812.29	2830
812.431	2910
812.573	2902
812.714	2948
812.855	3039
812.997	3005
813.138	3097
813.279	2990
813.421	2986
813.562	2952
813.703	2834
813.845	2902
813.986	2773
814.127	2743
814.268	2785
814.41	2838
814.551	2811
814.692	2906
814.833	2800
814.974	2883
815.115	2960
815.256	2826
815.397	2788
815.539	2883
815.68	2785
815.821	2781
815.962	2960
816.103	2910
816.244	2838
816.385	2868
816.526	2967
816.666	2922
816.807	2735
816.948	2891
817.089	2914
817.23	2838
817.371	2792
817.512	2773
817.653	2830
817.793	2807
817.934	2880
818.075	2937
818.216	2963
818.356	3017
818.497	2899
818.638	2785
818.778	2777
818.919	2819
819.06	2720
819.2	2887
819.341	2788
819.481	2781
819.622	2944
819.762	3123
819.903	3062
820.043	2876
820.184	2899
820.324	2899
820.465	3013
820.605	3039
820.746	3017
820.886	2922
821.026	3119
821.167	3161
821.307	3237
821.447	3260
821.588	3214
821.728	3214
821.868	3184
822.008	3081
822.149	3184
822.289	3233
822.429	3077
822.569	3089
822.709	3119
822.849	3013
822.99	3055
823.13	3123
823.27	3214
823.41	3089
823.55	3119
823.69	3161
823.83	3161
823.97	3112
824.11	2979
824.25	3001
824.389	3085
824.529	3093
824.669	3070
824.809	3195
824.949	3245
825.089	3214
825.228	3192
825.368	3017
825.508	2941
825.648	2986
825.787	2944
825.927	3009
826.067	2960
826.206	2952
826.346	3024
826.485	3089
826.625	3135
826.765	3287
826.904	3176
827.044	3017
827.183	2944
827.323	2842
827.462	2967
827.601	2929
827.741	2864
827.88	2956
828.02	2868
828.159	2967
828.298	3017
828.437	3100
828.577	3043
828.716	3256
828.855	3047
828.994	2922
829.134	2883
829.273	2929
829.412	2883
829.551	2830
829.69	2910
829.829	2979
829.968	3108
830.107	3024
830.246	2994
830.385	2941
830.524	2864
830.663	2804
830.802	2746
830.941	2621
831.08	2640
831.219	2754
831.357	2727
831.496	2941
831.635	2724
831.774	2670
831.913	2640
832.051	2545
832.19	2556
832.329	2663
832.467	2545
832.606	2488
832.744	2575
832.883	2594
833.022	2571
833.16	2663
833.299	2697
833.437	2686
833.576	2689
833.714	2735
833.852	2701
833.991	2769
834.129	2788
834.267	2838
834.406	2796
834.544	2861
834.682	2853
834.821	2883
834.959	3017
835.097	2864
835.235	3051
835.373	2990
835.511	3009
835.65	2937
835.788	2952
835.926	2830
836.064	2830
836.202	2826
836.34	3043
836.478	3131
836.615	3013
836.753	3074
836.891	3176
837.029	3146
837.167	3093
837.305	3077
837.443	3017
837.58	2948
837.718	3154
837.856	3070
837.993	3005
838.131	3138
838.269	3119
838.406	3119
838.544	3089
838.681	2914
838.819	2895
838.956	2800
839.094	2807
839.231	2906
839.369	2986
839.506	3355
839.643	3199
839.781	3009
839.918	2944
840.055	3039
840.193	3051
840.33	3066
840.467	3081
840.604	3112
840.742	3412
840.879	3032
841.016	3013
841.153	3100
841.29	3317
841.427	3260
841.564	3226
841.701	3245
841.838	3211
841.975	3116
842.112	3253
842.249	3070
842.385	3058
842.522	3268
842.659	3097
842.796	3039
842.933	3074
843.069	3051
843.206	3039
843.343	3157
843.479	3119
843.616	3131
843.752	2899
843.889	2838
844.025	3085
844.162	2876
844.298	3051
844.435	2906
844.571	2880
844.708	3055
844.844	3165
844.98	3222
845.117	3157
845.253	3028
845.389	2967
845.525	3104
845.661	3039
845.798	3013
845.934	3142
846.07	3055
846.206	3203
846.342	3336
846.478	3214
846.614	3116
846.75	3077
846.886	3017
847.022	3233
847.158	3100
847.294	3161
847.429	3253
847.565	3222
847.701	3466
847.837	3043
847.972	2948
848.108	3150
848.244	3146
848.379	2986
848.515	2941
848.65	2937
848.786	2960
848.921	2986
849.057	3081
849.192	3138
849.328	3051
849.463	3108
849.598	3058
849.734	3051
849.869	3005
850.004	2937
850.14	2933
850.275	2880
850.41	2872
850.545	2868
850.68	2952
850.815	2895
850.95	2960
851.085	3207
851.22	3089
851.355	3051
851.49	3020
851.625	2948
851.76	2994
851.895	2910
852.03	2876
852.165	3024
852.299	3081
852.434	3165
852.569	3135
852.703	3169
852.838	3218
852.973	3340
853.107	3329
853.242	3127
853.376	3081
853.511	2982
853.645	3032
853.78	3222
853.914	3142
854.048	3051
854.183	3051
854.317	3131
854.451	3302
854.585	3127
854.72	3089
854.854	3165
854.988	3047
855.122	3089
855.256	2960
855.39	3135
855.524	3253
855.658	3173
855.792	3176
855.926	3218
856.06	3214
856.194	3256
856.327	3093
856.461	3100
856.595	3062
856.729	3123
856.862	3211
856.996	3199
857.13	3192
857.263	3207
857.397	3268
857.53	3104
857.664	3188
857.797	3249
857.931	3222
858.064	3165
858.197	3214
858.331	3165
858.464	3116
858.597	3009
858.731	3127
858.864	3100
858.997	3070
859.13	3218
859.263	3146
859.396	3207
859.529	3043
859.662	3074
859.795	3047
859.928	3123
860.061	3245
860.194	3310
860.327	3157
860.46	3085
860.592	3241
860.725	3218
860.858	3211
860.99	3081
861.123	3051
861.256	3036
861.388	3135
861.521	3797
861.653	3020
861.786	2971
861.918	3005
862.05	3070
862.183	3062
862.315	3138
862.447	3184
862.58	3081
862.712	2971
862.844	2880
862.976	2986
863.108	2975
863.24	3412
863.372	2864
863.504	2975
863.636	2952
863.768	3017
863.9	2975
864.032	2895
864.164	2925
864.296	2986
864.428	3039
864.559	3093
864.691	3081
864.823	3047
864.954	3039
865.086	3032
865.217	2967
865.349	2952
865.48	2986
865.612	3020
865.743	3165
865.875	2975
866.006	2937
866.137	2971
866.269	2948
866.4	2895
866.531	2910
866.662	2868
866.793	2868
866.924	2872
867.055	2960
867.186	2937
867.317	2891
867.448	2823
867.579	2807
867.71	2807
867.841	2811
867.972	2925
868.103	2891
868.233	2861
868.364	2883
868.495	2922
868.625	3062
868.756	3154
868.886	2933
869.017	3005
869.147	3169
869.278	3138
869.408	3020
869.539	2998
869.669	3070
869.799	3001
869.929	3150
870.06	3089
870.19	3291
870.32	3260
870.45	3294
870.58	3378
870.71	3443
870.84	3439
870.97	3256
871.1	3230
871.23	3511
871.36	3450
871.489	3359
871.619	3351
871.749	3378
871.879	3458
872.008	3454
872.138	3348
872.267	3241
872.397	3100
872.526	3108
872.656	2990
872.785	3097
872.915	3237
873.044	3336
873.173	3226
873.303	3214
873.432	3222
873.561	3230
873.69	3173
873.819	3123
873.948	3176
874.077	3085
874.206	3024
874.335	3074
874.464	3214
874.593	3351
874.722	3211
874.851	3393
874.979	3359
875.108	3332
875.237	3165
875.365	3146
875.494	3180
875.623	3207
875.751	3055
875.88	3074
876.008	3199
876.136	3207
876.265	3363
876.393	3545
876.521	3420
876.65	3386
876.778	3325
876.906	3237
877.034	3180
877.162	3230
877.29	3169
877.418	3237
877.546	3230
877.674	3226
877.802	3226
877.93	3237
878.058	3176
878.185	3131
878.313	3203
878.441	3184
878.568	3066
878.696	3176
878.824	3237
878.951	3283
879.079	3439
879.206	3644
879.333	3428
879.461	3302
879.588	3355
879.715	3485
879.842	3576
879.97	3359
880.097	3142
880.224	3112
880.351	3192
880.478	3192
880.605	3199
880.732	3237
880.859	3477
880.986	3306
881.112	3306
881.239	3222
881.366	3100
881.493	3024
881.619	3043
881.746	3058
881.872	3077
881.999	3081
882.125	3161
882.252	3237
882.378	3313
882.505	3405
882.631	3294
882.757	3161
882.883	3222
883.01	3237
883.136	3146
883.262	3108
883.388	3142
883.514	3344
883.64	3382
883.766	3310
883.892	3169
884.018	3226
884.143	3386
884.269	3534
884.395	3192
884.52	3142
884.646	3173
884.772	3112
884.897	3093
885.023	3249
885.148	3359
885.274	3382
885.399	3367
885.524	3245
885.65	3241
885.775	3329
885.9	3283
886.025	3405
886.15	3336
886.275	3306
886.4	3211
886.525	3302
886.65	3260
886.775	3287
886.9	3485
887.025	3694
887.149	3409
887.274	3272
887.399	3192
887.523	3199
887.648	3192
887.773	3199
887.897	3325
888.021	3412
888.146	3275
888.27	3424
888.395	3500
888.519	3435
888.643	3405
888.767	3466
888.891	3298
889.015	3226
889.139	3264
889.263	3222
889.387	3420
889.511	3485
889.635	3412
889.759	3302
889.883	3275
890.006	3348
890.13	3515
890.254	3291
890.377	3351
890.501	3173
890.624	3154
890.748	3302
890.871	3161
890.995	3104
891.118	3066
891.241	3157
891.364	3222
891.488	3355
891.611	3176
891.734	3253
891.857	3260
891.98	3192
892.103	3313
892.226	3272
892.349	3256
892.471	3146
892.594	3245
892.717	3249
892.839	3264
892.962	3264
893.085	3351
893.207	3268
893.33	3093
893.452	3184
893.575	3382
893.697	3218
893.819	3416
893.941	3507
894.064	3412
894.186	3230
894.308	3283
894.43	3435
894.552	3515
894.674	3424
894.796	3249
894.918	3283
895.04	3256
895.161	3443
895.283	3424
895.405	3249
895.526	3348
895.648	3431
895.769	3412
895.891	3428
896.012	3462
896.134	3458
896.255	3412
896.376	3367
896.498	3329
896.619	3439
896.74	3355
896.861	3367
896.982	3679
897.103	3789
897.224	3561
897.345	3481
897.466	3401
897.587	3496
897.708	3606
897.828	3545
897.949	3439
898.07	3329
898.19	3405
898.311	3580
898.431	3450
898.552	3496
898.672	3572
898.792	3545
898.913	3519
899.033	3420
899.153	3275
899.273	3214
899.393	3279
899.513	3291
899.633	3325
899.753	3310
899.873	3298
899.993	3370
900.113	3348
900.232	3382
900.352	3332
900.472	3268
900.591	3207
900.711	3256
900.83	3222
900.95	3424
901.069	3466
901.189	3329
901.308	3180
901.427	3131
901.546	3188
901.665	3279
901.784	3344
901.904	3241
902.023	3157
902.141	3047
902.26	2990
902.379	3142
902.498	3051
902.617	3047
902.735	3188
902.854	3237
902.973	3207
903.091	3036
903.21	3036
903.328	3146
903.446	3176
903.565	3100
903.683	3157
903.801	3100
903.919	3195
904.038	3264
904.156	3173
904.274	3272
904.392	3249
904.51	3298
904.627	3325
904.745	3420
904.863	3473
904.981	3226
905.098	3165
905.216	3203
905.334	3272
905.451	3291
905.569	3287
905.686	3416
905.803	3416
905.921	3298
906.038	3416
906.155	3344
906.272	3241
906.389	3325
906.506	3230
906.623	3268
906.74	3287
906.857	3165
906.974	3222
907.091	3450
907.208	3534
907.324	3458
907.441	3409
907.557	3241
907.674	3249
907.79	3214
907.907	3279
908.023	3378
908.139	3386
908.256	3332
908.372	3359
908.488	3370
908.604	3256
908.72	3233
908.836	3310
908.952	3294
909.068	3340
909.184	3469
909.3	3386
909.415	3511
909.531	3462
909.647	3253
909.762	3294
909.878	3287
909.993	3363
910.108	3329
910.224	3291
910.339	3367
910.454	3332
910.57	3329
910.685	3207
910.8	3576
910.915	3504
911.03	3382
911.145	3253
911.259	3260
911.374	3325
911.489	3237
911.604	3233
911.718	3123
911.833	3138
911.947	3043
912.062	3013
912.176	3127
912.291	3161
912.405	3188
912.519	3428
912.633	3412
912.748	3302
912.862	3275
912.976	3157
913.09	3028
913.204	3138
913.318	3184
913.431	3310
913.545	3306
913.659	3401
913.772	3294
913.886	3195
914	3203
914.113	3321
914.226	3416
914.34	3344
914.453	3211
914.566	3367
914.68	3272
914.793	3332
914.906	3135
915.019	3081
915.132	3028
915.245	3161
915.358	3161
915.47	3211
915.583	3264
915.696	3279
915.809	3336
915.921	3431
916.034	3230
916.146	3245
916.259	3192
916.371	3374
916.483	3348
916.595	3279
916.708	3298
916.82	3317
916.932	3336
917.044	3340
917.156	3321
917.268	3226
917.38	3268
917.491	3302
917.603	3367
917.715	3431
917.826	3439
917.938	3351
918.049	3264
918.161	3405
918.272	3530
918.384	3526
918.495	3504
918.606	3367
918.717	3287
918.828	3382
918.939	3393
919.05	3313
919.161	3393
919.272	3176
919.383	3313
919.494	3530
919.604	3690
919.715	3515
919.826	3431
919.936	3443
920.047	3576
920.157	3587
920.267	3781
920.378	3656
920.488	3599
920.598	3850
920.708	3956
920.818	3850
920.928	3869
921.038	4040
921.148	4048
921.258	3732
921.368	3690
921.477	3622
921.587	3549
921.697	3488
921.806	3679
921.916	3557
922.025	3367
922.134	3405
922.244	3344
922.353	3435
922.462	3344
922.571	3313
922.68	3169
922.789	3146
922.898	3154
923.007	3142
923.116	3245
923.224	3237
923.333	3253
923.442	3127
923.55	3146
923.659	3150
923.767	3260
923.876	3173
923.984	3268
924.092	3119
924.201	3237
924.309	3287
924.417	3310
924.525	3184
924.633	3287
924.741	4051
924.849	3089
924.956	3329
925.064	3127
925.172	3089
925.279	3157
925.387	3214
925.494	3230
925.602	3389
925.709	3355
925.816	3226
925.924	3294
926.031	3386
926.138	3325
926.245	3405
926.352	3310
926.459	3435
926.566	3538
926.673	3340
926.779	3272
926.886	3264
926.993	3199
927.099	3127
927.206	3138
927.312	3157
927.419	3272
927.525	3279
927.631	3336
927.737	3173
927.843	3127
927.95	3047
928.056	3165
928.162	3207
928.267	3260
928.373	3781
928.479	3325
928.585	3051
928.69	3218
928.796	3306
928.901	3222
929.007	3097
929.112	3245
929.218	3230
929.323	3195
929.428	3203
929.533	3359
929.638	3173
929.743	3161
929.848	3272
929.953	3249
930.058	3199
930.163	3028
930.267	3081
930.372	3260
930.477	3058
930.581	3351
930.685	3199
930.79	3058
930.894	3116
930.998	3108
931.103	3325
931.207	2971
931.311	2956
931.415	2941
931.519	2826
931.623	2853
