Data from test_V78500241_2007.txt Node
Date: Fri Mar 25 16:29:06 CST 2022
User: usil
Spectrometer: V785-0024
Trigger mode: 0
Integration Time (sec): 4.000000E-1
Scans to average: 1
Nonlinearity correction enabled: false
Boxcar width: 0
Storing dark spectrum: false
XAxis mode: Wavelengths
Number of Pixels in Spectrum: 1024
>>>>>Begin Spectral Data<<<<<
801.071	2937
801.214	2967
801.356	2883
801.499	2902
801.641	2868
801.783	2963
801.926	3093
802.068	2990
802.211	2967
802.353	3039
802.496	2982
802.638	3017
802.78	3047
802.923	3077
803.065	3039
803.208	2910
803.35	2956
803.492	2967
803.635	2929
803.777	2804
803.919	2883
804.061	3222
804.204	2941
804.346	2937
804.488	2842
804.63	2982
804.773	2895
804.915	2918
805.057	3089
805.199	2925
805.341	2952
805.483	3047
805.626	3009
805.768	2941
805.91	3085
806.052	3093
806.194	3051
806.336	3237
806.478	3032
806.62	2960
806.762	3028
806.904	3108
807.046	3180
807.188	3009
807.33	2922
807.472	2982
807.614	2941
807.756	3032
807.898	2910
808.04	2925
808.182	3001
808.324	2994
808.465	2918
808.607	2910
808.749	2838
808.891	2849
809.033	2986
809.174	2994
809.316	2918
809.458	2914
809.6	2785
809.741	2800
809.883	2758
810.025	2876
810.166	2857
810.308	2845
810.45	2876
810.591	2792
810.733	2762
810.875	2857
811.016	2800
811.158	2769
811.299	2788
811.441	2922
811.582	2929
811.724	2876
811.865	2834
812.007	2941
812.148	2868
812.29	2815
812.431	2906
812.573	2948
812.714	3001
812.855	3051
812.997	3062
813.138	3081
813.279	3009
813.421	3009
813.562	2986
813.703	2876
813.845	2906
813.986	2788
814.127	2746
814.268	2830
814.41	2823
814.551	2811
814.692	2906
814.833	2823
814.974	2868
815.115	2952
815.256	2845
815.397	2819
815.539	2868
815.68	2800
815.821	2796
815.962	2922
816.103	2899
816.244	2845
816.385	2891
816.526	2960
816.666	2929
816.807	2769
816.948	2895
817.089	2918
817.23	2861
817.371	2826
817.512	2773
817.653	2823
817.793	2815
817.934	2895
818.075	2956
818.216	2994
818.356	3051
818.497	2899
818.638	2807
818.778	2826
818.919	2788
819.06	2788
819.2	2902
819.341	2788
819.481	2838
819.622	2948
819.762	3119
819.903	3047
820.043	2922
820.184	2914
820.324	2906
820.465	3005
820.605	3020
820.746	3032
820.886	2910
821.026	3074
821.167	3142
821.307	3203
821.447	3302
821.588	3241
821.728	3180
821.868	3169
822.008	3104
822.149	3169
822.289	3222
822.429	3081
822.569	3097
822.709	3192
822.849	3043
822.99	3028
823.13	3165
823.27	3226
823.41	3112
823.55	3150
823.69	3157
823.83	3211
823.97	3131
824.11	3013
824.25	2979
824.389	3116
824.529	3131
824.669	3074
824.809	3199
824.949	3272
825.089	3184
825.228	3131
825.368	3001
825.508	2982
825.648	2982
825.787	3024
825.927	3013
826.067	2979
826.206	2956
826.346	3100
826.485	3036
826.625	3116
826.765	3275
826.904	3203
827.044	2982
827.183	2948
827.323	2880
827.462	3017
827.601	2937
827.741	2948
827.88	2937
828.02	2872
828.159	2986
828.298	3051
828.437	3127
828.577	3051
828.716	3233
828.855	3070
828.994	2906
829.134	2910
829.273	2941
829.412	2864
829.551	2849
829.69	2887
829.829	3001
829.968	3154
830.107	3017
830.246	3005
830.385	2918
830.524	2857
830.663	2796
830.802	2739
830.941	2640
831.08	2636
831.219	2766
831.357	2731
831.496	2963
831.635	2708
831.774	2644
831.913	2621
832.051	2522
832.19	2587
832.329	2724
832.467	2526
832.606	2503
832.744	2587
832.883	2606
833.022	2579
833.16	2644
833.299	2670
833.437	2686
833.576	2712
833.714	2724
833.852	2697
833.991	2750
834.129	2868
834.267	2838
834.406	2815
834.544	2868
834.682	2891
834.821	2861
834.959	3074
835.097	2891
835.235	3070
835.373	3013
835.511	3005
835.65	2937
835.788	2979
835.926	2815
836.064	2811
836.202	2849
836.34	3112
836.478	3161
836.615	3070
836.753	3119
836.891	3226
837.029	3173
837.167	3131
837.305	3077
837.443	3039
837.58	2986
837.718	3150
837.856	3051
837.993	3039
838.131	3097
838.269	3097
838.406	3089
838.544	3062
838.681	2937
838.819	2906
838.956	2781
839.094	2842
839.231	2925
839.369	3013
839.506	3344
839.643	3218
839.781	3028
839.918	2971
840.055	3066
840.193	3070
840.33	3097
840.467	3104
840.604	3123
840.742	3393
840.879	3077
841.016	3077
841.153	3150
841.29	3313
841.427	3310
841.564	3245
841.701	3291
841.838	3237
841.975	3154
842.112	3211
842.249	3097
842.385	3039
842.522	3268
842.659	3104
842.796	3047
842.933	3081
843.069	3051
843.206	3013
843.343	3180
843.479	3104
843.616	3135
843.752	2868
843.889	2880
844.025	3093
844.162	2849
844.298	3089
844.435	2933
844.571	2902
844.708	3085
844.844	3173
844.98	3264
845.117	3195
845.253	3074
845.389	3009
845.525	3123
845.661	3066
845.798	3013
845.934	3116
846.07	3077
846.206	3233
846.342	3359
846.478	3203
846.614	3066
846.75	3077
846.886	3005
847.022	3199
847.158	3123
847.294	3195
847.429	3249
847.565	3203
847.701	3481
847.837	3013
847.972	2982
848.108	3195
848.244	3119
848.379	2994
848.515	2956
848.65	2922
848.786	2960
848.921	2998
849.057	3062
849.192	3108
849.328	3055
849.463	3123
849.598	3100
849.734	3032
849.869	3005
850.004	2933
850.14	2975
850.275	2918
850.41	2857
850.545	2853
850.68	2929
850.815	2944
850.95	2963
851.085	3188
851.22	3097
851.355	3001
851.49	2941
851.625	3005
851.76	3017
851.895	2918
852.03	2906
852.165	2986
852.299	3108
852.434	3192
852.569	3108
852.703	3214
852.838	3226
852.973	3344
853.107	3336
853.242	3142
853.376	3055
853.511	2941
853.645	3055
853.78	3222
853.914	3154
854.048	3081
854.183	3100
854.317	3150
854.451	3329
854.585	3161
854.72	3081
854.854	3218
854.988	3043
855.122	3085
855.256	2941
855.39	3074
855.524	3218
855.658	3169
855.792	3146
855.926	3184
856.06	3207
856.194	3237
856.327	3138
856.461	3081
856.595	3108
856.729	3066
856.862	3241
856.996	3165
857.13	3211
857.263	3233
857.397	3260
857.53	3074
857.664	3180
857.797	3260
857.931	3268
858.064	3135
858.197	3192
858.331	3127
858.464	3051
858.597	2986
858.731	3150
858.864	3108
858.997	3100
859.13	3135
859.263	3173
859.396	3176
859.529	3047
859.662	3093
859.795	3043
859.928	3097
860.061	3275
860.194	3291
860.327	3138
860.46	3119
860.592	3211
860.725	3241
860.858	3287
860.99	3104
861.123	3047
861.256	3070
861.388	3150
861.521	3857
861.653	3009
861.786	2971
861.918	2990
862.05	3077
862.183	3070
862.315	3108
862.447	3173
862.58	3055
862.712	2925
862.844	2861
862.976	3017
863.108	3001
863.24	3287
863.372	2845
863.504	2941
863.636	2960
863.768	3039
863.9	2998
864.032	2933
864.164	2963
864.296	2998
864.428	3066
864.559	3112
864.691	3051
864.823	3077
864.954	3017
865.086	3051
865.217	2956
865.349	2922
865.48	2975
865.612	3039
865.743	3146
865.875	2960
866.006	2944
866.137	2960
866.269	2902
866.4	2975
866.531	2952
866.662	2864
866.793	2895
866.924	2887
867.055	2941
867.186	2922
867.317	2876
867.448	2849
867.579	2842
867.71	2857
867.841	2823
867.972	2918
868.103	2899
868.233	2880
868.364	2880
868.495	2918
868.625	3051
868.756	3131
868.886	2948
869.017	3047
869.147	3173
869.278	3157
869.408	3062
869.539	3017
869.669	3097
869.799	3043
869.929	3165
870.06	3055
870.19	3332
870.32	3268
870.45	3294
870.58	3351
870.71	3450
870.84	3447
870.97	3275
871.1	3214
871.23	3458
871.36	3435
871.489	3401
871.619	3409
871.749	3420
871.879	3450
872.008	3473
872.138	3344
872.267	3245
872.397	3116
872.526	3085
872.656	2967
872.785	3097
872.915	3237
873.044	3313
873.173	3218
873.303	3188
873.432	3253
873.561	3260
873.69	3135
873.819	3131
873.948	3203
874.077	3119
874.206	3066
874.335	3047
874.464	3222
874.593	3363
874.722	3211
874.851	3405
874.979	3363
875.108	3329
875.237	3199
875.365	3157
875.494	3142
875.623	3218
875.751	3100
875.88	3074
876.008	3222
876.136	3245
876.265	3367
876.393	3500
876.521	3389
876.65	3401
876.778	3298
876.906	3233
877.034	3173
877.162	3226
877.29	3211
877.418	3192
877.546	3237
877.674	3260
877.802	3222
877.93	3253
878.058	3157
878.185	3077
878.313	3165
878.441	3195
878.568	3062
878.696	3150
878.824	3245
878.951	3317
879.079	3416
879.206	3618
879.333	3435
879.461	3332
879.588	3306
879.715	3485
879.842	3580
879.97	3374
880.097	3169
880.224	3119
880.351	3173
880.478	3207
880.605	3161
880.732	3195
880.859	3507
880.986	3302
881.112	3332
881.239	3180
881.366	3123
881.493	3062
881.619	3036
881.746	3051
881.872	3089
881.999	3112
882.125	3203
882.252	3268
882.378	3317
882.505	3397
882.631	3275
882.757	3154
882.883	3218
883.01	3211
883.136	3150
883.262	3104
883.388	3123
883.514	3298
883.64	3355
883.766	3325
883.892	3154
884.018	3264
884.143	3393
884.269	3523
884.395	3192
884.52	3157
884.646	3146
884.772	3104
884.897	3074
885.023	3157
885.148	3332
885.274	3389
885.399	3351
885.524	3241
885.65	3275
885.775	3291
885.9	3260
886.025	3420
886.15	3302
886.275	3291
886.4	3245
886.525	3294
886.65	3294
886.775	3260
886.9	3477
887.025	3660
887.149	3439
887.274	3249
887.399	3184
887.523	3165
887.648	3203
887.773	3184
887.897	3344
888.021	3359
888.146	3268
888.27	3409
888.395	3523
888.519	3447
888.643	3450
888.767	3401
888.891	3306
889.015	3241
889.139	3287
889.263	3218
889.387	3393
889.511	3462
889.635	3454
889.759	3253
889.883	3302
890.006	3367
890.13	3473
890.254	3287
890.377	3317
890.501	3165
890.624	3157
890.748	3287
890.871	3154
890.995	3097
891.118	3024
891.241	3169
891.364	3176
891.488	3310
891.611	3195
891.734	3222
891.857	3287
891.98	3218
892.103	3306
892.226	3325
892.349	3195
892.471	3104
892.594	3184
892.717	3245
892.839	3241
892.962	3260
893.085	3348
893.207	3279
893.33	3184
893.452	3203
893.575	3313
893.697	3203
893.819	3424
893.941	3500
894.064	3443
894.186	3249
894.308	3253
894.43	3382
894.552	3530
894.674	3428
894.796	3268
894.918	3329
895.04	3253
895.161	3393
895.283	3359
895.405	3291
895.526	3321
895.648	3382
895.769	3397
895.891	3431
896.012	3450
896.134	3443
896.255	3416
896.376	3397
896.498	3359
896.619	3397
896.74	3348
896.861	3363
896.982	3652
897.103	3857
897.224	3561
897.345	3523
897.466	3370
897.587	3454
897.708	3618
897.828	3534
897.949	3454
898.07	3359
898.19	3424
898.311	3553
898.431	3401
898.552	3488
898.672	3576
898.792	3557
898.913	3530
899.033	3389
899.153	3279
899.273	3207
899.393	3260
899.513	3298
899.633	3363
899.753	3310
899.873	3306
899.993	3344
900.113	3321
900.232	3374
900.352	3340
900.472	3291
900.591	3218
900.711	3279
900.83	3230
900.95	3393
901.069	3538
901.189	3355
901.308	3169
901.427	3100
901.546	3180
901.665	3306
901.784	3325
901.904	3184
902.023	3165
902.141	3001
902.26	2986
902.379	3135
902.498	3093
902.617	3093
902.735	3169
902.854	3230
902.973	3211
903.091	3039
903.21	3070
903.328	3127
903.446	3077
903.565	3104
903.683	3180
903.801	3108
903.919	3222
904.038	3264
904.156	3142
904.274	3275
904.392	3279
904.51	3275
904.627	3321
904.745	3443
904.863	3496
904.981	3253
905.098	3195
905.216	3207
905.334	3329
905.451	3294
905.569	3287
905.686	3428
905.803	3439
905.921	3283
906.038	3424
906.155	3370
906.272	3291
906.389	3355
906.506	3237
906.623	3233
906.74	3321
906.857	3214
906.974	3214
907.091	3401
907.208	3553
907.324	3428
907.441	3397
907.557	3211
907.674	3264
907.79	3222
907.907	3283
908.023	3382
908.139	3370
908.256	3348
908.372	3359
908.488	3336
908.604	3226
908.72	3256
908.836	3245
908.952	3298
909.068	3317
909.184	3469
909.3	3374
909.415	3500
909.531	3435
909.647	3264
909.762	3294
909.878	3253
909.993	3359
910.108	3302
910.224	3370
910.339	3393
910.454	3310
910.57	3291
910.685	3241
910.8	3595
910.915	3504
911.03	3443
911.145	3283
911.259	3237
911.374	3340
911.489	3222
911.604	3245
911.718	3131
911.833	3138
911.947	3051
912.062	2963
912.176	3131
912.291	3184
912.405	3218
912.519	3405
912.633	3454
912.748	3329
912.862	3291
912.976	3218
913.09	3058
913.204	3150
913.318	3211
913.431	3340
913.545	3393
913.659	3382
913.772	3344
913.886	3203
914	3218
914.113	3351
914.226	3367
914.34	3336
914.453	3222
914.566	3428
914.68	3268
914.793	3317
914.906	3127
915.019	3081
915.132	3104
915.245	3199
915.358	3165
915.47	3214
915.583	3264
915.696	3264
915.809	3428
915.921	3412
916.034	3264
916.146	3245
916.259	3195
916.371	3367
916.483	3367
916.595	3287
916.708	3317
916.82	3329
916.932	3313
917.044	3344
917.156	3336
917.268	3260
917.38	3313
917.491	3294
917.603	3344
917.715	3443
917.826	3469
917.938	3367
918.049	3287
918.161	3443
918.272	3557
918.384	3542
918.495	3504
918.606	3393
918.717	3279
918.828	3370
918.939	3393
919.05	3302
919.161	3370
919.272	3207
919.383	3306
919.494	3458
919.604	3614
919.715	3473
919.826	3374
919.936	3447
920.047	3542
920.157	3557
920.267	3762
920.378	3603
920.488	3538
920.598	3781
920.708	3945
920.818	3747
920.928	3835
921.038	3987
921.148	3987
921.258	3667
921.368	3606
921.477	3576
921.587	3561
921.697	3443
921.806	3660
921.916	3530
922.025	3351
922.134	3370
922.244	3287
922.353	3389
922.462	3275
922.571	3218
922.68	3108
922.789	3093
922.898	3116
923.007	3081
923.116	3199
923.224	3188
923.333	3173
923.442	3100
923.55	3066
923.659	3165
923.767	3199
923.876	3142
923.984	3253
924.092	3116
924.201	3214
924.309	3218
924.417	3272
924.525	3195
924.633	3249
924.741	4147
924.849	3043
924.956	3260
925.064	3135
925.172	3024
925.279	3089
925.387	3180
925.494	3207
925.602	3321
925.709	3348
925.816	3154
925.924	3264
926.031	3386
926.138	3329
926.245	3332
926.352	3226
926.459	3405
926.566	3458
926.673	3344
926.779	3279
926.886	3249
926.993	3150
927.099	3146
927.206	3112
927.312	3108
927.419	3237
927.525	3226
927.631	3268
927.737	3127
927.843	3116
927.95	3020
928.056	3108
928.162	3165
928.267	3241
928.373	3876
928.479	3363
928.585	3055
928.69	3211
928.796	3264
928.901	3116
929.007	3024
929.112	3180
929.218	3157
929.323	3161
929.428	3161
929.533	3336
929.638	3097
929.743	3180
929.848	3253
929.953	3214
930.058	3188
930.163	3009
930.267	3009
930.372	3241
930.477	3020
930.581	3302
930.685	3184
930.79	3074
930.894	3093
930.998	3097
931.103	3294
931.207	2925
931.311	2906
931.415	2910
931.519	2758
931.623	2834
