Data from test_V78500241_1199.txt Node
Date: Fri Mar 25 16:23:30 CST 2022
User: usil
Spectrometer: V785-0024
Trigger mode: 0
Integration Time (sec): 4.000000E-1
Scans to average: 1
Nonlinearity correction enabled: false
Boxcar width: 0
Storing dark spectrum: false
XAxis mode: Wavelengths
Number of Pixels in Spectrum: 1024
>>>>>Begin Spectral Data<<<<<
801.071	2895
801.214	2918
801.356	2834
801.499	2902
801.641	2845
801.783	2899
801.926	3043
802.068	2941
802.211	2967
802.353	3051
802.496	2944
802.638	2990
802.78	3005
802.923	3097
803.065	3009
803.208	2876
803.35	2887
803.492	2929
803.635	2941
803.777	2731
803.919	2823
804.061	3184
804.204	2941
804.346	2876
804.488	2777
804.63	2990
804.773	2857
804.915	2922
805.057	3055
805.199	2899
805.341	2918
805.483	3039
805.626	2979
805.768	2944
805.91	3051
806.052	3085
806.194	3024
806.336	3195
806.478	3032
806.62	2952
806.762	2956
806.904	3047
807.046	3135
807.188	2960
807.33	2895
807.472	2967
807.614	2895
807.756	2963
807.898	2918
808.04	2895
808.182	3005
808.324	2933
808.465	2864
808.607	2853
808.749	2826
808.891	2830
809.033	2944
809.174	2998
809.316	2872
809.458	2899
809.6	2754
809.741	2705
809.883	2739
810.025	2868
810.166	2868
810.308	2864
810.45	2842
810.591	2792
810.733	2769
810.875	2834
811.016	2815
811.158	2731
811.299	2811
811.441	2914
811.582	2899
811.724	2826
811.865	2819
812.007	2914
812.148	2861
812.29	2842
812.431	2925
812.573	2937
812.714	2910
812.855	2994
812.997	3051
813.138	3081
813.279	2963
813.421	2967
813.562	2922
813.703	2887
813.845	2891
813.986	2754
814.127	2750
814.268	2807
814.41	2849
814.551	2777
814.692	2857
814.833	2823
814.974	2864
815.115	2902
815.256	2804
815.397	2804
815.539	2861
815.68	2785
815.821	2754
815.962	2937
816.103	2922
816.244	2845
816.385	2887
816.526	2982
816.666	2937
816.807	2735
816.948	2891
817.089	2902
817.23	2883
817.371	2781
817.512	2819
817.653	2823
817.793	2830
817.934	2868
818.075	2967
818.216	2982
818.356	2998
818.497	2838
818.638	2800
818.778	2815
818.919	2804
819.06	2758
819.2	2883
819.341	2819
819.481	2807
819.622	2956
819.762	3081
819.903	3017
820.043	2937
820.184	2868
820.324	2883
820.465	3024
820.605	2990
820.746	3032
820.886	2918
821.026	3097
821.167	3116
821.307	3226
821.447	3279
821.588	3203
821.728	3214
821.868	3203
822.008	3058
822.149	3173
822.289	3207
822.429	3089
822.569	3077
822.709	3150
822.849	3039
822.99	3055
823.13	3142
823.27	3218
823.41	3058
823.55	3192
823.69	3154
823.83	3119
823.97	3085
824.11	2994
824.25	2979
824.389	3070
824.529	3127
824.669	3028
824.809	3180
824.949	3233
825.089	3203
825.228	3157
825.368	3001
825.508	2914
825.648	2960
825.787	2994
825.927	3032
826.067	2975
826.206	2960
826.346	3028
826.485	3081
826.625	3138
826.765	3256
826.904	3214
827.044	2967
827.183	2929
827.323	2876
827.462	3039
827.601	2918
827.741	2918
827.88	2895
828.02	2861
828.159	2998
828.298	3028
828.437	3119
828.577	3017
828.716	3192
828.855	3070
828.994	2883
829.134	2880
829.273	2895
829.412	2845
829.551	2880
829.69	2910
829.829	2979
829.968	3100
830.107	3028
830.246	2982
830.385	2899
830.524	2906
830.663	2796
830.802	2735
830.941	2644
831.08	2610
831.219	2743
831.357	2769
831.496	2963
831.635	2682
831.774	2644
831.913	2629
832.051	2541
832.19	2560
832.329	2701
832.467	2522
832.606	2457
832.744	2545
832.883	2556
833.022	2587
833.16	2629
833.299	2689
833.437	2674
833.576	2667
833.714	2701
833.852	2712
833.991	2769
834.129	2807
834.267	2823
834.406	2773
834.544	2883
834.682	2845
834.821	2887
834.959	3055
835.097	2906
835.235	3077
835.373	2963
835.511	2990
835.65	2956
835.788	2963
835.926	2826
836.064	2807
836.202	2842
836.34	3055
836.478	3123
836.615	3043
836.753	3135
836.891	3176
837.029	3154
837.167	3097
837.305	3043
837.443	3039
837.58	2929
837.718	3116
837.856	3047
837.993	3024
838.131	3131
838.269	3119
838.406	3085
838.544	3081
838.681	2899
838.819	2876
838.956	2811
839.094	2823
839.231	2914
839.369	3005
839.506	3355
839.643	3176
839.781	3020
839.918	2948
840.055	3043
840.193	3032
840.33	3074
840.467	3097
840.604	3173
840.742	3397
840.879	3043
841.016	3024
841.153	3100
841.29	3310
841.427	3294
841.564	3249
841.701	3317
841.838	3195
841.975	3180
842.112	3195
842.249	3070
842.385	3058
842.522	3233
842.659	3093
842.796	3032
842.933	3070
843.069	3028
843.206	2994
843.343	3188
843.479	3085
843.616	3146
843.752	2914
843.889	2838
844.025	3020
844.162	2876
844.298	3051
844.435	2948
844.571	2883
844.708	3051
844.844	3142
844.98	3218
845.117	3161
845.253	3047
845.389	2998
845.525	3089
845.661	3051
845.798	3005
845.934	3104
846.07	3051
846.206	3192
846.342	3256
846.478	3233
846.614	3123
846.75	3039
846.886	3017
847.022	3207
847.158	3131
847.294	3195
847.429	3260
847.565	3161
847.701	3462
847.837	3020
847.972	2990
848.108	3176
848.244	3131
848.379	2979
848.515	2944
848.65	2872
848.786	2982
848.921	2982
849.057	3093
849.192	3112
849.328	3074
849.463	3085
849.598	3024
849.734	3036
849.869	2960
850.004	2895
850.14	2933
850.275	2902
850.41	2838
850.545	2857
850.68	2914
850.815	2937
850.95	2944
851.085	3203
851.22	3119
851.355	3036
851.49	2979
851.625	3032
851.76	2994
851.895	2910
852.03	2906
852.165	3028
852.299	3138
852.434	3173
852.569	3131
852.703	3176
852.838	3279
852.973	3340
853.107	3313
853.242	3146
853.376	3108
853.511	2941
853.645	3013
853.78	3222
853.914	3146
854.048	3081
854.183	3074
854.317	3138
854.451	3275
854.585	3116
854.72	3097
854.854	3195
854.988	3017
855.122	3051
855.256	2956
855.39	3062
855.524	3211
855.658	3161
855.792	3138
855.926	3188
856.06	3165
856.194	3245
856.327	3176
856.461	3066
856.595	3047
856.729	3062
856.862	3199
856.996	3173
857.13	3165
857.263	3192
857.397	3264
857.53	3119
857.664	3188
857.797	3230
857.931	3245
858.064	3135
858.197	3207
858.331	3123
858.464	3051
858.597	2956
858.731	3077
858.864	3119
858.997	3066
859.13	3138
859.263	3161
859.396	3211
859.529	3074
859.662	3036
859.795	3039
859.928	3154
860.061	3306
860.194	3310
860.327	3066
860.46	3081
860.592	3203
860.725	3249
860.858	3253
860.99	3097
861.123	3005
861.256	3047
861.388	3119
861.521	3686
861.653	2963
861.786	2956
861.918	2990
862.05	3066
862.183	3089
862.315	3119
862.447	3184
862.58	3104
862.712	2963
862.844	2899
862.976	3032
863.108	2990
863.24	3306
863.372	2830
863.504	2929
863.636	2922
863.768	3020
863.9	2986
864.032	2883
864.164	2941
864.296	2990
864.428	3077
864.559	3097
864.691	3081
864.823	3066
864.954	3009
865.086	3039
865.217	2998
865.349	2918
865.48	2971
865.612	2979
865.743	3154
865.875	2986
866.006	2929
866.137	2975
866.269	2952
866.4	2895
866.531	2948
866.662	2876
866.793	2883
866.924	2902
867.055	2982
867.186	2944
867.317	2895
867.448	2796
867.579	2807
867.71	2807
867.841	2823
867.972	2887
868.103	2933
868.233	2880
868.364	2849
868.495	2902
868.625	3047
868.756	3138
868.886	2979
869.017	2986
869.147	3142
869.278	3169
869.408	3024
869.539	2990
869.669	3093
869.799	3032
869.929	3104
870.06	3093
870.19	3302
870.32	3287
870.45	3291
870.58	3340
870.71	3462
870.84	3393
870.97	3306
871.1	3245
871.23	3450
871.36	3435
871.489	3363
871.619	3401
871.749	3393
871.879	3405
872.008	3492
872.138	3348
872.267	3260
872.397	3123
872.526	3074
872.656	3001
872.785	3058
872.915	3233
873.044	3310
873.173	3203
873.303	3264
873.432	3211
873.561	3230
873.69	3150
873.819	3157
873.948	3169
874.077	3070
874.206	3024
874.335	3085
874.464	3161
874.593	3325
874.722	3226
874.851	3378
874.979	3310
875.108	3321
875.237	3165
875.365	3180
875.494	3161
875.623	3230
875.751	3062
875.88	3142
876.008	3173
876.136	3237
876.265	3374
876.393	3485
876.521	3405
876.65	3329
876.778	3313
876.906	3241
877.034	3173
877.162	3199
877.29	3211
877.418	3192
877.546	3233
877.674	3241
877.802	3226
877.93	3207
878.058	3161
878.185	3123
878.313	3169
878.441	3203
878.568	3039
878.696	3161
878.824	3233
878.951	3264
879.079	3409
879.206	3622
879.333	3420
879.461	3355
879.588	3367
879.715	3481
879.842	3576
879.97	3374
880.097	3180
880.224	3093
880.351	3165
880.478	3184
880.605	3184
880.732	3192
880.859	3454
880.986	3237
881.112	3283
881.239	3199
881.366	3077
881.493	2994
881.619	2998
881.746	3051
881.872	3093
881.999	3123
882.125	3157
882.252	3218
882.378	3313
882.505	3405
882.631	3249
882.757	3142
882.883	3249
883.01	3184
883.136	3169
883.262	3070
883.388	3062
883.514	3317
883.64	3382
883.766	3306
883.892	3173
884.018	3249
884.143	3420
884.269	3458
884.395	3218
884.52	3150
884.646	3146
884.772	3081
884.897	3066
885.023	3157
885.148	3313
885.274	3409
885.399	3401
885.524	3249
885.65	3264
885.775	3291
885.9	3237
886.025	3420
886.15	3359
886.275	3249
886.4	3218
886.525	3306
886.65	3298
886.775	3264
886.9	3488
887.025	3568
887.149	3393
887.274	3256
887.399	3135
887.523	3207
887.648	3119
887.773	3180
887.897	3367
888.021	3382
888.146	3249
888.27	3416
888.395	3507
888.519	3424
888.643	3469
888.767	3439
888.891	3310
889.015	3218
889.139	3249
889.263	3230
889.387	3382
889.511	3500
889.635	3420
889.759	3279
889.883	3272
890.006	3370
890.13	3473
890.254	3264
890.377	3329
890.501	3180
890.624	3154
890.748	3329
890.871	3176
890.995	3058
891.118	3047
891.241	3157
891.364	3207
891.488	3272
891.611	3154
891.734	3211
891.857	3272
891.98	3226
892.103	3310
892.226	3241
892.349	3169
892.471	3077
892.594	3226
892.717	3279
892.839	3275
892.962	3279
893.085	3355
893.207	3283
893.33	3127
893.452	3184
893.575	3325
893.697	3218
893.819	3405
893.941	3488
894.064	3401
894.186	3237
894.308	3260
894.43	3409
894.552	3481
894.674	3450
894.796	3233
894.918	3306
895.04	3287
895.161	3378
895.283	3382
895.405	3310
895.526	3370
895.648	3367
895.769	3424
895.891	3466
896.012	3477
896.134	3424
896.255	3424
896.376	3332
896.498	3351
896.619	3416
896.74	3310
896.861	3439
896.982	3679
897.103	3827
897.224	3606
897.345	3538
897.466	3420
897.587	3515
897.708	3667
897.828	3580
897.949	3409
898.07	3332
898.19	3439
898.311	3625
898.431	3412
898.552	3542
898.672	3633
898.792	3580
898.913	3523
899.033	3412
899.153	3329
899.273	3253
899.393	3291
899.513	3363
899.633	3351
899.753	3393
899.873	3336
899.993	3443
900.113	3336
900.232	3412
900.352	3363
900.472	3279
900.591	3241
900.711	3317
900.83	3275
900.95	3435
901.069	3523
901.189	3367
901.308	3211
901.427	3173
901.546	3214
901.665	3317
901.784	3348
901.904	3233
902.023	3203
902.141	3070
902.26	3032
902.379	3157
902.498	3097
902.617	3077
902.735	3272
902.854	3268
902.973	3211
903.091	3066
903.21	3131
903.328	3180
903.446	3165
903.565	3131
903.683	3237
903.801	3169
903.919	3279
904.038	3340
904.156	3199
904.274	3325
904.392	3253
904.51	3302
904.627	3325
904.745	3450
904.863	3530
904.981	3287
905.098	3237
905.216	3283
905.334	3321
905.451	3351
905.569	3336
905.686	3454
905.803	3462
905.921	3279
906.038	3492
906.155	3378
906.272	3310
906.389	3393
906.506	3279
906.623	3268
906.74	3313
906.857	3173
906.974	3287
907.091	3458
907.208	3568
907.324	3542
907.441	3378
907.557	3268
907.674	3264
907.79	3226
907.907	3317
908.023	3428
908.139	3401
908.256	3359
908.372	3466
908.488	3401
908.604	3294
908.72	3245
908.836	3317
908.952	3329
909.068	3370
909.184	3481
909.3	3416
909.415	3504
909.531	3466
909.647	3344
909.762	3317
909.878	3317
909.993	3367
910.108	3386
910.224	3386
910.339	3443
910.454	3359
910.57	3325
910.685	3260
910.8	3656
910.915	3572
911.03	3420
911.145	3313
911.259	3287
911.374	3325
911.489	3287
911.604	3256
911.718	3169
911.833	3157
911.947	3070
912.062	3032
912.176	3161
912.291	3211
912.405	3214
912.519	3439
912.633	3481
912.748	3363
912.862	3321
912.976	3184
913.09	3112
913.204	3161
913.318	3249
913.431	3355
913.545	3374
913.659	3454
913.772	3329
913.886	3233
914	3222
914.113	3374
914.226	3454
914.34	3420
914.453	3253
914.566	3435
914.68	3306
914.793	3340
914.906	3180
915.019	3127
915.132	3100
915.245	3176
915.358	3249
915.47	3272
915.583	3260
915.696	3367
915.809	3412
915.921	3428
916.034	3298
916.146	3275
916.259	3226
916.371	3370
916.483	3382
916.595	3272
916.708	3367
916.82	3313
916.932	3378
917.044	3382
917.156	3382
917.268	3260
917.38	3279
917.491	3321
917.603	3405
917.715	3485
917.826	3511
917.938	3409
918.049	3291
918.161	3450
918.272	3622
918.384	3606
918.495	3469
918.606	3397
918.717	3325
918.828	3401
918.939	3454
919.05	3321
919.161	3401
919.272	3256
919.383	3298
919.494	3504
919.604	3717
919.715	3538
919.826	3466
919.936	3466
920.047	3637
920.157	3530
920.267	3816
920.378	3603
920.488	3603
920.598	3785
920.708	3991
920.818	3854
920.928	3850
921.038	4055
921.148	4006
921.258	3701
921.368	3679
921.477	3629
921.587	3549
921.697	3504
921.806	3679
921.916	3496
922.025	3382
922.134	3389
922.244	3336
922.353	3424
922.462	3313
922.571	3291
922.68	3108
922.789	3089
922.898	3184
923.007	3154
923.116	3253
923.224	3203
923.333	3233
923.442	3146
923.55	3123
923.659	3119
923.767	3233
923.876	3161
923.984	3268
924.092	3112
924.201	3211
924.309	3253
924.417	3279
924.525	3176
924.633	3264
924.741	4010
924.849	3085
924.956	3275
925.064	3131
925.172	3047
925.279	3138
925.387	3237
925.494	3184
925.602	3370
925.709	3313
925.816	3214
925.924	3302
926.031	3397
926.138	3359
926.245	3359
926.352	3302
926.459	3431
926.566	3466
926.673	3340
926.779	3279
926.886	3287
926.993	3211
927.099	3154
927.206	3135
927.312	3146
927.419	3222
927.525	3237
927.631	3287
927.737	3184
927.843	3116
927.95	3036
928.056	3195
928.162	3173
928.267	3272
928.373	3884
928.479	3329
928.585	3062
928.69	3226
928.796	3321
928.901	3173
929.007	3100
929.112	3218
929.218	3188
929.323	3199
929.428	3154
929.533	3313
929.638	3116
929.743	3199
929.848	3283
929.953	3237
930.058	3195
930.163	3028
930.267	3047
930.372	3241
930.477	3085
930.581	3332
930.685	3218
930.79	3070
930.894	3157
930.998	3116
931.103	3291
931.207	2990
931.311	2941
931.415	2902
931.519	2811
931.623	2842
