Data from test_V78500241_1376.txt Node
Date: Fri Mar 25 16:24:44 CST 2022
User: usil
Spectrometer: V785-0024
Trigger mode: 0
Integration Time (sec): 4.000000E-1
Scans to average: 1
Nonlinearity correction enabled: false
Boxcar width: 0
Storing dark spectrum: false
XAxis mode: Wavelengths
Number of Pixels in Spectrum: 1024
>>>>>Begin Spectral Data<<<<<
801.071	2906
801.214	2960
801.356	2880
801.499	2910
801.641	2853
801.783	2960
801.926	3039
802.068	3005
802.211	2986
802.353	3066
802.496	2922
802.638	3005
802.78	3017
802.923	3066
803.065	3017
803.208	2868
803.35	2937
803.492	2941
803.635	2929
803.777	2746
803.919	2864
804.061	3245
804.204	2952
804.346	2914
804.488	2857
804.63	2994
804.773	2899
804.915	2925
805.057	3070
805.199	2944
805.341	2975
805.483	3047
805.626	3009
805.768	2963
805.91	3093
806.052	3104
806.194	3055
806.336	3226
806.478	3009
806.62	2948
806.762	2998
806.904	3036
807.046	3142
807.188	3005
807.33	2929
807.472	2971
807.614	2971
807.756	2963
807.898	2914
808.04	2876
808.182	2979
808.324	2960
808.465	2899
808.607	2891
808.749	2826
808.891	2857
809.033	2975
809.174	2960
809.316	2883
809.458	2899
809.6	2796
809.741	2766
809.883	2766
810.025	2819
810.166	2857
810.308	2853
810.45	2845
810.591	2796
810.733	2792
810.875	2861
811.016	2788
811.158	2758
811.299	2838
811.441	2902
811.582	2937
811.724	2838
811.865	2834
812.007	2933
812.148	2887
812.29	2838
812.431	2883
812.573	2956
812.714	2960
812.855	3047
812.997	3055
813.138	3097
813.279	3039
813.421	2967
813.562	2963
813.703	2899
813.845	2891
813.986	2800
814.127	2754
814.268	2845
814.41	2823
814.551	2864
814.692	2861
814.833	2800
814.974	2891
815.115	2956
815.256	2804
815.397	2811
815.539	2849
815.68	2823
815.821	2800
815.962	2918
816.103	2937
816.244	2891
816.385	2872
816.526	3020
816.666	2914
816.807	2743
816.948	2899
817.089	2887
817.23	2842
817.371	2800
817.512	2807
817.653	2880
817.793	2815
817.934	2853
818.075	2948
818.216	2994
818.356	3005
818.497	2891
818.638	2815
818.778	2807
818.919	2800
819.06	2766
819.2	2883
819.341	2823
819.481	2830
819.622	2948
819.762	3093
819.903	3020
820.043	2948
820.184	2929
820.324	2902
820.465	3028
820.605	3055
820.746	3047
820.886	2929
821.026	3123
821.167	3176
821.307	3275
821.447	3287
821.588	3275
821.728	3188
821.868	3169
822.008	3089
822.149	3142
822.289	3211
822.429	3066
822.569	3077
822.709	3195
822.849	3036
822.99	3077
823.13	3135
823.27	3230
823.41	3157
823.55	3131
823.69	3150
823.83	3188
823.97	3116
824.11	2982
824.25	2956
824.389	3036
824.529	3081
824.669	3047
824.809	3214
824.949	3291
825.089	3192
825.228	3195
825.368	2971
825.508	2979
825.648	2975
825.787	3017
825.927	3028
826.067	3013
826.206	2963
826.346	3070
826.485	3093
826.625	3154
826.765	3272
826.904	3207
827.044	3009
827.183	2948
827.323	2849
827.462	3036
827.601	2918
827.741	2952
827.88	2944
828.02	2857
828.159	2944
828.298	3001
828.437	3112
828.577	3062
828.716	3230
828.855	3074
828.994	2929
829.134	2899
829.273	2914
829.412	2838
829.551	2857
829.69	2910
829.829	2971
829.968	3116
830.107	3024
830.246	3013
830.385	2948
830.524	2853
830.663	2830
830.802	2716
830.941	2632
831.08	2632
831.219	2781
831.357	2777
831.496	2918
831.635	2716
831.774	2644
831.913	2636
832.051	2545
832.19	2564
832.329	2697
832.467	2526
832.606	2476
832.744	2590
832.883	2564
833.022	2606
833.16	2674
833.299	2701
833.437	2689
833.576	2701
833.714	2716
833.852	2731
833.991	2746
834.129	2857
834.267	2800
834.406	2781
834.544	2838
834.682	2895
834.821	2876
834.959	3047
835.097	2899
835.235	3036
835.373	2994
835.511	3020
835.65	2918
835.788	2975
835.926	2800
836.064	2800
836.202	2834
836.34	3123
836.478	3123
836.615	3085
836.753	3150
836.891	3165
837.029	3169
837.167	3116
837.305	3085
837.443	3020
837.58	2948
837.718	3119
837.856	3074
837.993	3024
838.131	3127
838.269	3135
838.406	3097
838.544	3070
838.681	2929
838.819	2895
838.956	2861
839.094	2842
839.231	2899
839.369	3062
839.506	3382
839.643	3188
839.781	2971
839.918	2967
840.055	3051
840.193	2982
840.33	3051
840.467	3104
840.604	3157
840.742	3393
840.879	3051
841.016	3066
841.153	3104
841.29	3351
841.427	3298
841.564	3294
841.701	3291
841.838	3199
841.975	3199
842.112	3245
842.249	3055
842.385	3020
842.522	3245
842.659	3081
842.796	3066
842.933	3100
843.069	3036
843.206	3028
843.343	3180
843.479	3058
843.616	3123
843.752	2895
843.889	2864
844.025	3066
844.162	2845
844.298	3070
844.435	2918
844.571	2899
844.708	3062
844.844	3184
844.98	3203
845.117	3180
845.253	3039
845.389	2994
845.525	3081
845.661	3097
845.798	3005
845.934	3131
846.07	3077
846.206	3241
846.342	3332
846.478	3207
846.614	3089
846.75	3024
846.886	3020
847.022	3222
847.158	3154
847.294	3146
847.429	3245
847.565	3226
847.701	3481
847.837	3020
847.972	3039
848.108	3161
848.244	3097
848.379	2975
848.515	2937
848.65	2918
848.786	2956
848.921	3001
849.057	3100
849.192	3150
849.328	3077
849.463	3127
849.598	3051
849.734	3055
849.869	2956
850.004	2910
850.14	2956
850.275	2910
850.41	2845
850.545	2880
850.68	2925
850.815	2967
850.95	2933
851.085	3188
851.22	3100
851.355	3036
851.49	2952
851.625	2990
851.76	3039
851.895	2937
852.03	2925
852.165	3051
852.299	3142
852.434	3169
852.569	3119
852.703	3180
852.838	3237
852.973	3325
853.107	3317
853.242	3123
853.376	3055
853.511	2937
853.645	3051
853.78	3180
853.914	3131
854.048	3142
854.183	3077
854.317	3165
854.451	3298
854.585	3119
854.72	3093
854.854	3192
854.988	3032
855.122	3097
855.256	2971
855.39	3116
855.524	3233
855.658	3184
855.792	3157
855.926	3161
856.06	3192
856.194	3275
856.327	3169
856.461	3066
856.595	3093
856.729	3032
856.862	3230
856.996	3154
857.13	3195
857.263	3203
857.397	3298
857.53	3127
857.664	3192
857.797	3218
857.931	3275
858.064	3188
858.197	3214
858.331	3104
858.464	3097
858.597	3005
858.731	3089
858.864	3119
858.997	3116
859.13	3123
859.263	3173
859.396	3176
859.529	3062
859.662	3074
859.795	3036
859.928	3119
860.061	3279
860.194	3272
860.327	3127
860.46	3058
860.592	3214
860.725	3195
860.858	3249
860.99	3116
861.123	3051
861.256	3055
861.388	3150
861.521	3743
861.653	3009
861.786	2967
861.918	2967
862.05	3062
862.183	3123
862.315	3169
862.447	3169
862.58	3085
862.712	2982
862.844	2861
862.976	3020
863.108	2986
863.24	3310
863.372	2868
863.504	2998
863.636	2941
863.768	3009
863.9	2944
864.032	2902
864.164	2925
864.296	3009
864.428	3066
864.559	3116
864.691	3043
864.823	3051
864.954	3032
865.086	3077
865.217	2971
865.349	2937
865.48	2971
865.612	2994
865.743	3184
865.875	2975
866.006	2922
866.137	2994
866.269	2952
866.4	2929
866.531	2899
866.662	2906
866.793	2883
866.924	2880
867.055	2971
867.186	2944
867.317	2845
867.448	2845
867.579	2834
867.71	2823
867.841	2796
867.972	2880
868.103	2910
868.233	2872
868.364	2830
868.495	2906
868.625	3032
868.756	3169
868.886	2982
869.017	3005
869.147	3207
869.278	3131
869.408	3077
869.539	3001
869.669	3081
869.799	3077
869.929	3138
870.06	3112
870.19	3313
870.32	3272
870.45	3298
870.58	3340
870.71	3450
870.84	3435
870.97	3344
871.1	3226
871.23	3481
871.36	3447
871.489	3348
871.619	3367
871.749	3370
871.879	3393
872.008	3481
872.138	3355
872.267	3218
872.397	3131
872.526	3058
872.656	3028
872.785	3081
872.915	3249
873.044	3329
873.173	3214
873.303	3253
873.432	3195
873.561	3203
873.69	3138
873.819	3127
873.948	3207
874.077	3093
874.206	3020
874.335	3074
874.464	3192
874.593	3325
874.722	3218
874.851	3378
874.979	3351
875.108	3332
875.237	3157
875.365	3165
875.494	3135
875.623	3222
875.751	3077
875.88	3104
876.008	3165
876.136	3214
876.265	3351
876.393	3454
876.521	3397
876.65	3393
876.778	3325
876.906	3249
877.034	3161
877.162	3214
877.29	3169
877.418	3302
877.546	3241
877.674	3211
877.802	3245
877.93	3256
878.058	3127
878.185	3100
878.313	3173
878.441	3203
878.568	3066
878.696	3173
878.824	3218
878.951	3275
879.079	3481
879.206	3606
879.333	3431
879.461	3279
879.588	3321
879.715	3450
879.842	3580
879.97	3382
880.097	3184
880.224	3127
880.351	3157
880.478	3207
880.605	3195
880.732	3188
880.859	3507
880.986	3321
881.112	3310
881.239	3264
881.366	3104
881.493	3024
881.619	2979
881.746	3074
881.872	3055
881.999	3093
882.125	3142
882.252	3249
882.378	3283
882.505	3401
882.631	3272
882.757	3119
882.883	3180
883.01	3222
883.136	3127
883.262	3108
883.388	3089
883.514	3294
883.64	3397
883.766	3302
883.892	3184
884.018	3260
884.143	3393
884.269	3549
884.395	3195
884.52	3131
884.646	3184
884.772	3093
884.897	3097
885.023	3199
885.148	3344
885.274	3424
885.399	3344
885.524	3279
885.65	3253
885.775	3298
885.9	3249
886.025	3409
886.15	3351
886.275	3291
886.4	3237
886.525	3287
886.65	3279
886.775	3264
886.9	3485
887.025	3603
887.149	3412
887.274	3291
887.399	3188
887.523	3218
887.648	3157
887.773	3245
887.897	3351
888.021	3389
888.146	3310
888.27	3416
888.395	3526
888.519	3420
888.643	3431
888.767	3450
888.891	3275
889.015	3230
889.139	3287
889.263	3249
889.387	3431
889.511	3511
889.635	3420
889.759	3313
889.883	3264
890.006	3359
890.13	3462
890.254	3272
890.377	3340
890.501	3157
890.624	3161
890.748	3264
890.871	3169
890.995	3108
891.118	3055
891.241	3180
891.364	3230
891.488	3332
891.611	3142
891.734	3233
891.857	3256
891.98	3253
892.103	3340
892.226	3287
892.349	3214
892.471	3108
892.594	3207
892.717	3275
892.839	3245
892.962	3298
893.085	3363
893.207	3294
893.33	3112
893.452	3226
893.575	3329
893.697	3237
893.819	3435
893.941	3488
894.064	3473
894.186	3256
894.308	3268
894.43	3424
894.552	3534
894.674	3431
894.796	3275
894.918	3336
895.04	3279
895.161	3439
895.283	3389
895.405	3313
895.526	3359
895.648	3409
895.769	3409
895.891	3458
896.012	3443
896.134	3473
896.255	3412
896.376	3367
896.498	3355
896.619	3428
896.74	3393
896.861	3389
896.982	3675
897.103	3816
897.224	3568
897.345	3523
897.466	3431
897.587	3496
897.708	3667
897.828	3572
897.949	3454
898.07	3310
898.19	3420
898.311	3618
898.431	3405
898.552	3515
898.672	3606
898.792	3580
898.913	3519
899.033	3416
899.153	3287
899.273	3218
899.393	3245
899.513	3294
899.633	3329
899.753	3325
899.873	3363
899.993	3389
900.113	3317
900.232	3367
900.352	3317
900.472	3302
900.591	3214
900.711	3291
900.83	3249
900.95	3393
901.069	3481
901.189	3351
901.308	3138
901.427	3142
901.546	3161
901.665	3302
901.784	3325
901.904	3230
902.023	3127
902.141	3013
902.26	3013
902.379	3131
902.498	3089
902.617	3013
902.735	3218
902.854	3237
902.973	3176
903.091	3077
903.21	3062
903.328	3131
903.446	3123
903.565	3112
903.683	3180
903.801	3081
903.919	3279
904.038	3283
904.156	3154
904.274	3283
904.392	3233
904.51	3260
904.627	3291
904.745	3397
904.863	3492
904.981	3298
905.098	3173
905.216	3222
905.334	3321
905.451	3287
905.569	3340
905.686	3420
905.803	3439
905.921	3298
906.038	3454
906.155	3313
906.272	3237
906.389	3310
906.506	3245
906.623	3260
906.74	3264
906.857	3188
906.974	3268
907.091	3401
907.208	3553
907.324	3424
907.441	3412
907.557	3253
907.674	3195
907.79	3226
907.907	3237
908.023	3351
908.139	3344
908.256	3336
908.372	3313
908.488	3374
908.604	3237
908.72	3222
908.836	3237
908.952	3256
909.068	3370
909.184	3496
909.3	3386
909.415	3511
909.531	3466
909.647	3272
909.762	3260
909.878	3233
909.993	3370
910.108	3348
910.224	3306
910.339	3424
910.454	3336
910.57	3313
910.685	3256
910.8	3580
910.915	3519
911.03	3447
911.145	3291
911.259	3249
911.374	3329
911.489	3249
911.604	3241
911.718	3157
911.833	3116
911.947	3039
912.062	2986
912.176	3112
912.291	3203
912.405	3230
912.519	3420
912.633	3428
912.748	3325
912.862	3256
912.976	3169
913.09	3085
913.204	3150
913.318	3169
913.431	3321
913.545	3332
913.659	3405
913.772	3325
913.886	3211
914	3154
914.113	3363
914.226	3401
914.34	3412
914.453	3214
914.566	3428
914.68	3294
914.793	3283
914.906	3116
915.019	3127
915.132	3070
915.245	3188
915.358	3211
915.47	3226
915.583	3230
915.696	3325
915.809	3393
915.921	3389
916.034	3230
916.146	3249
916.259	3207
916.371	3344
916.483	3374
916.595	3275
916.708	3302
916.82	3344
916.932	3378
917.044	3359
917.156	3355
917.268	3256
917.38	3310
917.491	3340
917.603	3359
917.715	3435
917.826	3462
917.938	3348
918.049	3279
918.161	3397
918.272	3584
918.384	3591
918.495	3511
918.606	3321
918.717	3298
918.828	3363
918.939	3435
919.05	3298
919.161	3344
919.272	3169
919.383	3260
919.494	3515
919.604	3694
919.715	3458
919.826	3389
919.936	3458
920.047	3572
920.157	3473
920.267	3732
920.378	3576
920.488	3561
920.598	3797
920.708	3975
920.818	3842
920.928	3846
921.038	4002
921.148	3979
921.258	3675
921.368	3599
921.477	3519
921.587	3553
921.697	3435
921.806	3599
921.916	3526
922.025	3401
922.134	3355
922.244	3306
922.353	3412
922.462	3279
922.571	3218
922.68	3112
922.789	3051
922.898	3127
923.007	3085
923.116	3207
923.224	3123
923.333	3150
923.442	3074
923.55	3097
923.659	3146
923.767	3214
923.876	3108
923.984	3256
924.092	3089
924.201	3211
924.309	3218
924.417	3211
924.525	3207
924.633	3241
924.741	4032
924.849	3062
924.956	3249
925.064	3089
925.172	3089
925.279	3116
925.387	3211
925.494	3195
925.602	3374
925.709	3317
925.816	3195
925.924	3298
926.031	3378
926.138	3317
926.245	3351
926.352	3233
926.459	3416
926.566	3466
926.673	3329
926.779	3241
926.886	3241
926.993	3184
927.099	3108
927.206	3116
927.312	3154
927.419	3176
927.525	3203
927.631	3260
927.737	3135
927.843	3119
927.95	3005
928.056	3104
928.162	3184
928.267	3253
928.373	3827
928.479	3306
928.585	3066
928.69	3203
928.796	3306
928.901	3154
929.007	3028
929.112	3211
929.218	3165
929.323	3157
929.428	3161
929.533	3310
929.638	3131
929.743	3161
929.848	3283
929.953	3237
930.058	3089
930.163	2967
930.267	3047
930.372	3230
930.477	3039
930.581	3325
930.685	3192
930.79	3043
930.894	3119
930.998	3112
931.103	3279
931.207	2937
931.311	2914
931.415	2922
931.519	2739
931.623	2766
