Data from test_V78500241_32.txt Node
Date: Fri Mar 25 16:15:25 CST 2022
User: usil
Spectrometer: V785-0024
Trigger mode: 0
Integration Time (sec): 4.000000E-1
Scans to average: 1
Nonlinearity correction enabled: false
Boxcar width: 0
Storing dark spectrum: false
XAxis mode: Wavelengths
Number of Pixels in Spectrum: 1024
>>>>>Begin Spectral Data<<<<<
801.071	2960
801.214	2967
801.356	2883
801.499	2948
801.641	2937
801.783	2963
801.926	3127
802.068	3043
802.211	3047
802.353	3055
802.496	3005
802.638	3032
802.78	3097
802.923	3104
803.065	3058
803.208	2918
803.35	2956
803.492	2967
803.635	2982
803.777	2777
803.919	2910
804.061	3245
804.204	3009
804.346	2975
804.488	2880
804.63	3020
804.773	2933
804.915	2952
805.057	3157
805.199	2990
805.341	3032
805.483	3108
805.626	3051
805.768	3028
805.91	3104
806.052	3150
806.194	3100
806.336	3291
806.478	3074
806.62	2990
806.762	2990
806.904	3112
807.046	3260
807.188	3062
807.33	2914
807.472	3028
807.614	2937
807.756	3009
807.898	2952
808.04	2956
808.182	3020
808.324	2982
808.465	2933
808.607	2929
808.749	2819
808.891	2861
809.033	3039
809.174	3017
809.316	2922
809.458	2963
809.6	2826
809.741	2788
809.883	2777
810.025	2899
810.166	2906
810.308	2891
810.45	2922
810.591	2792
810.733	2819
810.875	2899
811.016	2834
811.158	2773
811.299	2857
811.441	2952
811.582	2956
811.724	2849
811.865	2876
812.007	2929
812.148	2922
812.29	2887
812.431	2944
812.573	2952
812.714	3005
812.855	3131
812.997	3070
813.138	3154
813.279	3062
813.421	3013
813.562	3001
813.703	2914
813.845	2925
813.986	2811
814.127	2743
814.268	2857
814.41	2861
814.551	2853
814.692	2918
814.833	2906
814.974	2933
815.115	2998
815.256	2906
815.397	2834
815.539	2861
815.68	2815
815.821	2819
815.962	2960
816.103	2963
816.244	2899
816.385	2918
816.526	3020
816.666	2944
816.807	2762
816.948	2910
817.089	2922
817.23	2906
817.371	2823
817.512	2823
817.653	2876
817.793	2849
817.934	2883
818.075	2994
818.216	3032
818.356	3051
818.497	2910
818.638	2830
818.778	2849
818.919	2849
819.06	2807
819.2	2952
819.341	2838
819.481	2849
819.622	2937
819.762	3180
819.903	3116
820.043	2971
820.184	2941
820.324	2933
820.465	3051
820.605	3024
820.746	3074
820.886	2952
821.026	3157
821.167	3165
821.307	3336
821.447	3306
821.588	3291
821.728	3237
821.868	3199
822.008	3085
822.149	3241
822.289	3275
822.429	3127
822.569	3108
822.709	3207
822.849	3062
822.99	3119
823.13	3195
823.27	3230
823.41	3150
823.55	3192
823.69	3157
823.83	3226
823.97	3138
824.11	3047
824.25	3036
824.389	3100
824.529	3112
824.669	3097
824.809	3218
824.949	3306
825.089	3253
825.228	3180
825.368	3058
825.508	3009
825.648	2998
825.787	3058
825.927	3047
826.067	3009
826.206	3013
826.346	3070
826.485	3089
826.625	3157
826.765	3329
826.904	3233
827.044	3017
827.183	2982
827.323	2876
827.462	2990
827.601	2952
827.741	2963
827.88	2960
828.02	2887
828.159	2990
828.298	3051
828.437	3173
828.577	3104
828.716	3264
828.855	3055
828.994	2971
829.134	2925
829.273	2952
829.412	2895
829.551	2899
829.69	2902
829.829	3039
829.968	3199
830.107	3074
830.246	3081
830.385	2948
830.524	2929
830.663	2857
830.802	2781
830.941	2701
831.08	2682
831.219	2838
831.357	2804
831.496	2990
831.635	2735
831.774	2686
831.913	2670
832.051	2590
832.19	2613
832.329	2708
832.467	2579
832.606	2522
832.744	2594
832.883	2659
833.022	2674
833.16	2701
833.299	2701
833.437	2727
833.576	2739
833.714	2735
833.852	2769
833.991	2804
834.129	2883
834.267	2853
834.406	2842
834.544	2887
834.682	2922
834.821	2929
834.959	3097
835.097	2944
835.235	3062
835.373	3013
835.511	3070
835.65	3032
835.788	2963
835.926	2872
836.064	2849
836.202	2880
836.34	3116
836.478	3199
836.615	3074
836.753	3176
836.891	3241
837.029	3199
837.167	3104
837.305	3085
837.443	3081
837.58	2990
837.718	3184
837.856	3112
837.993	3100
838.131	3165
838.269	3100
838.406	3165
838.544	3108
838.681	2982
838.819	2948
838.956	2830
839.094	2880
839.231	2952
839.369	3043
839.506	3405
839.643	3256
839.781	3074
839.918	2990
840.055	3119
840.193	3043
840.33	3077
840.467	3154
840.604	3180
840.742	3492
840.879	3085
841.016	3066
841.153	3180
841.29	3359
841.427	3325
841.564	3317
841.701	3359
841.838	3272
841.975	3233
842.112	3233
842.249	3081
842.385	3055
842.522	3294
842.659	3104
842.796	3108
842.933	3176
843.069	3112
843.206	3058
843.343	3222
843.479	3150
843.616	3188
843.752	2914
843.889	2918
844.025	3131
844.162	2948
844.298	3100
844.435	3009
844.571	2960
844.708	3119
844.844	3192
844.98	3264
845.117	3253
845.253	3081
845.389	3055
845.525	3123
845.661	3161
845.798	3047
845.934	3154
846.07	3131
846.206	3253
846.342	3351
846.478	3268
846.614	3154
846.75	3104
846.886	3058
847.022	3310
847.158	3203
847.294	3237
847.429	3294
847.565	3230
847.701	3557
847.837	3089
847.972	3020
848.108	3176
848.244	3199
848.379	3055
848.515	2979
848.65	3005
848.786	3032
848.921	3058
849.057	3123
849.192	3165
849.328	3131
849.463	3123
849.598	3108
849.734	3097
849.869	3039
850.004	3017
850.14	3013
850.275	2948
850.41	2914
850.545	2918
850.68	2979
850.815	2979
850.95	2982
851.085	3249
851.22	3161
851.355	3077
851.49	3013
851.625	3032
851.76	3047
851.895	2952
852.03	2933
852.165	3058
852.299	3131
852.434	3199
852.569	3173
852.703	3237
852.838	3302
852.973	3367
853.107	3401
853.242	3214
853.376	3097
853.511	3017
853.645	3085
853.78	3279
853.914	3131
854.048	3150
854.183	3135
854.317	3176
854.451	3332
854.585	3150
854.72	3127
854.854	3218
854.988	3081
855.122	3135
855.256	3024
855.39	3108
855.524	3279
855.658	3207
855.792	3214
855.926	3233
856.06	3268
856.194	3310
856.327	3233
856.461	3108
856.595	3127
856.729	3165
856.862	3253
856.996	3188
857.13	3249
857.263	3237
857.397	3306
857.53	3176
857.664	3253
857.797	3310
857.931	3294
858.064	3203
858.197	3233
858.331	3180
858.464	3142
858.597	3058
858.731	3154
858.864	3199
858.997	3119
859.13	3184
859.263	3233
859.396	3222
859.529	3127
859.662	3058
859.795	3097
859.928	3222
860.061	3332
860.194	3325
860.327	3176
860.46	3142
860.592	3294
860.725	3272
860.858	3279
860.99	3127
861.123	3077
861.256	3116
861.388	3176
861.521	3907
861.653	3043
861.786	3024
861.918	2990
862.05	3138
862.183	3112
862.315	3195
862.447	3249
862.58	3100
862.712	2982
862.844	2963
862.976	3058
863.108	3070
863.24	3496
863.372	2899
863.504	2971
863.636	2994
863.768	3123
863.9	3020
864.032	2975
864.164	2986
864.296	3062
864.428	3135
864.559	3176
864.691	3089
864.823	3127
864.954	3085
865.086	3062
865.217	3051
865.349	2986
865.48	3009
865.612	3043
865.743	3176
865.875	3005
866.006	2975
866.137	3013
866.269	2975
866.4	2956
866.531	2979
866.662	2922
866.793	2922
866.924	2967
867.055	2982
867.186	2967
867.317	2910
867.448	2823
867.579	2864
867.71	2906
867.841	2845
867.972	2929
868.103	2933
868.233	2941
868.364	2902
868.495	2941
868.625	3100
868.756	3245
868.886	3001
869.017	3074
869.147	3169
869.278	3203
869.408	3119
869.539	3055
869.669	3165
869.799	3077
869.929	3184
870.06	3150
870.19	3374
870.32	3348
870.45	3351
870.58	3389
870.71	3477
870.84	3473
870.97	3321
871.1	3256
871.23	3530
871.36	3500
871.489	3416
871.619	3454
871.749	3462
871.879	3481
872.008	3542
872.138	3412
872.267	3313
872.397	3203
872.526	3142
872.656	3062
872.785	3135
872.915	3264
873.044	3355
873.173	3275
873.303	3313
873.432	3272
873.561	3264
873.69	3230
873.819	3176
873.948	3237
874.077	3138
874.206	3085
874.335	3116
874.464	3230
874.593	3405
874.722	3313
874.851	3450
874.979	3363
875.108	3344
875.237	3226
875.365	3203
875.494	3173
875.623	3298
875.751	3104
875.88	3116
876.008	3241
876.136	3249
876.265	3458
876.393	3549
876.521	3469
876.65	3435
876.778	3321
876.906	3279
877.034	3260
877.162	3268
877.29	3249
877.418	3332
877.546	3275
877.674	3294
877.802	3264
877.93	3256
878.058	3150
878.185	3116
878.313	3230
878.441	3237
878.568	3104
878.696	3161
878.824	3313
878.951	3340
879.079	3530
879.206	3679
879.333	3500
879.461	3378
879.588	3374
879.715	3542
879.842	3641
879.97	3389
880.097	3222
880.224	3176
880.351	3226
880.478	3256
880.605	3253
880.732	3241
880.859	3504
880.986	3306
881.112	3363
881.239	3233
881.366	3112
881.493	3051
881.619	3055
881.746	3089
881.872	3123
881.999	3123
882.125	3207
882.252	3249
882.378	3302
882.505	3458
882.631	3287
882.757	3203
882.883	3256
883.01	3222
883.136	3214
883.262	3142
883.388	3127
883.514	3370
883.64	3424
883.766	3378
883.892	3211
884.018	3287
884.143	3492
884.269	3584
884.395	3218
884.52	3214
884.646	3253
884.772	3154
884.897	3127
885.023	3218
885.148	3382
885.274	3485
885.399	3420
885.524	3298
885.65	3294
885.775	3370
885.9	3332
886.025	3466
886.15	3386
886.275	3310
886.4	3283
886.525	3370
886.65	3306
886.775	3268
886.9	3515
887.025	3698
887.149	3492
887.274	3279
887.399	3253
887.523	3253
887.648	3233
887.773	3249
887.897	3386
888.021	3431
888.146	3329
888.27	3431
888.395	3591
888.519	3511
888.643	3504
888.767	3496
888.891	3389
889.015	3317
889.139	3355
889.263	3283
889.387	3447
889.511	3557
889.635	3530
889.759	3348
889.883	3336
890.006	3412
890.13	3504
890.254	3325
890.377	3370
890.501	3287
890.624	3249
890.748	3340
890.871	3180
890.995	3119
891.118	3089
891.241	3268
891.364	3256
891.488	3382
891.611	3222
891.734	3279
891.857	3325
891.98	3298
892.103	3374
892.226	3313
892.349	3287
892.471	3161
892.594	3264
892.717	3317
892.839	3279
892.962	3310
893.085	3382
893.207	3367
893.33	3195
893.452	3268
893.575	3374
893.697	3275
893.819	3500
893.941	3553
894.064	3485
894.186	3313
894.308	3294
894.43	3507
894.552	3603
894.674	3545
894.796	3294
894.918	3332
895.04	3306
895.161	3473
895.283	3458
895.405	3306
895.526	3405
895.648	3466
895.769	3496
895.891	3504
896.012	3530
896.134	3515
896.255	3416
896.376	3401
896.498	3355
896.619	3477
896.74	3386
896.861	3443
896.982	3747
897.103	3907
897.224	3644
897.345	3591
897.466	3496
897.587	3534
897.708	3675
897.828	3625
897.949	3481
898.07	3348
898.19	3473
898.311	3641
898.431	3488
898.552	3564
898.672	3629
898.792	3618
898.913	3549
899.033	3481
899.153	3348
899.273	3256
899.393	3351
899.513	3386
899.633	3344
899.753	3401
899.873	3317
899.993	3393
900.113	3370
900.232	3439
900.352	3405
900.472	3317
900.591	3272
900.711	3344
900.83	3313
900.95	3469
901.069	3500
901.189	3416
901.308	3211
901.427	3150
901.546	3241
901.665	3291
901.784	3389
901.904	3260
902.023	3192
902.141	3055
902.26	3028
902.379	3180
902.498	3085
902.617	3131
902.735	3233
902.854	3275
902.973	3256
903.091	3058
903.21	3135
903.328	3184
903.446	3150
903.565	3173
903.683	3245
903.801	3184
903.919	3283
904.038	3321
904.156	3192
904.274	3332
904.392	3306
904.51	3332
904.627	3409
904.745	3496
904.863	3538
904.981	3310
905.098	3199
905.216	3245
905.334	3367
905.451	3332
905.569	3378
905.686	3454
905.803	3473
905.921	3336
906.038	3481
906.155	3405
906.272	3344
906.389	3389
906.506	3302
906.623	3283
906.74	3329
906.857	3214
906.974	3275
907.091	3526
907.208	3622
907.324	3538
907.441	3428
907.557	3294
907.674	3249
907.79	3294
907.907	3340
908.023	3450
908.139	3424
908.256	3378
908.372	3405
908.488	3412
908.604	3291
908.72	3241
908.836	3329
908.952	3325
909.068	3389
909.184	3523
909.3	3420
909.415	3568
909.531	3500
909.647	3313
909.762	3348
909.878	3294
909.993	3405
910.108	3378
910.224	3401
910.339	3450
910.454	3389
910.57	3340
910.685	3268
910.8	3610
910.915	3580
911.03	3496
911.145	3283
911.259	3325
911.374	3374
911.489	3302
911.604	3291
911.718	3154
911.833	3165
911.947	3055
912.062	3036
912.176	3226
912.291	3260
912.405	3272
912.519	3458
912.633	3526
912.748	3409
912.862	3291
912.976	3203
913.09	3104
913.204	3199
913.318	3241
913.431	3367
913.545	3355
913.659	3454
913.772	3389
913.886	3275
914	3256
914.113	3420
914.226	3466
914.34	3424
914.453	3272
914.566	3462
914.68	3313
914.793	3348
914.906	3173
915.019	3123
915.132	3142
915.245	3222
915.358	3260
915.47	3241
915.583	3302
915.696	3367
915.809	3420
915.921	3466
916.034	3321
916.146	3279
916.259	3275
916.371	3412
916.483	3412
916.595	3348
916.708	3374
916.82	3374
916.932	3439
917.044	3412
917.156	3401
917.268	3302
917.38	3310
917.491	3332
917.603	3412
917.715	3507
917.826	3504
917.938	3458
918.049	3336
918.161	3454
918.272	3667
918.384	3606
918.495	3564
918.606	3386
918.717	3336
918.828	3462
918.939	3458
919.05	3313
919.161	3450
919.272	3211
919.383	3329
919.494	3568
919.604	3728
919.715	3496
919.826	3431
919.936	3458
920.047	3618
920.157	3591
920.267	3797
920.378	3641
920.488	3625
920.598	3823
920.708	3991
920.818	3907
920.928	3880
921.038	4082
921.148	4025
921.258	3770
921.368	3660
921.477	3637
921.587	3587
921.697	3519
921.806	3717
921.916	3584
922.025	3393
922.134	3382
922.244	3393
922.353	3458
922.462	3325
922.571	3268
922.68	3119
922.789	3131
922.898	3161
923.007	3154
923.116	3241
923.224	3253
923.333	3214
923.442	3135
923.55	3154
923.659	3226
923.767	3302
923.876	3135
923.984	3294
924.092	3146
924.201	3222
924.309	3264
924.417	3302
924.525	3222
924.633	3256
924.741	4246
924.849	3077
924.956	3275
925.064	3127
925.172	3066
925.279	3146
925.387	3237
925.494	3245
925.602	3405
925.709	3420
925.816	3203
925.924	3336
926.031	3412
926.138	3386
926.245	3393
926.352	3272
926.459	3424
926.566	3500
926.673	3393
926.779	3313
926.886	3245
926.993	3192
927.099	3154
927.206	3165
927.312	3169
927.419	3272
927.525	3233
927.631	3325
927.737	3150
927.843	3173
927.95	3081
928.056	3146
928.162	3195
928.267	3302
928.373	3804
928.479	3348
928.585	3093
928.69	3218
928.796	3325
928.901	3192
929.007	3104
929.112	3237
929.218	3218
929.323	3180
929.428	3184
929.533	3351
929.638	3127
929.743	3207
929.848	3291
929.953	3268
930.058	3169
930.163	2990
930.267	3093
930.372	3207
930.477	3108
930.581	3351
930.685	3241
930.79	3093
930.894	3142
930.998	3116
931.103	3294
931.207	2982
931.311	2960
931.415	2971
931.519	2830
931.623	2864
