Data from test_V78500241_135.txt Node
Date: Fri Mar 25 16:16:08 CST 2022
User: usil
Spectrometer: V785-0024
Trigger mode: 0
Integration Time (sec): 4.000000E-1
Scans to average: 1
Nonlinearity correction enabled: false
Boxcar width: 0
Storing dark spectrum: false
XAxis mode: Wavelengths
Number of Pixels in Spectrum: 1024
>>>>>Begin Spectral Data<<<<<
801.071	2914
801.214	2975
801.356	2880
801.499	2876
801.641	2910
801.783	2971
801.926	3077
802.068	2975
802.211	2994
802.353	3074
802.496	2998
802.638	3024
802.78	3070
802.923	3089
803.065	2986
803.208	2929
803.35	2918
803.492	2944
803.635	2933
803.777	2769
803.919	2891
804.061	3195
804.204	2941
804.346	2914
804.488	2876
804.63	3013
804.773	2902
804.915	2910
805.057	3119
805.199	2941
805.341	2990
805.483	3081
805.626	2986
805.768	2952
805.91	3074
806.052	3116
806.194	3058
806.336	3275
806.478	3036
806.62	2963
806.762	3005
806.904	3089
807.046	3176
807.188	2979
807.33	2933
807.472	3013
807.614	2914
807.756	2956
807.898	2952
808.04	2948
808.182	3032
808.324	2948
808.465	2933
808.607	2899
808.749	2823
808.891	2864
809.033	3009
809.174	2967
809.316	2883
809.458	2895
809.6	2781
809.741	2788
809.883	2727
810.025	2899
810.166	2849
810.308	2849
810.45	2872
810.591	2796
810.733	2845
810.875	2853
811.016	2796
811.158	2762
811.299	2861
811.441	2960
811.582	2902
811.724	2849
811.865	2842
812.007	2948
812.148	2880
812.29	2872
812.431	2891
812.573	2941
812.714	2971
812.855	3032
812.997	3097
813.138	3135
813.279	3005
813.421	2971
813.562	2971
813.703	2891
813.845	2952
813.986	2788
814.127	2766
814.268	2842
814.41	2861
814.551	2845
814.692	2864
814.833	2815
814.974	2872
815.115	2956
815.256	2834
815.397	2842
815.539	2853
815.68	2804
815.821	2834
815.962	2929
816.103	2914
816.244	2887
816.385	2868
816.526	3005
816.666	2906
816.807	2746
816.948	2895
817.089	2906
817.23	2864
817.371	2781
817.512	2849
817.653	2876
817.793	2830
817.934	2887
818.075	2971
818.216	3020
818.356	3036
818.497	2872
818.638	2853
818.778	2830
818.919	2796
819.06	2785
819.2	2887
819.341	2788
819.481	2804
819.622	2944
819.762	3123
819.903	3051
820.043	2990
820.184	2899
820.324	2895
820.465	3032
820.605	2979
820.746	3047
820.886	2960
821.026	3135
821.167	3184
821.307	3291
821.447	3325
821.588	3211
821.728	3218
821.868	3176
822.008	3097
822.149	3176
822.289	3218
822.429	3093
822.569	3104
822.709	3161
822.849	3043
822.99	3112
823.13	3123
823.27	3195
823.41	3108
823.55	3184
823.69	3146
823.83	3192
823.97	3123
824.11	2998
824.25	3017
824.389	3070
824.529	3127
824.669	3093
824.809	3199
824.949	3268
825.089	3253
825.228	3150
825.368	3032
825.508	2956
825.648	2998
825.787	3036
825.927	3017
826.067	2975
826.206	2937
826.346	3055
826.485	3097
826.625	3131
826.765	3268
826.904	3237
827.044	2990
827.183	2956
827.323	2887
827.462	2994
827.601	2956
827.741	2887
827.88	3009
828.02	2902
828.159	3036
828.298	3047
828.437	3127
828.577	3077
828.716	3302
828.855	3119
828.994	2933
829.134	2910
829.273	2941
829.412	2925
829.551	2895
829.69	2891
829.829	3036
829.968	3211
830.107	3066
830.246	3070
830.385	2948
830.524	2902
830.663	2864
830.802	2796
830.941	2727
831.08	2689
831.219	2826
831.357	2796
831.496	2998
831.635	2766
831.774	2712
831.913	2731
832.051	2598
832.19	2689
832.329	2720
832.467	2610
832.606	2533
832.744	2632
832.883	2640
833.022	2632
833.16	2701
833.299	2743
833.437	2773
833.576	2754
833.714	2773
833.852	2777
833.991	2834
834.129	2895
834.267	2853
834.406	2838
834.544	2922
834.682	2948
834.821	2914
834.959	3104
835.097	2948
835.235	3119
835.373	3074
835.511	3055
835.65	2994
835.788	2994
835.926	2910
836.064	2834
836.202	2895
836.34	3138
836.478	3203
836.615	3074
836.753	3169
836.891	3256
837.029	3222
837.167	3180
837.305	3150
837.443	3116
837.58	3005
837.718	3203
837.856	3135
837.993	3100
838.131	3192
838.269	3195
838.406	3154
838.544	3123
838.681	2994
838.819	3005
838.956	2868
839.094	2887
839.231	3005
839.369	3100
839.506	3420
839.643	3275
839.781	3085
839.918	3028
840.055	3089
840.193	3093
840.33	3142
840.467	3157
840.604	3192
840.742	3462
840.879	3112
841.016	3077
841.153	3207
841.29	3386
841.427	3329
841.564	3329
841.701	3329
841.838	3260
841.975	3241
842.112	3287
842.249	3142
842.385	3100
842.522	3283
842.659	3169
842.796	3127
842.933	3188
843.069	3108
843.206	3081
843.343	3199
843.479	3161
843.616	3211
843.752	2956
843.889	2922
844.025	3097
844.162	2956
844.298	3131
844.435	2994
844.571	2982
844.708	3116
844.844	3272
844.98	3283
845.117	3222
845.253	3081
845.389	3074
845.525	3142
845.661	3173
845.798	3062
845.934	3150
846.07	3116
846.206	3272
846.342	3405
846.478	3272
846.614	3150
846.75	3093
846.886	3100
847.022	3313
847.158	3146
847.294	3268
847.429	3287
847.565	3264
847.701	3549
847.837	3077
847.972	3085
848.108	3237
848.244	3176
848.379	3058
848.515	2963
848.65	2960
848.786	3039
848.921	3039
849.057	3161
849.192	3233
849.328	3119
849.463	3138
849.598	3097
849.734	3077
849.869	3001
850.004	2994
850.14	3047
850.275	2952
850.41	2864
850.545	2937
850.68	3020
850.815	3001
850.95	3017
851.085	3291
851.22	3150
851.355	3119
851.49	3066
851.625	3066
851.76	3074
851.895	2986
852.03	2956
852.165	3116
852.299	3165
852.434	3268
852.569	3176
852.703	3226
852.838	3253
852.973	3393
853.107	3351
853.242	3211
853.376	3176
853.511	3020
853.645	3131
853.78	3245
853.914	3180
854.048	3195
854.183	3108
854.317	3184
854.451	3332
854.585	3157
854.72	3138
854.854	3275
854.988	3119
855.122	3146
855.256	3039
855.39	3176
855.524	3237
855.658	3245
855.792	3245
855.926	3233
856.06	3279
856.194	3317
856.327	3226
856.461	3100
856.595	3097
856.729	3161
856.862	3260
856.996	3245
857.13	3275
857.263	3241
857.397	3348
857.53	3161
857.664	3272
857.797	3287
857.931	3298
858.064	3203
858.197	3237
858.331	3176
858.464	3131
858.597	3066
858.731	3188
858.864	3176
858.997	3150
859.13	3180
859.263	3226
859.396	3237
859.529	3150
859.662	3123
859.795	3123
859.928	3169
860.061	3317
860.194	3325
860.327	3195
860.46	3146
860.592	3260
860.725	3313
860.858	3287
860.99	3173
861.123	3116
861.256	3116
861.388	3199
861.521	3728
861.653	3039
861.786	3062
861.918	3039
862.05	3131
862.183	3142
862.315	3184
862.447	3272
862.58	3135
862.712	3013
862.844	2925
862.976	3081
863.108	3066
863.24	3469
863.372	2918
863.504	2990
863.636	2982
863.768	3093
863.9	3062
864.032	2941
864.164	2967
864.296	3066
864.428	3127
864.559	3142
864.691	3135
864.823	3108
864.954	3081
865.086	3093
865.217	3051
865.349	2990
865.48	3039
865.612	3017
865.743	3218
865.875	2998
866.006	2990
866.137	3055
866.269	3020
866.4	2971
866.531	2933
866.662	2933
866.793	2937
866.924	2918
867.055	3032
867.186	2956
867.317	2971
867.448	2883
867.579	2906
867.71	2872
867.841	2849
867.972	2971
868.103	2941
868.233	2963
868.364	2914
868.495	2982
868.625	3119
868.756	3214
868.886	2994
869.017	3085
869.147	3207
869.278	3214
869.408	3085
869.539	3081
869.669	3138
869.799	3093
869.929	3184
870.06	3142
870.19	3416
870.32	3340
870.45	3329
870.58	3447
870.71	3462
870.84	3496
870.97	3370
871.1	3298
871.23	3557
871.36	3504
871.489	3431
871.619	3473
871.749	3450
871.879	3526
872.008	3526
872.138	3355
872.267	3321
872.397	3199
872.526	3154
872.656	3062
872.785	3157
872.915	3287
873.044	3325
873.173	3302
873.303	3310
873.432	3283
873.561	3294
873.69	3195
873.819	3184
873.948	3283
874.077	3146
874.206	3104
874.335	3112
874.464	3260
874.593	3389
874.722	3283
874.851	3424
874.979	3401
875.108	3344
875.237	3237
875.365	3207
875.494	3203
875.623	3268
875.751	3093
875.88	3146
876.008	3211
876.136	3283
876.265	3431
876.393	3614
876.521	3416
876.65	3435
876.778	3397
876.906	3256
877.034	3226
877.162	3306
877.29	3264
877.418	3302
877.546	3283
877.674	3302
877.802	3287
877.93	3283
878.058	3195
878.185	3138
878.313	3275
878.441	3237
878.568	3062
878.696	3176
878.824	3321
878.951	3321
879.079	3466
879.206	3690
879.333	3466
879.461	3420
879.588	3397
879.715	3572
879.842	3652
879.97	3450
880.097	3199
880.224	3176
880.351	3268
880.478	3249
880.605	3260
880.732	3230
880.859	3519
880.986	3359
881.112	3367
881.239	3264
881.366	3135
881.493	3089
881.619	3062
881.746	3119
881.872	3157
881.999	3161
882.125	3184
882.252	3283
882.378	3325
882.505	3477
882.631	3321
882.757	3199
882.883	3268
883.01	3268
883.136	3195
883.262	3154
883.388	3119
883.514	3378
883.64	3428
883.766	3355
883.892	3230
884.018	3313
884.143	3454
884.269	3572
884.395	3211
884.52	3249
884.646	3211
884.772	3146
884.897	3104
885.023	3226
885.148	3374
885.274	3420
885.399	3412
885.524	3317
885.65	3310
885.775	3386
885.9	3355
886.025	3492
886.15	3431
886.275	3340
886.4	3287
886.525	3359
886.65	3317
886.775	3310
886.9	3538
887.025	3622
887.149	3447
887.274	3302
887.399	3245
887.523	3226
887.648	3214
887.773	3237
887.897	3424
888.021	3454
888.146	3340
888.27	3485
888.395	3614
888.519	3488
888.643	3504
888.767	3538
888.891	3389
889.015	3283
889.139	3313
889.263	3298
889.387	3462
889.511	3584
889.635	3481
889.759	3336
889.883	3332
890.006	3416
890.13	3549
890.254	3329
890.377	3389
890.501	3207
890.624	3241
890.748	3363
890.871	3222
890.995	3135
891.118	3093
891.241	3214
891.364	3211
891.488	3401
891.611	3230
891.734	3260
891.857	3329
891.98	3298
892.103	3386
892.226	3344
892.349	3279
892.471	3157
892.594	3287
892.717	3370
892.839	3325
892.962	3340
893.085	3389
893.207	3321
893.33	3195
893.452	3237
893.575	3397
893.697	3249
893.819	3534
893.941	3507
894.064	3431
894.186	3294
894.308	3283
894.43	3500
894.552	3572
894.674	3481
894.796	3321
894.918	3370
895.04	3298
895.161	3481
895.283	3382
895.405	3351
895.526	3374
895.648	3447
895.769	3481
895.891	3511
896.012	3507
896.134	3515
896.255	3454
896.376	3435
896.498	3382
896.619	3481
896.74	3416
896.861	3428
896.982	3743
897.103	3880
897.224	3633
897.345	3523
897.466	3466
897.587	3526
897.708	3671
897.828	3599
897.949	3496
898.07	3389
898.19	3424
898.311	3629
898.431	3473
898.552	3530
898.672	3641
898.792	3584
898.913	3587
899.033	3447
899.153	3313
899.273	3211
899.393	3336
899.513	3348
899.633	3389
899.753	3370
899.873	3329
899.993	3412
900.113	3370
900.232	3409
900.352	3367
900.472	3317
900.591	3256
900.711	3332
900.83	3275
900.95	3488
901.069	3564
901.189	3374
901.308	3222
901.427	3188
901.546	3237
901.665	3344
901.784	3367
901.904	3268
902.023	3165
902.141	3055
902.26	3032
902.379	3169
902.498	3108
902.617	3093
902.735	3249
902.854	3268
902.973	3226
903.091	3100
903.21	3070
903.328	3150
903.446	3188
903.565	3116
903.683	3237
903.801	3154
903.919	3275
904.038	3310
904.156	3222
904.274	3302
904.392	3294
904.51	3291
904.627	3393
904.745	3466
904.863	3545
904.981	3287
905.098	3211
905.216	3268
905.334	3306
905.451	3348
905.569	3348
905.686	3481
905.803	3496
905.921	3367
906.038	3443
906.155	3439
906.272	3317
906.389	3355
906.506	3298
906.623	3298
906.74	3306
906.857	3260
906.974	3275
907.091	3485
907.208	3625
907.324	3523
907.441	3466
907.557	3256
907.674	3226
907.79	3264
907.907	3317
908.023	3435
908.139	3409
908.256	3397
908.372	3412
908.488	3386
908.604	3302
908.72	3264
908.836	3279
908.952	3291
909.068	3363
909.184	3542
909.3	3409
909.415	3568
909.531	3507
909.647	3268
909.762	3302
909.878	3306
909.993	3382
910.108	3325
910.224	3363
910.339	3439
910.454	3340
910.57	3298
910.685	3268
910.8	3629
910.915	3561
911.03	3485
911.145	3283
911.259	3325
911.374	3340
911.489	3302
911.604	3279
911.718	3176
911.833	3150
911.947	3108
912.062	3013
912.176	3195
912.291	3211
912.405	3237
912.519	3492
912.633	3515
912.748	3374
912.862	3256
912.976	3195
913.09	3070
913.204	3184
913.318	3260
913.431	3348
913.545	3359
913.659	3416
913.772	3439
913.886	3241
914	3226
914.113	3393
914.226	3477
914.34	3397
914.453	3241
914.566	3454
914.68	3306
914.793	3340
914.906	3180
915.019	3138
915.132	3081
915.245	3237
915.358	3241
915.47	3226
915.583	3294
915.696	3317
915.809	3382
915.921	3420
916.034	3275
916.146	3310
916.259	3260
916.371	3405
916.483	3435
916.595	3306
916.708	3412
916.82	3382
916.932	3389
917.044	3359
917.156	3393
917.268	3275
917.38	3348
917.491	3325
917.603	3389
917.715	3443
917.826	3492
917.938	3439
918.049	3291
918.161	3500
918.272	3610
918.384	3599
918.495	3542
918.606	3382
918.717	3317
918.828	3428
918.939	3420
919.05	3325
919.161	3428
919.272	3226
919.383	3294
919.494	3538
919.604	3709
919.715	3519
919.826	3447
919.936	3492
920.047	3625
920.157	3572
920.267	3785
920.378	3610
920.488	3576
920.598	3838
920.708	4013
920.818	3816
920.928	3861
921.038	4074
921.148	4025
921.258	3690
921.368	3717
921.477	3591
921.587	3538
921.697	3492
921.806	3663
921.916	3538
922.025	3382
922.134	3344
922.244	3363
922.353	3504
922.462	3279
922.571	3272
922.68	3157
922.789	3116
922.898	3180
923.007	3116
923.116	3260
923.224	3214
923.333	3199
923.442	3119
923.55	3093
923.659	3165
923.767	3260
923.876	3123
923.984	3275
924.092	3180
924.201	3237
924.309	3233
924.417	3283
924.525	3222
924.633	3237
924.741	4211
924.849	3077
924.956	3302
925.064	3108
925.172	3093
925.279	3112
925.387	3211
925.494	3237
925.602	3367
925.709	3378
925.816	3253
925.924	3340
926.031	3401
926.138	3351
926.245	3370
926.352	3249
926.459	3439
926.566	3477
926.673	3367
926.779	3249
926.886	3268
926.993	3176
927.099	3165
927.206	3138
927.312	3154
927.419	3253
927.525	3207
927.631	3340
927.737	3165
927.843	3138
927.95	3100
928.056	3176
928.162	3203
928.267	3283
928.373	3804
928.479	3321
928.585	3119
928.69	3241
928.796	3237
928.901	3203
929.007	3081
929.112	3214
929.218	3207
929.323	3169
929.428	3211
929.533	3313
929.638	3116
929.743	3211
929.848	3275
929.953	3222
930.058	3157
930.163	3013
930.267	3066
930.372	3195
930.477	3066
930.581	3367
930.685	3195
930.79	3085
930.894	3169
930.998	3165
931.103	3313
931.207	2956
931.311	2971
931.415	2990
931.519	2807
931.623	2823
