Data from test_V78500241_581.txt Node
Date: Fri Mar 25 16:19:13 CST 2022
User: usil
Spectrometer: V785-0024
Trigger mode: 0
Integration Time (sec): 4.000000E-1
Scans to average: 1
Nonlinearity correction enabled: false
Boxcar width: 0
Storing dark spectrum: false
XAxis mode: Wavelengths
Number of Pixels in Spectrum: 1024
>>>>>Begin Spectral Data<<<<<
801.071	2899
801.214	2956
801.356	2872
801.499	2872
801.641	2910
801.783	2933
801.926	3058
802.068	2956
802.211	2998
802.353	3020
802.496	2971
802.638	3017
802.78	3028
802.923	3039
803.065	3005
803.208	2906
803.35	2883
803.492	2933
803.635	2925
803.777	2739
803.919	2845
804.061	3199
804.204	2960
804.346	2906
804.488	2838
804.63	3013
804.773	2826
804.915	2883
805.057	3081
805.199	2929
805.341	2956
805.483	3032
805.626	3020
805.768	2967
805.91	3039
806.052	3089
806.194	3051
806.336	3199
806.478	3039
806.62	2975
806.762	2986
806.904	3051
807.046	3135
807.188	2994
807.33	2906
807.472	3036
807.614	2933
807.756	3005
807.898	2956
808.04	2918
808.182	2982
808.324	2990
808.465	2918
808.607	2902
808.749	2788
808.891	2853
809.033	2982
809.174	2986
809.316	2925
809.458	2895
809.6	2834
809.741	2788
809.883	2785
810.025	2883
810.166	2876
810.308	2872
810.45	2887
810.591	2811
810.733	2766
810.875	2853
811.016	2804
811.158	2766
811.299	2834
811.441	2914
811.582	2902
811.724	2868
811.865	2883
812.007	2944
812.148	2933
812.29	2899
812.431	2918
812.573	2982
812.714	3020
812.855	3024
812.997	3058
813.138	3138
813.279	3051
813.421	3009
813.562	2994
813.703	2918
813.845	2910
813.986	2823
814.127	2750
814.268	2842
814.41	2895
814.551	2830
814.692	2929
814.833	2845
814.974	2979
815.115	2998
815.256	2864
815.397	2849
815.539	2887
815.68	2800
815.821	2853
815.962	2986
816.103	2956
816.244	2918
816.385	2918
816.526	2948
816.666	2952
816.807	2804
816.948	2963
817.089	2956
817.23	2883
817.371	2792
817.512	2853
817.653	2872
817.793	2906
817.934	2895
818.075	2990
818.216	2979
818.356	3062
818.497	2960
818.638	2823
818.778	2853
818.919	2804
819.06	2834
819.2	2948
819.341	2830
819.481	2849
819.622	2960
819.762	3138
819.903	3100
820.043	2975
820.184	2922
820.324	2910
820.465	3062
820.605	3032
820.746	3077
820.886	2944
821.026	3104
821.167	3188
821.307	3268
821.447	3321
821.588	3264
821.728	3245
821.868	3253
822.008	3112
822.149	3230
822.289	3253
822.429	3138
822.569	3085
822.709	3218
822.849	3077
822.99	3112
823.13	3169
823.27	3245
823.41	3154
823.55	3173
823.69	3142
823.83	3222
823.97	3176
824.11	3020
824.25	3013
824.389	3077
824.529	3142
824.669	3135
824.809	3207
824.949	3264
825.089	3249
825.228	3192
825.368	3051
825.508	2982
825.648	2994
825.787	2998
825.927	3055
826.067	2998
826.206	2994
826.346	3051
826.485	3119
826.625	3135
826.765	3275
826.904	3260
827.044	2998
827.183	2975
827.323	2895
827.462	3020
827.601	2925
827.741	2952
827.88	2994
828.02	2880
828.159	3028
828.298	3093
828.437	3131
828.577	3051
828.716	3283
828.855	3077
828.994	2986
829.134	2918
829.273	2925
829.412	2887
829.551	2887
829.69	2960
829.829	3055
829.968	3157
830.107	3077
830.246	3047
830.385	2944
830.524	2891
830.663	2834
830.802	2758
830.941	2674
831.08	2678
831.219	2788
831.357	2777
831.496	2960
831.635	2739
831.774	2697
831.913	2705
832.051	2560
832.19	2621
832.329	2705
832.467	2587
832.606	2511
832.744	2617
832.883	2587
833.022	2636
833.16	2697
833.299	2689
833.437	2750
833.576	2716
833.714	2773
833.852	2750
833.991	2804
834.129	2853
834.267	2864
834.406	2804
834.544	2899
834.682	2895
834.821	2895
834.959	3089
835.097	2960
835.235	3051
835.373	3009
835.511	3043
835.65	2979
835.788	2963
835.926	2830
836.064	2838
836.202	2842
836.34	3085
836.478	3184
836.615	3070
836.753	3157
836.891	3237
837.029	3207
837.167	3127
837.305	3093
837.443	3066
837.58	2994
837.718	3127
837.856	3108
837.993	3058
838.131	3146
838.269	3116
838.406	3138
838.544	3093
838.681	2963
838.819	2906
838.956	2849
839.094	2849
839.231	2979
839.369	2994
839.506	3431
839.643	3268
839.781	2998
839.918	2994
840.055	3062
840.193	3055
840.33	3093
840.467	3138
840.604	3207
840.742	3420
840.879	3077
841.016	3070
841.153	3146
841.29	3370
841.427	3325
841.564	3310
841.701	3329
841.838	3222
841.975	3188
842.112	3287
842.249	3108
842.385	3062
842.522	3272
842.659	3119
842.796	3093
842.933	3146
843.069	3047
843.206	3051
843.343	3192
843.479	3127
843.616	3154
843.752	2887
843.889	2895
844.025	3108
844.162	2891
844.298	3051
844.435	2982
844.571	2910
844.708	3108
844.844	3195
844.98	3256
845.117	3192
845.253	3070
845.389	3005
845.525	3119
845.661	3112
845.798	3039
845.934	3131
846.07	3104
846.206	3256
846.342	3336
846.478	3245
846.614	3097
846.75	3039
846.886	3036
847.022	3218
847.158	3146
847.294	3203
847.429	3233
847.565	3245
847.701	3473
847.837	3089
847.972	3005
848.108	3199
848.244	3157
848.379	2990
848.515	2986
848.65	2929
848.786	3013
848.921	3039
849.057	3116
849.192	3150
849.328	3077
849.463	3085
849.598	3089
849.734	3047
849.869	2990
850.004	2910
850.14	2986
850.275	2941
850.41	2861
850.545	2891
850.68	2929
850.815	2979
850.95	2982
851.085	3192
851.22	3127
851.355	3020
851.49	3024
851.625	2998
851.76	3009
851.895	2952
852.03	2941
852.165	3036
852.299	3116
852.434	3199
852.569	3146
852.703	3188
852.838	3256
852.973	3321
853.107	3344
853.242	3192
853.376	3089
853.511	2937
853.645	3024
853.78	3230
853.914	3150
854.048	3135
854.183	3108
854.317	3146
854.451	3348
854.585	3127
854.72	3085
854.854	3199
854.988	3039
855.122	3146
855.256	3009
855.39	3135
855.524	3260
855.658	3195
855.792	3173
855.926	3218
856.06	3180
856.194	3268
856.327	3108
856.461	3081
856.595	3089
856.729	3112
856.862	3226
856.996	3161
857.13	3218
857.263	3245
857.397	3268
857.53	3154
857.664	3203
857.797	3279
857.931	3245
858.064	3180
858.197	3241
858.331	3127
858.464	3097
858.597	3028
858.731	3135
858.864	3135
858.997	3074
859.13	3195
859.263	3154
859.396	3211
859.529	3097
859.662	3104
859.795	3047
859.928	3154
860.061	3264
860.194	3306
860.327	3123
860.46	3058
860.592	3245
860.725	3268
860.858	3275
860.99	3142
861.123	3051
861.256	3066
861.388	3150
861.521	3766
861.653	3024
861.786	3017
861.918	2998
862.05	3085
862.183	3097
862.315	3154
862.447	3195
862.58	3123
862.712	2975
862.844	2883
862.976	3043
863.108	3020
863.24	3469
863.372	2895
863.504	2986
863.636	2952
863.768	3055
863.9	2979
864.032	2918
864.164	2975
864.296	3017
864.428	3138
864.559	3135
864.691	3047
864.823	3062
864.954	3085
865.086	3047
865.217	2986
865.349	2986
865.48	2982
865.612	2998
865.743	3161
865.875	3013
866.006	2994
866.137	2979
866.269	2967
866.4	2967
866.531	2960
866.662	2937
866.793	2883
866.924	2872
867.055	2971
867.186	2914
867.317	2868
867.448	2861
867.579	2853
867.71	2883
867.841	2819
867.972	2902
868.103	2883
868.233	2899
868.364	2899
868.495	2902
868.625	3116
868.756	3207
868.886	2956
869.017	3032
869.147	3184
869.278	3138
869.408	3039
869.539	3043
869.669	3123
869.799	3051
869.929	3135
870.06	3119
870.19	3332
870.32	3268
870.45	3287
870.58	3355
870.71	3466
870.84	3447
870.97	3321
871.1	3268
871.23	3500
871.36	3481
871.489	3370
871.619	3420
871.749	3439
871.879	3416
872.008	3481
872.138	3344
872.267	3306
872.397	3131
872.526	3112
872.656	3062
872.785	3123
872.915	3233
873.044	3332
873.173	3214
873.303	3249
873.432	3245
873.561	3260
873.69	3180
873.819	3176
873.948	3188
874.077	3127
874.206	3066
874.335	3089
874.464	3264
874.593	3351
874.722	3207
874.851	3435
874.979	3340
875.108	3321
875.237	3230
875.365	3165
875.494	3173
875.623	3218
875.751	3081
875.88	3116
876.008	3237
876.136	3230
876.265	3382
876.393	3504
876.521	3397
876.65	3428
876.778	3351
876.906	3253
877.034	3226
877.162	3230
877.29	3211
877.418	3233
877.546	3230
877.674	3264
877.802	3218
877.93	3226
878.058	3199
878.185	3100
878.313	3173
878.441	3203
878.568	3062
878.696	3165
878.824	3256
878.951	3306
879.079	3443
879.206	3641
879.333	3443
879.461	3302
879.588	3397
879.715	3526
879.842	3564
879.97	3397
880.097	3203
880.224	3131
880.351	3226
880.478	3214
880.605	3211
880.732	3161
880.859	3500
880.986	3310
881.112	3355
881.239	3195
881.366	3066
881.493	3032
881.619	3017
881.746	3058
881.872	3070
881.999	3131
882.125	3169
882.252	3272
882.378	3291
882.505	3424
882.631	3279
882.757	3138
882.883	3233
883.01	3249
883.136	3176
883.262	3135
883.388	3123
883.514	3359
883.64	3336
883.766	3317
883.892	3188
884.018	3211
884.143	3412
884.269	3515
884.395	3195
884.52	3157
884.646	3192
884.772	3135
884.897	3085
885.023	3214
885.148	3302
885.274	3428
885.399	3340
885.524	3272
885.65	3249
885.775	3298
885.9	3260
886.025	3424
886.15	3382
886.275	3332
886.4	3256
886.525	3329
886.65	3272
886.775	3325
886.9	3485
887.025	3679
887.149	3401
887.274	3264
887.399	3176
887.523	3180
887.648	3207
887.773	3222
887.897	3340
888.021	3397
888.146	3332
888.27	3420
888.395	3545
888.519	3420
888.643	3439
888.767	3496
888.891	3351
889.015	3260
889.139	3294
889.263	3249
889.387	3416
889.511	3530
889.635	3488
889.759	3287
889.883	3260
890.006	3409
890.13	3458
890.254	3260
890.377	3359
890.501	3233
890.624	3184
890.748	3310
890.871	3180
890.995	3119
891.118	3074
891.241	3176
891.364	3188
891.488	3329
891.611	3173
891.734	3226
891.857	3325
891.98	3249
892.103	3351
892.226	3298
892.349	3237
892.471	3119
892.594	3211
892.717	3287
892.839	3275
892.962	3336
893.085	3378
893.207	3287
893.33	3116
893.452	3218
893.575	3370
893.697	3256
893.819	3477
893.941	3492
894.064	3462
894.186	3260
894.308	3249
894.43	3424
894.552	3492
894.674	3454
894.796	3283
894.918	3329
895.04	3268
895.161	3454
895.283	3359
895.405	3310
895.526	3359
895.648	3428
895.769	3401
895.891	3458
896.012	3469
896.134	3458
896.255	3416
896.376	3393
896.498	3344
896.619	3389
896.74	3389
896.861	3416
896.982	3705
897.103	3838
897.224	3564
897.345	3515
897.466	3420
897.587	3477
897.708	3622
897.828	3549
897.949	3428
898.07	3355
898.19	3409
898.311	3618
898.431	3428
898.552	3515
898.672	3564
898.792	3595
898.913	3526
899.033	3416
899.153	3332
899.273	3222
899.393	3287
899.513	3302
899.633	3348
899.753	3321
899.873	3302
899.993	3359
900.113	3359
900.232	3393
900.352	3336
900.472	3264
900.591	3188
900.711	3294
900.83	3260
900.95	3389
901.069	3526
901.189	3367
901.308	3165
901.427	3097
901.546	3199
901.665	3298
901.784	3294
901.904	3199
902.023	3154
902.141	3001
902.26	3013
902.379	3154
902.498	3089
902.617	3051
902.735	3226
902.854	3230
902.973	3241
903.091	3077
903.21	3074
903.328	3127
903.446	3127
903.565	3104
903.683	3214
903.801	3119
903.919	3237
904.038	3306
904.156	3131
904.274	3283
904.392	3237
904.51	3272
904.627	3340
904.745	3420
904.863	3542
904.981	3222
905.098	3157
905.216	3230
905.334	3291
905.451	3313
905.569	3344
905.686	3447
905.803	3439
905.921	3302
906.038	3412
906.155	3351
906.272	3264
906.389	3321
906.506	3230
906.623	3253
906.74	3287
906.857	3214
906.974	3253
907.091	3450
907.208	3545
907.324	3469
907.441	3389
907.557	3241
907.674	3230
907.79	3192
907.907	3256
908.023	3420
908.139	3378
908.256	3382
908.372	3367
908.488	3351
908.604	3237
908.72	3233
908.836	3294
908.952	3275
909.068	3344
909.184	3473
909.3	3378
909.415	3473
909.531	3462
909.647	3245
909.762	3275
909.878	3268
909.993	3351
910.108	3359
910.224	3344
910.339	3370
910.454	3359
910.57	3279
910.685	3241
910.8	3580
910.915	3545
911.03	3431
911.145	3260
911.259	3283
911.374	3336
911.489	3222
911.604	3195
911.718	3119
911.833	3199
911.947	3039
912.062	2975
912.176	3157
912.291	3253
912.405	3203
912.519	3443
912.633	3477
912.748	3302
912.862	3260
912.976	3176
913.09	3036
913.204	3169
913.318	3188
913.431	3294
913.545	3351
913.659	3420
913.772	3344
913.886	3188
914	3207
914.113	3386
914.226	3412
914.34	3382
914.453	3195
914.566	3431
914.68	3313
914.793	3329
914.906	3142
915.019	3097
915.132	3047
915.245	3184
915.358	3218
915.47	3211
915.583	3249
915.696	3287
915.809	3401
915.921	3462
916.034	3275
916.146	3268
916.259	3203
916.371	3386
916.483	3359
916.595	3249
916.708	3325
916.82	3344
916.932	3317
917.044	3332
917.156	3348
917.268	3275
917.38	3306
917.491	3306
917.603	3310
917.715	3435
917.826	3488
917.938	3325
918.049	3302
918.161	3450
918.272	3545
918.384	3519
918.495	3488
918.606	3321
918.717	3294
918.828	3370
918.939	3412
919.05	3340
919.161	3397
919.272	3146
919.383	3287
919.494	3534
919.604	3682
919.715	3481
919.826	3378
919.936	3458
920.047	3591
920.157	3545
920.267	3759
920.378	3561
920.488	3526
920.598	3747
920.708	4010
920.818	3827
920.928	3823
921.038	4078
921.148	3994
921.258	3701
921.368	3686
921.477	3603
921.587	3526
921.697	3439
921.806	3614
921.916	3542
922.025	3313
922.134	3340
922.244	3340
922.353	3424
922.462	3287
922.571	3203
922.68	3100
922.789	3100
922.898	3131
923.007	3119
923.116	3214
923.224	3169
923.333	3173
923.442	3131
923.55	3062
923.659	3150
923.767	3169
923.876	3104
923.984	3214
924.092	3089
924.201	3211
924.309	3211
924.417	3275
924.525	3165
924.633	3226
924.741	4040
924.849	3066
924.956	3283
925.064	3100
925.172	3036
925.279	3116
925.387	3157
925.494	3222
925.602	3348
925.709	3348
925.816	3173
925.924	3275
926.031	3355
926.138	3272
926.245	3329
926.352	3275
926.459	3435
926.566	3443
926.673	3336
926.779	3245
926.886	3222
926.993	3131
927.099	3142
927.206	3142
927.312	3127
927.419	3256
927.525	3207
927.631	3256
927.737	3161
927.843	3131
927.95	3028
928.056	3138
928.162	3161
928.267	3233
928.373	3766
928.479	3306
928.585	3058
928.69	3188
928.796	3226
928.901	3173
929.007	3047
929.112	3211
929.218	3169
929.323	3157
929.428	3112
929.533	3302
929.638	3123
929.743	3184
929.848	3249
929.953	3188
930.058	3173
930.163	2982
930.267	3043
930.372	3184
930.477	3024
930.581	3336
930.685	3154
930.79	3062
930.894	3123
930.998	3093
931.103	3275
931.207	2960
931.311	2979
931.415	2929
931.519	2754
931.623	2819
