Data from test_V78500241_1011.txt Node
Date: Fri Mar 25 16:22:12 CST 2022
User: usil
Spectrometer: V785-0024
Trigger mode: 0
Integration Time (sec): 4.000000E-1
Scans to average: 1
Nonlinearity correction enabled: false
Boxcar width: 0
Storing dark spectrum: false
XAxis mode: Wavelengths
Number of Pixels in Spectrum: 1024
>>>>>Begin Spectral Data<<<<<
801.071	2906
801.214	2948
801.356	2861
801.499	2899
801.641	2830
801.783	2880
801.926	3055
802.068	2960
802.211	2982
802.353	3020
802.496	2963
802.638	2994
802.78	3013
802.923	3093
803.065	3005
803.208	2895
803.35	2899
803.492	2933
803.635	2902
803.777	2720
803.919	2876
804.061	3195
804.204	2948
804.346	2895
804.488	2826
804.63	2998
804.773	2883
804.915	2952
805.057	3085
805.199	2925
805.341	2963
805.483	3017
805.626	2998
805.768	2963
805.91	3077
806.052	3116
806.194	3047
806.336	3199
806.478	2960
806.62	2925
806.762	2975
806.904	3077
807.046	3138
807.188	2975
807.33	2914
807.472	2986
807.614	2933
807.756	3001
807.898	2880
808.04	2883
808.182	2982
808.324	2933
808.465	2861
808.607	2868
808.749	2792
808.891	2823
809.033	2933
809.174	2948
809.316	2857
809.458	2899
809.6	2777
809.741	2777
809.883	2762
810.025	2838
810.166	2853
810.308	2807
810.45	2857
810.591	2773
810.733	2758
810.875	2815
811.016	2788
811.158	2724
811.299	2773
811.441	2929
811.582	2864
811.724	2849
811.865	2838
812.007	2906
812.148	2849
812.29	2845
812.431	2868
812.573	2967
812.714	2960
812.855	3039
812.997	3017
813.138	3077
813.279	2990
813.421	2986
813.562	2941
813.703	2857
813.845	2876
813.986	2807
814.127	2739
814.268	2819
814.41	2826
814.551	2807
814.692	2868
814.833	2819
814.974	2891
815.115	2952
815.256	2834
815.397	2800
815.539	2868
815.68	2769
815.821	2807
815.962	2891
816.103	2895
816.244	2899
816.385	2868
816.526	2967
816.666	2914
816.807	2769
816.948	2941
817.089	2902
817.23	2922
817.371	2773
817.512	2766
817.653	2842
817.793	2815
817.934	2864
818.075	2982
818.216	2998
818.356	3055
818.497	2883
818.638	2781
818.778	2781
818.919	2811
819.06	2735
819.2	2849
819.341	2792
819.481	2819
819.622	2914
819.762	3112
819.903	3028
820.043	2910
820.184	2887
820.324	2887
820.465	3017
820.605	3028
820.746	3020
820.886	2868
821.026	3127
821.167	3169
821.307	3230
821.447	3287
821.588	3207
821.728	3188
821.868	3203
822.008	3020
822.149	3192
822.289	3233
822.429	3077
822.569	3070
822.709	3142
822.849	3024
822.99	3028
823.13	3150
823.27	3173
823.41	3089
823.55	3184
823.69	3173
823.83	3195
823.97	3097
824.11	2979
824.25	2990
824.389	3013
824.529	3097
824.669	3070
824.809	3150
824.949	3245
825.089	3226
825.228	3157
825.368	2975
825.508	2933
825.648	2975
825.787	3013
825.927	2998
826.067	2994
826.206	2967
826.346	3028
826.485	3070
826.625	3112
826.765	3256
826.904	3199
827.044	2990
827.183	2937
827.323	2868
827.462	3001
827.601	2883
827.741	2922
827.88	2914
828.02	2876
828.159	2967
828.298	3020
828.437	3089
828.577	3013
828.716	3249
828.855	3058
828.994	2933
829.134	2891
829.273	2895
829.412	2891
829.551	2861
829.69	2876
829.829	2960
829.968	3097
830.107	3005
830.246	2998
830.385	2922
830.524	2899
830.663	2800
830.802	2712
830.941	2663
831.08	2640
831.219	2777
831.357	2785
831.496	2914
831.635	2697
831.774	2632
831.913	2655
832.051	2552
832.19	2568
832.329	2682
832.467	2541
832.606	2473
832.744	2549
832.883	2583
833.022	2575
833.16	2674
833.299	2686
833.437	2697
833.576	2708
833.714	2705
833.852	2693
833.991	2727
834.129	2823
834.267	2811
834.406	2762
834.544	2864
834.682	2830
834.821	2868
834.959	3043
835.097	2880
835.235	3036
835.373	3013
835.511	3051
835.65	2937
835.788	2937
835.926	2830
836.064	2785
836.202	2853
836.34	3043
836.478	3104
836.615	3036
836.753	3104
836.891	3192
837.029	3142
837.167	3081
837.305	3032
837.443	3077
837.58	2960
837.718	3081
837.856	3062
837.993	3024
838.131	3112
838.269	3074
838.406	3055
838.544	3055
838.681	2956
838.819	2880
838.956	2807
839.094	2819
839.231	2891
839.369	2982
839.506	3416
839.643	3195
839.781	2967
839.918	2929
840.055	3024
840.193	3024
840.33	3017
840.467	3093
840.604	3138
840.742	3382
840.879	3028
841.016	3058
841.153	3108
841.29	3291
841.427	3287
841.564	3294
841.701	3321
841.838	3207
841.975	3180
842.112	3192
842.249	3085
842.385	3013
842.522	3249
842.659	3097
842.796	3047
842.933	3146
843.069	3051
843.206	3047
843.343	3214
843.479	3097
843.616	3138
843.752	2918
843.889	2845
844.025	3074
844.162	2906
844.298	3100
844.435	2937
844.571	2910
844.708	3074
844.844	3142
844.98	3230
845.117	3192
845.253	3036
845.389	2971
845.525	3097
845.661	3089
845.798	3013
845.934	3100
846.07	3005
846.206	3207
846.342	3298
846.478	3218
846.614	3081
846.75	3017
846.886	3028
847.022	3253
847.158	3093
847.294	3222
847.429	3222
847.565	3180
847.701	3462
847.837	3024
847.972	3001
848.108	3161
848.244	3131
848.379	2979
848.515	2944
848.65	2933
848.786	2948
848.921	2982
849.057	3100
849.192	3146
849.328	3036
849.463	3070
849.598	3062
849.734	3055
849.869	2956
850.004	2906
850.14	2937
850.275	2918
850.41	2819
850.545	2876
850.68	2906
850.815	2941
850.95	3017
851.085	3180
851.22	3104
851.355	3005
851.49	2967
851.625	2979
851.76	3024
851.895	2967
852.03	2899
852.165	3032
852.299	3112
852.434	3176
852.569	3146
852.703	3157
852.838	3268
852.973	3294
853.107	3302
853.242	3112
853.376	3047
853.511	2956
853.645	3024
853.78	3237
853.914	3104
854.048	3116
854.183	3123
854.317	3157
854.451	3260
854.585	3093
854.72	3032
854.854	3211
854.988	3039
855.122	3089
855.256	2963
855.39	3070
855.524	3253
855.658	3131
855.792	3157
855.926	3135
856.06	3222
856.194	3226
856.327	3176
856.461	3051
856.595	3081
856.729	3047
856.862	3256
856.996	3161
857.13	3211
857.263	3222
857.397	3260
857.53	3081
857.664	3184
857.797	3218
857.931	3211
858.064	3146
858.197	3214
858.331	3081
858.464	3089
858.597	3017
858.731	3089
858.864	3119
858.997	3100
859.13	3150
859.263	3150
859.396	3192
859.529	3093
859.662	3070
859.795	3066
859.928	3150
860.061	3245
860.194	3275
860.327	3150
860.46	3066
860.592	3264
860.725	3222
860.858	3195
860.99	3077
861.123	3058
861.256	3032
861.388	3112
861.521	3808
861.653	2967
861.786	2979
861.918	2975
862.05	3062
862.183	3051
862.315	3169
862.447	3169
862.58	3123
862.712	2895
862.844	2857
862.976	2986
863.108	2982
863.24	3439
863.372	2895
863.504	2944
863.636	2944
863.768	3001
863.9	2975
864.032	2918
864.164	2922
864.296	3013
864.428	3074
864.559	3089
864.691	3047
864.823	3058
864.954	2971
865.086	2994
865.217	2948
865.349	2929
865.48	2963
865.612	3017
865.743	3112
865.875	2990
866.006	2937
866.137	2971
866.269	2963
866.4	2941
866.531	2906
866.662	2891
866.793	2872
866.924	2914
867.055	2948
867.186	2891
867.317	2845
867.448	2823
867.579	2838
867.71	2868
867.841	2838
867.972	2872
868.103	2891
868.233	2895
868.364	2849
868.495	2842
868.625	3043
868.756	3173
868.886	2941
869.017	3005
869.147	3119
869.278	3146
869.408	3024
869.539	2967
869.669	3093
869.799	3020
869.929	3116
870.06	3131
870.19	3287
870.32	3249
870.45	3294
870.58	3378
870.71	3424
870.84	3443
870.97	3272
871.1	3214
871.23	3473
871.36	3450
871.489	3355
871.619	3359
871.749	3386
871.879	3412
872.008	3466
872.138	3336
872.267	3283
872.397	3169
872.526	3055
872.656	2994
872.785	3081
872.915	3214
873.044	3283
873.173	3211
873.303	3260
873.432	3230
873.561	3207
873.69	3112
873.819	3119
873.948	3211
874.077	3097
874.206	2994
874.335	3062
874.464	3203
874.593	3321
874.722	3211
874.851	3359
874.979	3370
875.108	3302
875.237	3142
875.365	3142
875.494	3180
875.623	3176
875.751	3070
875.88	3089
876.008	3199
876.136	3203
876.265	3321
876.393	3492
876.521	3412
876.65	3401
876.778	3313
876.906	3260
877.034	3180
877.162	3192
877.29	3138
877.418	3222
877.546	3207
877.674	3199
877.802	3245
877.93	3199
878.058	3116
878.185	3066
878.313	3165
878.441	3192
878.568	3066
878.696	3154
878.824	3253
878.951	3256
879.079	3458
879.206	3564
879.333	3416
879.461	3321
879.588	3359
879.715	3454
879.842	3564
879.97	3382
880.097	3169
880.224	3119
880.351	3157
880.478	3176
880.605	3199
880.732	3161
880.859	3466
880.986	3294
881.112	3283
881.239	3173
881.366	3074
881.493	3036
881.619	2998
881.746	3047
881.872	3131
881.999	3108
882.125	3119
882.252	3214
882.378	3291
882.505	3389
882.631	3272
882.757	3161
882.883	3211
883.01	3218
883.136	3192
883.262	3104
883.388	3131
883.514	3283
883.64	3405
883.766	3344
883.892	3173
884.018	3214
884.143	3416
884.269	3553
884.395	3230
884.52	3188
884.646	3222
884.772	3169
884.897	3146
885.023	3222
885.148	3332
885.274	3424
885.399	3367
885.524	3325
885.65	3283
885.775	3313
885.9	3283
886.025	3481
886.15	3416
886.275	3336
886.4	3287
886.525	3321
886.65	3294
886.775	3294
886.9	3580
887.025	3656
887.149	3389
887.274	3283
887.399	3222
887.523	3237
887.648	3211
887.773	3230
887.897	3370
888.021	3439
888.146	3340
888.27	3507
888.395	3557
888.519	3466
888.643	3511
888.767	3488
888.891	3321
889.015	3302
889.139	3340
889.263	3268
889.387	3443
889.511	3481
889.635	3515
889.759	3344
889.883	3348
890.006	3424
890.13	3496
890.254	3291
890.377	3359
890.501	3237
890.624	3222
890.748	3321
890.871	3199
890.995	3123
891.118	3066
891.241	3226
891.364	3245
891.488	3378
891.611	3222
891.734	3283
891.857	3340
891.98	3253
892.103	3344
892.226	3321
892.349	3249
892.471	3169
892.594	3268
892.717	3283
892.839	3287
892.962	3317
893.085	3386
893.207	3310
893.33	3180
893.452	3214
893.575	3378
893.697	3279
893.819	3507
893.941	3545
894.064	3504
894.186	3321
894.308	3291
894.43	3488
894.552	3584
894.674	3496
894.796	3294
894.918	3351
895.04	3306
895.161	3458
895.283	3431
895.405	3329
895.526	3397
895.648	3500
895.769	3469
895.891	3500
896.012	3507
896.134	3477
896.255	3462
896.376	3409
896.498	3389
896.619	3473
896.74	3393
896.861	3443
896.982	3755
897.103	3896
897.224	3606
897.345	3526
897.466	3488
897.587	3519
897.708	3629
897.828	3564
897.949	3477
898.07	3386
898.19	3443
898.311	3614
898.431	3462
898.552	3538
898.672	3667
898.792	3625
898.913	3557
899.033	3431
899.153	3313
899.273	3264
899.393	3294
899.513	3298
899.633	3367
899.753	3355
899.873	3336
899.993	3428
900.113	3386
900.232	3439
900.352	3359
900.472	3340
900.591	3233
900.711	3310
900.83	3287
900.95	3431
901.069	3519
901.189	3382
901.308	3218
901.427	3157
901.546	3199
901.665	3344
901.784	3351
901.904	3222
902.023	3173
902.141	3032
902.26	3047
902.379	3165
902.498	3104
902.617	3093
902.735	3211
902.854	3275
902.973	3214
903.091	3070
903.21	3077
903.328	3146
903.446	3192
903.565	3119
903.683	3218
903.801	3154
903.919	3291
904.038	3332
904.156	3218
904.274	3367
904.392	3268
904.51	3313
904.627	3367
904.745	3469
904.863	3542
904.981	3313
905.098	3207
905.216	3275
905.334	3321
905.451	3313
905.569	3321
905.686	3466
905.803	3477
905.921	3351
906.038	3458
906.155	3348
906.272	3332
906.389	3378
906.506	3256
906.623	3294
906.74	3325
906.857	3230
906.974	3313
907.091	3454
907.208	3564
907.324	3504
907.441	3431
907.557	3275
907.674	3283
907.79	3253
907.907	3321
908.023	3382
908.139	3424
908.256	3344
908.372	3409
908.488	3405
908.604	3275
908.72	3264
908.836	3283
908.952	3348
909.068	3401
909.184	3507
909.3	3443
909.415	3530
909.531	3466
909.647	3291
909.762	3298
909.878	3336
909.993	3370
910.108	3378
910.224	3382
910.339	3409
910.454	3367
910.57	3279
910.685	3317
910.8	3599
910.915	3599
911.03	3481
911.145	3306
911.259	3291
911.374	3317
911.489	3260
911.604	3264
911.718	3165
911.833	3142
911.947	3070
912.062	3028
912.176	3165
912.291	3256
912.405	3241
912.519	3412
912.633	3507
912.748	3359
912.862	3310
912.976	3195
913.09	3104
913.204	3203
913.318	3233
913.431	3329
913.545	3382
913.659	3401
913.772	3355
913.886	3233
914	3192
914.113	3420
914.226	3431
914.34	3412
914.453	3230
914.566	3397
914.68	3310
914.793	3359
914.906	3169
915.019	3157
915.132	3138
915.245	3207
915.358	3226
915.47	3260
915.583	3279
915.696	3329
915.809	3458
915.921	3492
916.034	3287
916.146	3249
916.259	3256
916.371	3378
916.483	3370
916.595	3272
916.708	3351
916.82	3397
916.932	3351
917.044	3336
917.156	3351
917.268	3283
917.38	3313
917.491	3332
917.603	3374
917.715	3462
917.826	3481
917.938	3378
918.049	3283
918.161	3466
918.272	3622
918.384	3564
918.495	3523
918.606	3412
918.717	3268
918.828	3382
918.939	3424
919.05	3363
919.161	3389
919.272	3157
919.383	3279
919.494	3542
919.604	3705
919.715	3496
919.826	3401
919.936	3488
920.047	3584
920.157	3572
920.267	3778
920.378	3652
920.488	3538
920.598	3804
920.708	4006
920.818	3857
920.928	3865
921.038	4090
921.148	4036
921.258	3732
921.368	3644
921.477	3682
921.587	3591
921.697	3504
921.806	3663
921.916	3549
922.025	3344
922.134	3401
922.244	3359
922.353	3469
922.462	3321
922.571	3211
922.68	3146
922.789	3116
922.898	3169
923.007	3135
923.116	3222
923.224	3222
923.333	3226
923.442	3123
923.55	3127
923.659	3157
923.767	3233
923.876	3123
923.984	3253
924.092	3123
924.201	3207
924.309	3253
924.417	3253
924.525	3188
924.633	3272
924.741	4242
924.849	3066
924.956	3275
925.064	3093
925.172	3047
925.279	3119
925.387	3207
925.494	3199
925.602	3336
925.709	3363
925.816	3192
925.924	3313
926.031	3420
926.138	3351
926.245	3393
926.352	3291
926.459	3443
926.566	3492
926.673	3359
926.779	3275
926.886	3272
926.993	3157
927.099	3123
927.206	3138
927.312	3112
927.419	3237
927.525	3249
927.631	3302
927.737	3150
927.843	3157
927.95	3062
928.056	3157
928.162	3214
928.267	3245
928.373	3884
928.479	3317
928.585	3093
928.69	3233
928.796	3287
928.901	3165
929.007	3077
929.112	3233
929.218	3154
929.323	3157
929.428	3154
929.533	3317
929.638	3112
929.743	3157
929.848	3306
929.953	3211
930.058	3184
930.163	3039
930.267	3062
930.372	3211
930.477	3039
930.581	3325
930.685	3195
930.79	3116
930.894	3093
930.998	3085
931.103	3317
931.207	2948
931.311	2933
931.415	2922
931.519	2800
931.623	2830
