Data from test_V78500241_1460.txt Node
Date: Fri Mar 25 16:25:19 CST 2022
User: usil
Spectrometer: V785-0024
Trigger mode: 0
Integration Time (sec): 4.000000E-1
Scans to average: 1
Nonlinearity correction enabled: false
Boxcar width: 0
Storing dark spectrum: false
XAxis mode: Wavelengths
Number of Pixels in Spectrum: 1024
>>>>>Begin Spectral Data<<<<<
801.071	2925
801.214	2990
801.356	2906
801.499	2925
801.641	2937
801.783	2944
801.926	3093
802.068	3024
802.211	3032
802.353	3047
802.496	2979
802.638	3047
802.78	3009
802.923	3112
803.065	3032
803.208	2963
803.35	2952
803.492	2906
803.635	2910
803.777	2792
803.919	2861
804.061	3233
804.204	2971
804.346	2952
804.488	2853
804.63	2967
804.773	2864
804.915	2937
805.057	3100
805.199	2975
805.341	2998
805.483	3032
805.626	3017
805.768	2982
805.91	3085
806.052	3157
806.194	3055
806.336	3241
806.478	3020
806.62	2979
806.762	3013
806.904	3066
807.046	3211
807.188	3017
807.33	2937
807.472	3028
807.614	2929
807.756	3005
807.898	2952
808.04	2902
808.182	3009
808.324	2975
808.465	2864
808.607	2925
808.749	2811
808.891	2853
809.033	2982
809.174	2967
809.316	2941
809.458	2857
809.6	2800
809.741	2788
809.883	2800
810.025	2868
810.166	2887
810.308	2857
810.45	2872
810.591	2792
810.733	2781
810.875	2834
811.016	2781
811.158	2758
811.299	2838
811.441	2956
811.582	2891
811.724	2800
811.865	2849
812.007	2929
812.148	2918
812.29	2861
812.431	2918
812.573	2960
812.714	2982
812.855	3058
812.997	3066
813.138	3112
813.279	3032
813.421	2998
813.562	2963
813.703	2876
813.845	2929
813.986	2804
814.127	2750
814.268	2849
814.41	2826
814.551	2807
814.692	2922
814.833	2807
814.974	2914
815.115	2982
815.256	2838
815.397	2823
815.539	2880
815.68	2826
815.821	2815
815.962	2933
816.103	2944
816.244	2883
816.385	2895
816.526	2971
816.666	2944
816.807	2769
816.948	2918
817.089	2899
817.23	2872
817.371	2826
817.512	2792
817.653	2891
817.793	2864
817.934	2887
818.075	3001
818.216	3032
818.356	3036
818.497	2895
818.638	2804
818.778	2853
818.919	2815
819.06	2724
819.2	2872
819.341	2838
819.481	2773
819.622	2941
819.762	3119
819.903	3039
820.043	2941
820.184	2941
820.324	2899
820.465	3013
820.605	3009
820.746	3047
820.886	2960
821.026	3112
821.167	3165
821.307	3264
821.447	3298
821.588	3256
821.728	3214
821.868	3230
822.008	3093
822.149	3226
822.289	3287
822.429	3104
822.569	3123
822.709	3203
822.849	3051
822.99	3058
823.13	3161
823.27	3218
823.41	3157
823.55	3214
823.69	3157
823.83	3173
823.97	3093
824.11	3005
824.25	2982
824.389	3085
824.529	3138
824.669	3097
824.809	3233
824.949	3275
825.089	3275
825.228	3184
825.368	3020
825.508	2960
825.648	2998
825.787	3036
825.927	3062
826.067	3020
826.206	3001
826.346	3062
826.485	3085
826.625	3165
826.765	3294
826.904	3275
827.044	2979
827.183	2941
827.323	2853
827.462	3001
827.601	2937
827.741	2960
827.88	2895
828.02	2857
828.159	3005
828.298	3039
828.437	3093
828.577	3062
828.716	3264
828.855	3093
828.994	2963
829.134	2895
829.273	2925
829.412	2910
829.551	2887
829.69	2933
829.829	2975
829.968	3131
830.107	3058
830.246	3055
830.385	2922
830.524	2929
830.663	2819
830.802	2727
830.941	2667
831.08	2663
831.219	2788
831.357	2743
831.496	2975
831.635	2727
831.774	2667
831.913	2686
832.051	2556
832.19	2598
832.329	2693
832.467	2560
832.606	2499
832.744	2583
832.883	2640
833.022	2598
833.16	2693
833.299	2708
833.437	2720
833.576	2743
833.714	2731
833.852	2727
833.991	2754
834.129	2857
834.267	2861
834.406	2800
834.544	2868
834.682	2902
834.821	2887
834.959	3077
835.097	2922
835.235	3097
835.373	3055
835.511	2998
835.65	2982
835.788	2956
835.926	2849
836.064	2838
836.202	2880
836.34	3081
836.478	3211
836.615	3028
836.753	3142
836.891	3214
837.029	3188
837.167	3154
837.305	3077
837.443	3058
837.58	2967
837.718	3157
837.856	3112
837.993	3055
838.131	3157
838.269	3123
838.406	3135
838.544	3066
838.681	2975
838.819	2933
838.956	2815
839.094	2864
839.231	2925
839.369	3047
839.506	3409
839.643	3253
839.781	2990
839.918	2971
840.055	3062
840.193	3066
840.33	3100
840.467	3116
840.604	3192
840.742	3431
840.879	3070
841.016	3024
841.153	3135
841.29	3325
841.427	3287
841.564	3279
841.701	3317
841.838	3253
841.975	3173
842.112	3222
842.249	3093
842.385	3036
842.522	3279
842.659	3089
842.796	3066
842.933	3108
843.069	3043
843.206	3055
843.343	3176
843.479	3104
843.616	3119
843.752	2887
843.889	2899
844.025	3100
844.162	2902
844.298	3077
844.435	2982
844.571	2887
844.708	3074
844.844	3176
844.98	3237
845.117	3207
845.253	3058
845.389	3039
845.525	3112
845.661	3127
845.798	3051
845.934	3157
846.07	3062
846.206	3226
846.342	3367
846.478	3233
846.614	3070
846.75	3039
846.886	3051
847.022	3253
847.158	3112
847.294	3218
847.429	3253
847.565	3222
847.701	3485
847.837	3036
847.972	3013
848.108	3199
848.244	3135
848.379	2998
848.515	2952
848.65	2918
848.786	2975
848.921	3032
849.057	3116
849.192	3150
849.328	3066
849.463	3116
849.598	3093
849.734	3070
849.869	2982
850.004	2941
850.14	2979
850.275	2956
850.41	2887
850.545	2872
850.68	2982
850.815	2982
850.95	3009
851.085	3211
851.22	3116
851.355	3077
851.49	3001
851.625	3017
851.76	3051
851.895	2963
852.03	2952
852.165	3047
852.299	3157
852.434	3165
852.569	3180
852.703	3146
852.838	3245
852.973	3348
853.107	3340
853.242	3173
853.376	3108
853.511	2971
853.645	3066
853.78	3222
853.914	3104
854.048	3108
854.183	3085
854.317	3192
854.451	3332
854.585	3119
854.72	3081
854.854	3207
854.988	3047
855.122	3093
855.256	2967
855.39	3123
855.524	3226
855.658	3230
855.792	3192
855.926	3245
856.06	3249
856.194	3279
856.327	3142
856.461	3070
856.595	3081
856.729	3070
856.862	3230
856.996	3173
857.13	3249
857.263	3245
857.397	3291
857.53	3108
857.664	3222
857.797	3256
857.931	3241
858.064	3180
858.197	3249
858.331	3127
858.464	3047
858.597	2998
858.731	3108
858.864	3169
858.997	3089
859.13	3142
859.263	3195
859.396	3199
859.529	3100
859.662	3077
859.795	3066
859.928	3131
860.061	3222
860.194	3294
860.327	3154
860.46	3085
860.592	3260
860.725	3245
860.858	3245
860.99	3157
861.123	3062
861.256	3043
861.388	3131
861.521	3846
861.653	3051
861.786	3032
861.918	2990
862.05	3085
862.183	3116
862.315	3157
862.447	3218
862.58	3062
862.712	2960
862.844	2891
862.976	3017
863.108	3005
863.24	3332
863.372	2861
863.504	2948
863.636	2982
863.768	3013
863.9	3013
864.032	2902
864.164	2971
864.296	3032
864.428	3051
864.559	3085
864.691	3070
864.823	3051
864.954	3036
865.086	3039
865.217	3017
865.349	2960
865.48	2948
865.612	3028
865.743	3180
865.875	2998
866.006	2937
866.137	2971
866.269	2941
866.4	2941
866.531	2925
866.662	2880
866.793	2883
866.924	2880
867.055	3020
867.186	2914
867.317	2845
867.448	2895
867.579	2842
867.71	2849
867.841	2857
867.972	2922
868.103	2922
868.233	2891
868.364	2891
868.495	2914
868.625	3116
868.756	3176
868.886	2922
869.017	3036
869.147	3154
869.278	3123
869.408	3043
869.539	3043
869.669	3100
869.799	3028
869.929	3154
870.06	3127
870.19	3336
870.32	3275
870.45	3325
870.58	3428
870.71	3435
870.84	3450
870.97	3329
871.1	3249
871.23	3481
871.36	3439
871.489	3378
871.619	3359
871.749	3412
871.879	3412
872.008	3485
872.138	3374
872.267	3298
872.397	3165
872.526	3108
872.656	3001
872.785	3089
872.915	3218
873.044	3291
873.173	3249
873.303	3256
873.432	3306
873.561	3260
873.69	3173
873.819	3150
873.948	3192
874.077	3112
874.206	3032
874.335	3070
874.464	3237
874.593	3340
874.722	3260
874.851	3401
874.979	3397
875.108	3363
875.237	3188
875.365	3135
875.494	3142
875.623	3253
875.751	3089
875.88	3093
876.008	3207
876.136	3230
876.265	3382
876.393	3538
876.521	3378
876.65	3401
876.778	3344
876.906	3264
877.034	3184
877.162	3260
877.29	3180
877.418	3260
877.546	3249
877.674	3237
877.802	3256
877.93	3249
878.058	3150
878.185	3074
878.313	3211
878.441	3218
878.568	3062
878.696	3123
878.824	3241
878.951	3279
879.079	3450
879.206	3614
879.333	3428
879.461	3336
879.588	3351
879.715	3443
879.842	3542
879.97	3367
880.097	3199
880.224	3135
880.351	3188
880.478	3249
880.605	3199
880.732	3173
880.859	3462
880.986	3310
881.112	3363
881.239	3188
881.366	3051
881.493	3055
881.619	3036
881.746	3058
881.872	3097
881.999	3077
882.125	3184
882.252	3245
882.378	3291
882.505	3450
882.631	3291
882.757	3180
882.883	3249
883.01	3203
883.136	3123
883.262	3116
883.388	3112
883.514	3325
883.64	3348
883.766	3317
883.892	3230
884.018	3272
884.143	3405
884.269	3545
884.395	3195
884.52	3180
884.646	3211
884.772	3100
884.897	3127
885.023	3203
885.148	3306
885.274	3344
885.399	3367
885.524	3298
885.65	3249
885.775	3313
885.9	3294
886.025	3416
886.15	3397
886.275	3302
886.4	3230
886.525	3310
886.65	3245
886.775	3256
886.9	3488
887.025	3595
887.149	3409
887.274	3279
887.399	3184
887.523	3207
887.648	3180
887.773	3195
887.897	3355
888.021	3393
888.146	3279
888.27	3412
888.395	3523
888.519	3409
888.643	3420
888.767	3473
888.891	3313
889.015	3230
889.139	3275
889.263	3214
889.387	3416
889.511	3500
889.635	3412
889.759	3275
889.883	3245
890.006	3382
890.13	3496
890.254	3233
890.377	3348
890.501	3180
890.624	3169
890.748	3302
890.871	3157
890.995	3116
891.118	3081
891.241	3188
891.364	3211
891.488	3268
891.611	3222
891.734	3245
891.857	3275
891.98	3249
892.103	3348
892.226	3268
892.349	3211
892.471	3104
892.594	3226
892.717	3272
892.839	3230
892.962	3302
893.085	3351
893.207	3329
893.33	3154
893.452	3207
893.575	3355
893.697	3264
893.819	3469
893.941	3511
894.064	3447
894.186	3241
894.308	3291
894.43	3428
894.552	3511
894.674	3443
894.796	3313
894.918	3313
895.04	3260
895.161	3382
895.283	3389
895.405	3317
895.526	3340
895.648	3412
895.769	3435
895.891	3458
896.012	3450
896.134	3485
896.255	3386
896.376	3351
896.498	3325
896.619	3412
896.74	3393
896.861	3367
896.982	3682
897.103	3857
897.224	3618
897.345	3504
897.466	3435
897.587	3519
897.708	3622
897.828	3526
897.949	3439
898.07	3306
898.19	3401
898.311	3614
898.431	3450
898.552	3542
898.672	3641
898.792	3553
898.913	3507
899.033	3420
899.153	3272
899.273	3249
899.393	3272
899.513	3272
899.633	3287
899.753	3336
899.873	3317
899.993	3424
900.113	3329
900.232	3359
900.352	3306
900.472	3294
900.591	3211
900.711	3226
900.83	3230
900.95	3401
901.069	3488
901.189	3340
901.308	3184
901.427	3169
901.546	3169
901.665	3310
901.784	3317
901.904	3161
902.023	3157
902.141	3001
902.26	3020
902.379	3097
902.498	3097
902.617	3074
902.735	3195
902.854	3199
902.973	3195
903.091	3043
903.21	3058
903.328	3157
903.446	3112
903.565	3138
903.683	3218
903.801	3112
903.919	3218
904.038	3321
904.156	3150
904.274	3291
904.392	3268
904.51	3294
904.627	3329
904.745	3431
904.863	3473
904.981	3226
905.098	3142
905.216	3230
905.334	3283
905.451	3332
905.569	3264
905.686	3428
905.803	3458
905.921	3283
906.038	3401
906.155	3359
906.272	3260
906.389	3344
906.506	3218
906.623	3233
906.74	3260
906.857	3203
906.974	3294
907.091	3420
907.208	3580
907.324	3462
907.441	3401
907.557	3188
907.674	3226
907.79	3199
907.907	3298
908.023	3355
908.139	3370
908.256	3336
908.372	3386
908.488	3313
908.604	3211
908.72	3214
908.836	3302
908.952	3302
909.068	3321
909.184	3462
909.3	3355
909.415	3477
909.531	3462
909.647	3272
909.762	3283
909.878	3249
909.993	3344
910.108	3313
910.224	3340
910.339	3382
910.454	3344
910.57	3310
910.685	3275
910.8	3580
910.915	3534
911.03	3458
911.145	3260
911.259	3287
911.374	3272
911.489	3249
911.604	3203
911.718	3093
911.833	3142
911.947	3028
912.062	2998
912.176	3146
912.291	3195
912.405	3203
912.519	3405
912.633	3466
912.748	3287
912.862	3291
912.976	3195
913.09	3085
913.204	3138
913.318	3180
913.431	3298
913.545	3294
913.659	3386
913.772	3317
913.886	3253
914	3207
914.113	3351
914.226	3401
914.34	3405
914.453	3169
914.566	3378
914.68	3298
914.793	3294
914.906	3165
915.019	3112
915.132	3081
915.245	3165
915.358	3192
915.47	3237
915.583	3249
915.696	3302
915.809	3420
915.921	3447
916.034	3241
916.146	3241
916.259	3180
916.371	3340
916.483	3359
916.595	3264
916.708	3332
916.82	3336
916.932	3306
917.044	3325
917.156	3321
917.268	3253
917.38	3313
917.491	3279
917.603	3374
917.715	3439
917.826	3469
917.938	3348
918.049	3302
918.161	3420
918.272	3564
918.384	3557
918.495	3496
918.606	3332
918.717	3249
918.828	3351
918.939	3428
919.05	3268
919.161	3351
919.272	3199
919.383	3298
919.494	3469
919.604	3660
919.715	3526
919.826	3458
919.936	3382
920.047	3553
920.157	3564
920.267	3736
920.378	3599
920.488	3568
920.598	3724
920.708	3960
920.818	3812
920.928	3816
921.038	4032
921.148	3968
921.258	3682
921.368	3618
921.477	3572
921.587	3545
921.697	3435
921.806	3595
921.916	3549
922.025	3351
922.134	3329
922.244	3310
922.353	3412
922.462	3256
922.571	3195
922.68	3089
922.789	3058
922.898	3135
923.007	3074
923.116	3192
923.224	3150
923.333	3180
923.442	3131
923.55	3077
923.659	3135
923.767	3230
923.876	3108
923.984	3230
924.092	3081
924.201	3180
924.309	3233
924.417	3253
924.525	3211
924.633	3260
924.741	4169
924.849	3032
924.956	3302
925.064	3081
925.172	3009
925.279	3100
925.387	3195
925.494	3195
925.602	3340
925.709	3329
925.816	3157
925.924	3260
926.031	3363
926.138	3321
926.245	3340
926.352	3218
926.459	3420
926.566	3466
926.673	3302
926.779	3287
926.886	3241
926.993	3169
927.099	3104
927.206	3104
927.312	3089
927.419	3226
927.525	3184
927.631	3279
927.737	3142
927.843	3123
927.95	2994
928.056	3123
928.162	3176
928.267	3214
928.373	3743
928.479	3294
928.585	3055
928.69	3218
928.796	3249
928.901	3173
929.007	3039
929.112	3214
929.218	3176
929.323	3161
929.428	3112
929.533	3275
929.638	3104
929.743	3150
929.848	3241
929.953	3214
930.058	3146
930.163	2975
930.267	2994
930.372	3176
930.477	2994
930.581	3253
930.685	3165
930.79	3062
930.894	3100
930.998	3093
931.103	3287
931.207	2963
931.311	2952
931.415	2925
931.519	2750
931.623	2811
