Data from test_V78500241_104.txt Node
Date: Fri Mar 25 16:15:55 CST 2022
User: usil
Spectrometer: V785-0024
Trigger mode: 0
Integration Time (sec): 4.000000E-1
Scans to average: 1
Nonlinearity correction enabled: false
Boxcar width: 0
Storing dark spectrum: false
XAxis mode: Wavelengths
Number of Pixels in Spectrum: 1024
>>>>>Begin Spectral Data<<<<<
801.071	2922
801.214	2937
801.356	2872
801.499	2918
801.641	2899
801.783	2952
801.926	3077
802.068	2990
802.211	3013
802.353	3055
802.496	2963
802.638	3013
802.78	3032
802.923	3093
803.065	3024
803.208	2906
803.35	2967
803.492	2948
803.635	2971
803.777	2758
803.919	2880
804.061	3226
804.204	2948
804.346	2906
804.488	2883
804.63	3020
804.773	2868
804.915	2918
805.057	3077
805.199	2952
805.341	3009
805.483	3032
805.626	3051
805.768	2994
805.91	3131
806.052	3123
806.194	3066
806.336	3264
806.478	3047
806.62	2960
806.762	2967
806.904	3055
807.046	3203
807.188	2998
807.33	2948
807.472	2979
807.614	2925
807.756	3028
807.898	2937
808.04	2876
808.182	3036
808.324	2967
808.465	2899
808.607	2857
808.749	2804
808.891	2826
809.033	3001
809.174	2990
809.316	2902
809.458	2910
809.6	2800
809.741	2800
809.883	2788
810.025	2895
810.166	2864
810.308	2876
810.45	2883
810.591	2815
810.733	2811
810.875	2830
811.016	2796
811.158	2766
811.299	2830
811.441	2948
811.582	2937
811.724	2838
811.865	2819
812.007	2963
812.148	2910
812.29	2899
812.431	2914
812.573	2933
812.714	2971
812.855	3032
812.997	3089
813.138	3131
813.279	3017
813.421	3005
813.562	2971
813.703	2902
813.845	2902
813.986	2781
814.127	2758
814.268	2834
814.41	2880
814.551	2842
814.692	2861
814.833	2838
814.974	2895
815.115	2963
815.256	2845
815.397	2853
815.539	2883
815.68	2796
815.821	2815
815.962	2925
816.103	2971
816.244	2902
816.385	2876
816.526	2982
816.666	2948
816.807	2773
816.948	2906
817.089	2941
817.23	2887
817.371	2804
817.512	2838
817.653	2864
817.793	2834
817.934	2876
818.075	2994
818.216	3017
818.356	3013
818.497	2880
818.638	2807
818.778	2826
818.919	2807
819.06	2781
819.2	2906
819.341	2864
819.481	2834
819.622	2937
819.762	3135
819.903	3058
820.043	2971
820.184	2933
820.324	2941
820.465	3036
820.605	3036
820.746	3093
820.886	2922
821.026	3119
821.167	3203
821.307	3313
821.447	3302
821.588	3294
821.728	3260
821.868	3195
822.008	3100
822.149	3214
822.289	3245
822.429	3142
822.569	3131
822.709	3211
822.849	3039
822.99	3089
823.13	3180
823.27	3253
823.41	3176
823.55	3150
823.69	3188
823.83	3192
823.97	3112
824.11	3036
824.25	3001
824.389	3100
824.529	3142
824.669	3085
824.809	3211
824.949	3317
825.089	3237
825.228	3188
825.368	3024
825.508	2963
825.648	3001
825.787	3058
825.927	3055
826.067	3005
826.206	2982
826.346	3112
826.485	3112
826.625	3138
826.765	3279
826.904	3260
827.044	3009
827.183	2906
827.323	2880
827.462	3043
827.601	2960
827.741	2956
827.88	2941
828.02	2887
828.159	3009
828.298	3077
828.437	3195
828.577	3005
828.716	3241
828.855	3093
828.994	2960
829.134	2895
829.273	2929
829.412	2883
829.551	2891
829.69	2933
829.829	2982
829.968	3119
830.107	3013
830.246	3055
830.385	2914
830.524	2906
830.663	2861
830.802	2754
830.941	2682
831.08	2651
831.219	2773
831.357	2724
831.496	2944
831.635	2720
831.774	2701
831.913	2663
832.051	2552
832.19	2594
832.329	2697
832.467	2530
832.606	2488
832.744	2594
832.883	2587
833.022	2564
833.16	2712
833.299	2678
833.437	2720
833.576	2735
833.714	2739
833.852	2746
833.991	2766
834.129	2876
834.267	2853
834.406	2804
834.544	2895
834.682	2883
834.821	2842
834.959	3077
835.097	2895
835.235	3058
835.373	2994
835.511	3051
835.65	2990
835.788	2975
835.926	2853
836.064	2842
836.202	2880
836.34	3123
836.478	3173
836.615	3089
836.753	3195
836.891	3207
837.029	3173
837.167	3150
837.305	3127
837.443	3066
837.58	3005
837.718	3184
837.856	3077
837.993	3077
838.131	3142
838.269	3127
838.406	3108
838.544	3089
838.681	2979
838.819	2933
838.956	2807
839.094	2868
839.231	2948
839.369	3051
839.506	3435
839.643	3233
839.781	3051
839.918	2998
840.055	3062
840.193	3081
840.33	3112
840.467	3108
840.604	3192
840.742	3424
840.879	3058
841.016	3062
841.153	3119
841.29	3370
841.427	3332
841.564	3294
841.701	3321
841.838	3256
841.975	3226
842.112	3222
842.249	3108
842.385	3051
842.522	3272
842.659	3150
842.796	3089
842.933	3104
843.069	3055
843.206	3047
843.343	3199
843.479	3100
843.616	3157
843.752	2925
843.889	2883
844.025	3123
844.162	2952
844.298	3097
844.435	2971
844.571	2933
844.708	3077
844.844	3214
844.98	3260
845.117	3207
845.253	3085
845.389	3047
845.525	3119
845.661	3085
845.798	3028
845.934	3119
846.07	3077
846.206	3279
846.342	3359
846.478	3241
846.614	3104
846.75	3108
846.886	3081
847.022	3268
847.158	3123
847.294	3180
847.429	3275
847.565	3218
847.701	3485
847.837	3081
847.972	3013
848.108	3161
848.244	3173
848.379	3036
848.515	2956
848.65	2937
848.786	3001
848.921	3013
849.057	3108
849.192	3131
849.328	3108
849.463	3104
849.598	3074
849.734	3039
849.869	3013
850.004	2918
850.14	2975
850.275	2902
850.41	2891
850.545	2895
850.68	2925
850.815	2986
850.95	2982
851.085	3230
851.22	3119
851.355	3039
851.49	3024
851.625	3013
851.76	3013
851.895	2929
852.03	2925
852.165	3058
852.299	3154
852.434	3199
852.569	3188
852.703	3207
852.838	3294
852.973	3325
853.107	3340
853.242	3176
853.376	3100
853.511	2979
853.645	3047
853.78	3226
853.914	3135
854.048	3165
854.183	3131
854.317	3142
854.451	3310
854.585	3135
854.72	3119
854.854	3195
854.988	3074
855.122	3112
855.256	3005
855.39	3176
855.524	3298
855.658	3165
855.792	3169
855.926	3192
856.06	3192
856.194	3310
856.327	3207
856.461	3085
856.595	3104
856.729	3100
856.862	3203
856.996	3207
857.13	3211
857.263	3245
857.397	3283
857.53	3131
857.664	3184
857.797	3253
857.931	3272
858.064	3188
858.197	3253
858.331	3154
858.464	3142
858.597	2990
858.731	3146
858.864	3154
858.997	3127
859.13	3184
859.263	3192
859.396	3184
859.529	3066
859.662	3100
859.795	3070
859.928	3169
860.061	3302
860.194	3302
860.327	3104
860.46	3108
860.592	3264
860.725	3253
860.858	3283
860.99	3138
861.123	3058
861.256	3112
861.388	3184
861.521	3724
861.653	3028
861.786	2986
861.918	2994
862.05	3119
862.183	3108
862.315	3157
862.447	3226
862.58	3119
862.712	2956
862.844	2868
862.976	3047
863.108	3032
863.24	3458
863.372	2883
863.504	3013
863.636	2975
863.768	3043
863.9	3017
864.032	2956
864.164	2933
864.296	3013
864.428	3074
864.559	3104
864.691	3112
864.823	3097
864.954	3047
865.086	3017
865.217	3036
865.349	2967
865.48	2998
865.612	3043
865.743	3188
865.875	3036
866.006	2960
866.137	2990
866.269	2956
866.4	2956
866.531	2937
866.662	2887
866.793	2952
866.924	2891
867.055	3017
867.186	2944
867.317	2922
867.448	2861
867.579	2853
867.71	2880
867.841	2834
867.972	2925
868.103	2906
868.233	2914
868.364	2895
868.495	2910
868.625	3104
868.756	3192
868.886	2967
869.017	3043
869.147	3180
869.278	3192
869.408	3047
869.539	3017
869.669	3161
869.799	3047
869.929	3108
870.06	3142
870.19	3321
870.32	3306
870.45	3374
870.58	3450
870.71	3462
870.84	3454
870.97	3302
871.1	3283
871.23	3473
871.36	3439
871.489	3344
871.619	3428
871.749	3431
871.879	3481
872.008	3538
872.138	3409
872.267	3272
872.397	3157
872.526	3142
872.656	3028
872.785	3146
872.915	3268
873.044	3336
873.173	3264
873.303	3302
873.432	3275
873.561	3287
873.69	3157
873.819	3146
873.948	3260
874.077	3116
874.206	3043
874.335	3108
874.464	3222
874.593	3370
874.722	3230
874.851	3443
874.979	3416
875.108	3306
875.237	3226
875.365	3161
875.494	3203
875.623	3272
875.751	3112
875.88	3138
876.008	3203
876.136	3253
876.265	3393
876.393	3545
876.521	3450
876.65	3420
876.778	3355
876.906	3283
877.034	3188
877.162	3199
877.29	3184
877.418	3249
877.546	3264
877.674	3279
877.802	3272
877.93	3222
878.058	3199
878.185	3154
878.313	3245
878.441	3211
878.568	3112
878.696	3192
878.824	3260
878.951	3298
879.079	3473
879.206	3633
879.333	3439
879.461	3340
879.588	3363
879.715	3481
879.842	3591
879.97	3416
880.097	3207
880.224	3116
880.351	3199
880.478	3275
880.605	3275
880.732	3203
880.859	3492
880.986	3351
881.112	3374
881.239	3249
881.366	3093
881.493	3055
881.619	3047
881.746	3089
881.872	3108
881.999	3138
882.125	3195
882.252	3264
882.378	3310
882.505	3477
882.631	3306
882.757	3222
882.883	3233
883.01	3256
883.136	3192
883.262	3138
883.388	3169
883.514	3355
883.64	3424
883.766	3332
883.892	3211
884.018	3275
884.143	3439
884.269	3599
884.395	3272
884.52	3195
884.646	3188
884.772	3131
884.897	3116
885.023	3249
885.148	3351
885.274	3439
885.399	3397
885.524	3313
885.65	3287
885.775	3344
885.9	3275
886.025	3458
886.15	3420
886.275	3313
886.4	3241
886.525	3325
886.65	3268
886.775	3325
886.9	3507
887.025	3679
887.149	3424
887.274	3298
887.399	3218
887.523	3207
887.648	3195
887.773	3214
887.897	3374
888.021	3412
888.146	3310
888.27	3466
888.395	3568
888.519	3473
888.643	3458
888.767	3496
888.891	3317
889.015	3272
889.139	3313
889.263	3302
889.387	3450
889.511	3526
889.635	3454
889.759	3336
889.883	3310
890.006	3424
890.13	3507
890.254	3332
890.377	3355
890.501	3211
890.624	3214
890.748	3313
890.871	3203
890.995	3108
891.118	3089
891.241	3199
891.364	3264
891.488	3348
891.611	3203
891.734	3268
891.857	3336
891.98	3245
892.103	3386
892.226	3317
892.349	3256
892.471	3138
892.594	3294
892.717	3325
892.839	3287
892.962	3310
893.085	3389
893.207	3317
893.33	3180
893.452	3241
893.575	3367
893.697	3272
893.819	3485
893.941	3519
894.064	3481
894.186	3275
894.308	3298
894.43	3420
894.552	3584
894.674	3515
894.796	3291
894.918	3302
895.04	3310
895.161	3412
895.283	3473
895.405	3306
895.526	3386
895.648	3469
895.769	3477
895.891	3458
896.012	3496
896.134	3488
896.255	3454
896.376	3447
896.498	3378
896.619	3462
896.74	3370
896.861	3405
896.982	3766
897.103	3869
897.224	3622
897.345	3526
897.466	3458
897.587	3530
897.708	3633
897.828	3595
897.949	3454
898.07	3367
898.19	3443
898.311	3606
898.431	3435
898.552	3538
898.672	3660
898.792	3603
898.913	3549
899.033	3412
899.153	3283
899.273	3253
899.393	3306
899.513	3363
899.633	3370
899.753	3382
899.873	3363
899.993	3435
900.113	3397
900.232	3370
900.352	3340
900.472	3321
900.591	3249
900.711	3363
900.83	3260
900.95	3485
901.069	3526
901.189	3351
901.308	3203
901.427	3169
901.546	3237
901.665	3291
901.784	3393
901.904	3237
902.023	3230
902.141	3009
902.26	2994
902.379	3157
902.498	3066
902.617	3055
902.735	3203
902.854	3256
902.973	3214
903.091	3089
903.21	3089
903.328	3150
903.446	3104
903.565	3123
903.683	3211
903.801	3169
903.919	3275
904.038	3294
904.156	3173
904.274	3340
904.392	3287
904.51	3294
904.627	3374
904.745	3416
904.863	3511
904.981	3279
905.098	3199
905.216	3230
905.334	3325
905.451	3310
905.569	3332
905.686	3447
905.803	3481
905.921	3298
906.038	3473
906.155	3370
906.272	3302
906.389	3363
906.506	3294
906.623	3283
906.74	3355
906.857	3207
906.974	3287
907.091	3450
907.208	3587
907.324	3542
907.441	3397
907.557	3249
907.674	3245
907.79	3222
907.907	3294
908.023	3420
908.139	3416
908.256	3359
908.372	3370
908.488	3355
908.604	3291
908.72	3241
908.836	3268
908.952	3298
909.068	3359
909.184	3519
909.3	3447
909.415	3488
909.531	3492
909.647	3302
909.762	3294
909.878	3279
909.993	3313
910.108	3359
910.224	3386
910.339	3458
910.454	3348
910.57	3348
910.685	3317
910.8	3610
910.915	3580
911.03	3504
911.145	3264
911.259	3275
911.374	3310
911.489	3294
911.604	3264
911.718	3165
911.833	3127
911.947	3047
912.062	3013
912.176	3165
912.291	3226
912.405	3237
912.519	3454
912.633	3481
912.748	3370
912.862	3226
912.976	3195
913.09	3119
913.204	3169
913.318	3241
913.431	3439
913.545	3355
913.659	3431
913.772	3359
913.886	3272
914	3214
914.113	3367
914.226	3473
914.34	3374
914.453	3268
914.566	3443
914.68	3325
914.793	3374
914.906	3161
915.019	3138
915.132	3100
915.245	3195
915.358	3230
915.47	3260
915.583	3306
915.696	3310
915.809	3435
915.921	3485
916.034	3310
916.146	3302
916.259	3222
916.371	3401
916.483	3386
916.595	3317
916.708	3401
916.82	3374
916.932	3340
917.044	3344
917.156	3386
917.268	3283
917.38	3351
917.491	3317
917.603	3405
917.715	3519
917.826	3481
917.938	3435
918.049	3321
918.161	3458
918.272	3633
918.384	3629
918.495	3542
918.606	3310
918.717	3275
918.828	3412
918.939	3443
919.05	3363
919.161	3382
919.272	3222
919.383	3298
919.494	3515
919.604	3785
919.715	3511
919.826	3439
919.936	3496
920.047	3584
920.157	3553
920.267	3759
920.378	3671
920.488	3591
920.598	3842
920.708	4036
920.818	3861
920.928	3869
921.038	4021
921.148	4032
921.258	3705
921.368	3641
921.477	3663
921.587	3564
921.697	3496
921.806	3633
921.916	3561
922.025	3401
922.134	3348
922.244	3378
922.353	3435
922.462	3298
922.571	3294
922.68	3077
922.789	3112
922.898	3180
923.007	3142
923.116	3222
923.224	3165
923.333	3203
923.442	3135
923.55	3085
923.659	3146
923.767	3214
923.876	3154
923.984	3283
924.092	3161
924.201	3237
924.309	3237
924.417	3279
924.525	3199
924.633	3245
924.741	4230
924.849	3062
924.956	3340
925.064	3150
925.172	3085
925.279	3104
925.387	3237
925.494	3287
925.602	3401
925.709	3382
925.816	3214
925.924	3321
926.031	3405
926.138	3325
926.245	3412
926.352	3283
926.459	3405
926.566	3458
926.673	3351
926.779	3256
926.886	3275
926.993	3199
927.099	3146
927.206	3135
927.312	3165
927.419	3268
927.525	3260
927.631	3302
927.737	3150
927.843	3116
927.95	3036
928.056	3138
928.162	3222
928.267	3275
928.373	3804
928.479	3329
928.585	3123
928.69	3264
928.796	3306
928.901	3184
929.007	3085
929.112	3253
929.218	3241
929.323	3169
929.428	3195
929.533	3363
929.638	3150
929.743	3211
929.848	3302
929.953	3268
930.058	3161
930.163	3036
930.267	3116
930.372	3222
930.477	3005
930.581	3355
930.685	3192
930.79	3097
930.894	3150
930.998	3127
931.103	3329
931.207	2975
931.311	2990
931.415	2971
931.519	2762
931.623	2830
