Data from test_V78500241_138.txt Node
Date: Fri Mar 25 16:16:09 CST 2022
User: usil
Spectrometer: V785-0024
Trigger mode: 0
Integration Time (sec): 4.000000E-1
Scans to average: 1
Nonlinearity correction enabled: false
Boxcar width: 0
Storing dark spectrum: false
XAxis mode: Wavelengths
Number of Pixels in Spectrum: 1024
>>>>>Begin Spectral Data<<<<<
801.071	2925
801.214	2960
801.356	2918
801.499	2910
801.641	2899
801.783	2956
801.926	3077
802.068	3028
802.211	3020
802.353	3058
802.496	2979
802.638	3013
802.78	3058
802.923	3097
803.065	3013
803.208	2956
803.35	2929
803.492	2937
803.635	2929
803.777	2758
803.919	2864
804.061	3203
804.204	2963
804.346	2891
804.488	2887
804.63	3024
804.773	2914
804.915	2914
805.057	3089
805.199	2906
805.341	2998
805.483	3032
805.626	3028
805.768	2982
805.91	3089
806.052	3142
806.194	3070
806.336	3253
806.478	3066
806.62	2990
806.762	2990
806.904	3051
807.046	3180
807.188	2990
807.33	2895
807.472	3051
807.614	2925
807.756	2963
807.898	2925
808.04	2880
808.182	2998
808.324	2979
808.465	2922
808.607	2914
808.749	2781
808.891	2857
809.033	2952
809.174	2956
809.316	2906
809.458	2899
809.6	2781
809.741	2804
809.883	2766
810.025	2857
810.166	2853
810.308	2868
810.45	2857
810.591	2811
810.733	2781
810.875	2830
811.016	2739
811.158	2785
811.299	2815
811.441	2902
811.582	2872
811.724	2845
811.865	2864
812.007	2922
812.148	2906
812.29	2853
812.431	2902
812.573	2963
812.714	2963
812.855	3039
812.997	3077
813.138	3138
813.279	3024
813.421	2979
813.562	2960
813.703	2891
813.845	2910
813.986	2800
814.127	2754
814.268	2796
814.41	2842
814.551	2800
814.692	2872
814.833	2807
814.974	2922
815.115	2963
815.256	2826
815.397	2842
815.539	2842
815.68	2796
815.821	2819
815.962	2941
816.103	2937
816.244	2895
816.385	2891
816.526	2960
816.666	2918
816.807	2750
816.948	2864
817.089	2891
817.23	2853
817.371	2815
817.512	2819
817.653	2845
817.793	2849
817.934	2895
818.075	2979
818.216	2960
818.356	3013
818.497	2933
818.638	2769
818.778	2868
818.919	2815
819.06	2762
819.2	2891
819.341	2845
819.481	2826
819.622	2925
819.762	3169
819.903	3062
820.043	2956
820.184	2899
820.324	2883
820.465	3058
820.605	3058
820.746	3058
820.886	2956
821.026	3097
821.167	3203
821.307	3253
821.447	3325
821.588	3195
821.728	3222
821.868	3203
822.008	3081
822.149	3173
822.289	3218
822.429	3097
822.569	3138
822.709	3165
822.849	3028
822.99	3055
823.13	3195
823.27	3214
823.41	3093
823.55	3192
823.69	3173
823.83	3230
823.97	3112
824.11	3024
824.25	3013
824.389	3085
824.529	3108
824.669	3077
824.809	3214
824.949	3283
825.089	3256
825.228	3169
825.368	3017
825.508	2929
825.648	3020
825.787	2990
825.927	3036
826.067	2963
826.206	2990
826.346	3074
826.485	3097
826.625	3131
826.765	3253
826.904	3203
827.044	3017
827.183	2986
827.323	2880
827.462	2948
827.601	2902
827.741	2941
827.88	2990
828.02	2872
828.159	3013
828.298	3085
828.437	3135
828.577	3039
828.716	3291
828.855	3070
828.994	2925
829.134	2933
829.273	2914
829.412	2868
829.551	2891
829.69	2933
829.829	2986
829.968	3119
830.107	3036
830.246	3028
830.385	2899
830.524	2918
830.663	2823
830.802	2731
830.941	2648
831.08	2632
831.219	2769
831.357	2758
831.496	2944
831.635	2727
831.774	2648
831.913	2689
832.051	2549
832.19	2549
832.329	2686
832.467	2549
832.606	2488
832.744	2590
832.883	2606
833.022	2594
833.16	2659
833.299	2678
833.437	2678
833.576	2701
833.714	2731
833.852	2788
833.991	2754
834.129	2849
834.267	2830
834.406	2766
834.544	2853
834.682	2861
834.821	2887
834.959	3047
835.097	2876
835.235	3051
835.373	3020
835.511	3024
835.65	2952
835.788	2990
835.926	2823
836.064	2834
836.202	2864
836.34	3123
836.478	3157
836.615	3051
836.753	3138
836.891	3199
837.029	3176
837.167	3142
837.305	3093
837.443	3024
837.58	2929
837.718	3142
837.856	3097
837.993	3058
838.131	3131
838.269	3135
838.406	3077
838.544	3093
838.681	2952
838.819	2899
838.956	2804
839.094	2842
839.231	2929
839.369	3013
839.506	3397
839.643	3260
839.781	3039
839.918	2944
840.055	3062
840.193	3039
840.33	3081
840.467	3104
840.604	3146
840.742	3420
840.879	3024
841.016	3036
841.153	3165
841.29	3351
841.427	3378
841.564	3275
841.701	3363
841.838	3230
841.975	3203
842.112	3207
842.249	3051
842.385	3077
842.522	3253
842.659	3077
842.796	3074
842.933	3097
843.069	3039
843.206	3070
843.343	3199
843.479	3112
843.616	3142
843.752	2933
843.889	2849
844.025	3089
844.162	2910
844.298	3104
844.435	2937
844.571	2929
844.708	3077
844.844	3192
844.98	3291
845.117	3192
845.253	3066
845.389	3028
845.525	3112
845.661	3112
845.798	3009
845.934	3150
846.07	3066
846.206	3222
846.342	3332
846.478	3237
846.614	3081
846.75	3036
846.886	3028
847.022	3256
847.158	3131
847.294	3180
847.429	3260
847.565	3211
847.701	3515
847.837	3039
847.972	3013
848.108	3176
848.244	3154
848.379	3009
848.515	2929
848.65	2937
848.786	2963
848.921	3005
849.057	3131
849.192	3127
849.328	3066
849.463	3119
849.598	3093
849.734	3062
849.869	3009
850.004	2956
850.14	2998
850.275	2906
850.41	2834
850.545	2895
850.68	2918
850.815	2937
850.95	2971
851.085	3173
851.22	3100
851.355	3043
851.49	3001
851.625	2998
851.76	2998
851.895	2971
852.03	2910
852.165	3039
852.299	3161
852.434	3203
852.569	3131
852.703	3180
852.838	3268
852.973	3313
853.107	3325
853.242	3119
853.376	3093
853.511	2986
853.645	3032
853.78	3233
853.914	3093
854.048	3119
854.183	3097
854.317	3135
854.451	3329
854.585	3104
854.72	3074
854.854	3203
854.988	3089
855.122	3070
855.256	2998
855.39	3100
855.524	3233
855.658	3207
855.792	3135
855.926	3146
856.06	3241
856.194	3241
856.327	3131
856.461	3097
856.595	3119
856.729	3097
856.862	3241
856.996	3203
857.13	3188
857.263	3218
857.397	3249
857.53	3135
857.664	3237
857.797	3268
857.931	3253
858.064	3173
858.197	3241
858.331	3169
858.464	3097
858.597	3020
858.731	3146
858.864	3169
858.997	3112
859.13	3218
859.263	3211
859.396	3249
859.529	3135
859.662	3154
859.795	3047
859.928	3176
860.061	3298
860.194	3313
860.327	3173
860.46	3138
860.592	3306
860.725	3310
860.858	3298
860.99	3142
861.123	3097
861.256	3119
861.388	3169
861.521	3732
861.653	3020
861.786	3066
861.918	3077
862.05	3077
862.183	3176
862.315	3249
862.447	3283
862.58	3142
862.712	3024
862.844	2941
862.976	3097
863.108	3058
863.24	3481
863.372	2952
863.504	3043
863.636	3036
863.768	3074
863.9	3009
864.032	2952
864.164	2975
864.296	3017
864.428	3176
864.559	3169
864.691	3176
864.823	3157
864.954	3085
865.086	3119
865.217	3058
865.349	2994
865.48	3047
865.612	3123
865.743	3211
865.875	2986
866.006	2990
866.137	3077
866.269	3039
866.4	2990
866.531	2990
866.662	2929
866.793	2956
866.924	2971
867.055	3009
867.186	2975
867.317	2929
867.448	2895
867.579	2910
867.71	2891
867.841	2895
867.972	2933
868.103	2975
868.233	2944
868.364	2956
868.495	2963
868.625	3100
868.756	3245
868.886	3066
869.017	3104
869.147	3222
869.278	3176
869.408	3123
869.539	3039
869.669	3146
869.799	3093
869.929	3214
870.06	3188
870.19	3370
870.32	3332
870.45	3355
870.58	3374
870.71	3538
870.84	3549
870.97	3321
871.1	3291
871.23	3492
871.36	3523
871.489	3431
871.619	3477
871.749	3447
871.879	3492
872.008	3526
872.138	3382
872.267	3382
872.397	3192
872.526	3127
872.656	3055
872.785	3146
872.915	3294
873.044	3382
873.173	3264
873.303	3279
873.432	3275
873.561	3302
873.69	3192
873.819	3192
873.948	3207
874.077	3146
874.206	3097
874.335	3123
874.464	3253
874.593	3424
874.722	3321
874.851	3420
874.979	3420
875.108	3351
875.237	3249
875.365	3230
875.494	3203
875.623	3302
875.751	3112
875.88	3150
876.008	3222
876.136	3321
876.265	3386
876.393	3545
876.521	3447
876.65	3450
876.778	3397
876.906	3306
877.034	3237
877.162	3283
877.29	3214
877.418	3287
877.546	3275
877.674	3279
877.802	3294
877.93	3313
878.058	3195
878.185	3127
878.313	3245
878.441	3218
878.568	3070
878.696	3222
878.824	3306
878.951	3348
879.079	3511
879.206	3705
879.333	3443
879.461	3382
879.588	3386
879.715	3557
879.842	3652
879.97	3416
880.097	3211
880.224	3188
880.351	3230
880.478	3287
880.605	3214
880.732	3218
880.859	3587
880.986	3397
881.112	3401
881.239	3237
881.366	3146
881.493	3119
881.619	3093
881.746	3097
881.872	3142
881.999	3154
882.125	3176
882.252	3268
882.378	3363
882.505	3481
882.631	3321
882.757	3230
882.883	3253
883.01	3287
883.136	3241
883.262	3127
883.388	3173
883.514	3367
883.64	3462
883.766	3355
883.892	3211
884.018	3302
884.143	3500
884.269	3603
884.395	3272
884.52	3214
884.646	3264
884.772	3154
884.897	3165
885.023	3268
885.148	3401
885.274	3496
885.399	3462
885.524	3317
885.65	3313
885.775	3355
885.9	3344
886.025	3477
886.15	3409
886.275	3363
886.4	3283
886.525	3397
886.65	3332
886.775	3317
886.9	3549
887.025	3637
887.149	3447
887.274	3355
887.399	3230
887.523	3264
887.648	3222
887.773	3264
887.897	3435
888.021	3439
888.146	3367
888.27	3504
888.395	3599
888.519	3469
888.643	3534
888.767	3500
888.891	3340
889.015	3275
889.139	3302
889.263	3313
889.387	3458
889.511	3572
889.635	3523
889.759	3351
889.883	3348
890.006	3466
890.13	3511
890.254	3310
890.377	3367
890.501	3264
890.624	3275
890.748	3359
890.871	3241
890.995	3123
891.118	3131
891.241	3272
891.364	3283
891.488	3370
891.611	3253
891.734	3264
891.857	3336
891.98	3287
892.103	3370
892.226	3302
892.349	3272
892.471	3154
892.594	3306
892.717	3340
892.839	3298
892.962	3302
893.085	3382
893.207	3344
893.33	3218
893.452	3272
893.575	3378
893.697	3302
893.819	3496
893.941	3526
894.064	3507
894.186	3302
894.308	3306
894.43	3443
894.552	3595
894.674	3534
894.796	3317
894.918	3382
895.04	3321
895.161	3500
895.283	3454
895.405	3344
895.526	3424
895.648	3511
895.769	3473
895.891	3481
896.012	3523
896.134	3572
896.255	3469
896.376	3439
896.498	3405
896.619	3496
896.74	3416
896.861	3462
896.982	3717
897.103	3880
897.224	3660
897.345	3557
897.466	3466
897.587	3553
897.708	3679
897.828	3625
897.949	3526
898.07	3389
898.19	3428
898.311	3679
898.431	3526
898.552	3591
898.672	3648
898.792	3637
898.913	3580
899.033	3488
899.153	3336
899.273	3275
899.393	3359
899.513	3359
899.633	3374
899.753	3382
899.873	3370
899.993	3435
900.113	3348
900.232	3443
900.352	3389
900.472	3355
900.591	3211
900.711	3351
900.83	3272
900.95	3488
901.069	3523
901.189	3416
901.308	3226
901.427	3180
901.546	3184
901.665	3351
901.784	3374
901.904	3272
902.023	3176
902.141	3024
902.26	3036
902.379	3203
902.498	3131
902.617	3089
902.735	3214
902.854	3306
902.973	3256
903.091	3119
903.21	3112
903.328	3173
903.446	3180
903.565	3127
903.683	3195
903.801	3161
903.919	3302
904.038	3321
904.156	3214
904.274	3344
904.392	3279
904.51	3317
904.627	3420
904.745	3469
904.863	3545
904.981	3268
905.098	3237
905.216	3268
905.334	3344
905.451	3344
905.569	3374
905.686	3469
905.803	3473
905.921	3306
906.038	3504
906.155	3409
906.272	3336
906.389	3405
906.506	3275
906.623	3313
906.74	3310
906.857	3230
906.974	3302
907.091	3523
907.208	3606
907.324	3511
907.441	3424
907.557	3275
907.674	3275
907.79	3291
907.907	3344
908.023	3435
908.139	3424
908.256	3378
908.372	3428
908.488	3386
908.604	3302
908.72	3260
908.836	3336
908.952	3332
909.068	3370
909.184	3469
909.3	3458
909.415	3523
909.531	3526
909.647	3298
909.762	3329
909.878	3279
909.993	3378
910.108	3389
910.224	3370
910.339	3447
910.454	3374
910.57	3340
910.685	3291
910.8	3644
910.915	3591
911.03	3447
911.145	3302
911.259	3325
911.374	3344
911.489	3287
911.604	3264
911.718	3169
911.833	3203
911.947	3077
912.062	3032
912.176	3176
912.291	3237
912.405	3279
912.519	3458
912.633	3500
912.748	3374
912.862	3317
912.976	3192
913.09	3097
913.204	3188
913.318	3253
913.431	3393
913.545	3336
913.659	3454
913.772	3332
913.886	3233
914	3218
914.113	3367
914.226	3447
914.34	3378
914.453	3260
914.566	3488
914.68	3340
914.793	3329
914.906	3199
915.019	3127
915.132	3100
915.245	3184
915.358	3260
915.47	3218
915.583	3317
915.696	3310
915.809	3481
915.921	3466
916.034	3272
916.146	3329
916.259	3264
916.371	3443
916.483	3428
916.595	3325
916.708	3344
916.82	3386
916.932	3389
917.044	3386
917.156	3431
917.268	3313
917.38	3348
917.491	3313
917.603	3386
917.715	3496
917.826	3500
917.938	3435
918.049	3325
918.161	3462
918.272	3603
918.384	3568
918.495	3515
918.606	3363
918.717	3317
918.828	3401
918.939	3435
919.05	3336
919.161	3420
919.272	3222
919.383	3310
919.494	3526
919.604	3728
919.715	3515
919.826	3454
919.936	3519
920.047	3633
920.157	3553
920.267	3797
920.378	3629
920.488	3603
920.598	3838
920.708	3998
920.818	3816
920.928	3903
921.038	4036
921.148	4059
921.258	3766
921.368	3667
921.477	3591
921.587	3568
921.697	3462
921.806	3637
921.916	3568
922.025	3393
922.134	3431
922.244	3363
922.353	3431
922.462	3306
922.571	3268
922.68	3138
922.789	3089
922.898	3161
923.007	3135
923.116	3268
923.224	3218
923.333	3203
923.442	3127
923.55	3142
923.659	3184
923.767	3275
923.876	3203
923.984	3268
924.092	3116
924.201	3199
924.309	3237
924.417	3287
924.525	3222
924.633	3298
924.741	4246
924.849	3074
924.956	3291
925.064	3135
925.172	3100
925.279	3119
925.387	3214
925.494	3275
925.602	3420
925.709	3378
925.816	3241
925.924	3340
926.031	3454
926.138	3416
926.245	3393
926.352	3306
926.459	3428
926.566	3568
926.673	3409
926.779	3260
926.886	3317
926.993	3203
927.099	3161
927.206	3180
927.312	3176
927.419	3302
927.525	3264
927.631	3336
927.737	3180
927.843	3203
927.95	3108
928.056	3165
928.162	3253
928.267	3313
928.373	3861
928.479	3412
928.585	3123
928.69	3272
928.796	3313
928.901	3268
929.007	3119
929.112	3310
929.218	3222
929.323	3207
929.428	3184
929.533	3386
929.638	3199
929.743	3241
929.848	3340
929.953	3264
930.058	3184
930.163	3062
930.267	3104
930.372	3272
930.477	3123
930.581	3374
930.685	3306
930.79	3150
930.894	3192
930.998	3188
931.103	3329
931.207	3024
931.311	3020
931.415	2967
931.519	2823
931.623	2880
