Data from test_V78500241_1961.txt Node
Date: Fri Mar 25 16:28:47 CST 2022
User: usil
Spectrometer: V785-0024
Trigger mode: 0
Integration Time (sec): 4.000000E-1
Scans to average: 1
Nonlinearity correction enabled: false
Boxcar width: 0
Storing dark spectrum: false
XAxis mode: Wavelengths
Number of Pixels in Spectrum: 1024
>>>>>Begin Spectral Data<<<<<
801.071	2925
801.214	2960
801.356	2853
801.499	2914
801.641	2891
801.783	2952
801.926	3062
802.068	3001
802.211	3005
802.353	3043
802.496	3001
802.638	3047
802.78	3089
802.923	3097
803.065	3028
803.208	2906
803.35	2937
803.492	2967
803.635	2963
803.777	2743
803.919	2902
804.061	3169
804.204	2956
804.346	2902
804.488	2880
804.63	3005
804.773	2883
804.915	2937
805.057	3062
805.199	2941
805.341	2998
805.483	3081
805.626	3055
805.768	2971
805.91	3085
806.052	3097
806.194	3036
806.336	3272
806.478	3032
806.62	2952
806.762	3017
806.904	3062
807.046	3207
807.188	3028
807.33	2925
807.472	3005
807.614	2899
807.756	3017
807.898	2956
808.04	2922
808.182	3024
808.324	2937
808.465	2918
808.607	2929
808.749	2766
808.891	2868
809.033	2994
809.174	2986
809.316	2880
809.458	2922
809.6	2785
809.741	2800
809.883	2804
810.025	2880
810.166	2868
810.308	2845
810.45	2891
810.591	2762
810.733	2788
810.875	2845
811.016	2796
811.158	2777
811.299	2815
811.441	2944
811.582	2880
811.724	2861
811.865	2853
812.007	2952
812.148	2876
812.29	2849
812.431	2906
812.573	2975
812.714	2971
812.855	3089
812.997	3058
813.138	3108
813.279	3013
813.421	2998
813.562	2960
813.703	2899
813.845	2876
813.986	2766
814.127	2750
814.268	2853
814.41	2864
814.551	2823
814.692	2880
814.833	2792
814.974	2872
815.115	2948
815.256	2872
815.397	2838
815.539	2845
815.68	2781
815.821	2811
815.962	2948
816.103	2922
816.244	2887
816.385	2910
816.526	2998
816.666	2914
816.807	2785
816.948	2918
817.089	2918
817.23	2857
817.371	2781
817.512	2853
817.653	2868
817.793	2826
817.934	2895
818.075	2990
818.216	2990
818.356	3039
818.497	2895
818.638	2800
818.778	2796
818.919	2834
819.06	2781
819.2	2891
819.341	2826
819.481	2788
819.622	2948
819.762	3081
819.903	3032
820.043	2952
820.184	2933
820.324	2956
820.465	3062
820.605	3024
820.746	3017
820.886	2941
821.026	3112
821.167	3188
821.307	3230
821.447	3272
821.588	3275
821.728	3211
821.868	3203
822.008	3085
822.149	3214
822.289	3272
822.429	3108
822.569	3085
822.709	3180
822.849	3062
822.99	3070
823.13	3161
823.27	3226
823.41	3116
823.55	3169
823.69	3138
823.83	3195
823.97	3074
824.11	3013
824.25	3005
824.389	3070
824.529	3081
824.669	3055
824.809	3207
824.949	3291
825.089	3233
825.228	3173
825.368	3009
825.508	3017
825.648	2963
825.787	2990
825.927	3043
826.067	2967
826.206	2967
826.346	3020
826.485	3085
826.625	3123
826.765	3264
826.904	3222
827.044	2998
827.183	2918
827.323	2883
827.462	3017
827.601	2902
827.741	2956
827.88	2941
828.02	2842
828.159	2975
828.298	3028
828.437	3146
828.577	3055
828.716	3283
828.855	3108
828.994	2895
829.134	2861
829.273	2925
829.412	2868
829.551	2876
829.69	2891
829.829	3017
829.968	3157
830.107	3017
830.246	3032
830.385	2910
830.524	2887
830.663	2800
830.802	2743
830.941	2636
831.08	2651
831.219	2750
831.357	2743
831.496	2925
831.635	2701
831.774	2655
831.913	2663
832.051	2590
832.19	2610
832.329	2667
832.467	2552
832.606	2514
832.744	2545
832.883	2556
833.022	2590
833.16	2659
833.299	2678
833.437	2712
833.576	2708
833.714	2727
833.852	2735
833.991	2811
834.129	2842
834.267	2834
834.406	2792
834.544	2845
834.682	2899
834.821	2944
834.959	3032
835.097	2918
835.235	3089
835.373	2998
835.511	3036
835.65	2975
835.788	2982
835.926	2880
836.064	2819
836.202	2823
836.34	3097
836.478	3199
836.615	3032
836.753	3176
836.891	3184
837.029	3169
837.167	3081
837.305	3051
837.443	3036
837.58	2960
837.718	3119
837.856	3085
837.993	3039
838.131	3108
838.269	3112
838.406	3104
838.544	3085
838.681	2941
838.819	2937
838.956	2830
839.094	2815
839.231	2906
839.369	3017
839.506	3397
839.643	3226
839.781	3039
839.918	2979
840.055	3081
840.193	3058
840.33	3036
840.467	3093
840.604	3165
840.742	3389
840.879	3093
841.016	3077
841.153	3112
841.29	3344
841.427	3294
841.564	3279
841.701	3287
841.838	3222
841.975	3169
842.112	3226
842.249	3135
842.385	3070
842.522	3245
842.659	3093
842.796	3036
842.933	3097
843.069	3055
843.206	3085
843.343	3157
843.479	3123
843.616	3146
843.752	2899
843.889	2876
844.025	3036
844.162	2883
844.298	3123
844.435	2929
844.571	2929
844.708	3081
844.844	3184
844.98	3230
845.117	3173
845.253	3058
845.389	3062
845.525	3104
845.661	3097
845.798	2994
845.934	3127
846.07	3036
846.206	3214
846.342	3332
846.478	3218
846.614	3070
846.75	3047
846.886	3005
847.022	3287
847.158	3135
847.294	3214
847.429	3241
847.565	3199
847.701	3485
847.837	3047
847.972	2994
848.108	3173
848.244	3169
848.379	2998
848.515	2922
848.65	2910
848.786	2971
848.921	3009
849.057	3081
849.192	3150
849.328	3066
849.463	3104
849.598	3032
849.734	2998
849.869	2990
850.004	2922
850.14	2975
850.275	2918
850.41	2826
850.545	2857
850.68	2895
850.815	2956
850.95	2967
851.085	3173
851.22	3108
851.355	2990
851.49	2986
851.625	2982
851.76	3001
851.895	2937
852.03	2925
852.165	3020
852.299	3135
852.434	3184
852.569	3131
852.703	3157
852.838	3268
852.973	3329
853.107	3389
853.242	3146
853.376	3055
853.511	2967
853.645	3039
853.78	3245
853.914	3173
854.048	3123
854.183	3089
854.317	3100
854.451	3268
854.585	3135
854.72	3066
854.854	3180
854.988	3032
855.122	3066
855.256	2998
855.39	3112
855.524	3222
855.658	3165
855.792	3135
855.926	3211
856.06	3241
856.194	3260
856.327	3142
856.461	3051
856.595	3100
856.729	3062
856.862	3203
856.996	3127
857.13	3195
857.263	3218
857.397	3279
857.53	3127
857.664	3207
857.797	3211
857.931	3241
858.064	3127
858.197	3211
858.331	3119
858.464	3116
858.597	2982
858.731	3108
858.864	3116
858.997	3112
859.13	3161
859.263	3157
859.396	3188
859.529	3093
859.662	3093
859.795	3036
859.928	3131
860.061	3241
860.194	3272
860.327	3116
860.46	3116
860.592	3226
860.725	3268
860.858	3245
860.99	3058
861.123	3047
861.256	3062
861.388	3093
861.521	3838
861.653	3036
861.786	3009
861.918	3005
862.05	3024
862.183	3104
862.315	3161
862.447	3218
862.58	3097
862.712	2971
862.844	2872
862.976	2990
863.108	3032
863.24	3458
863.372	2883
863.504	2975
863.636	2963
863.768	3043
863.9	2944
864.032	2891
864.164	2948
864.296	2990
864.428	3093
864.559	3070
864.691	3024
864.823	3093
864.954	3039
865.086	3039
865.217	3013
865.349	2975
865.48	2990
865.612	3020
865.743	3176
865.875	2975
866.006	2948
866.137	3005
866.269	2971
866.4	2906
866.531	2929
866.662	2887
866.793	2906
866.924	2906
867.055	2960
867.186	2929
867.317	2925
867.448	2876
867.579	2842
867.71	2864
867.841	2826
867.972	2891
868.103	2910
868.233	2891
868.364	2853
868.495	2929
868.625	3093
868.756	3116
868.886	2941
869.017	3032
869.147	3199
869.278	3161
869.408	3081
869.539	3020
869.669	3089
869.799	3032
869.929	3142
870.06	3116
870.19	3329
870.32	3279
870.45	3245
870.58	3351
870.71	3420
870.84	3439
870.97	3275
871.1	3188
871.23	3466
871.36	3416
871.489	3389
871.619	3431
871.749	3382
871.879	3431
872.008	3542
872.138	3329
872.267	3264
872.397	3161
872.526	3116
872.656	3024
872.785	3066
872.915	3264
873.044	3298
873.173	3218
873.303	3260
873.432	3230
873.561	3222
873.69	3184
873.819	3146
873.948	3214
874.077	3074
874.206	3017
874.335	3058
874.464	3192
874.593	3355
874.722	3283
874.851	3344
874.979	3348
875.108	3302
875.237	3203
875.365	3146
875.494	3203
875.623	3230
875.751	3074
875.88	3127
876.008	3180
876.136	3230
876.265	3351
876.393	3519
876.521	3412
876.65	3405
876.778	3348
876.906	3268
877.034	3222
877.162	3226
877.29	3173
877.418	3237
877.546	3253
877.674	3203
877.802	3226
877.93	3233
878.058	3188
878.185	3081
878.313	3173
878.441	3184
878.568	3077
878.696	3119
878.824	3268
878.951	3302
879.079	3431
879.206	3614
879.333	3401
879.461	3298
879.588	3359
879.715	3488
879.842	3580
879.97	3363
880.097	3161
880.224	3119
880.351	3222
880.478	3176
880.605	3169
880.732	3184
880.859	3485
880.986	3283
881.112	3306
881.239	3222
881.366	3127
881.493	3024
881.619	3013
881.746	3043
881.872	3058
881.999	3070
882.125	3093
882.252	3195
882.378	3256
882.505	3443
882.631	3264
882.757	3150
882.883	3226
883.01	3226
883.136	3165
883.262	3127
883.388	3127
883.514	3298
883.64	3359
883.766	3332
883.892	3154
884.018	3237
884.143	3435
884.269	3538
884.395	3203
884.52	3169
884.646	3161
884.772	3108
884.897	3085
885.023	3169
885.148	3332
885.274	3363
885.399	3325
885.524	3287
885.65	3272
885.775	3291
885.9	3287
886.025	3405
886.15	3370
886.275	3306
886.4	3245
886.525	3306
886.65	3253
886.775	3279
886.9	3473
887.025	3637
887.149	3389
887.274	3226
887.399	3157
887.523	3207
887.648	3169
887.773	3222
887.897	3370
888.021	3374
888.146	3291
888.27	3447
888.395	3542
888.519	3420
888.643	3428
888.767	3458
888.891	3283
889.015	3287
889.139	3302
889.263	3264
889.387	3405
889.511	3485
889.635	3428
889.759	3275
889.883	3287
890.006	3409
890.13	3469
890.254	3245
890.377	3348
890.501	3203
890.624	3199
890.748	3275
890.871	3165
890.995	3074
891.118	3074
891.241	3169
891.364	3233
891.488	3294
891.611	3165
891.734	3237
891.857	3275
891.98	3218
892.103	3363
892.226	3222
892.349	3241
892.471	3100
892.594	3249
892.717	3287
892.839	3279
892.962	3260
893.085	3370
893.207	3287
893.33	3154
893.452	3230
893.575	3332
893.697	3245
893.819	3469
893.941	3500
894.064	3466
894.186	3268
894.308	3256
894.43	3428
894.552	3549
894.674	3481
894.796	3230
894.918	3321
895.04	3287
895.161	3424
895.283	3336
895.405	3317
895.526	3351
895.648	3420
895.769	3443
895.891	3435
896.012	3473
896.134	3443
896.255	3424
896.376	3359
896.498	3363
896.619	3409
896.74	3306
896.861	3382
896.982	3652
897.103	3823
897.224	3591
897.345	3496
897.466	3435
897.587	3538
897.708	3663
897.828	3538
897.949	3431
898.07	3359
898.19	3389
898.311	3603
898.431	3454
898.552	3500
898.672	3591
898.792	3557
898.913	3523
899.033	3416
899.153	3283
899.273	3218
899.393	3313
899.513	3310
899.633	3291
899.753	3310
899.873	3317
899.993	3397
900.113	3332
900.232	3378
900.352	3321
900.472	3283
900.591	3230
900.711	3268
900.83	3207
900.95	3389
901.069	3485
901.189	3348
901.308	3214
901.427	3150
901.546	3241
901.665	3306
901.784	3321
901.904	3161
902.023	3173
902.141	3020
902.26	2982
902.379	3135
902.498	3074
902.617	3058
902.735	3199
902.854	3222
902.973	3233
903.091	3051
903.21	3055
903.328	3123
903.446	3093
903.565	3089
903.683	3233
903.801	3116
903.919	3233
904.038	3260
904.156	3207
904.274	3294
904.392	3230
904.51	3291
904.627	3306
904.745	3477
904.863	3469
904.981	3272
905.098	3184
905.216	3214
905.334	3298
905.451	3310
905.569	3298
905.686	3428
905.803	3458
905.921	3283
906.038	3447
906.155	3340
906.272	3253
906.389	3317
906.506	3260
906.623	3249
906.74	3287
906.857	3184
906.974	3218
907.091	3458
907.208	3542
907.324	3492
907.441	3359
907.557	3237
907.674	3218
907.79	3199
907.907	3256
908.023	3355
908.139	3382
908.256	3302
908.372	3393
908.488	3344
908.604	3275
908.72	3241
908.836	3283
908.952	3275
909.068	3321
909.184	3492
909.3	3340
909.415	3504
909.531	3458
909.647	3283
909.762	3272
909.878	3279
909.993	3359
910.108	3336
910.224	3363
910.339	3412
910.454	3348
910.57	3279
910.685	3230
910.8	3610
910.915	3545
911.03	3424
911.145	3272
911.259	3268
911.374	3287
911.489	3256
911.604	3237
911.718	3142
911.833	3142
911.947	3024
912.062	2971
912.176	3165
912.291	3165
912.405	3199
912.519	3405
912.633	3492
912.748	3325
912.862	3237
912.976	3161
913.09	3085
913.204	3157
913.318	3211
913.431	3344
913.545	3363
913.659	3416
913.772	3348
913.886	3222
914	3203
914.113	3359
914.226	3409
914.34	3367
914.453	3207
914.566	3412
914.68	3298
914.793	3321
914.906	3108
915.019	3104
915.132	3116
915.245	3173
915.358	3222
915.47	3230
915.583	3241
915.696	3264
915.809	3439
915.921	3412
916.034	3264
916.146	3268
916.259	3211
916.371	3428
916.483	3374
916.595	3249
916.708	3351
916.82	3340
916.932	3340
917.044	3336
917.156	3355
917.268	3241
917.38	3272
917.491	3306
917.603	3378
917.715	3405
917.826	3496
917.938	3359
918.049	3249
918.161	3393
918.272	3557
918.384	3591
918.495	3504
918.606	3329
918.717	3279
918.828	3374
918.939	3393
919.05	3291
919.161	3355
919.272	3176
919.383	3275
919.494	3485
919.604	3701
919.715	3526
919.826	3420
919.936	3439
920.047	3568
920.157	3511
920.267	3732
920.378	3595
920.488	3545
920.598	3755
920.708	3953
920.818	3755
920.928	3827
921.038	4002
921.148	3994
921.258	3701
921.368	3656
921.477	3568
921.587	3523
921.697	3450
921.806	3595
921.916	3519
922.025	3310
922.134	3321
922.244	3287
922.353	3439
922.462	3264
922.571	3218
922.68	3119
922.789	3116
922.898	3154
923.007	3089
923.116	3218
923.224	3195
923.333	3211
923.442	3085
923.55	3089
923.659	3138
923.767	3211
923.876	3085
923.984	3226
924.092	3085
924.201	3195
924.309	3211
924.417	3249
924.525	3192
924.633	3233
924.741	4143
924.849	3032
924.956	3260
925.064	3077
925.172	3001
925.279	3081
925.387	3222
925.494	3176
925.602	3363
925.709	3348
925.816	3222
925.924	3287
926.031	3378
926.138	3332
926.245	3336
926.352	3249
926.459	3389
926.566	3473
926.673	3310
926.779	3272
926.886	3245
926.993	3176
927.099	3154
927.206	3123
927.312	3123
927.419	3218
927.525	3199
927.631	3260
927.737	3112
927.843	3123
927.95	3043
928.056	3138
928.162	3165
928.267	3256
928.373	3884
928.479	3325
928.585	3070
928.69	3188
928.796	3241
928.901	3154
929.007	3017
929.112	3218
929.218	3184
929.323	3154
929.428	3165
929.533	3310
929.638	3131
929.743	3180
929.848	3256
929.953	3222
930.058	3184
930.163	2963
930.267	3066
930.372	3169
930.477	3028
930.581	3317
930.685	3180
930.79	3036
930.894	3104
930.998	3089
931.103	3264
931.207	2948
931.311	2960
931.415	2902
931.519	2766
931.623	2834
