Data from test_V78500241_763.txt Node
Date: Fri Mar 25 16:20:29 CST 2022
User: usil
Spectrometer: V785-0024
Trigger mode: 0
Integration Time (sec): 4.000000E-1
Scans to average: 1
Nonlinearity correction enabled: false
Boxcar width: 0
Storing dark spectrum: false
XAxis mode: Wavelengths
Number of Pixels in Spectrum: 1024
>>>>>Begin Spectral Data<<<<<
801.071	2948
801.214	2979
801.356	2864
801.499	2960
801.641	2883
801.783	2948
801.926	3112
802.068	2982
802.211	2986
802.353	3058
802.496	2990
802.638	3017
802.78	3032
802.923	3081
803.065	2967
803.208	2864
803.35	2910
803.492	2929
803.635	2929
803.777	2735
803.919	2826
804.061	3157
804.204	2941
804.346	2933
804.488	2838
804.63	2982
804.773	2891
804.915	2933
805.057	3112
805.199	2929
805.341	2986
805.483	3005
805.626	3009
805.768	2937
805.91	3085
806.052	3100
806.194	3017
806.336	3233
806.478	3047
806.62	2910
806.762	2982
806.904	3036
807.046	3176
807.188	2975
807.33	2891
807.472	2986
807.614	2925
807.756	2998
807.898	2914
808.04	2876
808.182	2960
808.324	2899
808.465	2902
808.607	2899
808.749	2796
808.891	2819
809.033	2998
809.174	2975
809.316	2887
809.458	2880
809.6	2743
809.741	2796
809.883	2781
810.025	2864
810.166	2845
810.308	2845
810.45	2857
810.591	2750
810.733	2754
810.875	2830
811.016	2773
811.158	2743
811.299	2826
811.441	2895
811.582	2891
811.724	2796
811.865	2857
812.007	2849
812.148	2861
812.29	2880
812.431	2864
812.573	2925
812.714	2944
812.855	3051
812.997	3047
813.138	3104
813.279	3005
813.421	2963
813.562	2944
813.703	2826
813.845	2849
813.986	2762
814.127	2705
814.268	2857
814.41	2857
814.551	2800
814.692	2834
814.833	2815
814.974	2880
815.115	2941
815.256	2853
815.397	2773
815.539	2849
815.68	2785
815.821	2800
815.962	2925
816.103	2937
816.244	2826
816.385	2864
816.526	2960
816.666	2914
816.807	2743
816.948	2849
817.089	2880
817.23	2857
817.371	2788
817.512	2785
817.653	2819
817.793	2807
817.934	2819
818.075	2952
818.216	2994
818.356	3009
818.497	2872
818.638	2743
818.778	2826
818.919	2781
819.06	2731
819.2	2891
819.341	2838
819.481	2766
819.622	2952
819.762	3097
819.903	3051
820.043	2933
820.184	2933
820.324	2891
820.465	3020
820.605	3051
820.746	3024
820.886	2910
821.026	3135
821.167	3131
821.307	3260
821.447	3241
821.588	3268
821.728	3230
821.868	3203
822.008	3081
822.149	3222
822.289	3226
822.429	3077
822.569	3104
822.709	3180
822.849	3039
822.99	3074
823.13	3161
823.27	3207
823.41	3131
823.55	3146
823.69	3165
823.83	3253
823.97	3150
824.11	3070
824.25	3024
824.389	3081
824.529	3154
824.669	3077
824.809	3207
824.949	3298
825.089	3264
825.228	3173
825.368	3047
825.508	3005
825.648	2975
825.787	3020
825.927	3074
826.067	3039
826.206	3032
826.346	3089
826.485	3119
826.625	3165
826.765	3306
826.904	3272
827.044	3039
827.183	2990
827.323	2910
827.462	3017
827.601	2960
827.741	2975
827.88	2990
828.02	2918
828.159	2994
828.298	3074
828.437	3150
828.577	3081
828.716	3306
828.855	3161
828.994	2929
829.134	2899
829.273	2925
829.412	2883
829.551	2914
829.69	2906
829.829	3013
829.968	3138
830.107	3077
830.246	3051
830.385	2960
830.524	2899
830.663	2864
830.802	2758
830.941	2693
831.08	2686
831.219	2773
831.357	2781
831.496	2971
831.635	2758
831.774	2689
831.913	2682
832.051	2587
832.19	2644
832.329	2697
832.467	2606
832.606	2533
832.744	2610
832.883	2617
833.022	2636
833.16	2682
833.299	2724
833.437	2724
833.576	2746
833.714	2788
833.852	2762
833.991	2792
834.129	2899
834.267	2876
834.406	2823
834.544	2872
834.682	2902
834.821	2956
834.959	3108
835.097	2975
835.235	3131
835.373	3024
835.511	3051
835.65	2994
835.788	3020
835.926	2838
836.064	2853
836.202	2880
836.34	3146
836.478	3146
836.615	3047
836.753	3165
836.891	3268
837.029	3192
837.167	3116
837.305	3100
837.443	3097
837.58	2990
837.718	3192
837.856	3119
837.993	3058
838.131	3150
838.269	3131
838.406	3161
838.544	3097
838.681	2971
838.819	2963
838.956	2864
839.094	2823
839.231	2975
839.369	3097
839.506	3386
839.643	3192
839.781	3039
839.918	3005
840.055	3081
840.193	3066
840.33	3058
840.467	3112
840.604	3176
840.742	3412
840.879	3119
841.016	3081
841.153	3119
841.29	3378
841.427	3298
841.564	3275
841.701	3359
841.838	3237
841.975	3203
842.112	3253
842.249	3070
842.385	3074
842.522	3287
842.659	3127
842.796	3108
842.933	3119
843.069	3077
843.206	3081
843.343	3203
843.479	3135
843.616	3184
843.752	2887
843.889	2922
844.025	3150
844.162	2937
844.298	3077
844.435	2975
844.571	2941
844.708	3123
844.844	3207
844.98	3283
845.117	3233
845.253	3039
845.389	3051
845.525	3097
845.661	3146
845.798	3066
845.934	3169
846.07	3093
846.206	3237
846.342	3340
846.478	3230
846.614	3146
846.75	3089
846.886	3081
847.022	3310
847.158	3154
847.294	3207
847.429	3260
847.565	3237
847.701	3485
847.837	3062
847.972	3066
848.108	3165
848.244	3214
848.379	3017
848.515	2948
848.65	2990
848.786	2975
848.921	3020
849.057	3146
849.192	3150
849.328	3104
849.463	3131
849.598	3081
849.734	3039
849.869	3013
850.004	2956
850.14	2960
850.275	2910
850.41	2853
850.545	2902
850.68	2963
850.815	2979
850.95	3009
851.085	3214
851.22	3142
851.355	3077
851.49	3024
851.625	3043
851.76	3024
851.895	2925
852.03	2941
852.165	3055
852.299	3123
852.434	3207
852.569	3150
852.703	3184
852.838	3272
852.973	3348
853.107	3325
853.242	3176
853.376	3100
853.511	3051
853.645	3089
853.78	3249
853.914	3154
854.048	3188
854.183	3116
854.317	3169
854.451	3313
854.585	3138
854.72	3100
854.854	3241
854.988	3028
855.122	3104
855.256	3028
855.39	3108
855.524	3275
855.658	3169
855.792	3173
855.926	3214
856.06	3253
856.194	3256
856.327	3150
856.461	3138
856.595	3104
856.729	3104
856.862	3218
856.996	3207
857.13	3199
857.263	3272
857.397	3306
857.53	3119
857.664	3222
857.797	3226
857.931	3256
858.064	3192
858.197	3233
858.331	3157
858.464	3123
858.597	3051
858.731	3138
858.864	3180
858.997	3100
859.13	3165
859.263	3211
859.396	3256
859.529	3104
859.662	3089
859.795	3055
859.928	3146
860.061	3306
860.194	3298
860.327	3119
860.46	3104
860.592	3230
860.725	3268
860.858	3249
860.99	3157
861.123	3077
861.256	3051
861.388	3173
861.521	3934
861.653	3020
861.786	3009
861.918	3058
862.05	3100
862.183	3085
862.315	3184
862.447	3226
862.58	3085
862.712	2967
862.844	2872
862.976	3024
863.108	3013
863.24	3439
863.372	2891
863.504	3013
863.636	2941
863.768	3036
863.9	2982
864.032	2922
864.164	2971
864.296	3055
864.428	3135
864.559	3142
864.691	3108
864.823	3070
864.954	3055
865.086	3062
865.217	3020
865.349	2979
865.48	3017
865.612	3051
865.743	3176
865.875	2986
866.006	2948
866.137	2986
866.269	2963
866.4	2944
866.531	2952
866.662	2933
866.793	2941
866.924	2899
867.055	2986
867.186	2960
867.317	2880
867.448	2861
867.579	2838
867.71	2887
867.841	2819
867.972	2922
868.103	2956
868.233	2883
868.364	2891
868.495	2918
868.625	3100
868.756	3176
868.886	2986
869.017	3043
869.147	3154
869.278	3154
869.408	3116
869.539	3028
869.669	3108
869.799	3051
869.929	3154
870.06	3089
870.19	3348
870.32	3291
870.45	3332
870.58	3386
870.71	3447
870.84	3439
870.97	3283
871.1	3275
871.23	3477
871.36	3469
871.489	3363
871.619	3431
871.749	3416
871.879	3454
872.008	3454
872.138	3382
872.267	3317
872.397	3184
872.526	3119
872.656	3077
872.785	3119
872.915	3253
873.044	3321
873.173	3260
873.303	3249
873.432	3268
873.561	3253
873.69	3165
873.819	3146
873.948	3222
874.077	3112
874.206	3051
874.335	3100
874.464	3233
874.593	3374
874.722	3264
874.851	3439
874.979	3374
875.108	3332
875.237	3222
875.365	3165
875.494	3161
875.623	3249
875.751	3116
875.88	3131
876.008	3214
876.136	3233
876.265	3397
876.393	3523
876.521	3458
876.65	3359
876.778	3355
876.906	3268
877.034	3241
877.162	3233
877.29	3154
877.418	3294
877.546	3306
877.674	3275
877.802	3211
877.93	3249
878.058	3157
878.185	3119
878.313	3207
878.441	3188
878.568	3081
878.696	3173
878.824	3241
878.951	3302
879.079	3466
879.206	3644
879.333	3443
879.461	3348
879.588	3382
879.715	3519
879.842	3591
879.97	3351
880.097	3157
880.224	3127
880.351	3237
880.478	3253
880.605	3233
880.732	3173
880.859	3496
880.986	3298
881.112	3363
881.239	3233
881.366	3077
881.493	3039
881.619	3024
881.746	3085
881.872	3066
881.999	3154
882.125	3146
882.252	3275
882.378	3310
882.505	3424
882.631	3321
882.757	3157
882.883	3222
883.01	3237
883.136	3154
883.262	3097
883.388	3112
883.514	3317
883.64	3401
883.766	3302
883.892	3203
884.018	3264
884.143	3412
884.269	3572
884.395	3230
884.52	3207
884.646	3188
884.772	3135
884.897	3119
885.023	3233
885.148	3340
885.274	3405
885.399	3382
885.524	3283
885.65	3268
885.775	3348
885.9	3321
886.025	3500
886.15	3382
886.275	3279
886.4	3245
886.525	3287
886.65	3272
886.775	3306
886.9	3473
887.025	3637
887.149	3416
887.274	3298
887.399	3184
887.523	3230
887.648	3188
887.773	3195
887.897	3401
888.021	3405
888.146	3272
888.27	3443
888.395	3523
888.519	3416
888.643	3477
888.767	3462
888.891	3313
889.015	3260
889.139	3291
889.263	3253
889.387	3458
889.511	3488
889.635	3435
889.759	3268
889.883	3275
890.006	3405
890.13	3496
890.254	3253
890.377	3321
890.501	3233
890.624	3203
890.748	3279
890.871	3199
890.995	3100
891.118	3062
891.241	3192
891.364	3218
891.488	3294
891.611	3195
891.734	3256
891.857	3287
891.98	3222
892.103	3325
892.226	3272
892.349	3222
892.471	3066
892.594	3241
892.717	3306
892.839	3260
892.962	3298
893.085	3397
893.207	3329
893.33	3199
893.452	3214
893.575	3336
893.697	3291
893.819	3450
893.941	3538
894.064	3431
894.186	3230
894.308	3260
894.43	3412
894.552	3511
894.674	3504
894.796	3245
894.918	3287
895.04	3302
895.161	3458
895.283	3409
895.405	3336
895.526	3363
895.648	3431
895.769	3428
895.891	3412
896.012	3496
896.134	3447
896.255	3382
896.376	3370
896.498	3389
896.619	3435
896.74	3389
896.861	3428
896.982	3736
897.103	3804
897.224	3633
897.345	3564
897.466	3454
897.587	3481
897.708	3606
897.828	3591
897.949	3401
898.07	3329
898.19	3401
898.311	3629
898.431	3469
898.552	3519
898.672	3587
898.792	3610
898.913	3549
899.033	3439
899.153	3294
899.273	3226
899.393	3283
899.513	3283
899.633	3351
899.753	3344
899.873	3310
899.993	3370
900.113	3367
900.232	3397
900.352	3317
900.472	3287
900.591	3233
900.711	3283
900.83	3241
900.95	3424
901.069	3492
901.189	3336
901.308	3203
901.427	3176
901.546	3195
901.665	3275
901.784	3348
901.904	3173
902.023	3127
902.141	3036
902.26	3001
902.379	3169
902.498	3066
902.617	3043
902.735	3207
902.854	3218
902.973	3203
903.091	3043
903.21	3051
903.328	3127
903.446	3108
903.565	3108
903.683	3195
903.801	3116
903.919	3241
904.038	3268
904.156	3165
904.274	3287
904.392	3230
904.51	3256
904.627	3340
904.745	3458
904.863	3507
904.981	3272
905.098	3173
905.216	3272
905.334	3268
905.451	3287
905.569	3287
905.686	3428
905.803	3401
905.921	3249
906.038	3401
906.155	3382
906.272	3279
906.389	3344
906.506	3256
906.623	3203
906.74	3268
906.857	3161
906.974	3264
907.091	3420
907.208	3561
907.324	3450
907.441	3412
907.557	3253
907.674	3253
907.79	3226
907.907	3294
908.023	3435
908.139	3363
908.256	3348
908.372	3378
908.488	3348
908.604	3245
908.72	3195
908.836	3283
908.952	3245
909.068	3313
909.184	3469
909.3	3389
909.415	3473
909.531	3488
909.647	3279
909.762	3298
909.878	3275
909.993	3325
910.108	3329
910.224	3317
910.339	3393
910.454	3317
910.57	3268
910.685	3218
910.8	3580
910.915	3534
911.03	3458
911.145	3241
911.259	3272
911.374	3336
911.489	3226
911.604	3211
911.718	3116
911.833	3150
911.947	3036
912.062	2982
912.176	3135
912.291	3233
912.405	3233
912.519	3393
912.633	3485
912.748	3325
912.862	3268
912.976	3192
913.09	3074
913.204	3135
913.318	3211
913.431	3336
913.545	3359
913.659	3405
913.772	3332
913.886	3230
914	3188
914.113	3332
914.226	3367
914.34	3389
914.453	3199
914.566	3405
914.68	3256
914.793	3291
914.906	3146
915.019	3146
915.132	3062
915.245	3169
915.358	3180
915.47	3214
915.583	3283
915.696	3283
915.809	3435
915.921	3431
916.034	3237
916.146	3272
916.259	3214
916.371	3405
916.483	3351
916.595	3264
916.708	3298
916.82	3332
916.932	3363
917.044	3329
917.156	3367
917.268	3268
917.38	3310
917.491	3298
917.603	3363
917.715	3473
917.826	3393
917.938	3397
918.049	3283
918.161	3405
918.272	3580
918.384	3584
918.495	3496
918.606	3306
918.717	3233
918.828	3378
918.939	3412
919.05	3298
919.161	3382
919.272	3207
919.383	3275
919.494	3473
919.604	3663
919.715	3481
919.826	3401
919.936	3450
920.047	3614
920.157	3523
920.267	3793
920.378	3595
920.488	3538
920.598	3770
920.708	3956
920.818	3816
920.928	3838
921.038	3991
921.148	3968
921.258	3717
921.368	3610
921.477	3572
921.587	3538
921.697	3431
921.806	3625
921.916	3530
922.025	3386
922.134	3367
922.244	3332
922.353	3435
922.462	3245
922.571	3233
922.68	3116
922.789	3070
922.898	3135
923.007	3104
923.116	3230
923.224	3169
923.333	3184
923.442	3108
923.55	3100
923.659	3157
923.767	3233
923.876	3112
923.984	3287
924.092	3093
924.201	3176
924.309	3226
924.417	3268
924.525	3184
924.633	3237
924.741	4169
924.849	3074
924.956	3214
925.064	3093
925.172	3051
925.279	3138
925.387	3188
925.494	3203
925.602	3340
925.709	3291
925.816	3154
925.924	3264
926.031	3412
926.138	3329
926.245	3386
926.352	3275
926.459	3401
926.566	3469
926.673	3287
926.779	3241
926.886	3253
926.993	3169
927.099	3123
927.206	3100
927.312	3154
927.419	3233
927.525	3199
927.631	3249
927.737	3154
927.843	3135
927.95	3051
928.056	3165
928.162	3192
928.267	3226
928.373	3766
928.479	3325
928.585	3074
928.69	3214
928.796	3291
928.901	3195
929.007	3043
929.112	3176
929.218	3188
929.323	3119
929.428	3112
929.533	3306
929.638	3112
929.743	3176
929.848	3245
929.953	3180
930.058	3161
930.163	3005
930.267	3039
930.372	3173
930.477	3043
930.581	3313
930.685	3165
930.79	3039
930.894	3138
930.998	3097
931.103	3283
931.207	2971
931.311	2937
931.415	2918
931.519	2769
931.623	2823
