Data from test_V78500241_1784.txt Node
Date: Fri Mar 25 16:27:33 CST 2022
User: usil
Spectrometer: V785-0024
Trigger mode: 0
Integration Time (sec): 4.000000E-1
Scans to average: 1
Nonlinearity correction enabled: false
Boxcar width: 0
Storing dark spectrum: false
XAxis mode: Wavelengths
Number of Pixels in Spectrum: 1024
>>>>>Begin Spectral Data<<<<<
801.071	2899
801.214	2902
801.356	2857
801.499	2902
801.641	2868
801.783	2902
801.926	3066
802.068	2979
802.211	2994
802.353	3024
802.496	2998
802.638	3032
802.78	3043
802.923	3032
803.065	2990
803.208	2887
803.35	2906
803.492	2929
803.635	2925
803.777	2731
803.919	2861
804.061	3173
804.204	2929
804.346	2895
804.488	2834
804.63	2960
804.773	2876
804.915	2906
805.057	3043
805.199	2918
805.341	2952
805.483	3047
805.626	3009
805.768	2937
805.91	3066
806.052	3104
806.194	3062
806.336	3184
806.478	3020
806.62	2960
806.762	2922
806.904	3043
807.046	3161
807.188	2986
807.33	2891
807.472	2982
807.614	2891
807.756	2998
807.898	2902
808.04	2902
808.182	2982
808.324	2967
808.465	2861
808.607	2868
808.749	2781
808.891	2826
809.033	2986
809.174	2960
809.316	2861
809.458	2902
809.6	2743
809.741	2739
809.883	2746
810.025	2849
810.166	2834
810.308	2868
810.45	2864
810.591	2769
810.733	2788
810.875	2811
811.016	2773
811.158	2777
811.299	2807
811.441	2922
811.582	2906
811.724	2826
811.865	2823
812.007	2876
812.148	2876
812.29	2842
812.431	2857
812.573	2922
812.714	2994
812.855	3028
812.997	3047
813.138	3112
813.279	3020
813.421	2944
813.562	2937
813.703	2864
813.845	2868
813.986	2781
814.127	2735
814.268	2853
814.41	2849
814.551	2811
814.692	2872
814.833	2785
814.974	2891
815.115	2963
815.256	2823
815.397	2785
815.539	2864
815.68	2773
815.821	2769
815.962	2906
816.103	2918
816.244	2876
816.385	2853
816.526	2971
816.666	2887
816.807	2731
816.948	2857
817.089	2910
817.23	2861
817.371	2750
817.512	2762
817.653	2796
817.793	2823
817.934	2861
818.075	2979
818.216	2941
818.356	2967
818.497	2880
818.638	2796
818.778	2800
818.919	2777
819.06	2785
819.2	2880
819.341	2788
819.481	2788
819.622	2891
819.762	3089
819.903	3032
820.043	2918
820.184	2883
820.324	2891
820.465	3001
820.605	2986
820.746	3001
820.886	2895
821.026	3089
821.167	3127
821.307	3249
821.447	3222
821.588	3222
821.728	3180
821.868	3195
822.008	3043
822.149	3176
822.289	3203
822.429	3104
822.569	3093
822.709	3161
822.849	3043
822.99	3070
823.13	3157
823.27	3188
823.41	3100
823.55	3108
823.69	3169
823.83	3184
823.97	3070
824.11	3013
824.25	2982
824.389	3074
824.529	3081
824.669	3051
824.809	3203
824.949	3256
825.089	3199
825.228	3169
825.368	3017
825.508	2963
825.648	3001
825.787	3036
825.927	3039
826.067	2971
826.206	2944
826.346	3039
826.485	3062
826.625	3100
826.765	3291
826.904	3233
827.044	3032
827.183	2971
827.323	2861
827.462	2986
827.601	2952
827.741	2971
827.88	2963
828.02	2880
828.159	2982
828.298	3119
828.437	3127
828.577	3085
828.716	3294
828.855	3097
828.994	2941
829.134	2948
829.273	2925
829.412	2887
829.551	2902
829.69	2933
829.829	3043
829.968	3165
830.107	3028
830.246	3074
830.385	2944
830.524	2914
830.663	2819
830.802	2777
830.941	2708
831.08	2712
831.219	2766
831.357	2807
831.496	2979
831.635	2800
831.774	2670
831.913	2708
832.051	2571
832.19	2621
832.329	2731
832.467	2590
832.606	2514
832.744	2613
832.883	2625
833.022	2663
833.16	2667
833.299	2762
833.437	2720
833.576	2762
833.714	2762
833.852	2735
833.991	2796
834.129	2868
834.267	2853
834.406	2849
834.544	2929
834.682	2933
834.821	2880
834.959	3104
835.097	2937
835.235	3077
835.373	3039
835.511	3093
835.65	3017
835.788	2998
835.926	2857
836.064	2876
836.202	2929
836.34	3119
836.478	3184
836.615	3123
836.753	3176
836.891	3230
837.029	3192
837.167	3154
837.305	3085
837.443	3043
837.58	2994
837.718	3203
837.856	3131
837.993	3039
838.131	3135
838.269	3157
838.406	3135
838.544	3146
838.681	2982
838.819	2979
838.956	2861
839.094	2842
839.231	2956
839.369	3039
839.506	3393
839.643	3264
839.781	3028
839.918	2975
840.055	3074
840.193	3074
840.33	3119
840.467	3154
840.604	3169
840.742	3412
840.879	3066
841.016	3051
841.153	3150
841.29	3321
841.427	3329
841.564	3279
841.701	3329
841.838	3230
841.975	3214
842.112	3241
842.249	3123
842.385	3047
842.522	3302
842.659	3123
842.796	3100
842.933	3127
843.069	3055
843.206	3055
843.343	3192
843.479	3127
843.616	3131
843.752	2952
843.889	2933
844.025	3135
844.162	2925
844.298	3085
844.435	2960
844.571	2899
844.708	3104
844.844	3207
844.98	3260
845.117	3203
845.253	3055
845.389	3024
845.525	3138
845.661	3119
845.798	3077
845.934	3097
846.07	3074
846.206	3218
846.342	3363
846.478	3237
846.614	3116
846.75	3077
846.886	3066
847.022	3321
847.158	3157
847.294	3233
847.429	3283
847.565	3245
847.701	3545
847.837	3047
847.972	3024
848.108	3176
848.244	3195
848.379	3036
848.515	3001
848.65	2944
848.786	2975
848.921	3047
849.057	3116
849.192	3192
849.328	3116
849.463	3161
849.598	3081
849.734	3062
849.869	3024
850.004	2971
850.14	2982
850.275	2944
850.41	2845
850.545	2891
850.68	2948
850.815	2982
850.95	2990
851.085	3192
851.22	3165
851.355	3047
851.49	2990
851.625	3001
851.76	3066
851.895	2956
852.03	3005
852.165	3081
852.299	3119
852.434	3218
852.569	3192
852.703	3211
852.838	3275
852.973	3393
853.107	3336
853.242	3176
853.376	3135
853.511	2967
853.645	3066
853.78	3233
853.914	3138
854.048	3131
854.183	3123
854.317	3173
854.451	3329
854.585	3157
854.72	3142
854.854	3237
854.988	3097
855.122	3112
855.256	2994
855.39	3150
855.524	3260
855.658	3207
855.792	3169
855.926	3260
856.06	3222
856.194	3283
856.327	3146
856.461	3119
856.595	3119
856.729	3097
856.862	3233
856.996	3176
857.13	3222
857.263	3268
857.397	3313
857.53	3165
857.664	3184
857.797	3268
857.931	3264
858.064	3176
858.197	3207
858.331	3180
858.464	3112
858.597	3024
858.731	3138
858.864	3165
858.997	3135
859.13	3161
859.263	3207
859.396	3230
859.529	3131
859.662	3123
859.795	3058
859.928	3176
860.061	3317
860.194	3329
860.327	3154
860.46	3119
860.592	3249
860.725	3291
860.858	3264
860.99	3135
861.123	3039
861.256	3055
861.388	3192
861.521	3857
861.653	3032
861.786	3001
861.918	3001
862.05	3074
862.183	3104
862.315	3188
862.447	3233
862.58	3123
862.712	2956
862.844	2880
862.976	3047
863.108	3024
863.24	3321
863.372	2944
863.504	2960
863.636	2979
863.768	3085
863.9	3024
864.032	2914
864.164	2956
864.296	3074
864.428	3112
864.559	3131
864.691	3097
864.823	3093
864.954	3043
865.086	3055
865.217	3005
865.349	2986
865.48	2979
865.612	3017
865.743	3154
865.875	3020
866.006	2971
866.137	2986
866.269	2956
866.4	2956
866.531	2941
866.662	2895
866.793	2899
866.924	2956
867.055	3020
867.186	2944
867.317	2933
867.448	2864
867.579	2826
867.71	2872
867.841	2819
867.972	2899
868.103	2918
868.233	2910
868.364	2868
868.495	2933
868.625	3138
868.756	3169
868.886	2982
869.017	3051
869.147	3146
869.278	3184
869.408	3055
869.539	3055
869.669	3142
869.799	3066
869.929	3169
870.06	3100
870.19	3340
870.32	3294
870.45	3298
870.58	3401
870.71	3447
870.84	3485
870.97	3306
871.1	3245
871.23	3492
871.36	3473
871.489	3363
871.619	3428
871.749	3466
871.879	3454
872.008	3473
872.138	3370
872.267	3283
872.397	3192
872.526	3100
872.656	3074
872.785	3131
872.915	3272
873.044	3351
873.173	3230
873.303	3237
873.432	3268
873.561	3245
873.69	3199
873.819	3199
873.948	3207
874.077	3108
874.206	3032
874.335	3085
874.464	3230
874.593	3348
874.722	3272
874.851	3443
874.979	3332
875.108	3336
875.237	3211
875.365	3173
875.494	3188
875.623	3275
875.751	3131
875.88	3157
876.008	3199
876.136	3264
876.265	3420
876.393	3488
876.521	3412
876.65	3420
876.778	3409
876.906	3253
877.034	3237
877.162	3256
877.29	3188
877.418	3275
877.546	3264
877.674	3275
877.802	3233
877.93	3256
878.058	3165
878.185	3123
878.313	3207
878.441	3260
878.568	3112
878.696	3207
878.824	3294
878.951	3272
879.079	3473
879.206	3660
879.333	3439
879.461	3359
879.588	3378
879.715	3469
879.842	3603
879.97	3416
880.097	3199
880.224	3161
880.351	3195
880.478	3237
880.605	3203
880.732	3199
880.859	3523
880.986	3355
881.112	3294
881.239	3222
881.366	3089
881.493	3051
881.619	3043
881.746	3093
881.872	3089
881.999	3127
882.125	3127
882.252	3233
882.378	3332
882.505	3424
882.631	3294
882.757	3173
882.883	3237
883.01	3233
883.136	3131
883.262	3108
883.388	3097
883.514	3348
883.64	3405
883.766	3306
883.892	3230
884.018	3241
884.143	3447
884.269	3542
884.395	3233
884.52	3237
884.646	3199
884.772	3119
884.897	3123
885.023	3195
885.148	3348
885.274	3447
885.399	3367
885.524	3291
885.65	3256
885.775	3306
885.9	3306
886.025	3481
886.15	3355
886.275	3325
886.4	3237
886.525	3378
886.65	3313
886.775	3283
886.9	3492
887.025	3629
887.149	3409
887.274	3279
887.399	3218
887.523	3211
887.648	3195
887.773	3207
887.897	3367
888.021	3462
888.146	3275
888.27	3462
888.395	3553
888.519	3424
888.643	3431
888.767	3458
888.891	3329
889.015	3253
889.139	3287
889.263	3226
889.387	3405
889.511	3549
889.635	3450
889.759	3279
889.883	3272
890.006	3397
890.13	3545
890.254	3268
890.377	3340
890.501	3203
890.624	3241
890.748	3310
890.871	3195
890.995	3093
891.118	3074
891.241	3214
891.364	3256
891.488	3359
891.611	3173
891.734	3226
891.857	3260
891.98	3222
892.103	3348
892.226	3298
892.349	3214
892.471	3142
892.594	3260
892.717	3294
892.839	3291
892.962	3264
893.085	3401
893.207	3264
893.33	3150
893.452	3260
893.575	3363
893.697	3279
893.819	3447
893.941	3496
894.064	3458
894.186	3313
894.308	3287
894.43	3469
894.552	3576
894.674	3477
894.796	3272
894.918	3344
895.04	3325
895.161	3439
895.283	3378
895.405	3310
895.526	3344
895.648	3424
895.769	3447
895.891	3431
896.012	3458
896.134	3496
896.255	3454
896.376	3420
896.498	3370
896.619	3435
896.74	3374
896.861	3420
896.982	3656
897.103	3831
897.224	3629
897.345	3519
897.466	3389
897.587	3507
897.708	3641
897.828	3515
897.949	3435
898.07	3374
898.19	3363
898.311	3572
898.431	3469
898.552	3488
898.672	3587
898.792	3561
898.913	3564
899.033	3439
899.153	3294
899.273	3203
899.393	3287
899.513	3302
899.633	3321
899.753	3329
899.873	3306
899.993	3412
900.113	3340
900.232	3386
900.352	3321
900.472	3268
900.591	3218
900.711	3321
900.83	3241
900.95	3393
901.069	3504
901.189	3378
901.308	3211
901.427	3131
901.546	3184
901.665	3291
901.784	3313
901.904	3275
902.023	3173
902.141	3032
902.26	2979
902.379	3157
902.498	3081
902.617	3051
902.735	3157
902.854	3222
902.973	3207
903.091	3009
903.21	3055
903.328	3123
903.446	3123
903.565	3116
903.683	3192
903.801	3146
903.919	3275
904.038	3291
904.156	3161
904.274	3310
904.392	3291
904.51	3279
904.627	3317
904.745	3412
904.863	3443
904.981	3253
905.098	3195
905.216	3199
905.334	3291
905.451	3241
905.569	3329
905.686	3428
905.803	3435
905.921	3287
906.038	3439
906.155	3359
906.272	3306
906.389	3363
906.506	3249
906.623	3237
906.74	3310
906.857	3249
906.974	3260
907.091	3515
907.208	3519
907.324	3488
907.441	3424
907.557	3260
907.674	3264
907.79	3245
907.907	3355
908.023	3401
908.139	3420
908.256	3359
908.372	3435
908.488	3397
908.604	3291
908.72	3275
908.836	3348
908.952	3336
909.068	3374
909.184	3538
909.3	3405
909.415	3526
909.531	3504
909.647	3340
909.762	3313
909.878	3275
909.993	3378
910.108	3374
910.224	3374
910.339	3416
910.454	3386
910.57	3321
910.685	3287
910.8	3648
910.915	3603
911.03	3473
911.145	3283
911.259	3302
911.374	3389
911.489	3313
911.604	3272
911.718	3146
911.833	3214
911.947	3074
912.062	3028
912.176	3188
912.291	3272
912.405	3253
912.519	3485
912.633	3496
912.748	3416
912.862	3351
912.976	3211
913.09	3104
913.204	3192
913.318	3260
913.431	3382
913.545	3382
913.659	3428
913.772	3359
913.886	3249
914	3237
914.113	3447
914.226	3462
914.34	3416
914.453	3264
914.566	3492
914.68	3348
914.793	3363
914.906	3203
915.019	3161
915.132	3127
915.245	3192
915.358	3268
915.47	3279
915.583	3302
915.696	3306
915.809	3492
915.921	3477
916.034	3283
916.146	3310
916.259	3241
916.371	3420
916.483	3370
916.595	3302
916.708	3397
916.82	3370
916.932	3348
917.044	3355
917.156	3370
917.268	3310
917.38	3367
917.491	3367
917.603	3435
917.715	3458
917.826	3488
917.938	3397
918.049	3332
918.161	3504
918.272	3641
918.384	3614
918.495	3523
918.606	3367
918.717	3291
918.828	3386
918.939	3428
919.05	3325
919.161	3412
919.272	3214
919.383	3306
919.494	3538
919.604	3747
919.715	3488
919.826	3458
919.936	3488
920.047	3618
920.157	3572
920.267	3747
920.378	3599
920.488	3568
920.598	3827
920.708	3987
920.818	3850
920.928	3880
921.038	4059
921.148	3983
921.258	3740
921.368	3629
921.477	3622
921.587	3564
921.697	3469
921.806	3660
921.916	3538
922.025	3393
922.134	3374
922.244	3348
922.353	3500
922.462	3325
922.571	3268
922.68	3146
922.789	3097
922.898	3203
923.007	3138
923.116	3245
923.224	3218
923.333	3218
923.442	3146
923.55	3154
923.659	3173
923.767	3253
923.876	3135
923.984	3291
924.092	3131
924.201	3207
924.309	3275
924.417	3256
924.525	3218
924.633	3260
924.741	4013
924.849	3089
924.956	3272
925.064	3108
925.172	3055
925.279	3119
925.387	3230
925.494	3214
925.602	3374
925.709	3370
925.816	3222
925.924	3260
926.031	3420
926.138	3374
926.245	3428
926.352	3310
926.459	3454
926.566	3481
926.673	3351
926.779	3302
926.886	3272
926.993	3195
927.099	3176
927.206	3146
927.312	3127
927.419	3283
927.525	3279
927.631	3275
927.737	3169
927.843	3169
927.95	3100
928.056	3233
928.162	3188
928.267	3245
928.373	3892
928.479	3355
928.585	3116
928.69	3256
928.796	3294
928.901	3218
929.007	3104
929.112	3203
929.218	3249
929.323	3195
929.428	3176
929.533	3310
929.638	3146
929.743	3203
929.848	3291
929.953	3260
930.058	3169
930.163	3024
930.267	3081
930.372	3230
930.477	3085
930.581	3348
930.685	3195
930.79	3108
930.894	3146
930.998	3127
931.103	3306
931.207	2990
931.311	3005
931.415	2956
931.519	2883
931.623	2834
