Data from test_V78500241_1786.txt Node
Date: Fri Mar 25 16:27:34 CST 2022
User: usil
Spectrometer: V785-0024
Trigger mode: 0
Integration Time (sec): 4.000000E-1
Scans to average: 1
Nonlinearity correction enabled: false
Boxcar width: 0
Storing dark spectrum: false
XAxis mode: Wavelengths
Number of Pixels in Spectrum: 1024
>>>>>Begin Spectral Data<<<<<
801.071	2891
801.214	2933
801.356	2876
801.499	2887
801.641	2864
801.783	2933
801.926	3066
802.068	2963
802.211	2963
802.353	3020
802.496	2960
802.638	3017
802.78	2994
802.923	3062
803.065	2994
803.208	2868
803.35	2910
803.492	2948
803.635	2933
803.777	2785
803.919	2872
804.061	3195
804.204	2929
804.346	2899
804.488	2849
804.63	2956
804.773	2872
804.915	2929
805.057	3036
805.199	2880
805.341	2952
805.483	3028
805.626	3001
805.768	2979
805.91	3100
806.052	3112
806.194	3043
806.336	3188
806.478	3051
806.62	2952
806.762	2963
806.904	3058
807.046	3161
807.188	2982
807.33	2861
807.472	2990
807.614	2925
807.756	2986
807.898	2914
808.04	2895
808.182	2956
808.324	2960
808.465	2853
808.607	2857
808.749	2807
808.891	2834
809.033	2986
809.174	2975
809.316	2849
809.458	2868
809.6	2746
809.741	2773
809.883	2781
810.025	2838
810.166	2868
810.308	2823
810.45	2838
810.591	2766
810.733	2773
810.875	2842
811.016	2777
811.158	2788
811.299	2826
811.441	2906
811.582	2883
811.724	2815
811.865	2807
812.007	2941
812.148	2853
812.29	2830
812.431	2887
812.573	2967
812.714	2960
812.855	3047
812.997	3085
813.138	3089
813.279	2975
813.421	3005
813.562	2963
813.703	2861
813.845	2899
813.986	2842
814.127	2701
814.268	2845
814.41	2845
814.551	2804
814.692	2872
814.833	2811
814.974	2929
815.115	2963
815.256	2815
815.397	2819
815.539	2861
815.68	2788
815.821	2773
815.962	2922
816.103	2933
816.244	2868
816.385	2872
816.526	2971
816.666	2876
816.807	2746
816.948	2902
817.089	2910
817.23	2861
817.371	2788
817.512	2819
817.653	2819
817.793	2845
817.934	2872
818.075	2941
818.216	2971
818.356	3020
818.497	2883
818.638	2796
818.778	2823
818.919	2777
819.06	2731
819.2	2868
819.341	2777
819.481	2800
819.622	2948
819.762	3081
819.903	3043
820.043	2902
820.184	2838
820.324	2864
820.465	2975
820.605	3024
820.746	3001
820.886	2925
821.026	3131
821.167	3150
821.307	3256
821.447	3268
821.588	3218
821.728	3173
821.868	3184
822.008	3081
822.149	3169
822.289	3249
822.429	3058
822.569	3066
822.709	3150
822.849	3013
822.99	3062
823.13	3157
823.27	3176
823.41	3100
823.55	3135
823.69	3138
823.83	3180
823.97	3077
824.11	2982
824.25	3005
824.389	3058
824.529	3066
824.669	3032
824.809	3207
824.949	3214
825.089	3222
825.228	3176
825.368	3017
825.508	2971
825.648	2952
825.787	3009
825.927	3020
826.067	2960
826.206	2971
826.346	3032
826.485	3047
826.625	3104
826.765	3272
826.904	3230
827.044	2979
827.183	2914
827.323	2826
827.462	3009
827.601	2902
827.741	2906
827.88	2963
828.02	2819
828.159	2967
828.298	3009
828.437	3119
828.577	3077
828.716	3230
828.855	3085
828.994	2899
829.134	2914
829.273	2956
829.412	2876
829.551	2845
829.69	2891
829.829	2979
829.968	3077
830.107	3047
830.246	3039
830.385	2910
830.524	2849
830.663	2777
830.802	2731
830.941	2629
831.08	2629
831.219	2796
831.357	2769
831.496	2929
831.635	2739
831.774	2621
831.913	2670
832.051	2537
832.19	2610
832.329	2655
832.467	2564
832.606	2465
832.744	2575
832.883	2579
833.022	2594
833.16	2678
833.299	2655
833.437	2655
833.576	2678
833.714	2712
833.852	2735
833.991	2792
834.129	2830
834.267	2834
834.406	2800
834.544	2845
834.682	2845
834.821	2864
834.959	3089
835.097	2895
835.235	3066
835.373	2967
835.511	3013
835.65	2906
835.788	2941
835.926	2823
836.064	2781
836.202	2857
836.34	3108
836.478	3142
836.615	3055
836.753	3127
836.891	3184
837.029	3154
837.167	3077
837.305	3051
837.443	3017
837.58	2971
837.718	3081
837.856	3036
837.993	3039
838.131	3058
838.269	3093
838.406	3104
838.544	3047
838.681	2918
838.819	2914
838.956	2811
839.094	2868
839.231	2914
839.369	2998
839.506	3344
839.643	3222
839.781	3005
839.918	2941
840.055	3062
840.193	3009
840.33	3043
840.467	3047
840.604	3176
840.742	3382
840.879	3039
841.016	3043
841.153	3108
841.29	3367
841.427	3298
841.564	3264
841.701	3291
841.838	3222
841.975	3169
842.112	3233
842.249	3058
842.385	3020
842.522	3249
842.659	3100
842.796	3039
842.933	3077
843.069	3036
843.206	3039
843.343	3180
843.479	3081
843.616	3093
843.752	2891
843.889	2838
844.025	3089
844.162	2868
844.298	3070
844.435	2929
844.571	2967
844.708	3066
844.844	3203
844.98	3211
845.117	3218
845.253	3066
845.389	2998
845.525	3058
845.661	3112
845.798	2986
845.934	3138
846.07	3051
846.206	3192
846.342	3291
846.478	3199
846.614	3062
846.75	3032
846.886	3024
847.022	3241
847.158	3104
847.294	3192
847.429	3218
847.565	3214
847.701	3485
847.837	3017
847.972	2998
848.108	3180
848.244	3176
848.379	2948
848.515	2963
848.65	2941
848.786	2994
848.921	3005
849.057	3085
849.192	3123
849.328	3032
849.463	3093
849.598	3062
849.734	3017
849.869	2963
850.004	2952
850.14	2937
850.275	2918
850.41	2838
850.545	2872
850.68	2956
850.815	2986
850.95	2975
851.085	3131
851.22	3104
851.355	3024
851.49	3001
851.625	3028
851.76	2990
851.895	2937
852.03	2861
852.165	3024
852.299	3070
852.434	3169
852.569	3165
852.703	3173
852.838	3253
852.973	3302
853.107	3329
853.242	3123
853.376	3089
853.511	2975
853.645	3081
853.78	3275
853.914	3104
854.048	3077
854.183	3074
854.317	3154
854.451	3291
854.585	3089
854.72	3062
854.854	3230
854.988	3062
855.122	3055
855.256	2986
855.39	3138
855.524	3211
855.658	3154
855.792	3150
855.926	3188
856.06	3161
856.194	3283
856.327	3173
856.461	3051
856.595	3089
856.729	3085
856.862	3214
856.996	3188
857.13	3169
857.263	3207
857.397	3253
857.53	3142
857.664	3192
857.797	3272
857.931	3283
858.064	3157
858.197	3154
858.331	3135
858.464	3123
858.597	2986
858.731	3142
858.864	3135
858.997	3070
859.13	3100
859.263	3192
859.396	3207
859.529	3100
859.662	3058
859.795	3039
859.928	3119
860.061	3272
860.194	3272
860.327	3112
860.46	3100
860.592	3256
860.725	3279
860.858	3241
860.99	3089
861.123	3051
861.256	3058
861.388	3112
861.521	3835
861.653	3017
861.786	2960
861.918	2982
862.05	3074
862.183	3066
862.315	3161
862.447	3199
862.58	3074
862.712	2971
862.844	2853
862.976	3024
863.108	2990
863.24	3431
863.372	2887
863.504	2944
863.636	2944
863.768	3013
863.9	2986
864.032	2902
864.164	2925
864.296	3001
864.428	3066
864.559	3123
864.691	3077
864.823	3043
864.954	3039
865.086	3058
865.217	2990
865.349	2948
865.48	2975
865.612	3028
865.743	3127
865.875	2944
866.006	2956
866.137	2994
866.269	2937
866.4	2910
866.531	2933
866.662	2891
866.793	2872
866.924	2910
867.055	2956
867.186	2933
867.317	2906
867.448	2864
867.579	2849
867.71	2826
867.841	2781
867.972	2902
868.103	2887
868.233	2857
868.364	2864
868.495	2876
868.625	3081
868.756	3176
868.886	2948
869.017	3024
869.147	3176
869.278	3123
869.408	3062
869.539	3028
869.669	3058
869.799	3062
869.929	3104
870.06	3104
870.19	3321
870.32	3313
870.45	3275
870.58	3370
870.71	3485
870.84	3447
870.97	3298
871.1	3241
871.23	3462
871.36	3447
871.489	3355
871.619	3405
871.749	3409
871.879	3428
872.008	3447
872.138	3340
872.267	3211
872.397	3119
872.526	3081
872.656	3032
872.785	3093
872.915	3203
873.044	3275
873.173	3211
873.303	3253
873.432	3249
873.561	3203
873.69	3142
873.819	3127
873.948	3188
874.077	3138
874.206	3020
874.335	3100
874.464	3188
874.593	3306
874.722	3218
874.851	3382
874.979	3317
875.108	3264
875.237	3188
875.365	3222
875.494	3154
875.623	3226
875.751	3108
875.88	3074
876.008	3169
876.136	3207
876.265	3348
876.393	3526
876.521	3424
876.65	3405
876.778	3355
876.906	3199
877.034	3207
877.162	3214
877.29	3207
877.418	3264
877.546	3237
877.674	3233
877.802	3203
877.93	3256
878.058	3188
878.185	3135
878.313	3203
878.441	3195
878.568	3112
878.696	3142
878.824	3207
878.951	3306
879.079	3401
879.206	3568
879.333	3416
879.461	3329
879.588	3378
879.715	3488
879.842	3568
879.97	3370
880.097	3119
880.224	3100
880.351	3180
880.478	3230
880.605	3199
880.732	3165
880.859	3488
880.986	3298
881.112	3329
881.239	3203
881.366	3081
881.493	3043
881.619	3009
881.746	3081
881.872	3066
881.999	3089
882.125	3127
882.252	3214
882.378	3256
882.505	3428
882.631	3275
882.757	3146
882.883	3218
883.01	3211
883.136	3135
883.262	3097
883.388	3104
883.514	3351
883.64	3386
883.766	3310
883.892	3146
884.018	3222
884.143	3435
884.269	3542
884.395	3195
884.52	3112
884.646	3199
884.772	3119
884.897	3097
885.023	3214
885.148	3325
885.274	3389
885.399	3370
885.524	3226
885.65	3245
885.775	3332
885.9	3279
886.025	3405
886.15	3332
886.275	3298
886.4	3226
886.525	3317
886.65	3226
886.775	3306
886.9	3500
887.025	3614
887.149	3393
887.274	3272
887.399	3199
887.523	3195
887.648	3180
887.773	3184
887.897	3409
888.021	3409
888.146	3298
888.27	3443
888.395	3526
888.519	3386
888.643	3454
888.767	3454
888.891	3313
889.015	3264
889.139	3287
889.263	3207
889.387	3374
889.511	3523
889.635	3466
889.759	3291
889.883	3268
890.006	3378
890.13	3466
890.254	3260
890.377	3344
890.501	3211
890.624	3176
890.748	3283
890.871	3203
890.995	3100
891.118	3062
891.241	3173
891.364	3268
891.488	3298
891.611	3180
891.734	3237
891.857	3317
891.98	3249
892.103	3298
892.226	3279
892.349	3226
892.471	3138
892.594	3230
892.717	3272
892.839	3233
892.962	3317
893.085	3340
893.207	3264
893.33	3131
893.452	3207
893.575	3313
893.697	3233
893.819	3454
893.941	3469
894.064	3447
894.186	3253
894.308	3253
894.43	3435
894.552	3526
894.674	3443
894.796	3241
894.918	3298
895.04	3253
895.161	3416
895.283	3409
895.405	3302
895.526	3386
895.648	3405
895.769	3420
895.891	3450
896.012	3477
896.134	3435
896.255	3393
896.376	3378
896.498	3370
896.619	3424
896.74	3363
896.861	3389
896.982	3701
897.103	3850
897.224	3652
897.345	3504
897.466	3450
897.587	3481
897.708	3572
897.828	3523
897.949	3401
898.07	3283
898.19	3424
898.311	3595
898.431	3420
898.552	3534
898.672	3580
898.792	3549
898.913	3523
899.033	3389
899.153	3294
899.273	3222
899.393	3287
899.513	3332
899.633	3310
899.753	3306
899.873	3283
899.993	3367
900.113	3306
900.232	3393
900.352	3332
900.472	3313
900.591	3192
900.711	3268
900.83	3233
900.95	3409
901.069	3458
901.189	3348
901.308	3195
901.427	3116
901.546	3173
901.665	3275
901.784	3329
901.904	3199
902.023	3150
902.141	3028
902.26	2963
902.379	3138
902.498	3104
902.617	3036
902.735	3214
902.854	3214
902.973	3195
903.091	3058
903.21	3043
903.328	3169
903.446	3123
903.565	3089
903.683	3207
903.801	3135
903.919	3253
904.038	3272
904.156	3195
904.274	3291
904.392	3241
904.51	3226
904.627	3310
904.745	3439
904.863	3450
904.981	3253
905.098	3161
905.216	3207
905.334	3279
905.451	3329
905.569	3294
905.686	3424
905.803	3447
905.921	3245
906.038	3393
906.155	3317
906.272	3283
906.389	3283
906.506	3218
906.623	3256
906.74	3264
906.857	3184
906.974	3268
907.091	3458
907.208	3553
907.324	3496
907.441	3389
907.557	3256
907.674	3230
907.79	3203
907.907	3283
908.023	3386
908.139	3359
908.256	3298
908.372	3367
908.488	3344
908.604	3222
908.72	3195
908.836	3317
908.952	3279
909.068	3298
909.184	3477
909.3	3382
909.415	3500
909.531	3469
909.647	3249
909.762	3294
909.878	3264
909.993	3340
910.108	3321
910.224	3313
910.339	3386
910.454	3332
910.57	3291
910.685	3256
910.8	3576
910.915	3564
911.03	3416
911.145	3272
911.259	3310
911.374	3317
911.489	3256
911.604	3230
911.718	3135
911.833	3180
911.947	3032
912.062	2963
912.176	3142
912.291	3214
912.405	3192
912.519	3412
912.633	3443
912.748	3306
912.862	3249
912.976	3138
913.09	3043
913.204	3146
913.318	3199
913.431	3355
913.545	3370
913.659	3359
913.772	3340
913.886	3230
914	3192
914.113	3348
914.226	3431
914.34	3351
914.453	3199
914.566	3397
914.68	3306
914.793	3329
914.906	3100
915.019	3104
915.132	3062
915.245	3138
915.358	3184
915.47	3184
915.583	3245
915.696	3310
915.809	3367
915.921	3405
916.034	3226
916.146	3241
916.259	3211
916.371	3378
916.483	3355
916.595	3272
916.708	3367
916.82	3294
916.932	3310
917.044	3355
917.156	3359
917.268	3275
917.38	3283
917.491	3256
917.603	3348
917.715	3420
917.826	3412
917.938	3401
918.049	3287
918.161	3450
918.272	3568
918.384	3568
918.495	3496
918.606	3302
918.717	3283
918.828	3409
918.939	3416
919.05	3279
919.161	3374
919.272	3188
919.383	3302
919.494	3458
919.604	3679
919.715	3504
919.826	3420
919.936	3389
920.047	3538
920.157	3526
920.267	3743
920.378	3606
920.488	3553
920.598	3751
920.708	3918
920.818	3785
920.928	3838
921.038	4006
921.148	4017
921.258	3713
921.368	3656
921.477	3572
921.587	3511
921.697	3473
921.806	3648
921.916	3523
922.025	3359
922.134	3351
922.244	3325
922.353	3431
922.462	3249
922.571	3249
922.68	3104
922.789	3093
922.898	3138
923.007	3104
923.116	3203
923.224	3165
923.333	3169
923.442	3089
923.55	3135
923.659	3093
923.767	3218
923.876	3116
923.984	3207
924.092	3074
924.201	3192
924.309	3207
924.417	3214
924.525	3207
924.633	3176
924.741	4013
924.849	3047
924.956	3222
925.064	3085
925.172	3024
925.279	3104
925.387	3180
925.494	3237
925.602	3336
925.709	3313
925.816	3188
925.924	3306
926.031	3336
926.138	3279
926.245	3348
926.352	3237
926.459	3439
926.566	3389
926.673	3325
926.779	3233
926.886	3207
926.993	3150
927.099	3085
927.206	3112
927.312	3077
927.419	3272
927.525	3207
927.631	3279
927.737	3123
927.843	3116
927.95	3028
928.056	3123
928.162	3146
928.267	3260
928.373	3857
928.479	3298
928.585	3028
928.69	3256
928.796	3249
928.901	3135
929.007	3051
929.112	3207
929.218	3211
929.323	3142
929.428	3146
929.533	3325
929.638	3074
929.743	3161
929.848	3245
929.953	3253
930.058	3142
930.163	2963
930.267	3005
930.372	3199
930.477	3043
930.581	3283
930.685	3138
930.79	3028
930.894	3123
930.998	3108
931.103	3302
931.207	2960
931.311	2910
931.415	2906
931.519	2735
931.623	2807
