Data from test_V78500241_1429.txt Node
Date: Fri Mar 25 16:25:06 CST 2022
User: usil
Spectrometer: V785-0024
Trigger mode: 0
Integration Time (sec): 4.000000E-1
Scans to average: 1
Nonlinearity correction enabled: false
Boxcar width: 0
Storing dark spectrum: false
XAxis mode: Wavelengths
Number of Pixels in Spectrum: 1024
>>>>>Begin Spectral Data<<<<<
801.071	2929
801.214	2948
801.356	2876
801.499	2952
801.641	2880
801.783	2944
801.926	3062
802.068	2998
802.211	3013
802.353	3020
802.496	2929
802.638	3001
802.78	3055
802.923	3112
803.065	3043
803.208	2918
803.35	2952
803.492	2933
803.635	2933
803.777	2758
803.919	2887
804.061	3211
804.204	2963
804.346	2902
804.488	2823
804.63	3032
804.773	2887
804.915	2937
805.057	3070
805.199	2899
805.341	2975
805.483	3077
805.626	3013
805.768	2982
805.91	3089
806.052	3146
806.194	2990
806.336	3218
806.478	3047
806.62	2967
806.762	2975
806.904	3047
807.046	3184
807.188	2937
807.33	2914
807.472	2994
807.614	2887
807.756	2971
807.898	2944
808.04	2868
808.182	2971
808.324	2952
808.465	2872
808.607	2891
808.749	2785
808.891	2857
809.033	2975
809.174	2914
809.316	2868
809.458	2880
809.6	2758
809.741	2743
809.883	2769
810.025	2864
810.166	2902
810.308	2830
810.45	2853
810.591	2781
810.733	2746
810.875	2815
811.016	2792
811.158	2754
811.299	2788
811.441	2941
811.582	2887
811.724	2845
811.865	2830
812.007	2914
812.148	2864
812.29	2853
812.431	2868
812.573	2883
812.714	2929
812.855	3043
812.997	3058
813.138	3104
813.279	2971
813.421	2956
813.562	2944
813.703	2899
813.845	2872
813.986	2788
814.127	2731
814.268	2811
814.41	2834
814.551	2815
814.692	2838
814.833	2777
814.974	2906
815.115	2967
815.256	2807
815.397	2838
815.539	2842
815.68	2800
815.821	2823
815.962	2929
816.103	2906
816.244	2872
816.385	2823
816.526	2937
816.666	2891
816.807	2777
816.948	2887
817.089	2922
817.23	2815
817.371	2773
817.512	2750
817.653	2830
817.793	2788
817.934	2861
818.075	2937
818.216	2956
818.356	3005
818.497	2914
818.638	2762
818.778	2815
818.919	2769
819.06	2735
819.2	2868
819.341	2754
819.481	2785
819.622	2933
819.762	3081
819.903	3036
820.043	2918
820.184	2883
820.324	2914
820.465	3024
820.605	3032
820.746	3013
820.886	2914
821.026	3093
821.167	3154
821.307	3287
821.447	3306
821.588	3222
821.728	3199
821.868	3180
822.008	3097
822.149	3218
822.289	3211
822.429	3104
822.569	3116
822.709	3211
822.849	3047
822.99	3108
823.13	3199
823.27	3203
823.41	3138
823.55	3188
823.69	3199
823.83	3222
823.97	3093
824.11	3024
824.25	3017
824.389	3127
824.529	3119
824.669	3127
824.809	3226
824.949	3268
825.089	3222
825.228	3165
825.368	3036
825.508	3001
825.648	3013
825.787	3024
825.927	3085
826.067	3043
826.206	3009
826.346	3074
826.485	3157
826.625	3127
826.765	3298
826.904	3260
827.044	3055
827.183	2979
827.323	2861
827.462	3055
827.601	2948
827.741	2979
827.88	2998
828.02	2887
828.159	3020
828.298	3070
828.437	3176
828.577	3116
828.716	3283
828.855	3119
828.994	2960
829.134	2922
829.273	2986
829.412	2868
829.551	2902
829.69	2956
829.829	3024
829.968	3157
830.107	3043
830.246	3032
830.385	2933
830.524	2914
830.663	2864
830.802	2781
830.941	2663
831.08	2670
831.219	2811
831.357	2826
831.496	2990
831.635	2788
831.774	2701
831.913	2667
832.051	2579
832.19	2598
832.329	2708
832.467	2583
832.606	2511
832.744	2602
832.883	2613
833.022	2613
833.16	2674
833.299	2720
833.437	2716
833.576	2731
833.714	2781
833.852	2746
833.991	2792
834.129	2872
834.267	2857
834.406	2811
834.544	2876
834.682	2922
834.821	2906
834.959	3089
835.097	2929
835.235	3085
835.373	3024
835.511	3009
835.65	2998
835.788	2986
835.926	2864
836.064	2830
836.202	2895
836.34	3116
836.478	3199
836.615	3097
836.753	3184
836.891	3260
837.029	3207
837.167	3150
837.305	3089
837.443	3066
837.58	3013
837.718	3176
837.856	3127
837.993	3039
838.131	3131
838.269	3100
838.406	3097
838.544	3119
838.681	2963
838.819	2929
838.956	2830
839.094	2899
839.231	2937
839.369	3081
839.506	3409
839.643	3233
839.781	3028
839.918	3005
840.055	3089
840.193	3119
840.33	3100
840.467	3138
840.604	3165
840.742	3431
840.879	3074
841.016	3070
841.153	3146
841.29	3386
841.427	3321
841.564	3317
841.701	3332
841.838	3226
841.975	3195
842.112	3241
842.249	3097
842.385	3055
842.522	3275
842.659	3077
842.796	3085
842.933	3138
843.069	3058
843.206	3036
843.343	3207
843.479	3123
843.616	3188
843.752	2929
843.889	2902
844.025	3077
844.162	2918
844.298	3119
844.435	2998
844.571	2914
844.708	3097
844.844	3237
844.98	3275
845.117	3195
845.253	3074
845.389	3017
845.525	3138
845.661	3119
845.798	3005
845.934	3161
846.07	3108
846.206	3249
846.342	3336
846.478	3241
846.614	3112
846.75	3070
846.886	3032
847.022	3287
847.158	3195
847.294	3249
847.429	3245
847.565	3249
847.701	3500
847.837	3058
847.972	3043
848.108	3192
848.244	3161
848.379	2990
848.515	2960
848.65	2948
848.786	2979
848.921	3047
849.057	3154
849.192	3173
849.328	3066
849.463	3127
849.598	3085
849.734	3074
849.869	3028
850.004	2956
850.14	2990
850.275	2925
850.41	2883
850.545	2956
850.68	2948
850.815	3024
850.95	2960
851.085	3218
851.22	3085
851.355	3089
851.49	3036
851.625	3032
851.76	3032
851.895	2933
852.03	2914
852.165	3077
852.299	3154
852.434	3199
852.569	3184
852.703	3173
852.838	3268
852.973	3344
853.107	3355
853.242	3161
853.376	3108
853.511	3036
853.645	3070
853.78	3279
853.914	3138
854.048	3157
854.183	3116
854.317	3180
854.451	3298
854.585	3195
854.72	3097
854.854	3195
854.988	3062
855.122	3108
855.256	3020
855.39	3142
855.524	3241
855.658	3207
855.792	3173
855.926	3222
856.06	3222
856.194	3291
856.327	3192
856.461	3138
856.595	3104
856.729	3108
856.862	3233
856.996	3173
857.13	3237
857.263	3253
857.397	3298
857.53	3097
857.664	3165
857.797	3260
857.931	3336
858.064	3176
858.197	3256
858.331	3157
858.464	3123
858.597	3017
858.731	3085
858.864	3089
858.997	3051
859.13	3195
859.263	3230
859.396	3233
859.529	3112
859.662	3085
859.795	3058
859.928	3131
860.061	3294
860.194	3306
860.327	3142
860.46	3093
860.592	3272
860.725	3256
860.858	3245
860.99	3142
861.123	3077
861.256	3081
861.388	3150
861.521	3850
861.653	3043
861.786	3028
861.918	3024
862.05	3104
862.183	3097
862.315	3184
862.447	3222
862.58	3119
862.712	2994
862.844	2922
862.976	3058
863.108	3039
863.24	3336
863.372	2895
863.504	2971
863.636	2979
863.768	3028
863.9	2963
864.032	2910
864.164	2956
864.296	3043
864.428	3093
864.559	3097
864.691	3089
864.823	3066
864.954	3047
865.086	3070
865.217	3013
865.349	2956
865.48	2979
865.612	3055
865.743	3173
865.875	3001
866.006	2975
866.137	3028
866.269	2918
866.4	2941
866.531	2952
866.662	2933
866.793	2914
866.924	2944
867.055	2990
867.186	2975
867.317	2914
867.448	2819
867.579	2876
867.71	2883
867.841	2845
867.972	2922
868.103	2922
868.233	2872
868.364	2883
868.495	2902
868.625	3081
868.756	3154
868.886	2990
869.017	3028
869.147	3226
869.278	3184
869.408	3074
869.539	3055
869.669	3097
869.799	3024
869.929	3138
870.06	3127
870.19	3355
870.32	3279
870.45	3363
870.58	3412
870.71	3401
870.84	3473
870.97	3302
871.1	3272
871.23	3496
871.36	3507
871.489	3310
871.619	3424
871.749	3416
871.879	3466
872.008	3481
872.138	3389
872.267	3306
872.397	3180
872.526	3112
872.656	3028
872.785	3138
872.915	3226
873.044	3340
873.173	3249
873.303	3287
873.432	3249
873.561	3241
873.69	3123
873.819	3150
873.948	3195
874.077	3127
874.206	3074
874.335	3108
874.464	3207
874.593	3397
874.722	3249
874.851	3428
874.979	3389
875.108	3321
875.237	3249
875.365	3157
875.494	3169
875.623	3268
875.751	3055
875.88	3131
876.008	3207
876.136	3241
876.265	3355
876.393	3542
876.521	3450
876.65	3367
876.778	3367
876.906	3241
877.034	3211
877.162	3218
877.29	3214
877.418	3275
877.546	3287
877.674	3256
877.802	3222
877.93	3222
878.058	3184
878.185	3116
878.313	3253
878.441	3241
878.568	3077
878.696	3157
878.824	3245
878.951	3321
879.079	3428
879.206	3606
879.333	3450
879.461	3386
879.588	3374
879.715	3458
879.842	3637
879.97	3397
880.097	3157
880.224	3119
880.351	3207
880.478	3249
880.605	3211
880.732	3199
880.859	3549
880.986	3302
881.112	3332
881.239	3233
881.366	3127
881.493	3058
881.619	3051
881.746	3131
881.872	3112
881.999	3100
882.125	3173
882.252	3264
882.378	3340
882.505	3431
882.631	3253
882.757	3135
882.883	3233
883.01	3264
883.136	3165
883.262	3123
883.388	3138
883.514	3332
883.64	3367
883.766	3329
883.892	3188
884.018	3249
884.143	3416
884.269	3568
884.395	3222
884.52	3169
884.646	3176
884.772	3123
884.897	3074
885.023	3207
885.148	3298
885.274	3466
885.399	3351
885.524	3287
885.65	3241
885.775	3317
885.9	3245
886.025	3428
886.15	3370
886.275	3302
886.4	3226
886.525	3294
886.65	3279
886.775	3275
886.9	3496
887.025	3641
887.149	3405
887.274	3264
887.399	3176
887.523	3222
887.648	3169
887.773	3188
887.897	3367
888.021	3409
888.146	3321
888.27	3462
888.395	3523
888.519	3447
888.643	3424
888.767	3435
888.891	3306
889.015	3310
889.139	3317
889.263	3245
889.387	3439
889.511	3545
889.635	3447
889.759	3287
889.883	3264
890.006	3374
890.13	3515
890.254	3310
890.377	3359
890.501	3199
890.624	3203
890.748	3310
890.871	3161
890.995	3066
891.118	3070
891.241	3176
891.364	3245
891.488	3359
891.611	3214
891.734	3233
891.857	3329
891.98	3237
892.103	3363
892.226	3279
892.349	3245
892.471	3108
892.594	3237
892.717	3264
892.839	3268
892.962	3313
893.085	3370
893.207	3321
893.33	3169
893.452	3230
893.575	3344
893.697	3279
893.819	3485
893.941	3485
894.064	3488
894.186	3230
894.308	3283
894.43	3462
894.552	3496
894.674	3485
894.796	3291
894.918	3340
895.04	3294
895.161	3412
895.283	3424
895.405	3325
895.526	3355
895.648	3397
895.769	3450
895.891	3481
896.012	3500
896.134	3420
896.255	3439
896.376	3389
896.498	3355
896.619	3389
896.74	3378
896.861	3420
896.982	3709
897.103	3888
897.224	3648
897.345	3519
897.466	3488
897.587	3477
897.708	3637
897.828	3591
897.949	3431
898.07	3336
898.19	3401
898.311	3568
898.431	3450
898.552	3557
898.672	3610
898.792	3599
898.913	3538
899.033	3412
899.153	3340
899.273	3249
899.393	3291
899.513	3355
899.633	3363
899.753	3344
899.873	3283
899.993	3409
900.113	3332
900.232	3367
900.352	3329
900.472	3302
900.591	3203
900.711	3348
900.83	3260
900.95	3378
901.069	3481
901.189	3359
901.308	3233
901.427	3131
901.546	3233
901.665	3329
901.784	3336
901.904	3214
902.023	3157
902.141	3039
902.26	2986
902.379	3138
902.498	3024
902.617	3066
902.735	3214
902.854	3233
902.973	3195
903.091	3043
903.21	3051
903.328	3150
903.446	3146
903.565	3085
903.683	3188
903.801	3108
903.919	3233
904.038	3329
904.156	3135
904.274	3260
904.392	3256
904.51	3279
904.627	3340
904.745	3397
904.863	3435
904.981	3275
905.098	3150
905.216	3241
905.334	3329
905.451	3306
905.569	3306
905.686	3458
905.803	3462
905.921	3302
906.038	3424
906.155	3348
906.272	3264
906.389	3317
906.506	3199
906.623	3275
906.74	3275
906.857	3192
906.974	3222
907.091	3488
907.208	3576
907.324	3466
907.441	3416
907.557	3195
907.674	3226
907.79	3214
907.907	3268
908.023	3431
908.139	3359
908.256	3313
908.372	3355
908.488	3382
908.604	3245
908.72	3253
908.836	3310
908.952	3275
909.068	3325
909.184	3488
909.3	3420
909.415	3515
909.531	3473
909.647	3298
909.762	3294
909.878	3287
909.993	3332
910.108	3321
910.224	3329
910.339	3401
910.454	3325
910.57	3283
910.685	3256
910.8	3591
910.915	3542
911.03	3424
911.145	3256
911.259	3275
911.374	3287
911.489	3218
911.604	3241
911.718	3135
911.833	3127
911.947	3062
912.062	2986
912.176	3214
912.291	3199
912.405	3233
912.519	3424
912.633	3466
912.748	3294
912.862	3291
912.976	3184
913.09	3112
913.204	3123
913.318	3184
913.431	3405
913.545	3298
913.659	3420
913.772	3310
913.886	3237
914	3169
914.113	3332
914.226	3405
914.34	3382
914.453	3226
914.566	3393
914.68	3279
914.793	3329
914.906	3188
915.019	3077
915.132	3062
915.245	3199
915.358	3180
915.47	3226
915.583	3264
915.696	3260
915.809	3405
915.921	3405
916.034	3275
916.146	3272
916.259	3211
916.371	3370
916.483	3363
916.595	3283
916.708	3340
916.82	3325
916.932	3329
917.044	3310
917.156	3313
917.268	3233
917.38	3317
917.491	3253
917.603	3374
917.715	3454
917.826	3488
917.938	3431
918.049	3283
918.161	3420
918.272	3549
918.384	3564
918.495	3488
918.606	3355
918.717	3268
918.828	3405
918.939	3409
919.05	3325
919.161	3348
919.272	3199
919.383	3275
919.494	3450
919.604	3686
919.715	3523
919.826	3386
919.936	3481
920.047	3606
920.157	3515
920.267	3751
920.378	3542
920.488	3599
920.598	3797
920.708	3983
920.818	3781
920.928	3823
921.038	4025
921.148	4017
921.258	3652
921.368	3652
921.477	3591
921.587	3549
921.697	3477
921.806	3633
921.916	3526
922.025	3397
922.134	3382
922.244	3306
922.353	3439
922.462	3310
922.571	3241
922.68	3077
922.789	3077
922.898	3157
923.007	3077
923.116	3226
923.224	3165
923.333	3176
923.442	3119
923.55	3093
923.659	3119
923.767	3199
923.876	3169
923.984	3237
924.092	3112
924.201	3199
924.309	3222
924.417	3237
924.525	3203
924.633	3226
924.741	4185
924.849	3070
924.956	3298
925.064	3070
925.172	3036
925.279	3104
925.387	3169
925.494	3195
925.602	3359
925.709	3294
925.816	3176
925.924	3317
926.031	3367
926.138	3370
926.245	3359
926.352	3249
926.459	3397
926.566	3450
926.673	3363
926.779	3264
926.886	3195
926.993	3112
927.099	3146
927.206	3150
927.312	3116
927.419	3241
927.525	3199
927.631	3264
927.737	3131
927.843	3138
927.95	3005
928.056	3112
928.162	3150
928.267	3218
928.373	3880
928.479	3332
928.585	3051
928.69	3207
928.796	3283
928.901	3203
929.007	3039
929.112	3195
929.218	3203
929.323	3165
929.428	3161
929.533	3344
929.638	3108
929.743	3211
929.848	3230
929.953	3199
930.058	3180
930.163	2990
930.267	3032
930.372	3207
930.477	3024
930.581	3306
930.685	3150
930.79	3028
930.894	3112
930.998	3085
931.103	3291
931.207	3005
931.311	2937
931.415	2910
931.519	2735
931.623	2830
