Data from test_V78500241_1442.txt Node
Date: Fri Mar 25 16:25:11 CST 2022
User: usil
Spectrometer: V785-0024
Trigger mode: 0
Integration Time (sec): 4.000000E-1
Scans to average: 1
Nonlinearity correction enabled: false
Boxcar width: 0
Storing dark spectrum: false
XAxis mode: Wavelengths
Number of Pixels in Spectrum: 1024
>>>>>Begin Spectral Data<<<<<
801.071	2887
801.214	2952
801.356	2861
801.499	2914
801.641	2861
801.783	2918
801.926	3017
802.068	2963
802.211	3024
802.353	3020
802.496	2963
802.638	3028
802.78	3062
802.923	3028
803.065	3013
803.208	2883
803.35	2933
803.492	2922
803.635	2922
803.777	2739
803.919	2838
804.061	3188
804.204	2956
804.346	2895
804.488	2826
804.63	2986
804.773	2849
804.915	2933
805.057	3062
805.199	2944
805.341	2971
805.483	3070
805.626	3009
805.768	2933
805.91	3116
806.052	3138
806.194	2990
806.336	3192
806.478	3024
806.62	2975
806.762	2960
806.904	3066
807.046	3211
807.188	2982
807.33	2933
807.472	3017
807.614	2914
807.756	2990
807.898	2948
808.04	2883
808.182	2929
808.324	2967
808.465	2895
808.607	2880
808.749	2792
808.891	2872
809.033	2956
809.174	2982
809.316	2849
809.458	2922
809.6	2781
809.741	2804
809.883	2769
810.025	2853
810.166	2861
810.308	2864
810.45	2842
810.591	2766
810.733	2781
810.875	2830
811.016	2746
811.158	2743
811.299	2788
811.441	2944
811.582	2895
811.724	2804
811.865	2804
812.007	2887
812.148	2876
812.29	2861
812.431	2895
812.573	2902
812.714	2975
812.855	3028
812.997	3051
813.138	3108
813.279	2994
813.421	2998
813.562	2960
813.703	2872
813.845	2868
813.986	2758
814.127	2746
814.268	2823
814.41	2826
814.551	2788
814.692	2918
814.833	2838
814.974	2887
815.115	2952
815.256	2807
815.397	2788
815.539	2830
815.68	2777
815.821	2815
815.962	2929
816.103	2895
816.244	2857
816.385	2853
816.526	2986
816.666	2891
816.807	2750
816.948	2899
817.089	2929
817.23	2845
817.371	2804
817.512	2743
817.653	2834
817.793	2788
817.934	2891
818.075	2979
818.216	2956
818.356	3009
818.497	2861
818.638	2815
818.778	2807
818.919	2834
819.06	2766
819.2	2902
819.341	2807
819.481	2826
819.622	2910
819.762	3108
819.903	3043
820.043	2883
820.184	2876
820.324	2941
820.465	3028
820.605	3013
820.746	3001
820.886	2899
821.026	3077
821.167	3154
821.307	3287
821.447	3241
821.588	3256
821.728	3218
821.868	3184
822.008	3070
822.149	3169
822.289	3230
822.429	3089
822.569	3081
822.709	3203
822.849	3009
822.99	3036
823.13	3154
823.27	3207
823.41	3081
823.55	3146
823.69	3135
823.83	3207
823.97	3131
824.11	3001
824.25	2971
824.389	3051
824.529	3138
824.669	3066
824.809	3195
824.949	3279
825.089	3169
825.228	3169
825.368	3005
825.508	2975
825.648	2971
825.787	3028
825.927	3009
826.067	2925
826.206	2933
826.346	3043
826.485	3051
826.625	3119
826.765	3283
826.904	3207
827.044	2975
827.183	2929
827.323	2845
827.462	2994
827.601	2876
827.741	2922
827.88	2960
828.02	2849
828.159	2967
828.298	3036
828.437	3104
828.577	3032
828.716	3233
828.855	3058
828.994	2971
829.134	2868
829.273	2876
829.412	2857
829.551	2853
829.69	2842
829.829	2990
829.968	3150
830.107	3013
830.246	3047
830.385	2944
830.524	2872
830.663	2788
830.802	2727
830.941	2674
831.08	2651
831.219	2735
831.357	2785
831.496	2937
831.635	2727
831.774	2651
831.913	2663
832.051	2530
832.19	2579
832.329	2686
832.467	2526
832.606	2499
832.744	2545
832.883	2564
833.022	2583
833.16	2644
833.299	2674
833.437	2693
833.576	2701
833.714	2693
833.852	2758
833.991	2777
834.129	2811
834.267	2796
834.406	2743
834.544	2826
834.682	2887
834.821	2849
834.959	3058
835.097	2902
835.235	3036
835.373	2990
835.511	3013
835.65	2963
835.788	2933
835.926	2864
836.064	2788
836.202	2883
836.34	3077
836.478	3123
836.615	3047
836.753	3138
836.891	3173
837.029	3199
837.167	3066
837.305	3062
837.443	3062
837.58	2937
837.718	3146
837.856	3066
837.993	3043
838.131	3097
838.269	3077
838.406	3058
838.544	3051
838.681	2941
838.819	2922
838.956	2788
839.094	2807
839.231	2887
839.369	3009
839.506	3370
839.643	3173
839.781	3032
839.918	2990
840.055	3051
840.193	3032
840.33	3077
840.467	3138
840.604	3150
840.742	3409
840.879	3066
841.016	3020
841.153	3070
841.29	3336
841.427	3294
841.564	3291
841.701	3294
841.838	3218
841.975	3188
842.112	3195
842.249	3070
842.385	3028
842.522	3256
842.659	3077
842.796	3028
842.933	3085
843.069	3047
843.206	3028
843.343	3154
843.479	3116
843.616	3142
843.752	2880
843.889	2868
844.025	3070
844.162	2883
844.298	3085
844.435	2956
844.571	2937
844.708	3062
844.844	3184
844.98	3222
845.117	3154
845.253	3047
845.389	3009
845.525	3108
845.661	3055
845.798	3017
845.934	3127
846.07	3089
846.206	3188
846.342	3313
846.478	3203
846.614	3062
846.75	3058
846.886	3043
847.022	3233
847.158	3104
847.294	3188
847.429	3253
847.565	3233
847.701	3511
847.837	3013
847.972	3001
848.108	3131
848.244	3097
848.379	2982
848.515	2952
848.65	2922
848.786	2948
848.921	2998
849.057	3093
849.192	3161
849.328	3043
849.463	3093
849.598	3074
849.734	3066
849.869	2975
850.004	2948
850.14	2956
850.275	2899
850.41	2830
850.545	2872
850.68	2895
850.815	2937
850.95	2967
851.085	3165
851.22	3108
851.355	3036
851.49	3020
851.625	3001
851.76	3017
851.895	2925
852.03	2910
852.165	3024
852.299	3112
852.434	3138
852.569	3138
852.703	3157
852.838	3253
852.973	3348
853.107	3359
853.242	3161
853.376	3051
853.511	2982
853.645	3043
853.78	3199
853.914	3127
854.048	3066
854.183	3077
854.317	3131
854.451	3298
854.585	3157
854.72	3085
854.854	3180
854.988	3070
855.122	3074
855.256	2979
855.39	3123
855.524	3237
855.658	3146
855.792	3165
855.926	3165
856.06	3195
856.194	3260
856.327	3138
856.461	3074
856.595	3051
856.729	3089
856.862	3249
856.996	3154
857.13	3214
857.263	3195
857.397	3268
857.53	3135
857.664	3195
857.797	3211
857.931	3249
858.064	3157
858.197	3195
858.331	3142
858.464	3142
858.597	3013
858.731	3097
858.864	3127
858.997	3043
859.13	3180
859.263	3150
859.396	3169
859.529	3104
859.662	3081
859.795	3062
859.928	3161
860.061	3237
860.194	3264
860.327	3135
860.46	3097
860.592	3245
860.725	3233
860.858	3245
860.99	3081
861.123	3039
861.256	3043
861.388	3165
861.521	3880
861.653	3020
861.786	2967
861.918	3001
862.05	3036
862.183	3127
862.315	3112
862.447	3192
862.58	3085
862.712	2937
862.844	2861
862.976	2967
863.108	3001
863.24	3287
863.372	2868
863.504	2960
863.636	2944
863.768	3036
863.9	2944
864.032	2906
864.164	2967
864.296	3020
864.428	3074
864.559	3074
864.691	3066
864.823	3081
864.954	3062
865.086	3024
865.217	2956
865.349	2941
865.48	2986
865.612	3036
865.743	3138
865.875	3001
866.006	2918
866.137	2967
866.269	2971
866.4	2933
866.531	2933
866.662	2883
866.793	2902
866.924	2861
867.055	2960
867.186	2937
867.317	2876
867.448	2804
867.579	2849
867.71	2853
867.841	2853
867.972	2891
868.103	2902
868.233	2922
868.364	2864
868.495	2899
868.625	3066
868.756	3131
868.886	2986
869.017	3009
869.147	3169
869.278	3165
869.408	3066
869.539	2990
869.669	3108
869.799	3009
869.929	3112
870.06	3112
870.19	3287
870.32	3264
870.45	3291
870.58	3382
870.71	3420
870.84	3447
870.97	3321
871.1	3218
871.23	3450
871.36	3431
871.489	3355
871.619	3405
871.749	3428
871.879	3412
872.008	3515
872.138	3329
872.267	3256
872.397	3154
872.526	3077
872.656	3001
872.785	3077
872.915	3256
873.044	3298
873.173	3199
873.303	3260
873.432	3245
873.561	3249
873.69	3123
873.819	3138
873.948	3192
874.077	3108
874.206	3062
874.335	3081
874.464	3195
874.593	3313
874.722	3226
874.851	3405
874.979	3340
875.108	3294
875.237	3142
875.365	3123
875.494	3154
875.623	3218
875.751	3104
875.88	3116
876.008	3165
876.136	3222
876.265	3378
876.393	3526
876.521	3431
876.65	3374
876.778	3317
876.906	3264
877.034	3192
877.162	3241
877.29	3142
877.418	3237
877.546	3279
877.674	3211
877.802	3249
877.93	3195
878.058	3146
878.185	3077
878.313	3230
878.441	3211
878.568	3066
878.696	3169
878.824	3222
878.951	3313
879.079	3409
879.206	3587
879.333	3428
879.461	3340
879.588	3386
879.715	3469
879.842	3576
879.97	3386
880.097	3176
880.224	3146
880.351	3192
880.478	3188
880.605	3176
880.732	3180
880.859	3485
880.986	3310
881.112	3306
881.239	3199
881.366	3051
881.493	3020
881.619	2998
881.746	3058
881.872	3104
881.999	3112
882.125	3165
882.252	3237
882.378	3253
882.505	3428
882.631	3264
882.757	3146
882.883	3218
883.01	3233
883.136	3184
883.262	3074
883.388	3112
883.514	3279
883.64	3363
883.766	3306
883.892	3165
884.018	3195
884.143	3409
884.269	3523
884.395	3195
884.52	3165
884.646	3173
884.772	3116
884.897	3093
885.023	3222
885.148	3348
885.274	3382
885.399	3344
885.524	3279
885.65	3256
885.775	3298
885.9	3272
886.025	3405
886.15	3351
886.275	3268
886.4	3241
886.525	3325
886.65	3283
886.775	3260
886.9	3469
887.025	3629
887.149	3420
887.274	3264
887.399	3188
887.523	3218
887.648	3165
887.773	3233
887.897	3393
888.021	3374
888.146	3306
888.27	3439
888.395	3549
888.519	3409
888.643	3443
888.767	3412
888.891	3298
889.015	3253
889.139	3291
889.263	3256
889.387	3397
889.511	3523
889.635	3447
889.759	3279
889.883	3332
890.006	3355
890.13	3485
890.254	3275
890.377	3332
890.501	3226
890.624	3180
890.748	3298
890.871	3180
890.995	3089
891.118	3017
891.241	3180
891.364	3214
891.488	3332
891.611	3135
891.734	3230
891.857	3275
891.98	3245
892.103	3325
892.226	3233
892.349	3207
892.471	3108
892.594	3241
892.717	3264
892.839	3264
892.962	3279
893.085	3359
893.207	3291
893.33	3154
893.452	3207
893.575	3329
893.697	3279
893.819	3454
893.941	3553
894.064	3428
894.186	3279
894.308	3241
894.43	3420
894.552	3481
894.674	3477
894.796	3249
894.918	3291
895.04	3230
895.161	3420
895.283	3355
895.405	3279
895.526	3348
895.648	3355
895.769	3405
895.891	3443
896.012	3424
896.134	3473
896.255	3462
896.376	3389
896.498	3363
896.619	3439
896.74	3359
896.861	3409
896.982	3648
897.103	3827
897.224	3599
897.345	3485
897.466	3416
897.587	3496
897.708	3648
897.828	3572
897.949	3420
898.07	3287
898.19	3409
898.311	3625
898.431	3477
898.552	3492
898.672	3553
898.792	3591
898.913	3523
899.033	3416
899.153	3245
899.273	3207
899.393	3287
899.513	3291
899.633	3302
899.753	3313
899.873	3291
899.993	3378
900.113	3332
900.232	3378
900.352	3283
900.472	3272
900.591	3241
900.711	3260
900.83	3207
900.95	3412
901.069	3466
901.189	3306
901.308	3192
901.427	3142
901.546	3180
901.665	3298
901.784	3310
901.904	3203
902.023	3127
902.141	3032
902.26	2986
902.379	3146
902.498	3032
902.617	3047
902.735	3192
902.854	3226
902.973	3207
903.091	3055
903.21	3051
903.328	3123
903.446	3077
903.565	3077
903.683	3222
903.801	3135
903.919	3253
904.038	3241
904.156	3214
904.274	3268
904.392	3256
904.51	3325
904.627	3348
904.745	3450
904.863	3488
904.981	3230
905.098	3176
905.216	3176
905.334	3302
905.451	3279
905.569	3313
905.686	3389
905.803	3431
905.921	3291
906.038	3416
906.155	3310
906.272	3230
906.389	3310
906.506	3203
906.623	3237
906.74	3245
906.857	3157
906.974	3253
907.091	3443
907.208	3538
907.324	3458
907.441	3386
907.557	3222
907.674	3241
907.79	3192
907.907	3275
908.023	3386
908.139	3386
908.256	3340
908.372	3344
908.488	3348
908.604	3241
908.72	3226
908.836	3294
908.952	3310
909.068	3291
909.184	3496
909.3	3431
909.415	3454
909.531	3450
909.647	3264
909.762	3268
909.878	3253
909.993	3348
910.108	3340
910.224	3336
910.339	3409
910.454	3348
910.57	3237
910.685	3245
910.8	3595
910.915	3564
911.03	3412
911.145	3249
911.259	3279
911.374	3306
911.489	3211
911.604	3211
911.718	3116
911.833	3154
911.947	3005
912.062	2994
912.176	3165
912.291	3184
912.405	3203
912.519	3428
912.633	3462
912.748	3340
912.862	3291
912.976	3169
913.09	3085
913.204	3116
913.318	3245
913.431	3313
913.545	3332
913.659	3386
913.772	3302
913.886	3184
914	3180
914.113	3329
914.226	3401
914.34	3359
914.453	3218
914.566	3397
914.68	3302
914.793	3351
914.906	3154
915.019	3081
915.132	3081
915.245	3138
915.358	3226
915.47	3199
915.583	3279
915.696	3310
915.809	3351
915.921	3397
916.034	3218
916.146	3237
916.259	3226
916.371	3332
916.483	3359
916.595	3245
916.708	3306
916.82	3336
916.932	3302
917.044	3329
917.156	3329
917.268	3203
917.38	3249
917.491	3260
917.603	3340
917.715	3420
917.826	3435
917.938	3374
918.049	3302
918.161	3424
918.272	3599
918.384	3526
918.495	3481
918.606	3313
918.717	3256
918.828	3389
918.939	3435
919.05	3298
919.161	3348
919.272	3173
919.383	3275
919.494	3507
919.604	3663
919.715	3488
919.826	3412
919.936	3435
920.047	3576
920.157	3534
920.267	3751
920.378	3591
920.488	3530
920.598	3713
920.708	3956
920.818	3804
920.928	3827
921.038	4010
921.148	4036
921.258	3709
921.368	3622
921.477	3614
921.587	3553
921.697	3439
921.806	3610
921.916	3511
922.025	3351
922.134	3355
922.244	3306
922.353	3409
922.462	3256
922.571	3256
922.68	3097
922.789	3074
922.898	3138
923.007	3066
923.116	3218
923.224	3165
923.333	3176
923.442	3085
923.55	3089
923.659	3135
923.767	3199
923.876	3123
923.984	3154
924.092	3097
924.201	3199
924.309	3192
924.417	3214
924.525	3161
924.633	3214
924.741	4192
924.849	3055
924.956	3256
925.064	3127
925.172	3028
925.279	3070
925.387	3195
925.494	3188
925.602	3355
925.709	3306
925.816	3188
925.924	3279
926.031	3325
926.138	3294
926.245	3355
926.352	3230
926.459	3424
926.566	3439
926.673	3302
926.779	3226
926.886	3256
926.993	3142
927.099	3089
927.206	3093
927.312	3100
927.419	3211
927.525	3176
927.631	3260
927.737	3131
927.843	3070
927.95	2998
928.056	3135
928.162	3161
928.267	3211
928.373	3842
928.479	3256
928.585	3039
928.69	3203
928.796	3230
928.901	3138
929.007	3017
929.112	3192
929.218	3135
929.323	3135
929.428	3127
929.533	3317
929.638	3104
929.743	3142
929.848	3249
929.953	3222
930.058	3119
930.163	2982
930.267	3039
930.372	3192
930.477	3028
930.581	3317
930.685	3173
930.79	3058
930.894	3161
930.998	3081
931.103	3260
931.207	2979
931.311	2952
931.415	2925
931.519	2773
931.623	2838
