Data from test_V78500241_1124.txt Node
Date: Fri Mar 25 16:22:59 CST 2022
User: usil
Spectrometer: V785-0024
Trigger mode: 0
Integration Time (sec): 4.000000E-1
Scans to average: 1
Nonlinearity correction enabled: false
Boxcar width: 0
Storing dark spectrum: false
XAxis mode: Wavelengths
Number of Pixels in Spectrum: 1024
>>>>>Begin Spectral Data<<<<<
801.071	2906
801.214	2956
801.356	2872
801.499	2933
801.641	2899
801.783	2906
801.926	3028
802.068	2975
802.211	3009
802.353	3017
802.496	2944
802.638	3005
802.78	3032
802.923	3100
803.065	3020
803.208	2906
803.35	2918
803.492	2952
803.635	2925
803.777	2743
803.919	2845
804.061	3203
804.204	2918
804.346	2933
804.488	2842
804.63	2948
804.773	2868
804.915	2918
805.057	3074
805.199	2906
805.341	2975
805.483	3028
805.626	2975
805.768	2982
805.91	3074
806.052	3077
806.194	3017
806.336	3237
806.478	3017
806.62	2944
806.762	2960
806.904	3058
807.046	3123
807.188	2956
807.33	2910
807.472	2979
807.614	2876
807.756	2990
807.898	2944
808.04	2899
808.182	2982
808.324	2941
808.465	2880
808.607	2857
808.749	2815
808.891	2823
809.033	2937
809.174	2918
809.316	2899
809.458	2891
809.6	2735
809.741	2762
809.883	2735
810.025	2838
810.166	2849
810.308	2815
810.45	2845
810.591	2762
810.733	2785
810.875	2800
811.016	2754
811.158	2739
811.299	2792
811.441	2868
811.582	2906
811.724	2826
811.865	2845
812.007	2910
812.148	2880
812.29	2830
812.431	2880
812.573	2944
812.714	2998
812.855	3047
812.997	3039
813.138	3081
813.279	2979
813.421	2960
813.562	2937
813.703	2861
813.845	2868
813.986	2762
814.127	2724
814.268	2823
814.41	2788
814.551	2804
814.692	2872
814.833	2830
814.974	2891
815.115	2982
815.256	2785
815.397	2807
815.539	2876
815.68	2762
815.821	2777
815.962	2956
816.103	2899
816.244	2868
816.385	2883
816.526	2960
816.666	2918
816.807	2777
816.948	2872
817.089	2910
817.23	2845
817.371	2815
817.512	2766
817.653	2826
817.793	2830
817.934	2868
818.075	2952
818.216	3001
818.356	3001
818.497	2902
818.638	2788
818.778	2800
818.919	2762
819.06	2739
819.2	2861
819.341	2788
819.481	2815
819.622	2914
819.762	3100
819.903	3062
820.043	2918
820.184	2876
820.324	2906
820.465	3028
820.605	2986
820.746	2998
820.886	2937
821.026	3089
821.167	3135
821.307	3279
821.447	3310
821.588	3203
821.728	3203
821.868	3218
822.008	3093
822.149	3150
822.289	3222
822.429	3112
822.569	3104
822.709	3173
822.849	2979
822.99	3051
823.13	3176
823.27	3169
823.41	3104
823.55	3123
823.69	3135
823.83	3165
823.97	3108
824.11	2998
824.25	2979
824.389	3066
824.529	3108
824.669	3051
824.809	3226
824.949	3249
825.089	3230
825.228	3165
825.368	2963
825.508	2933
825.648	2956
825.787	3028
825.927	3005
826.067	2967
826.206	2929
826.346	3036
826.485	3081
826.625	3085
826.765	3241
826.904	3211
827.044	2986
827.183	2906
827.323	2842
827.462	2979
827.601	2895
827.741	2922
827.88	2956
828.02	2868
828.159	2952
828.298	3005
828.437	3100
828.577	3032
828.716	3253
828.855	3055
828.994	2914
829.134	2861
829.273	2929
829.412	2857
829.551	2876
829.69	2857
829.829	2971
829.968	3150
830.107	2994
830.246	3009
830.385	2883
830.524	2861
830.663	2796
830.802	2762
830.941	2640
831.08	2640
831.219	2743
831.357	2792
831.496	2929
831.635	2724
831.774	2617
831.913	2659
832.051	2560
832.19	2564
832.329	2686
832.467	2537
832.606	2476
832.744	2564
832.883	2579
833.022	2594
833.16	2644
833.299	2667
833.437	2712
833.576	2689
833.714	2708
833.852	2746
833.991	2773
834.129	2807
834.267	2804
834.406	2769
834.544	2849
834.682	2845
834.821	2864
834.959	3062
835.097	2876
835.235	3051
835.373	2979
835.511	3017
835.65	2941
835.788	2956
835.926	2830
836.064	2800
836.202	2834
836.34	3066
836.478	3142
836.615	3039
836.753	3100
836.891	3214
837.029	3157
837.167	3131
837.305	3081
837.443	3024
837.58	2971
837.718	3119
837.856	3066
837.993	3051
838.131	3104
838.269	3074
838.406	3127
838.544	3077
838.681	2891
838.819	2895
838.956	2792
839.094	2838
839.231	2876
839.369	2998
839.506	3359
839.643	3237
839.781	2990
839.918	2975
840.055	3043
840.193	3051
840.33	3070
840.467	3089
840.604	3146
840.742	3370
840.879	3055
841.016	3066
841.153	3112
841.29	3302
841.427	3264
841.564	3291
841.701	3291
841.838	3192
841.975	3146
842.112	3214
842.249	3070
842.385	3062
842.522	3283
842.659	3108
842.796	3058
842.933	3142
843.069	3039
843.206	3055
843.343	3176
843.479	3093
843.616	3142
843.752	2880
843.889	2868
844.025	3074
844.162	2849
844.298	3100
844.435	2963
844.571	2872
844.708	3074
844.844	3157
844.98	3237
845.117	3192
845.253	3062
845.389	2998
845.525	3070
845.661	3055
845.798	2982
845.934	3150
846.07	3036
846.206	3222
846.342	3317
846.478	3211
846.614	3085
846.75	3055
846.886	2975
847.022	3203
847.158	3119
847.294	3218
847.429	3214
847.565	3199
847.701	3458
847.837	3032
847.972	3032
848.108	3131
848.244	3108
848.379	3001
848.515	2975
848.65	2895
848.786	2922
848.921	2994
849.057	3055
849.192	3112
849.328	3116
849.463	3097
849.598	3020
849.734	3043
849.869	2971
850.004	2891
850.14	2937
850.275	2906
850.41	2838
850.545	2857
850.68	2929
850.815	2937
850.95	2963
851.085	3230
851.22	3131
851.355	3017
851.49	2979
851.625	2982
851.76	3009
851.895	2891
852.03	2887
852.165	3028
852.299	3085
852.434	3169
852.569	3116
852.703	3142
852.838	3233
852.973	3325
853.107	3317
853.242	3184
853.376	3104
853.511	2952
853.645	3055
853.78	3253
853.914	3127
854.048	3093
854.183	3085
854.317	3112
854.451	3272
854.585	3097
854.72	3093
854.854	3180
854.988	3066
855.122	3074
855.256	2960
855.39	3123
855.524	3230
855.658	3154
855.792	3154
855.926	3154
856.06	3241
856.194	3283
856.327	3150
856.461	3089
856.595	3119
856.729	3119
856.862	3222
856.996	3150
857.13	3226
857.263	3222
857.397	3264
857.53	3135
857.664	3188
857.797	3203
857.931	3230
858.064	3203
858.197	3203
858.331	3112
858.464	3127
858.597	2971
858.731	3127
858.864	3116
858.997	3104
859.13	3127
859.263	3169
859.396	3195
859.529	3043
859.662	3051
859.795	3024
859.928	3123
860.061	3249
860.194	3275
860.327	3138
860.46	3100
860.592	3253
860.725	3253
860.858	3264
860.99	3108
861.123	3085
861.256	3062
861.388	3138
861.521	3732
861.653	3020
861.786	2994
861.918	2979
862.05	3058
862.183	3062
862.315	3100
862.447	3195
862.58	3104
862.712	2963
862.844	2861
862.976	3020
863.108	3005
863.24	3287
863.372	2861
863.504	2941
863.636	2975
863.768	3032
863.9	3017
864.032	2895
864.164	2922
864.296	2975
864.428	3058
864.559	3093
864.691	3074
864.823	3077
864.954	3039
865.086	3017
865.217	3013
865.349	2960
865.48	3001
865.612	2986
865.743	3127
865.875	2979
866.006	2925
866.137	2941
866.269	2952
866.4	2929
866.531	2914
866.662	2868
866.793	2872
866.924	2880
867.055	2952
867.186	2914
867.317	2842
867.448	2845
867.579	2842
867.71	2872
867.841	2842
867.972	2895
868.103	2933
868.233	2944
868.364	2883
868.495	2902
868.625	3051
868.756	3173
868.886	2986
869.017	3005
869.147	3146
869.278	3184
869.408	3077
869.539	3032
869.669	3074
869.799	3077
869.929	3116
870.06	3104
870.19	3321
870.32	3283
870.45	3302
870.58	3344
870.71	3416
870.84	3447
870.97	3298
871.1	3230
871.23	3485
871.36	3420
871.489	3370
871.619	3378
871.749	3374
871.879	3412
872.008	3454
872.138	3340
872.267	3222
872.397	3157
872.526	3108
872.656	2979
872.785	3100
872.915	3214
873.044	3313
873.173	3211
873.303	3245
873.432	3237
873.561	3226
873.69	3154
873.819	3119
873.948	3203
874.077	3077
874.206	3039
874.335	3085
874.464	3230
874.593	3348
874.722	3241
874.851	3397
874.979	3306
875.108	3317
875.237	3203
875.365	3188
875.494	3157
875.623	3230
875.751	3093
875.88	3104
876.008	3195
876.136	3184
876.265	3359
876.393	3485
876.521	3401
876.65	3397
876.778	3283
876.906	3268
877.034	3161
877.162	3214
877.29	3184
877.418	3241
877.546	3226
877.674	3214
877.802	3199
877.93	3207
878.058	3108
878.185	3100
878.313	3161
878.441	3222
878.568	3036
878.696	3108
878.824	3237
878.951	3264
879.079	3416
879.206	3599
879.333	3412
879.461	3332
879.588	3329
879.715	3485
879.842	3591
879.97	3363
880.097	3146
880.224	3154
880.351	3157
880.478	3192
880.605	3207
880.732	3188
880.859	3485
880.986	3249
881.112	3306
881.239	3218
881.366	3100
881.493	3062
881.619	3009
881.746	3047
881.872	3108
881.999	3089
882.125	3214
882.252	3226
882.378	3275
882.505	3447
882.631	3291
882.757	3138
882.883	3192
883.01	3230
883.136	3157
883.262	3097
883.388	3119
883.514	3306
883.64	3363
883.766	3313
883.892	3211
884.018	3268
884.143	3409
884.269	3500
884.395	3214
884.52	3138
884.646	3211
884.772	3093
884.897	3062
885.023	3176
885.148	3306
885.274	3382
885.399	3340
885.524	3279
885.65	3253
885.775	3310
885.9	3313
886.025	3443
886.15	3348
886.275	3306
886.4	3218
886.525	3306
886.65	3268
886.775	3302
886.9	3500
887.025	3625
887.149	3435
887.274	3260
887.399	3195
887.523	3192
887.648	3169
887.773	3184
887.897	3355
888.021	3405
888.146	3268
888.27	3428
888.395	3511
888.519	3382
888.643	3424
888.767	3458
888.891	3275
889.015	3249
889.139	3260
889.263	3218
889.387	3389
889.511	3511
889.635	3443
889.759	3275
889.883	3306
890.006	3389
890.13	3488
890.254	3233
890.377	3283
890.501	3169
890.624	3180
890.748	3291
890.871	3157
890.995	3062
891.118	3070
891.241	3233
891.364	3214
891.488	3272
891.611	3173
891.734	3214
891.857	3325
891.98	3218
892.103	3321
892.226	3283
892.349	3199
892.471	3135
892.594	3203
892.717	3253
892.839	3256
892.962	3279
893.085	3302
893.207	3272
893.33	3161
893.452	3199
893.575	3329
893.697	3268
893.819	3435
893.941	3496
894.064	3431
894.186	3264
894.308	3287
894.43	3428
894.552	3519
894.674	3485
894.796	3275
894.918	3294
895.04	3272
895.161	3447
895.283	3378
895.405	3302
895.526	3378
895.648	3428
895.769	3401
895.891	3405
896.012	3447
896.134	3435
896.255	3447
896.376	3378
896.498	3370
896.619	3420
896.74	3340
896.861	3435
896.982	3663
897.103	3778
897.224	3580
897.345	3538
897.466	3420
897.587	3515
897.708	3637
897.828	3545
897.949	3481
898.07	3298
898.19	3447
898.311	3584
898.431	3450
898.552	3504
898.672	3591
898.792	3568
898.913	3504
899.033	3397
899.153	3249
899.273	3214
899.393	3253
899.513	3317
899.633	3332
899.753	3355
899.873	3332
899.993	3344
900.113	3272
900.232	3378
900.352	3329
900.472	3310
900.591	3222
900.711	3298
900.83	3260
900.95	3420
901.069	3466
901.189	3351
901.308	3131
901.427	3100
901.546	3233
901.665	3317
901.784	3329
901.904	3211
902.023	3142
902.141	3028
902.26	3001
902.379	3070
902.498	3085
902.617	3077
902.735	3184
902.854	3214
902.973	3169
903.091	3017
903.21	3089
903.328	3150
903.446	3112
903.565	3085
903.683	3214
903.801	3119
903.919	3275
904.038	3275
904.156	3161
904.274	3317
904.392	3298
904.51	3302
904.627	3287
904.745	3435
904.863	3507
904.981	3253
905.098	3173
905.216	3211
905.334	3310
905.451	3272
905.569	3306
905.686	3431
905.803	3435
905.921	3283
906.038	3412
906.155	3332
906.272	3256
906.389	3325
906.506	3256
906.623	3233
906.74	3222
906.857	3188
906.974	3256
907.091	3443
907.208	3507
907.324	3466
907.441	3428
907.557	3222
907.674	3253
907.79	3199
907.907	3253
908.023	3367
908.139	3355
908.256	3291
908.372	3386
908.488	3340
908.604	3249
908.72	3241
908.836	3283
908.952	3306
909.068	3344
909.184	3496
909.3	3374
909.415	3469
909.531	3496
909.647	3245
909.762	3283
909.878	3302
909.993	3370
910.108	3363
910.224	3313
910.339	3382
910.454	3306
910.57	3317
910.685	3237
910.8	3587
910.915	3496
911.03	3435
911.145	3298
911.259	3230
911.374	3275
911.489	3256
911.604	3260
911.718	3104
911.833	3188
911.947	3036
912.062	2952
912.176	3188
912.291	3211
912.405	3195
912.519	3450
912.633	3492
912.748	3344
912.862	3279
912.976	3161
913.09	3039
913.204	3161
913.318	3176
913.431	3306
913.545	3302
913.659	3409
913.772	3344
913.886	3226
914	3150
914.113	3363
914.226	3428
914.34	3317
914.453	3207
914.566	3435
914.68	3287
914.793	3294
914.906	3138
915.019	3100
915.132	3070
915.245	3131
915.358	3188
915.47	3237
915.583	3302
915.696	3272
915.809	3378
915.921	3382
916.034	3233
916.146	3268
916.259	3233
916.371	3382
916.483	3340
916.595	3283
916.708	3321
916.82	3325
916.932	3325
917.044	3340
917.156	3359
917.268	3203
917.38	3283
917.491	3317
917.603	3348
917.715	3481
917.826	3447
917.938	3348
918.049	3294
918.161	3424
918.272	3534
918.384	3595
918.495	3481
918.606	3367
918.717	3264
918.828	3359
918.939	3370
919.05	3294
919.161	3367
919.272	3150
919.383	3253
919.494	3507
919.604	3656
919.715	3466
919.826	3359
919.936	3431
920.047	3614
920.157	3530
920.267	3766
920.378	3606
920.488	3561
920.598	3781
920.708	3907
920.818	3770
920.928	3831
921.038	4036
921.148	3960
921.258	3724
921.368	3641
921.477	3614
921.587	3568
921.697	3431
921.806	3599
921.916	3500
922.025	3348
922.134	3367
922.244	3329
922.353	3424
922.462	3275
922.571	3230
922.68	3093
922.789	3097
922.898	3100
923.007	3146
923.116	3195
923.224	3180
923.333	3207
923.442	3081
923.55	3062
923.659	3157
923.767	3199
923.876	3169
923.984	3207
924.092	3123
924.201	3203
924.309	3214
924.417	3180
924.525	3195
924.633	3218
924.741	3953
924.849	3039
924.956	3283
925.064	3112
925.172	3058
925.279	3112
925.387	3207
925.494	3169
925.602	3397
925.709	3332
925.816	3207
925.924	3283
926.031	3405
926.138	3332
926.245	3370
926.352	3237
926.459	3386
926.566	3466
926.673	3336
926.779	3279
926.886	3233
926.993	3184
927.099	3108
927.206	3077
927.312	3154
927.419	3237
927.525	3211
927.631	3272
927.737	3150
927.843	3157
927.95	3028
928.056	3169
928.162	3173
928.267	3256
928.373	3892
928.479	3264
928.585	3017
928.69	3199
928.796	3298
928.901	3165
929.007	3047
929.112	3207
929.218	3192
929.323	3154
929.428	3169
929.533	3363
929.638	3116
929.743	3157
929.848	3233
929.953	3218
930.058	3169
930.163	2998
930.267	3055
930.372	3180
930.477	3032
930.581	3294
930.685	3150
930.79	3085
930.894	3112
930.998	3131
931.103	3260
931.207	2937
931.311	2933
931.415	2918
931.519	2754
931.623	2800
