Data from test_V78500241_1864.txt Node
Date: Fri Mar 25 16:28:06 CST 2022
User: usil
Spectrometer: V785-0024
Trigger mode: 0
Integration Time (sec): 4.000000E-1
Scans to average: 1
Nonlinearity correction enabled: false
Boxcar width: 0
Storing dark spectrum: false
XAxis mode: Wavelengths
Number of Pixels in Spectrum: 1024
>>>>>Begin Spectral Data<<<<<
801.071	2944
801.214	2948
801.356	2952
801.499	2929
801.641	2895
801.783	2910
801.926	3116
802.068	2998
802.211	3032
802.353	3089
802.496	3009
802.638	3062
802.78	3093
802.923	3108
803.065	3039
803.208	2925
803.35	2937
803.492	2971
803.635	2967
803.777	2781
803.919	2861
804.061	3195
804.204	2979
804.346	2952
804.488	2876
804.63	3020
804.773	2925
804.915	2918
805.057	3085
805.199	2925
805.341	3028
805.483	3051
805.626	3047
805.768	2998
805.91	3070
806.052	3127
806.194	3051
806.336	3275
806.478	3024
806.62	2963
806.762	3009
806.904	3081
807.046	3165
807.188	3005
807.33	2941
807.472	2986
807.614	2933
807.756	2975
807.898	2899
808.04	2918
808.182	3013
808.324	2944
808.465	2872
808.607	2864
808.749	2815
808.891	2864
809.033	2986
809.174	2979
809.316	2906
809.458	2914
809.6	2781
809.741	2796
809.883	2781
810.025	2861
810.166	2864
810.308	2853
810.45	2876
810.591	2750
810.733	2758
810.875	2868
811.016	2769
811.158	2754
811.299	2830
811.441	2925
811.582	2914
811.724	2864
811.865	2842
812.007	2952
812.148	2902
812.29	2880
812.431	2883
812.573	2944
812.714	2967
812.855	3062
812.997	3058
813.138	3135
813.279	3039
813.421	3017
813.562	2967
813.703	2902
813.845	2902
813.986	2800
814.127	2762
814.268	2830
814.41	2838
814.551	2811
814.692	2906
814.833	2880
814.974	2910
815.115	2960
815.256	2887
815.397	2838
815.539	2880
815.68	2785
815.821	2792
815.962	2925
816.103	2937
816.244	2906
816.385	2883
816.526	2998
816.666	2960
816.807	2762
816.948	2937
817.089	2925
817.23	2864
817.371	2777
817.512	2826
817.653	2880
817.793	2845
817.934	2883
818.075	2967
818.216	2979
818.356	3017
818.497	2910
818.638	2838
818.778	2834
818.919	2845
819.06	2758
819.2	2914
819.341	2773
819.481	2807
819.622	2929
819.762	3089
819.903	3077
820.043	2918
820.184	2918
820.324	2918
820.465	3047
820.605	3024
820.746	3070
820.886	2960
821.026	3131
821.167	3173
821.307	3287
821.447	3317
821.588	3260
821.728	3195
821.868	3226
822.008	3108
822.149	3184
822.289	3237
822.429	3108
822.569	3100
822.709	3173
822.849	3070
822.99	3062
823.13	3199
823.27	3233
823.41	3157
823.55	3157
823.69	3157
823.83	3203
823.97	3131
824.11	2986
824.25	3020
824.389	3089
824.529	3119
824.669	3085
824.809	3226
824.949	3294
825.089	3222
825.228	3176
825.368	3020
825.508	2986
825.648	2963
825.787	3039
825.927	3047
826.067	2956
826.206	2967
826.346	3058
826.485	3100
826.625	3108
826.765	3275
826.904	3199
827.044	3013
827.183	2929
827.323	2918
827.462	3013
827.601	2941
827.741	2952
827.88	2948
828.02	2876
828.159	2960
828.298	3047
828.437	3093
828.577	3039
828.716	3272
828.855	3051
828.994	2971
829.134	2880
829.273	2952
829.412	2899
829.551	2868
829.69	2906
829.829	2982
829.968	3146
830.107	3009
830.246	3039
830.385	2941
830.524	2899
830.663	2826
830.802	2758
830.941	2686
831.08	2629
831.219	2796
831.357	2754
831.496	2963
831.635	2769
831.774	2655
831.913	2640
832.051	2564
832.19	2613
832.329	2686
832.467	2530
832.606	2507
832.744	2594
832.883	2590
833.022	2610
833.16	2682
833.299	2682
833.437	2731
833.576	2693
833.714	2727
833.852	2727
833.991	2758
834.129	2872
834.267	2834
834.406	2788
834.544	2849
834.682	2887
834.821	2868
834.959	3085
835.097	2899
835.235	3104
835.373	3005
835.511	3028
835.65	2937
835.788	2925
835.926	2861
836.064	2826
836.202	2853
836.34	3081
836.478	3142
836.615	3036
836.753	3157
836.891	3214
837.029	3176
837.167	3108
837.305	3081
837.443	3047
837.58	2994
837.718	3154
837.856	3081
837.993	3032
838.131	3161
838.269	3112
838.406	3085
838.544	3058
838.681	2933
838.819	2933
838.956	2788
839.094	2857
839.231	2975
839.369	3039
839.506	3367
839.643	3233
839.781	3032
839.918	2925
840.055	3051
840.193	3032
840.33	3074
840.467	3104
840.604	3146
840.742	3416
840.879	3047
841.016	3058
841.153	3112
841.29	3348
841.427	3302
841.564	3291
841.701	3313
841.838	3192
841.975	3150
842.112	3241
842.249	3070
842.385	3039
842.522	3275
842.659	3097
842.796	3051
842.933	3123
843.069	3028
843.206	3043
843.343	3176
843.479	3142
843.616	3131
843.752	2910
843.889	2872
844.025	3097
844.162	2902
844.298	3093
844.435	2914
844.571	2937
844.708	3085
844.844	3207
844.98	3230
845.117	3176
845.253	3017
845.389	2979
845.525	3123
845.661	3146
845.798	3032
845.934	3146
846.07	3024
846.206	3211
846.342	3321
846.478	3207
846.614	3135
846.75	3081
846.886	3028
847.022	3203
847.158	3146
847.294	3256
847.429	3298
847.565	3211
847.701	3523
847.837	3051
847.972	3001
848.108	3169
848.244	3127
848.379	2994
848.515	2944
848.65	2937
848.786	2956
848.921	3005
849.057	3142
849.192	3165
849.328	3062
849.463	3097
849.598	3104
849.734	3036
849.869	2956
850.004	2963
850.14	2975
850.275	2963
850.41	2807
850.545	2891
850.68	2933
850.815	2963
850.95	2937
851.085	3184
851.22	3138
851.355	3013
851.49	3032
851.625	3009
851.76	3020
851.895	2960
852.03	2918
852.165	3001
852.299	3127
852.434	3154
852.569	3161
852.703	3184
852.838	3272
852.973	3283
853.107	3275
853.242	3161
853.376	3074
853.511	2944
853.645	3036
853.78	3226
853.914	3150
854.048	3123
854.183	3081
854.317	3142
854.451	3313
854.585	3131
854.72	3108
854.854	3211
854.988	3051
855.122	3104
855.256	2937
855.39	3058
855.524	3211
855.658	3173
855.792	3192
855.926	3211
856.06	3211
856.194	3253
856.327	3176
856.461	3081
856.595	3074
856.729	3077
856.862	3230
856.996	3165
857.13	3230
857.263	3233
857.397	3264
857.53	3100
857.664	3150
857.797	3233
857.931	3256
858.064	3176
858.197	3233
858.331	3150
858.464	3108
858.597	3013
858.731	3093
858.864	3146
858.997	3066
859.13	3142
859.263	3142
859.396	3173
859.529	3081
859.662	3062
859.795	3055
859.928	3150
860.061	3253
860.194	3313
860.327	3154
860.46	3089
860.592	3233
860.725	3306
860.858	3218
860.99	3066
861.123	3032
861.256	3070
861.388	3146
861.521	3850
861.653	3028
861.786	3009
861.918	2982
862.05	3077
862.183	3123
862.315	3165
862.447	3161
862.58	3100
862.712	2960
862.844	2880
862.976	3009
863.108	3028
863.24	3416
863.372	2872
863.504	2952
863.636	2941
863.768	3036
863.9	2956
864.032	2883
864.164	2933
864.296	2963
864.428	3077
864.559	3097
864.691	3074
864.823	3093
864.954	3036
865.086	3028
865.217	2979
865.349	2963
865.48	2967
865.612	3001
865.743	3154
865.875	2979
866.006	2944
866.137	2975
866.269	2944
866.4	2933
866.531	2937
866.662	2899
866.793	2883
866.924	2906
867.055	2975
867.186	2922
867.317	2834
867.448	2807
867.579	2857
867.71	2845
867.841	2823
867.972	2937
868.103	2918
868.233	2857
868.364	2872
868.495	2925
868.625	3089
868.756	3211
868.886	2994
869.017	3066
869.147	3119
869.278	3150
869.408	3028
869.539	2994
869.669	3119
869.799	3020
869.929	3150
870.06	3104
870.19	3325
870.32	3272
870.45	3336
870.58	3348
870.71	3424
870.84	3428
870.97	3275
871.1	3264
871.23	3462
871.36	3454
871.489	3332
871.619	3374
871.749	3393
871.879	3420
872.008	3477
872.138	3325
872.267	3291
872.397	3157
872.526	3085
872.656	3043
872.785	3055
872.915	3218
873.044	3317
873.173	3249
873.303	3237
873.432	3241
873.561	3214
873.69	3180
873.819	3176
873.948	3211
874.077	3112
874.206	3043
874.335	3070
874.464	3249
874.593	3340
874.722	3226
874.851	3370
874.979	3378
875.108	3317
875.237	3184
875.365	3169
875.494	3146
875.623	3218
875.751	3097
875.88	3085
876.008	3211
876.136	3245
876.265	3355
876.393	3481
876.521	3428
876.65	3363
876.778	3329
876.906	3245
877.034	3176
877.162	3199
877.29	3199
877.418	3241
877.546	3226
877.674	3253
877.802	3230
877.93	3203
878.058	3154
878.185	3112
878.313	3180
878.441	3203
878.568	3047
878.696	3150
878.824	3226
878.951	3310
879.079	3481
879.206	3622
879.333	3412
879.461	3325
879.588	3348
879.715	3496
879.842	3568
879.97	3344
880.097	3157
880.224	3116
880.351	3199
880.478	3218
880.605	3184
880.732	3169
880.859	3466
880.986	3310
881.112	3359
881.239	3222
881.366	3127
881.493	3020
881.619	3001
881.746	3100
881.872	3112
881.999	3089
882.125	3154
882.252	3253
882.378	3313
882.505	3477
882.631	3283
882.757	3127
882.883	3180
883.01	3237
883.136	3176
883.262	3089
883.388	3108
883.514	3355
883.64	3378
883.766	3317
883.892	3176
884.018	3218
884.143	3420
884.269	3526
884.395	3218
884.52	3184
884.646	3184
884.772	3157
884.897	3089
885.023	3207
885.148	3279
885.274	3386
885.399	3363
885.524	3313
885.65	3241
885.775	3287
885.9	3260
886.025	3424
886.15	3367
886.275	3306
886.4	3214
886.525	3313
886.65	3214
886.775	3268
886.9	3488
887.025	3629
887.149	3393
887.274	3226
887.399	3188
887.523	3203
887.648	3165
887.773	3233
887.897	3401
888.021	3439
888.146	3283
888.27	3435
888.395	3485
888.519	3435
888.643	3412
888.767	3435
888.891	3283
889.015	3214
889.139	3283
889.263	3237
889.387	3393
889.511	3519
889.635	3431
889.759	3294
889.883	3268
890.006	3359
890.13	3496
890.254	3245
890.377	3268
890.501	3192
890.624	3173
890.748	3359
890.871	3112
890.995	3150
891.118	3085
891.241	3180
891.364	3222
891.488	3268
891.611	3180
891.734	3249
891.857	3287
891.98	3268
892.103	3317
892.226	3226
892.349	3214
892.471	3112
892.594	3233
892.717	3256
892.839	3245
892.962	3253
893.085	3351
893.207	3344
893.33	3142
893.452	3195
893.575	3374
893.697	3275
893.819	3485
893.941	3477
894.064	3405
894.186	3268
894.308	3268
894.43	3431
894.552	3568
894.674	3481
894.796	3275
894.918	3298
895.04	3294
895.161	3424
895.283	3412
895.405	3291
895.526	3374
895.648	3412
895.769	3466
895.891	3443
896.012	3466
896.134	3439
896.255	3428
896.376	3401
896.498	3370
896.619	3450
896.74	3317
896.861	3409
896.982	3614
897.103	3808
897.224	3625
897.345	3454
897.466	3439
897.587	3466
897.708	3572
897.828	3515
897.949	3424
898.07	3321
898.19	3428
898.311	3591
898.431	3443
898.552	3469
898.672	3576
898.792	3599
898.913	3523
899.033	3382
899.153	3268
899.273	3222
899.393	3302
899.513	3306
899.633	3321
899.753	3351
899.873	3310
899.993	3378
900.113	3332
900.232	3351
900.352	3370
900.472	3268
900.591	3199
900.711	3283
900.83	3249
900.95	3416
901.069	3477
901.189	3355
901.308	3154
901.427	3085
901.546	3173
901.665	3256
901.784	3329
901.904	3233
902.023	3150
902.141	3009
902.26	3005
902.379	3119
902.498	3081
902.617	3047
902.735	3214
902.854	3222
902.973	3184
903.091	3043
903.21	3062
903.328	3142
903.446	3100
903.565	3066
903.683	3241
903.801	3157
903.919	3233
904.038	3283
904.156	3154
904.274	3294
904.392	3233
904.51	3256
904.627	3317
904.745	3488
904.863	3526
904.981	3268
905.098	3173
905.216	3241
905.334	3340
905.451	3310
905.569	3279
905.686	3458
905.803	3416
905.921	3317
906.038	3443
906.155	3344
906.272	3249
906.389	3348
906.506	3233
906.623	3294
906.74	3279
906.857	3203
906.974	3211
907.091	3439
907.208	3568
907.324	3473
907.441	3412
907.557	3237
907.674	3241
907.79	3203
907.907	3268
908.023	3367
908.139	3355
908.256	3332
908.372	3359
908.488	3336
908.604	3253
908.72	3245
908.836	3287
908.952	3260
909.068	3336
909.184	3466
909.3	3374
909.415	3431
909.531	3511
909.647	3256
909.762	3294
909.878	3253
909.993	3359
910.108	3355
910.224	3306
910.339	3450
910.454	3317
910.57	3279
910.685	3233
910.8	3580
910.915	3534
911.03	3435
911.145	3279
911.259	3226
911.374	3340
911.489	3245
911.604	3195
911.718	3104
911.833	3150
911.947	2986
912.062	3017
912.176	3184
912.291	3161
912.405	3173
912.519	3416
912.633	3469
912.748	3313
912.862	3272
912.976	3192
913.09	3058
913.204	3119
913.318	3207
913.431	3348
913.545	3321
913.659	3393
913.772	3336
913.886	3214
914	3230
914.113	3336
914.226	3412
914.34	3355
914.453	3233
914.566	3443
914.68	3272
914.793	3321
914.906	3157
915.019	3123
915.132	3051
915.245	3180
915.358	3199
915.47	3222
915.583	3207
915.696	3279
915.809	3382
915.921	3397
916.034	3237
916.146	3264
916.259	3188
916.371	3397
916.483	3374
916.595	3264
916.708	3313
916.82	3344
916.932	3374
917.044	3370
917.156	3336
917.268	3230
917.38	3317
917.491	3325
917.603	3359
917.715	3462
917.826	3473
917.938	3409
918.049	3237
918.161	3431
918.272	3568
918.384	3557
918.495	3458
918.606	3302
918.717	3294
918.828	3393
918.939	3397
919.05	3310
919.161	3359
919.272	3173
919.383	3264
919.494	3488
919.604	3690
919.715	3466
919.826	3450
919.936	3488
920.047	3591
920.157	3511
920.267	3740
920.378	3625
920.488	3603
920.598	3793
920.708	3972
920.818	3831
920.928	3827
921.038	3983
921.148	3926
921.258	3698
921.368	3614
921.477	3530
921.587	3599
921.697	3435
921.806	3622
921.916	3488
922.025	3344
922.134	3382
922.244	3310
922.353	3435
922.462	3253
922.571	3226
922.68	3119
922.789	3070
922.898	3157
923.007	3112
923.116	3195
923.224	3176
923.333	3192
923.442	3081
923.55	3093
923.659	3146
923.767	3176
923.876	3108
923.984	3222
924.092	3116
924.201	3184
924.309	3230
924.417	3272
924.525	3150
924.633	3253
924.741	3979
924.849	3058
924.956	3264
925.064	3089
925.172	3032
925.279	3097
925.387	3146
925.494	3237
925.602	3355
925.709	3355
925.816	3161
925.924	3291
926.031	3351
926.138	3306
926.245	3321
926.352	3241
926.459	3405
926.566	3450
926.673	3340
926.779	3287
926.886	3253
926.993	3112
927.099	3123
927.206	3097
927.312	3135
927.419	3207
927.525	3214
927.631	3291
927.737	3131
927.843	3127
927.95	3024
928.056	3165
928.162	3176
928.267	3233
928.373	3740
928.479	3279
928.585	3058
928.69	3241
928.796	3253
928.901	3154
929.007	3051
929.112	3199
929.218	3176
929.323	3169
929.428	3116
929.533	3283
929.638	3070
929.743	3154
929.848	3260
929.953	3233
930.058	3116
930.163	3001
930.267	3028
930.372	3169
930.477	3032
930.581	3317
930.685	3157
930.79	3081
930.894	3142
930.998	3119
931.103	3279
931.207	2967
931.311	2933
931.415	2914
931.519	2724
931.623	2804
