Data from test_V78500241_1287.txt Node
Date: Fri Mar 25 16:24:07 CST 2022
User: usil
Spectrometer: V785-0024
Trigger mode: 0
Integration Time (sec): 4.000000E-1
Scans to average: 1
Nonlinearity correction enabled: false
Boxcar width: 0
Storing dark spectrum: false
XAxis mode: Wavelengths
Number of Pixels in Spectrum: 1024
>>>>>Begin Spectral Data<<<<<
801.071	2906
801.214	2937
801.356	2876
801.499	2895
801.641	2864
801.783	2914
801.926	3028
802.068	2979
802.211	3017
802.353	3055
802.496	2971
802.638	3009
802.78	3039
802.923	3039
803.065	3001
803.208	2902
803.35	2922
803.492	2948
803.635	2902
803.777	2800
803.919	2849
804.061	3195
804.204	2941
804.346	2933
804.488	2845
804.63	3009
804.773	2880
804.915	2944
805.057	3081
805.199	2948
805.341	2994
805.483	3043
805.626	2975
805.768	2967
805.91	3104
806.052	3123
806.194	3017
806.336	3214
806.478	3024
806.62	2937
806.762	2956
806.904	3066
807.046	3173
807.188	3001
807.33	2895
807.472	3017
807.614	2891
807.756	2990
807.898	2937
808.04	2883
808.182	2975
808.324	2956
808.465	2880
808.607	2922
808.749	2853
808.891	2811
809.033	2982
809.174	2956
809.316	2883
809.458	2861
809.6	2807
809.741	2781
809.883	2785
810.025	2849
810.166	2861
810.308	2807
810.45	2861
810.591	2777
810.733	2758
810.875	2804
811.016	2766
811.158	2758
811.299	2796
811.441	2895
811.582	2899
811.724	2834
811.865	2830
812.007	2899
812.148	2891
812.29	2853
812.431	2883
812.573	2899
812.714	2979
812.855	3013
812.997	3039
813.138	3131
813.279	3017
813.421	2990
813.562	2956
813.703	2864
813.845	2868
813.986	2796
814.127	2743
814.268	2826
814.41	2857
814.551	2815
814.692	2857
814.833	2845
814.974	2876
815.115	2941
815.256	2853
815.397	2800
815.539	2853
815.68	2815
815.821	2819
815.962	2933
816.103	2952
816.244	2880
816.385	2872
816.526	2994
816.666	2902
816.807	2731
816.948	2864
817.089	2948
817.23	2857
817.371	2777
817.512	2792
817.653	2845
817.793	2800
817.934	2876
818.075	2998
818.216	2982
818.356	3020
818.497	2883
818.638	2819
818.778	2826
818.919	2804
819.06	2762
819.2	2876
819.341	2845
819.481	2819
819.622	2937
819.762	3135
819.903	3020
820.043	2941
820.184	2891
820.324	2906
820.465	3001
820.605	3043
820.746	3013
820.886	2914
821.026	3085
821.167	3150
821.307	3237
821.447	3260
821.588	3222
821.728	3211
821.868	3199
822.008	3039
822.149	3195
822.289	3214
822.429	3108
822.569	3085
822.709	3184
822.849	3017
822.99	3074
823.13	3146
823.27	3188
823.41	3112
823.55	3154
823.69	3165
823.83	3176
823.97	3108
824.11	3055
824.25	2986
824.389	3077
824.529	3089
824.669	3058
824.809	3211
824.949	3226
825.089	3214
825.228	3173
825.368	2982
825.508	2914
825.648	2982
825.787	3032
825.927	2986
826.067	2975
826.206	2971
826.346	3062
826.485	3051
826.625	3127
826.765	3245
826.904	3199
827.044	2990
827.183	2944
827.323	2845
827.462	2982
827.601	2891
827.741	2914
827.88	2941
828.02	2857
828.159	2963
828.298	3001
828.437	3077
828.577	3062
828.716	3241
828.855	3043
828.994	2887
829.134	2842
829.273	2910
829.412	2849
829.551	2891
829.69	2902
829.829	2990
829.968	3119
830.107	2986
830.246	3043
830.385	2883
830.524	2864
830.663	2792
830.802	2708
830.941	2651
831.08	2655
831.219	2758
831.357	2735
831.496	2975
831.635	2735
831.774	2663
831.913	2655
832.051	2552
832.19	2552
832.329	2667
832.467	2518
832.606	2495
832.744	2556
832.883	2564
833.022	2594
833.16	2659
833.299	2705
833.437	2693
833.576	2689
833.714	2739
833.852	2731
833.991	2735
834.129	2826
834.267	2838
834.406	2807
834.544	2861
834.682	2883
834.821	2861
834.959	3066
835.097	2880
835.235	3009
835.373	2979
835.511	3001
835.65	2937
835.788	2952
835.926	2842
836.064	2819
836.202	2826
836.34	3119
836.478	3135
836.615	3043
836.753	3123
836.891	3188
837.029	3119
837.167	3097
837.305	3039
837.443	3020
837.58	2979
837.718	3112
837.856	3047
837.993	3074
838.131	3123
838.269	3112
838.406	3127
838.544	3051
838.681	2918
838.819	2880
838.956	2785
839.094	2823
839.231	2906
839.369	3017
839.506	3344
839.643	3199
839.781	3013
839.918	2979
840.055	3066
840.193	3028
840.33	3104
840.467	3066
840.604	3154
840.742	3382
840.879	3051
841.016	3051
841.153	3077
841.29	3321
841.427	3283
841.564	3283
841.701	3298
841.838	3203
841.975	3154
842.112	3233
842.249	3093
842.385	3005
842.522	3211
842.659	3051
842.796	3032
842.933	3085
843.069	3066
843.206	3039
843.343	3199
843.479	3123
843.616	3157
843.752	2872
843.889	2887
844.025	3062
844.162	2902
844.298	3043
844.435	2960
844.571	2925
844.708	3062
844.844	3184
844.98	3218
845.117	3184
845.253	3028
845.389	2979
845.525	3085
845.661	3070
845.798	2994
845.934	3131
846.07	3055
846.206	3184
846.342	3306
846.478	3192
846.614	3062
846.75	2998
846.886	3005
847.022	3260
847.158	3123
847.294	3207
847.429	3268
847.565	3199
847.701	3485
847.837	3017
847.972	3001
848.108	3146
848.244	3131
848.379	2986
848.515	2910
848.65	2941
848.786	3001
848.921	3013
849.057	3077
849.192	3173
849.328	3036
849.463	3123
849.598	3093
849.734	3036
849.869	2960
850.004	2929
850.14	2956
850.275	2876
850.41	2815
850.545	2883
850.68	2925
850.815	2963
850.95	2925
851.085	3169
851.22	3097
851.355	3032
851.49	3005
851.625	3017
851.76	3020
851.895	2906
852.03	2899
852.165	3058
852.299	3138
852.434	3195
852.569	3123
852.703	3184
852.838	3211
852.973	3310
853.107	3294
853.242	3157
853.376	3074
853.511	2922
853.645	3036
853.78	3237
853.914	3097
854.048	3119
854.183	3055
854.317	3135
854.451	3260
854.585	3146
854.72	3081
854.854	3195
854.988	3017
855.122	3077
855.256	2979
855.39	3123
855.524	3218
855.658	3192
855.792	3123
855.926	3192
856.06	3226
856.194	3241
856.327	3131
856.461	3039
856.595	3089
856.729	3089
856.862	3203
856.996	3146
857.13	3176
857.263	3192
857.397	3264
857.53	3104
857.664	3233
857.797	3218
857.931	3253
858.064	3157
858.197	3214
858.331	3142
858.464	3081
858.597	2971
858.731	3089
858.864	3108
858.997	3104
859.13	3176
859.263	3176
859.396	3195
859.529	3081
859.662	3055
859.795	3051
859.928	3157
860.061	3260
860.194	3230
860.327	3116
860.46	3093
860.592	3211
860.725	3222
860.858	3222
860.99	3074
861.123	3047
861.256	3055
861.388	3169
861.521	3709
861.653	3020
861.786	3005
861.918	3013
862.05	3039
862.183	3104
862.315	3131
862.447	3184
862.58	3081
862.712	2937
862.844	2876
862.976	2982
863.108	3028
863.24	3268
863.372	2853
863.504	2986
863.636	2948
863.768	3017
863.9	2998
864.032	2883
864.164	2937
864.296	3062
864.428	3039
864.559	3097
864.691	3058
864.823	3058
864.954	3009
865.086	3036
865.217	3009
865.349	2925
865.48	2986
865.612	3047
865.743	3138
865.875	2979
866.006	2967
866.137	2941
866.269	2918
866.4	2925
866.531	2906
866.662	2899
866.793	2876
866.924	2883
867.055	2998
867.186	2891
867.317	2868
867.448	2823
867.579	2861
867.71	2788
867.841	2830
867.972	2925
868.103	2895
868.233	2887
868.364	2872
868.495	2880
868.625	3077
868.756	3135
868.886	2963
869.017	2998
869.147	3169
869.278	3154
869.408	3036
869.539	3047
869.669	3051
869.799	3055
869.929	3116
870.06	3123
870.19	3340
870.32	3294
870.45	3298
870.58	3321
870.71	3412
870.84	3443
870.97	3272
871.1	3245
871.23	3507
871.36	3405
871.489	3370
871.619	3336
871.749	3393
871.879	3374
872.008	3485
872.138	3363
872.267	3275
872.397	3157
872.526	3093
872.656	3013
872.785	3070
872.915	3218
873.044	3264
873.173	3214
873.303	3264
873.432	3222
873.561	3241
873.69	3203
873.819	3146
873.948	3218
874.077	3100
874.206	3013
874.335	3070
874.464	3173
874.593	3325
874.722	3241
874.851	3370
874.979	3363
875.108	3279
875.237	3157
875.365	3116
875.494	3173
875.623	3237
875.751	3119
875.88	3142
876.008	3192
876.136	3203
876.265	3378
876.393	3511
876.521	3424
876.65	3363
876.778	3321
876.906	3264
877.034	3207
877.162	3249
877.29	3188
877.418	3256
877.546	3233
877.674	3256
877.802	3233
877.93	3237
878.058	3135
878.185	3104
878.313	3173
878.441	3207
878.568	3039
878.696	3119
878.824	3264
878.951	3249
879.079	3412
879.206	3576
879.333	3447
879.461	3336
879.588	3325
879.715	3488
879.842	3614
879.97	3401
880.097	3173
880.224	3161
880.351	3176
880.478	3188
880.605	3180
880.732	3207
880.859	3466
880.986	3310
881.112	3313
881.239	3207
881.366	3093
881.493	3043
881.619	2956
881.746	3032
881.872	3062
881.999	3112
882.125	3157
882.252	3249
882.378	3302
882.505	3435
882.631	3256
882.757	3173
882.883	3230
883.01	3230
883.136	3180
883.262	3081
883.388	3131
883.514	3329
883.64	3363
883.766	3329
883.892	3195
884.018	3245
884.143	3450
884.269	3545
884.395	3173
884.52	3142
884.646	3146
884.772	3085
884.897	3051
885.023	3195
885.148	3294
885.274	3367
885.399	3389
885.524	3279
885.65	3264
885.775	3306
885.9	3272
886.025	3420
886.15	3348
886.275	3291
886.4	3237
886.525	3272
886.65	3283
886.775	3283
886.9	3481
887.025	3637
887.149	3386
887.274	3245
887.399	3195
887.523	3222
887.648	3176
887.773	3165
887.897	3374
888.021	3420
888.146	3264
888.27	3435
888.395	3526
888.519	3435
888.643	3450
888.767	3458
888.891	3336
889.015	3237
889.139	3279
889.263	3226
889.387	3367
889.511	3538
889.635	3443
889.759	3291
889.883	3256
890.006	3397
890.13	3469
890.254	3264
890.377	3340
890.501	3214
890.624	3157
890.748	3283
890.871	3180
890.995	3108
891.118	3074
891.241	3207
891.364	3169
891.488	3317
891.611	3154
891.734	3184
891.857	3279
891.98	3222
892.103	3329
892.226	3291
892.349	3207
892.471	3116
892.594	3245
892.717	3294
892.839	3241
892.962	3233
893.085	3348
893.207	3306
893.33	3131
893.452	3180
893.575	3329
893.697	3237
893.819	3424
893.941	3481
894.064	3439
894.186	3264
894.308	3260
894.43	3462
894.552	3549
894.674	3416
894.796	3214
894.918	3298
895.04	3264
895.161	3389
895.283	3401
895.405	3321
895.526	3344
895.648	3416
895.769	3412
895.891	3416
896.012	3466
896.134	3450
896.255	3389
896.376	3393
896.498	3355
896.619	3439
896.74	3321
896.861	3397
896.982	3679
897.103	3857
897.224	3557
897.345	3477
897.466	3409
897.587	3462
897.708	3633
897.828	3538
897.949	3420
898.07	3344
898.19	3351
898.311	3610
898.431	3450
898.552	3500
898.672	3610
898.792	3561
898.913	3530
899.033	3409
899.153	3245
899.273	3264
899.393	3253
899.513	3291
899.633	3325
899.753	3332
899.873	3283
899.993	3374
900.113	3291
900.232	3374
900.352	3325
900.472	3310
900.591	3195
900.711	3272
900.83	3226
900.95	3416
901.069	3515
901.189	3363
901.308	3157
901.427	3112
901.546	3157
901.665	3291
901.784	3325
901.904	3222
902.023	3127
902.141	3009
902.26	2998
902.379	3108
902.498	3100
902.617	3074
902.735	3203
902.854	3214
902.973	3157
903.091	3009
903.21	3077
903.328	3138
903.446	3100
903.565	3108
903.683	3192
903.801	3142
903.919	3256
904.038	3298
904.156	3180
904.274	3306
904.392	3264
904.51	3291
904.627	3329
904.745	3435
904.863	3504
904.981	3222
905.098	3154
905.216	3230
905.334	3260
905.451	3268
905.569	3317
905.686	3378
905.803	3485
905.921	3313
906.038	3409
906.155	3393
906.272	3275
906.389	3340
906.506	3199
906.623	3256
906.74	3313
906.857	3203
906.974	3268
907.091	3439
907.208	3538
907.324	3477
907.441	3389
907.557	3233
907.674	3233
907.79	3180
907.907	3275
908.023	3367
908.139	3359
908.256	3237
908.372	3370
908.488	3329
908.604	3260
908.72	3222
908.836	3283
908.952	3294
909.068	3340
909.184	3477
909.3	3409
909.415	3485
909.531	3450
909.647	3260
909.762	3272
909.878	3287
909.993	3367
910.108	3378
910.224	3363
910.339	3393
910.454	3340
910.57	3279
910.685	3241
910.8	3591
910.915	3500
911.03	3416
911.145	3253
911.259	3264
911.374	3302
911.489	3203
911.604	3226
911.718	3138
911.833	3142
911.947	3051
912.062	2982
912.176	3161
912.291	3184
912.405	3192
912.519	3435
912.633	3416
912.748	3351
912.862	3279
912.976	3146
913.09	3051
913.204	3142
913.318	3222
913.431	3351
913.545	3298
913.659	3412
913.772	3321
913.886	3253
914	3207
914.113	3359
914.226	3382
914.34	3367
914.453	3203
914.566	3397
914.68	3287
914.793	3279
914.906	3142
915.019	3119
915.132	3077
915.245	3150
915.358	3180
915.47	3237
915.583	3245
915.696	3272
915.809	3412
915.921	3420
916.034	3241
916.146	3256
916.259	3207
916.371	3409
916.483	3313
916.595	3253
916.708	3302
916.82	3294
916.932	3359
917.044	3332
917.156	3317
917.268	3245
917.38	3291
917.491	3283
917.603	3382
917.715	3454
917.826	3439
917.938	3393
918.049	3245
918.161	3431
918.272	3572
918.384	3584
918.495	3526
918.606	3351
918.717	3249
918.828	3340
918.939	3389
919.05	3279
919.161	3386
919.272	3154
919.383	3272
919.494	3435
919.604	3644
919.715	3530
919.826	3378
919.936	3473
920.047	3542
920.157	3523
920.267	3759
920.378	3614
920.488	3557
920.598	3816
920.708	3953
920.818	3812
920.928	3861
921.038	4002
921.148	4029
921.258	3686
921.368	3614
921.477	3610
921.587	3530
921.697	3462
921.806	3656
921.916	3511
922.025	3370
922.134	3378
922.244	3348
922.353	3412
922.462	3260
922.571	3260
922.68	3131
922.789	3074
922.898	3108
923.007	3074
923.116	3207
923.224	3165
923.333	3203
923.442	3116
923.55	3089
923.659	3131
923.767	3233
923.876	3112
923.984	3249
924.092	3108
924.201	3161
924.309	3241
924.417	3222
924.525	3184
924.633	3226
924.741	3968
924.849	3020
924.956	3268
925.064	3104
925.172	3009
925.279	3100
925.387	3195
925.494	3214
925.602	3378
925.709	3298
925.816	3214
925.924	3321
926.031	3412
926.138	3302
926.245	3405
926.352	3272
926.459	3405
926.566	3469
926.673	3306
926.779	3226
926.886	3264
926.993	3165
927.099	3154
927.206	3108
927.312	3100
927.419	3222
927.525	3161
927.631	3230
927.737	3154
927.843	3097
927.95	3001
928.056	3138
928.162	3161
928.267	3260
928.373	3880
928.479	3268
928.585	3058
928.69	3241
928.796	3245
928.901	3169
929.007	3055
929.112	3199
929.218	3199
929.323	3173
929.428	3127
929.533	3340
929.638	3116
929.743	3154
929.848	3245
929.953	3222
930.058	3146
930.163	2990
930.267	3058
930.372	3173
930.477	3036
930.581	3325
930.685	3161
930.79	3013
930.894	3119
930.998	3077
931.103	3272
931.207	2918
931.311	2933
931.415	2933
931.519	2800
931.623	2807
