Data from test_V78500241_426.txt Node
Date: Fri Mar 25 16:18:09 CST 2022
User: usil
Spectrometer: V785-0024
Trigger mode: 0
Integration Time (sec): 4.000000E-1
Scans to average: 1
Nonlinearity correction enabled: false
Boxcar width: 0
Storing dark spectrum: false
XAxis mode: Wavelengths
Number of Pixels in Spectrum: 1024
>>>>>Begin Spectral Data<<<<<
801.071	2891
801.214	2956
801.356	2853
801.499	2872
801.641	2842
801.783	2887
801.926	3024
802.068	2948
802.211	3001
802.353	3062
802.496	2948
802.638	2986
802.78	3051
802.923	3070
803.065	2982
803.208	2895
803.35	2910
803.492	2906
803.635	2937
803.777	2758
803.919	2864
804.061	3192
804.204	2956
804.346	2868
804.488	2792
804.63	3009
804.773	2883
804.915	2914
805.057	3077
805.199	2910
805.341	2960
805.483	3055
805.626	3032
805.768	2933
805.91	3055
806.052	3108
806.194	3028
806.336	3184
806.478	3020
806.62	2937
806.762	2986
806.904	3074
807.046	3161
807.188	2990
807.33	2876
807.472	2994
807.614	2914
807.756	2975
807.898	2933
808.04	2864
808.182	2967
808.324	2963
808.465	2899
808.607	2849
808.749	2815
808.891	2823
809.033	2994
809.174	2952
809.316	2883
809.458	2876
809.6	2781
809.741	2777
809.883	2735
810.025	2868
810.166	2876
810.308	2815
810.45	2830
810.591	2788
810.733	2781
810.875	2819
811.016	2777
811.158	2746
811.299	2788
811.441	2906
811.582	2883
811.724	2826
811.865	2785
812.007	2906
812.148	2849
812.29	2830
812.431	2853
812.573	2937
812.714	2986
812.855	3032
812.997	3036
813.138	3138
813.279	2998
813.421	2952
813.562	2941
813.703	2872
813.845	2902
813.986	2796
814.127	2712
814.268	2804
814.41	2834
814.551	2754
814.692	2838
814.833	2830
814.974	2876
815.115	2937
815.256	2819
815.397	2823
815.539	2895
815.68	2758
815.821	2800
815.962	2960
816.103	2922
816.244	2857
816.385	2899
816.526	2967
816.666	2906
816.807	2754
816.948	2899
817.089	2899
817.23	2883
817.371	2800
817.512	2804
817.653	2861
817.793	2845
817.934	2918
818.075	2979
818.216	2971
818.356	3001
818.497	2906
818.638	2800
818.778	2823
818.919	2762
819.06	2781
819.2	2887
819.341	2796
819.481	2830
819.622	2941
819.762	3077
819.903	3047
820.043	2948
820.184	2887
820.324	2895
820.465	3020
820.605	3020
820.746	3005
820.886	2941
821.026	3112
821.167	3161
821.307	3253
821.447	3230
821.588	3245
821.728	3176
821.868	3230
822.008	3062
822.149	3180
822.289	3230
822.429	3100
822.569	3093
822.709	3161
822.849	3032
822.99	3055
823.13	3146
823.27	3218
823.41	3074
823.55	3119
823.69	3116
823.83	3188
823.97	3074
824.11	2994
824.25	3028
824.389	3062
824.529	3142
824.669	3062
824.809	3233
824.949	3249
825.089	3195
825.228	3142
825.368	2963
825.508	2925
825.648	3001
825.787	2990
825.927	3047
826.067	2960
826.206	2944
826.346	3058
826.485	3077
826.625	3100
826.765	3211
826.904	3211
827.044	2979
827.183	2922
827.323	2853
827.462	2986
827.601	2906
827.741	2922
827.88	2948
828.02	2861
828.159	2933
828.298	3077
828.437	3097
828.577	3024
828.716	3253
828.855	3032
828.994	2899
829.134	2872
829.273	2922
829.412	2887
829.551	2849
829.69	2876
829.829	3020
829.968	3119
830.107	2986
830.246	3013
830.385	2944
830.524	2853
830.663	2830
830.802	2750
830.941	2636
831.08	2632
831.219	2777
831.357	2746
831.496	2937
831.635	2720
831.774	2632
831.913	2655
832.051	2526
832.19	2587
832.329	2682
832.467	2522
832.606	2457
832.744	2583
832.883	2590
833.022	2613
833.16	2632
833.299	2667
833.437	2731
833.576	2686
833.714	2720
833.852	2716
833.991	2766
834.129	2834
834.267	2769
834.406	2807
834.544	2861
834.682	2842
834.821	2872
834.959	3020
835.097	2845
835.235	3058
835.373	3005
835.511	2990
835.65	2941
835.788	2963
835.926	2804
836.064	2815
836.202	2838
836.34	3051
836.478	3165
836.615	3047
836.753	3161
836.891	3161
837.029	3131
837.167	3077
837.305	3081
837.443	3036
837.58	2944
837.718	3104
837.856	3070
837.993	3013
838.131	3093
838.269	3127
838.406	3074
838.544	3055
838.681	2929
838.819	2925
838.956	2815
839.094	2804
839.231	2868
839.369	3024
839.506	3348
839.643	3203
839.781	2975
839.918	2948
840.055	3039
840.193	3051
840.33	3074
840.467	3112
840.604	3119
840.742	3382
840.879	3066
841.016	3051
841.153	3077
841.29	3336
841.427	3329
841.564	3275
841.701	3294
841.838	3195
841.975	3180
842.112	3253
842.249	3058
842.385	3024
842.522	3241
842.659	3058
842.796	3077
842.933	3097
843.069	3043
843.206	3024
843.343	3195
843.479	3081
843.616	3165
843.752	2906
843.889	2845
844.025	3104
844.162	2861
844.298	3089
844.435	2960
844.571	2902
844.708	3066
844.844	3161
844.98	3253
845.117	3157
845.253	3009
845.389	3005
845.525	3093
845.661	3112
845.798	2998
845.934	3116
846.07	3051
846.206	3203
846.342	3294
846.478	3249
846.614	3074
846.75	3032
846.886	3024
847.022	3222
847.158	3154
847.294	3184
847.429	3241
847.565	3195
847.701	3488
847.837	3009
847.972	2975
848.108	3135
848.244	3138
848.379	2971
848.515	2910
848.65	2914
848.786	2902
848.921	2982
849.057	3093
849.192	3142
849.328	3043
849.463	3074
849.598	3024
849.734	2998
849.869	3001
850.004	2929
850.14	2986
850.275	2887
850.41	2838
850.545	2864
850.68	2918
850.815	2952
850.95	2960
851.085	3169
851.22	3097
851.355	3024
851.49	2998
851.625	2975
851.76	3001
851.895	2944
852.03	2922
852.165	3036
852.299	3108
852.434	3233
852.569	3131
852.703	3180
852.838	3230
852.973	3302
853.107	3336
853.242	3116
853.376	3062
853.511	2971
853.645	3020
853.78	3188
853.914	3112
854.048	3127
854.183	3070
854.317	3116
854.451	3264
854.585	3116
854.72	3051
854.854	3241
854.988	3036
855.122	3051
855.256	2990
855.39	3089
855.524	3222
855.658	3176
855.792	3173
855.926	3188
856.06	3226
856.194	3249
856.327	3112
856.461	3085
856.595	3058
856.729	3051
856.862	3169
856.996	3173
857.13	3195
857.263	3214
857.397	3245
857.53	3146
857.664	3176
857.797	3256
857.931	3237
858.064	3173
858.197	3233
858.331	3131
858.464	3093
858.597	3001
858.731	3100
858.864	3077
858.997	3116
859.13	3161
859.263	3146
859.396	3173
859.529	3066
859.662	3036
859.795	3051
859.928	3104
860.061	3233
860.194	3264
860.327	3123
860.46	3123
860.592	3230
860.725	3249
860.858	3272
860.99	3112
861.123	3070
861.256	3013
861.388	3146
861.521	3934
861.653	2986
861.786	2963
861.918	3005
862.05	3024
862.183	3112
862.315	3100
862.447	3184
862.58	3055
862.712	2899
862.844	2895
862.976	3009
863.108	3001
863.24	3409
863.372	2902
863.504	2971
863.636	2941
863.768	3017
863.9	2941
864.032	2929
864.164	2925
864.296	3020
864.428	3062
864.559	3070
864.691	3074
864.823	3047
864.954	2990
865.086	3051
865.217	3009
865.349	2929
865.48	2967
865.612	3001
865.743	3108
865.875	2971
866.006	2952
866.137	2967
866.269	2956
866.4	2895
866.531	2922
866.662	2891
866.793	2918
866.924	2880
867.055	2986
867.186	2925
867.317	2876
867.448	2845
867.579	2838
867.71	2883
867.841	2800
867.972	2891
868.103	2849
868.233	2861
868.364	2838
868.495	2868
868.625	3089
868.756	3173
868.886	2967
869.017	2986
869.147	3161
869.278	3142
869.408	3013
869.539	3017
869.669	3070
869.799	3055
869.929	3138
870.06	3081
870.19	3317
870.32	3237
870.45	3313
870.58	3355
870.71	3416
870.84	3458
870.97	3279
871.1	3214
871.23	3462
871.36	3458
871.489	3389
871.619	3386
871.749	3431
871.879	3382
872.008	3485
872.138	3332
872.267	3283
872.397	3161
872.526	3074
872.656	3005
872.785	3104
872.915	3245
873.044	3283
873.173	3180
873.303	3241
873.432	3230
873.561	3222
873.69	3154
873.819	3119
873.948	3195
874.077	3070
874.206	3039
874.335	3047
874.464	3218
874.593	3370
874.722	3218
874.851	3405
874.979	3340
875.108	3279
875.237	3161
875.365	3123
875.494	3157
875.623	3222
875.751	3058
875.88	3112
876.008	3146
876.136	3218
876.265	3355
876.393	3492
876.521	3424
876.65	3325
876.778	3294
876.906	3233
877.034	3199
877.162	3211
877.29	3169
877.418	3218
877.546	3256
877.674	3195
877.802	3199
877.93	3241
878.058	3146
878.185	3100
878.313	3192
878.441	3199
878.568	3043
878.696	3119
878.824	3256
878.951	3222
879.079	3420
879.206	3564
879.333	3397
879.461	3336
879.588	3378
879.715	3431
879.842	3595
879.97	3329
880.097	3131
880.224	3131
880.351	3184
880.478	3226
880.605	3207
880.732	3157
880.859	3473
880.986	3275
881.112	3291
881.239	3180
881.366	3081
881.493	3039
881.619	2963
881.746	3055
881.872	3043
881.999	3062
882.125	3135
882.252	3249
882.378	3268
882.505	3412
882.631	3230
882.757	3146
882.883	3233
883.01	3173
883.136	3150
883.262	3051
883.388	3089
883.514	3344
883.64	3389
883.766	3298
883.892	3138
884.018	3230
884.143	3370
884.269	3507
884.395	3207
884.52	3169
884.646	3165
884.772	3093
884.897	3112
885.023	3188
885.148	3332
885.274	3370
885.399	3355
885.524	3268
885.65	3264
885.775	3291
885.9	3272
886.025	3443
886.15	3386
886.275	3310
886.4	3272
886.525	3317
886.65	3260
886.775	3249
886.9	3473
887.025	3641
887.149	3401
887.274	3268
887.399	3218
887.523	3237
887.648	3188
887.773	3218
887.897	3378
888.021	3424
888.146	3329
888.27	3473
888.395	3561
888.519	3428
888.643	3469
888.767	3485
888.891	3374
889.015	3264
889.139	3355
889.263	3287
889.387	3454
889.511	3526
889.635	3504
889.759	3298
889.883	3344
890.006	3386
890.13	3526
890.254	3294
890.377	3348
890.501	3249
890.624	3214
890.748	3329
890.871	3230
890.995	3104
891.118	3112
891.241	3226
891.364	3287
891.488	3370
891.611	3222
891.734	3302
891.857	3332
891.98	3287
892.103	3405
892.226	3306
892.349	3249
892.471	3146
892.594	3302
892.717	3351
892.839	3291
892.962	3340
893.085	3428
893.207	3340
893.33	3199
893.452	3249
893.575	3401
893.697	3268
893.819	3515
893.941	3526
894.064	3515
894.186	3291
894.308	3329
894.43	3454
894.552	3603
894.674	3488
894.796	3344
894.918	3332
895.04	3245
895.161	3447
895.283	3431
895.405	3348
895.526	3382
895.648	3485
895.769	3443
895.891	3462
896.012	3488
896.134	3492
896.255	3473
896.376	3424
896.498	3409
896.619	3500
896.74	3393
896.861	3435
896.982	3720
897.103	3876
897.224	3656
897.345	3580
897.466	3481
897.587	3542
897.708	3686
897.828	3584
897.949	3458
898.07	3351
898.19	3428
898.311	3641
898.431	3473
898.552	3542
898.672	3603
898.792	3633
898.913	3557
899.033	3435
899.153	3241
899.273	3279
899.393	3294
899.513	3359
899.633	3370
899.753	3370
899.873	3329
899.993	3431
900.113	3378
900.232	3416
900.352	3374
900.472	3317
900.591	3245
900.711	3329
900.83	3302
900.95	3420
901.069	3549
901.189	3363
901.308	3226
901.427	3161
901.546	3249
901.665	3317
901.784	3355
901.904	3245
902.023	3150
902.141	3077
902.26	3009
902.379	3161
902.498	3108
902.617	3081
902.735	3207
902.854	3237
902.973	3249
903.091	3066
903.21	3093
903.328	3176
903.446	3119
903.565	3097
903.683	3195
903.801	3123
903.919	3264
904.038	3329
904.156	3180
904.274	3329
904.392	3302
904.51	3340
904.627	3374
904.745	3409
904.863	3488
904.981	3272
905.098	3188
905.216	3279
905.334	3317
905.451	3298
905.569	3306
905.686	3477
905.803	3469
905.921	3264
906.038	3458
906.155	3382
906.272	3302
906.389	3340
906.506	3260
906.623	3260
906.74	3283
906.857	3173
906.974	3321
907.091	3469
907.208	3584
907.324	3511
907.441	3420
907.557	3275
907.674	3279
907.79	3214
907.907	3310
908.023	3397
908.139	3393
908.256	3325
908.372	3405
908.488	3348
908.604	3329
908.72	3272
908.836	3294
908.952	3321
909.068	3378
909.184	3450
909.3	3405
909.415	3523
909.531	3466
909.647	3321
909.762	3370
909.878	3241
909.993	3389
910.108	3351
910.224	3363
910.339	3435
910.454	3367
910.57	3344
910.685	3260
910.8	3595
910.915	3538
911.03	3447
911.145	3321
911.259	3279
911.374	3351
911.489	3260
911.604	3245
911.718	3176
911.833	3192
911.947	3077
912.062	2994
912.176	3184
912.291	3233
912.405	3249
912.519	3405
912.633	3500
912.748	3355
912.862	3329
912.976	3226
913.09	3077
913.204	3161
913.318	3272
913.431	3389
913.545	3351
913.659	3416
913.772	3386
913.886	3260
914	3249
914.113	3363
914.226	3450
914.34	3389
914.453	3256
914.566	3405
914.68	3310
914.793	3351
914.906	3173
915.019	3176
915.132	3119
915.245	3188
915.358	3291
915.47	3264
915.583	3283
915.696	3367
915.809	3458
915.921	3416
916.034	3294
916.146	3241
916.259	3268
916.371	3416
916.483	3389
916.595	3332
916.708	3340
916.82	3393
916.932	3367
917.044	3389
917.156	3374
917.268	3294
917.38	3294
917.491	3344
917.603	3363
917.715	3492
917.826	3507
917.938	3424
918.049	3291
918.161	3450
918.272	3614
918.384	3584
918.495	3496
918.606	3344
918.717	3332
918.828	3401
918.939	3428
919.05	3317
919.161	3428
919.272	3195
919.383	3321
919.494	3538
919.604	3682
919.715	3492
919.826	3450
919.936	3443
920.047	3603
920.157	3576
920.267	3755
920.378	3675
920.488	3572
920.598	3804
920.708	3972
920.818	3857
920.928	3838
921.038	4074
921.148	4036
921.258	3694
921.368	3637
921.477	3625
921.587	3576
921.697	3500
921.806	3671
921.916	3538
922.025	3389
922.134	3367
922.244	3416
922.353	3428
922.462	3275
922.571	3218
922.68	3135
922.789	3085
922.898	3123
923.007	3116
923.116	3260
923.224	3195
923.333	3192
923.442	3116
923.55	3131
923.659	3169
923.767	3253
923.876	3157
923.984	3260
924.092	3104
924.201	3230
924.309	3241
924.417	3272
924.525	3214
924.633	3256
924.741	4147
924.849	3081
924.956	3302
925.064	3119
925.172	3051
925.279	3123
925.387	3203
925.494	3222
925.602	3363
925.709	3359
925.816	3211
925.924	3359
926.031	3382
926.138	3344
926.245	3397
926.352	3249
926.459	3443
926.566	3492
926.673	3336
926.779	3298
926.886	3310
926.993	3184
927.099	3131
927.206	3165
927.312	3135
927.419	3256
927.525	3211
927.631	3298
927.737	3154
927.843	3150
927.95	3047
928.056	3169
928.162	3203
928.267	3233
928.373	3869
928.479	3313
928.585	3112
928.69	3230
928.796	3287
928.901	3176
929.007	3043
929.112	3226
929.218	3218
929.323	3146
929.428	3180
929.533	3287
929.638	3116
929.743	3138
929.848	3268
929.953	3222
930.058	3180
930.163	3024
930.267	3097
930.372	3214
930.477	3062
930.581	3351
930.685	3176
930.79	3077
930.894	3138
930.998	3116
931.103	3332
931.207	2963
931.311	2944
931.415	2960
931.519	2800
931.623	2838
