Data from test_V78500241_1093.txt Node
Date: Fri Mar 25 16:22:46 CST 2022
User: usil
Spectrometer: V785-0024
Trigger mode: 0
Integration Time (sec): 4.000000E-1
Scans to average: 1
Nonlinearity correction enabled: false
Boxcar width: 0
Storing dark spectrum: false
XAxis mode: Wavelengths
Number of Pixels in Spectrum: 1024
>>>>>Begin Spectral Data<<<<<
801.071	2956
801.214	2925
801.356	2872
801.499	2910
801.641	2880
801.783	2929
801.926	3055
802.068	2960
802.211	3017
802.353	3036
802.496	2956
802.638	3013
802.78	3032
802.923	3070
803.065	3020
803.208	2906
803.35	2922
803.492	2960
803.635	2960
803.777	2819
803.919	2876
804.061	3226
804.204	2971
804.346	2910
804.488	2902
804.63	2990
804.773	2910
804.915	2952
805.057	3104
805.199	2998
805.341	2990
805.483	3089
805.626	3062
805.768	2998
805.91	3135
806.052	3161
806.194	3089
806.336	3275
806.478	3062
806.62	2960
806.762	3036
806.904	3097
807.046	3169
807.188	3005
807.33	2929
807.472	3020
807.614	2937
807.756	3001
807.898	2979
808.04	2952
808.182	3005
808.324	2998
808.465	2899
808.607	2902
808.749	2861
808.891	2849
809.033	2971
809.174	3009
809.316	2902
809.458	2922
809.6	2807
809.741	2762
809.883	2838
810.025	2883
810.166	2906
810.308	2864
810.45	2899
810.591	2800
810.733	2796
810.875	2857
811.016	2834
811.158	2788
811.299	2830
811.441	2941
811.582	2914
811.724	2834
811.865	2887
812.007	2925
812.148	2922
812.29	2887
812.431	2944
812.573	2956
812.714	3017
812.855	3081
812.997	3077
813.138	3161
813.279	3051
813.421	3009
813.562	2990
813.703	2891
813.845	2941
813.986	2815
814.127	2804
814.268	2872
814.41	2895
814.551	2857
814.692	2887
814.833	2815
814.974	2910
815.115	3005
815.256	2857
815.397	2849
815.539	2925
815.68	2811
815.821	2819
815.962	2971
816.103	2986
816.244	2891
816.385	2864
816.526	2986
816.666	2956
816.807	2800
816.948	2948
817.089	2933
817.23	2910
817.371	2849
817.512	2826
817.653	2922
817.793	2845
817.934	2899
818.075	3024
818.216	3013
818.356	3032
818.497	2883
818.638	2800
818.778	2861
818.919	2823
819.06	2746
819.2	2948
819.341	2796
819.481	2845
819.622	3001
819.762	3119
819.903	3066
820.043	2956
820.184	2922
820.324	2902
820.465	3017
820.605	3032
820.746	3051
820.886	2963
821.026	3112
821.167	3203
821.307	3287
821.447	3279
821.588	3203
821.728	3241
821.868	3218
822.008	3108
822.149	3188
822.289	3272
822.429	3131
822.569	3104
822.709	3233
822.849	3081
822.99	3097
823.13	3169
823.27	3199
823.41	3123
823.55	3173
823.69	3195
823.83	3199
823.97	3116
824.11	3032
824.25	3039
824.389	3070
824.529	3157
824.669	3077
824.809	3195
824.949	3272
825.089	3260
825.228	3180
825.368	3024
825.508	3013
825.648	3001
825.787	3020
825.927	3043
826.067	2998
826.206	3005
826.346	3112
826.485	3112
826.625	3131
826.765	3306
826.904	3226
827.044	3055
827.183	2956
827.323	2891
827.462	3024
827.601	2925
827.741	2918
827.88	2982
828.02	2861
828.159	2963
828.298	3097
828.437	3119
828.577	3058
828.716	3264
828.855	3074
828.994	2929
829.134	2929
829.273	2925
829.412	2891
829.551	2864
829.69	2914
829.829	2994
829.968	3176
830.107	3047
830.246	3066
830.385	2925
830.524	2906
830.663	2826
830.802	2750
830.941	2667
831.08	2701
831.219	2788
831.357	2792
831.496	2963
831.635	2712
831.774	2663
831.913	2674
832.051	2587
832.19	2629
832.329	2689
832.467	2560
832.606	2503
832.744	2602
832.883	2610
833.022	2621
833.16	2648
833.299	2712
833.437	2693
833.576	2754
833.714	2739
833.852	2746
833.991	2766
834.129	2864
834.267	2864
834.406	2792
834.544	2880
834.682	2922
834.821	2899
834.959	3093
835.097	2887
835.235	3085
835.373	3005
835.511	3028
835.65	2998
835.788	2967
835.926	2838
836.064	2838
836.202	2883
836.34	3123
836.478	3138
836.615	3066
836.753	3157
836.891	3222
837.029	3184
837.167	3119
837.305	3100
837.443	3047
837.58	2998
837.718	3169
837.856	3066
837.993	3047
838.131	3157
838.269	3135
838.406	3100
838.544	3112
838.681	2925
838.819	2982
838.956	2838
839.094	2845
839.231	2914
839.369	3043
839.506	3412
839.643	3218
839.781	3039
839.918	2975
840.055	3074
840.193	3055
840.33	3055
840.467	3119
840.604	3184
840.742	3435
840.879	3112
841.016	3066
841.153	3089
841.29	3359
841.427	3313
841.564	3253
841.701	3310
841.838	3237
841.975	3222
842.112	3226
842.249	3097
842.385	3123
842.522	3245
842.659	3150
842.796	3066
842.933	3112
843.069	3074
843.206	3039
843.343	3214
843.479	3093
843.616	3138
843.752	2952
843.889	2906
844.025	3097
844.162	2883
844.298	3089
844.435	2922
844.571	2922
844.708	3077
844.844	3192
844.98	3249
845.117	3230
845.253	3089
845.389	2994
845.525	3108
845.661	3150
845.798	3013
845.934	3161
846.07	3058
846.206	3218
846.342	3336
846.478	3264
846.614	3138
846.75	3066
846.886	3070
847.022	3256
847.158	3195
847.294	3222
847.429	3279
847.565	3241
847.701	3481
847.837	3024
847.972	3039
848.108	3173
848.244	3146
848.379	2998
848.515	2975
848.65	2960
848.786	2990
848.921	3001
849.057	3135
849.192	3135
849.328	3077
849.463	3150
849.598	3081
849.734	3093
849.869	2960
850.004	2925
850.14	2948
850.275	2944
850.41	2864
850.545	2899
850.68	2941
850.815	2956
850.95	3001
851.085	3146
851.22	3100
851.355	3039
851.49	3028
851.625	2986
851.76	3062
851.895	2925
852.03	2895
852.165	3036
852.299	3135
852.434	3195
852.569	3154
852.703	3195
852.838	3275
852.973	3409
853.107	3321
853.242	3180
853.376	3108
853.511	3028
853.645	3077
853.78	3256
853.914	3157
854.048	3131
854.183	3146
854.317	3157
854.451	3313
854.585	3138
854.72	3077
854.854	3253
854.988	3051
855.122	3077
855.256	2990
855.39	3131
855.524	3233
855.658	3207
855.792	3154
855.926	3180
856.06	3214
856.194	3294
856.327	3165
856.461	3047
856.595	3085
856.729	3123
856.862	3256
856.996	3192
857.13	3222
857.263	3203
857.397	3256
857.53	3146
857.664	3211
857.797	3264
857.931	3275
858.064	3184
858.197	3218
858.331	3173
858.464	3119
858.597	3039
858.731	3108
858.864	3112
858.997	3066
859.13	3173
859.263	3165
859.396	3211
859.529	3112
859.662	3066
859.795	3051
859.928	3146
860.061	3298
860.194	3336
860.327	3146
860.46	3104
860.592	3233
860.725	3249
860.858	3253
860.99	3131
861.123	3051
861.256	3093
861.388	3165
861.521	3690
861.653	3051
861.786	2990
861.918	3020
862.05	3081
862.183	3074
862.315	3176
862.447	3157
862.58	3085
862.712	2956
862.844	2922
862.976	3009
863.108	2990
863.24	3443
863.372	2906
863.504	2998
863.636	2975
863.768	3039
863.9	3005
864.032	2899
864.164	2952
864.296	3013
864.428	3097
864.559	3146
864.691	3097
864.823	3058
864.954	3032
865.086	3066
865.217	3001
865.349	2937
865.48	2979
865.612	3051
865.743	3146
865.875	3020
866.006	3001
866.137	2960
866.269	2994
866.4	2937
866.531	2948
866.662	2902
866.793	2929
866.924	2922
867.055	3017
867.186	2990
867.317	2902
867.448	2868
867.579	2906
867.71	2849
867.841	2838
867.972	2933
868.103	2902
868.233	2910
868.364	2864
868.495	2914
868.625	3066
868.756	3150
868.886	2960
869.017	3062
869.147	3157
869.278	3176
869.408	3043
869.539	3051
869.669	3070
869.799	3081
869.929	3184
870.06	3123
870.19	3348
870.32	3287
870.45	3317
870.58	3355
870.71	3466
870.84	3412
870.97	3306
871.1	3222
871.23	3523
871.36	3469
871.489	3332
871.619	3431
871.749	3431
871.879	3439
872.008	3462
872.138	3363
872.267	3306
872.397	3127
872.526	3112
872.656	3028
872.785	3093
872.915	3249
873.044	3287
873.173	3211
873.303	3260
873.432	3249
873.561	3253
873.69	3188
873.819	3161
873.948	3211
874.077	3108
874.206	3024
874.335	3108
874.464	3207
874.593	3344
874.722	3245
874.851	3428
874.979	3321
875.108	3283
875.237	3173
875.365	3169
875.494	3169
875.623	3253
875.751	3104
875.88	3097
876.008	3173
876.136	3245
876.265	3397
876.393	3481
876.521	3435
876.65	3374
876.778	3351
876.906	3256
877.034	3195
877.162	3214
877.29	3176
877.418	3291
877.546	3222
877.674	3264
877.802	3222
877.93	3256
878.058	3192
878.185	3089
878.313	3195
878.441	3233
878.568	3074
878.696	3157
878.824	3226
878.951	3348
879.079	3477
879.206	3656
879.333	3439
879.461	3348
879.588	3363
879.715	3492
879.842	3587
879.97	3393
880.097	3154
880.224	3142
880.351	3192
880.478	3214
880.605	3203
880.732	3146
880.859	3492
880.986	3298
881.112	3336
881.239	3233
881.366	3127
881.493	3043
881.619	3013
881.746	3062
881.872	3154
881.999	3119
882.125	3146
882.252	3275
882.378	3291
882.505	3424
882.631	3275
882.757	3165
882.883	3218
883.01	3218
883.136	3173
883.262	3112
883.388	3097
883.514	3332
883.64	3389
883.766	3279
883.892	3211
884.018	3249
884.143	3393
884.269	3545
884.395	3226
884.52	3173
884.646	3195
884.772	3161
884.897	3131
885.023	3207
885.148	3344
885.274	3405
885.399	3370
885.524	3279
885.65	3253
885.775	3340
885.9	3237
886.025	3443
886.15	3389
886.275	3256
886.4	3253
886.525	3298
886.65	3306
886.775	3260
886.9	3485
887.025	3641
887.149	3355
887.274	3317
887.399	3176
887.523	3161
887.648	3230
887.773	3192
887.897	3344
888.021	3382
888.146	3310
888.27	3420
888.395	3519
888.519	3420
888.643	3454
888.767	3466
888.891	3321
889.015	3253
889.139	3325
889.263	3279
889.387	3389
889.511	3515
889.635	3454
889.759	3302
889.883	3317
890.006	3386
890.13	3454
890.254	3253
890.377	3336
890.501	3199
890.624	3157
890.748	3302
890.871	3188
890.995	3100
891.118	3028
891.241	3176
891.364	3180
891.488	3336
891.611	3192
891.734	3233
891.857	3241
891.98	3249
892.103	3332
892.226	3283
892.349	3207
892.471	3142
892.594	3207
892.717	3283
892.839	3264
892.962	3294
893.085	3336
893.207	3336
893.33	3123
893.452	3237
893.575	3336
893.697	3268
893.819	3519
893.941	3534
894.064	3435
894.186	3272
894.308	3256
894.43	3405
894.552	3530
894.674	3488
894.796	3268
894.918	3329
895.04	3306
895.161	3420
895.283	3389
895.405	3283
895.526	3374
895.648	3428
895.769	3416
895.891	3450
896.012	3466
896.134	3481
896.255	3374
896.376	3405
896.498	3378
896.619	3447
896.74	3279
896.861	3428
896.982	3648
897.103	3846
897.224	3625
897.345	3507
897.466	3428
897.587	3481
897.708	3603
897.828	3542
897.949	3450
898.07	3340
898.19	3397
898.311	3625
898.431	3469
898.552	3526
898.672	3614
898.792	3572
898.913	3507
899.033	3386
899.153	3298
899.273	3233
899.393	3283
899.513	3321
899.633	3291
899.753	3313
899.873	3287
899.993	3378
900.113	3310
900.232	3401
900.352	3351
900.472	3283
900.591	3199
900.711	3298
900.83	3241
900.95	3416
901.069	3473
901.189	3332
901.308	3154
901.427	3108
901.546	3214
901.665	3260
901.784	3344
901.904	3218
902.023	3138
902.141	3024
902.26	2994
902.379	3119
902.498	3089
902.617	3055
902.735	3214
902.854	3207
902.973	3207
903.091	3032
903.21	3070
903.328	3116
903.446	3119
903.565	3123
903.683	3173
903.801	3097
903.919	3275
904.038	3302
904.156	3135
904.274	3294
904.392	3260
904.51	3268
904.627	3306
904.745	3443
904.863	3557
904.981	3237
905.098	3214
905.216	3214
905.334	3298
905.451	3298
905.569	3329
905.686	3397
905.803	3538
905.921	3260
906.038	3401
906.155	3348
906.272	3260
906.389	3351
906.506	3214
906.623	3241
906.74	3264
906.857	3188
906.974	3253
907.091	3428
907.208	3530
907.324	3515
907.441	3412
907.557	3222
907.674	3249
907.79	3165
907.907	3298
908.023	3348
908.139	3332
908.256	3336
908.372	3386
908.488	3321
908.604	3253
908.72	3203
908.836	3291
908.952	3241
909.068	3317
909.184	3477
909.3	3359
909.415	3511
909.531	3458
909.647	3268
909.762	3313
909.878	3272
909.993	3344
910.108	3340
910.224	3336
910.339	3378
910.454	3340
910.57	3294
910.685	3253
910.8	3576
910.915	3511
911.03	3458
911.145	3268
911.259	3245
911.374	3321
911.489	3253
911.604	3211
911.718	3131
911.833	3154
911.947	3039
912.062	3001
912.176	3203
912.291	3207
912.405	3176
912.519	3393
912.633	3477
912.748	3344
912.862	3272
912.976	3173
913.09	3032
913.204	3119
913.318	3203
913.431	3355
913.545	3294
913.659	3389
913.772	3359
913.886	3180
914	3211
914.113	3332
914.226	3458
914.34	3340
914.453	3214
914.566	3412
914.68	3298
914.793	3325
914.906	3146
915.019	3127
915.132	3097
915.245	3192
915.358	3222
915.47	3241
915.583	3264
915.696	3302
915.809	3393
915.921	3428
916.034	3272
916.146	3291
916.259	3233
916.371	3397
916.483	3370
916.595	3279
916.708	3344
916.82	3306
916.932	3313
917.044	3302
917.156	3363
917.268	3237
917.38	3306
917.491	3306
917.603	3363
917.715	3439
917.826	3481
917.938	3370
918.049	3249
918.161	3439
918.272	3591
918.384	3584
918.495	3523
918.606	3306
918.717	3272
918.828	3344
918.939	3393
919.05	3272
919.161	3367
919.272	3180
919.383	3272
919.494	3488
919.604	3663
919.715	3488
919.826	3424
919.936	3485
920.047	3591
920.157	3553
920.267	3759
920.378	3591
920.488	3561
920.598	3816
920.708	3953
920.818	3804
920.928	3823
921.038	3991
921.148	3987
921.258	3682
921.368	3667
921.477	3584
921.587	3523
921.697	3443
921.806	3648
921.916	3530
922.025	3359
922.134	3351
922.244	3306
922.353	3420
922.462	3241
922.571	3203
922.68	3135
922.789	3062
922.898	3112
923.007	3070
923.116	3184
923.224	3169
923.333	3199
923.442	3104
923.55	3097
923.659	3108
923.767	3203
923.876	3123
923.984	3249
924.092	3097
924.201	3211
924.309	3192
924.417	3233
924.525	3199
924.633	3241
924.741	4002
924.849	3070
924.956	3249
925.064	3112
925.172	3032
925.279	3100
925.387	3211
925.494	3207
925.602	3378
925.709	3340
925.816	3230
925.924	3283
926.031	3378
926.138	3329
926.245	3344
926.352	3249
926.459	3393
926.566	3500
926.673	3325
926.779	3233
926.886	3256
926.993	3157
927.099	3116
927.206	3131
927.312	3089
927.419	3203
927.525	3184
927.631	3272
927.737	3165
927.843	3150
927.95	3020
928.056	3131
928.162	3138
928.267	3241
928.373	3846
928.479	3325
928.585	3066
928.69	3157
928.796	3283
928.901	3157
929.007	3047
929.112	3218
929.218	3195
929.323	3108
929.428	3176
929.533	3264
929.638	3085
929.743	3192
929.848	3260
929.953	3211
930.058	3165
930.163	2982
930.267	3047
930.372	3184
930.477	3036
930.581	3283
930.685	3195
930.79	3070
930.894	3131
930.998	3123
931.103	3260
931.207	2948
931.311	2937
931.415	2937
931.519	2766
931.623	2792
