Data from test_V78500241_714.txt Node
Date: Fri Mar 25 16:20:08 CST 2022
User: usil
Spectrometer: V785-0024
Trigger mode: 0
Integration Time (sec): 4.000000E-1
Scans to average: 1
Nonlinearity correction enabled: false
Boxcar width: 0
Storing dark spectrum: false
XAxis mode: Wavelengths
Number of Pixels in Spectrum: 1024
>>>>>Begin Spectral Data<<<<<
801.071	2933
801.214	2979
801.356	2845
801.499	2864
801.641	2872
801.783	2906
801.926	3024
802.068	2960
802.211	2982
802.353	3009
802.496	2937
802.638	3017
802.78	3009
802.923	3070
803.065	3020
803.208	2895
803.35	2899
803.492	2937
803.635	2887
803.777	2739
803.919	2853
804.061	3207
804.204	2944
804.346	2899
804.488	2861
804.63	3001
804.773	2880
804.915	2914
805.057	3081
805.199	2910
805.341	3005
805.483	3055
805.626	3005
805.768	2982
805.91	3085
806.052	3108
806.194	3039
806.336	3233
806.478	3032
806.62	2967
806.762	2963
806.904	3051
807.046	3146
807.188	2967
807.33	2914
807.472	2963
807.614	2880
807.756	2971
807.898	2922
808.04	2845
808.182	2956
808.324	2944
808.465	2910
808.607	2868
808.749	2781
808.891	2842
809.033	2952
809.174	2971
809.316	2891
809.458	2891
809.6	2712
809.741	2739
809.883	2750
810.025	2853
810.166	2864
810.308	2823
810.45	2864
810.591	2777
810.733	2781
810.875	2815
811.016	2773
811.158	2739
811.299	2781
811.441	2998
811.582	2899
811.724	2834
811.865	2834
812.007	2922
812.148	2880
812.29	2849
812.431	2895
812.573	2937
812.714	2933
812.855	3013
812.997	3024
813.138	3116
813.279	2990
813.421	2956
813.562	2986
813.703	2880
813.845	2895
813.986	2743
814.127	2716
814.268	2800
814.41	2857
814.551	2792
814.692	2872
814.833	2857
814.974	2910
815.115	2948
815.256	2807
815.397	2807
815.539	2902
815.68	2750
815.821	2796
815.962	2929
816.103	2887
816.244	2880
816.385	2872
816.526	2971
816.666	2929
816.807	2708
816.948	2872
817.089	2876
817.23	2864
817.371	2777
817.512	2811
817.653	2849
817.793	2823
817.934	2872
818.075	2979
818.216	2979
818.356	3051
818.497	2880
818.638	2769
818.778	2815
818.919	2777
819.06	2731
819.2	2895
819.341	2830
819.481	2773
819.622	2887
819.762	3104
819.903	3036
820.043	2922
820.184	2883
820.324	2895
820.465	3013
820.605	2986
820.746	2990
820.886	2929
821.026	3077
821.167	3150
821.307	3272
821.447	3279
821.588	3256
821.728	3192
821.868	3188
822.008	3058
822.149	3207
822.289	3192
822.429	3097
822.569	3081
822.709	3176
822.849	3005
822.99	3093
823.13	3161
823.27	3169
823.41	3062
823.55	3135
823.69	3157
823.83	3218
823.97	3089
824.11	3005
824.25	2994
824.389	3081
824.529	3123
824.669	3036
824.809	3154
824.949	3214
825.089	3195
825.228	3135
825.368	2990
825.508	2933
825.648	2941
825.787	3070
825.927	2982
826.067	2944
826.206	2937
826.346	3032
826.485	3062
826.625	3146
826.765	3268
826.904	3176
827.044	3005
827.183	2922
827.323	2876
827.462	2990
827.601	2941
827.741	2933
827.88	2937
828.02	2845
828.159	2960
828.298	3043
828.437	3119
828.577	3017
828.716	3237
828.855	3085
828.994	2880
829.134	2845
829.273	2910
829.412	2864
829.551	2883
829.69	2906
829.829	3020
829.968	3127
830.107	2990
830.246	3020
830.385	2887
830.524	2880
830.663	2804
830.802	2705
830.941	2663
831.08	2651
831.219	2735
831.357	2758
831.496	2963
831.635	2712
831.774	2667
831.913	2632
832.051	2533
832.19	2541
832.329	2682
832.467	2518
832.606	2454
832.744	2575
832.883	2541
833.022	2556
833.16	2644
833.299	2678
833.437	2689
833.576	2644
833.714	2689
833.852	2724
833.991	2785
834.129	2823
834.267	2788
834.406	2800
834.544	2857
834.682	2887
834.821	2845
834.959	3047
835.097	2891
835.235	3028
835.373	3013
835.511	3020
835.65	2956
835.788	2975
835.926	2842
836.064	2788
836.202	2834
836.34	3066
836.478	3100
836.615	3051
836.753	3116
836.891	3161
837.029	3127
837.167	3085
837.305	3066
837.443	3058
837.58	2929
837.718	3154
837.856	3047
837.993	3028
838.131	3116
838.269	3108
838.406	3097
838.544	3062
838.681	2876
838.819	2902
838.956	2811
839.094	2834
839.231	2933
839.369	3039
839.506	3370
839.643	3192
839.781	3028
839.918	2960
840.055	3062
840.193	3013
840.33	3055
840.467	3047
840.604	3150
840.742	3389
840.879	3020
841.016	3055
841.153	3108
841.29	3336
841.427	3287
841.564	3230
841.701	3321
841.838	3211
841.975	3203
842.112	3195
842.249	3055
842.385	3032
842.522	3268
842.659	3089
842.796	3020
842.933	3085
843.069	3043
843.206	3055
843.343	3188
843.479	3058
843.616	3146
843.752	2902
843.889	2857
844.025	3093
844.162	2887
844.298	3017
844.435	2967
844.571	2880
844.708	3074
844.844	3161
844.98	3214
845.117	3173
845.253	3055
845.389	2990
845.525	3074
845.661	3081
845.798	3009
845.934	3135
846.07	3032
846.206	3176
846.342	3317
846.478	3214
846.614	3081
846.75	3081
846.886	3013
847.022	3233
847.158	3123
847.294	3218
847.429	3249
847.565	3173
847.701	3481
847.837	2998
847.972	2963
848.108	3154
848.244	3138
848.379	2979
848.515	2918
848.65	2952
848.786	2956
848.921	2994
849.057	3104
849.192	3123
849.328	3051
849.463	3131
849.598	3081
849.734	3017
849.869	2941
850.004	2880
850.14	2960
850.275	2872
850.41	2815
850.545	2864
850.68	2914
850.815	2956
850.95	2960
851.085	3203
851.22	3089
851.355	3009
851.49	2982
851.625	2998
851.76	3020
851.895	2925
852.03	2906
852.165	3020
852.299	3077
852.434	3135
852.569	3142
852.703	3138
852.838	3226
852.973	3291
853.107	3302
853.242	3161
853.376	3093
853.511	2933
853.645	3039
853.78	3241
853.914	3135
854.048	3093
854.183	3127
854.317	3173
854.451	3313
854.585	3108
854.72	3070
854.854	3169
854.988	3024
855.122	3085
855.256	2979
855.39	3108
855.524	3222
855.658	3207
855.792	3116
855.926	3173
856.06	3222
856.194	3272
856.327	3157
856.461	3081
856.595	3089
856.729	3116
856.862	3230
856.996	3146
857.13	3138
857.263	3195
857.397	3249
857.53	3108
857.664	3192
857.797	3249
857.931	3245
858.064	3100
858.197	3180
858.331	3119
858.464	3093
858.597	3020
858.731	3104
858.864	3123
858.997	3066
859.13	3138
859.263	3154
859.396	3176
859.529	3085
859.662	3058
859.795	3074
859.928	3127
860.061	3237
860.194	3272
860.327	3123
860.46	3058
860.592	3253
860.725	3230
860.858	3199
860.99	3123
861.123	3051
861.256	3089
861.388	3123
861.521	3934
861.653	2998
861.786	2952
861.918	2998
862.05	3047
862.183	3085
862.315	3104
862.447	3176
862.58	3116
862.712	2937
862.844	2883
862.976	2994
863.108	2986
863.24	3374
863.372	2880
863.504	2937
863.636	2941
863.768	2994
863.9	2956
864.032	2910
864.164	2941
864.296	2998
864.428	3043
864.559	3112
864.691	3032
864.823	3070
864.954	3020
865.086	3032
865.217	2990
865.349	2918
865.48	2971
865.612	3020
865.743	3112
865.875	2982
866.006	2914
866.137	2979
866.269	2910
866.4	2941
866.531	2902
866.662	2883
866.793	2868
866.924	2902
867.055	2948
867.186	2891
867.317	2891
867.448	2823
867.579	2826
867.71	2861
867.841	2777
867.972	2925
868.103	2891
868.233	2861
868.364	2868
868.495	2891
868.625	3100
868.756	3123
868.886	2960
869.017	2998
869.147	3169
869.278	3146
869.408	3077
869.539	2994
869.669	3093
869.799	3009
869.929	3131
870.06	3093
870.19	3310
870.32	3302
870.45	3245
870.58	3401
870.71	3401
870.84	3431
870.97	3313
871.1	3222
871.23	3450
871.36	3469
871.489	3317
871.619	3329
871.749	3412
871.879	3420
872.008	3496
872.138	3321
872.267	3249
872.397	3108
872.526	3062
872.656	2986
872.785	3070
872.915	3256
873.044	3275
873.173	3218
873.303	3199
873.432	3245
873.561	3230
873.69	3150
873.819	3112
873.948	3150
874.077	3074
874.206	2982
874.335	3100
874.464	3226
874.593	3302
874.722	3241
874.851	3359
874.979	3325
875.108	3291
875.237	3199
875.365	3142
875.494	3081
875.623	3199
875.751	3077
875.88	3100
876.008	3176
876.136	3169
876.265	3382
876.393	3454
876.521	3397
876.65	3363
876.778	3306
876.906	3199
877.034	3165
877.162	3233
877.29	3127
877.418	3233
877.546	3214
877.674	3264
877.802	3195
877.93	3203
878.058	3154
878.185	3077
878.313	3188
878.441	3203
878.568	3074
878.696	3116
878.824	3294
878.951	3306
879.079	3477
879.206	3591
879.333	3389
879.461	3355
879.588	3367
879.715	3492
879.842	3580
879.97	3382
880.097	3157
880.224	3108
880.351	3180
880.478	3268
880.605	3237
880.732	3176
880.859	3534
880.986	3283
881.112	3363
881.239	3169
881.366	3135
881.493	3055
881.619	3066
881.746	3074
881.872	3104
881.999	3100
882.125	3173
882.252	3241
882.378	3325
882.505	3439
882.631	3275
882.757	3192
882.883	3260
883.01	3241
883.136	3218
883.262	3146
883.388	3154
883.514	3336
883.64	3382
883.766	3336
883.892	3237
884.018	3283
884.143	3435
884.269	3568
884.395	3260
884.52	3207
884.646	3264
884.772	3169
884.897	3146
885.023	3260
885.148	3348
885.274	3450
885.399	3405
885.524	3287
885.65	3279
885.775	3355
885.9	3313
886.025	3443
886.15	3409
886.275	3340
886.4	3245
886.525	3325
886.65	3344
886.775	3329
886.9	3504
887.025	3675
887.149	3405
887.274	3268
887.399	3233
887.523	3230
887.648	3230
887.773	3264
887.897	3428
888.021	3435
888.146	3336
888.27	3485
888.395	3576
888.519	3481
888.643	3466
888.767	3500
888.891	3370
889.015	3268
889.139	3321
889.263	3272
889.387	3416
889.511	3519
889.635	3428
889.759	3306
889.883	3313
890.006	3393
890.13	3530
890.254	3317
890.377	3351
890.501	3253
890.624	3226
890.748	3325
890.871	3211
890.995	3173
891.118	3081
891.241	3260
891.364	3260
891.488	3359
891.611	3207
891.734	3237
891.857	3317
891.98	3294
892.103	3363
892.226	3317
892.349	3207
892.471	3146
892.594	3272
892.717	3325
892.839	3306
892.962	3336
893.085	3386
893.207	3325
893.33	3161
893.452	3218
893.575	3382
893.697	3272
893.819	3504
893.941	3511
894.064	3485
894.186	3302
894.308	3310
894.43	3447
894.552	3568
894.674	3481
894.796	3306
894.918	3321
895.04	3325
895.161	3443
895.283	3389
895.405	3329
895.526	3412
895.648	3462
895.769	3469
895.891	3485
896.012	3492
896.134	3504
896.255	3439
896.376	3435
896.498	3389
896.619	3450
896.74	3405
896.861	3428
896.982	3698
897.103	3835
897.224	3606
897.345	3587
897.466	3492
897.587	3488
897.708	3633
897.828	3576
897.949	3473
898.07	3351
898.19	3443
898.311	3584
898.431	3469
898.552	3538
898.672	3622
898.792	3610
898.913	3561
899.033	3450
899.153	3287
899.273	3237
899.393	3325
899.513	3325
899.633	3336
899.753	3359
899.873	3348
899.993	3389
900.113	3374
900.232	3428
900.352	3355
900.472	3340
900.591	3237
900.711	3355
900.83	3256
900.95	3488
901.069	3564
901.189	3386
901.308	3218
901.427	3195
901.546	3207
901.665	3310
901.784	3378
901.904	3253
902.023	3176
902.141	3070
902.26	3009
902.379	3203
902.498	3097
902.617	3108
902.735	3203
902.854	3287
902.973	3211
903.091	3066
903.21	3104
903.328	3146
903.446	3119
903.565	3169
903.683	3222
903.801	3195
903.919	3256
904.038	3306
904.156	3222
904.274	3325
904.392	3279
904.51	3317
904.627	3382
904.745	3477
904.863	3534
904.981	3256
905.098	3188
905.216	3241
905.334	3275
905.451	3310
905.569	3325
905.686	3450
905.803	3466
905.921	3325
906.038	3443
906.155	3382
906.272	3272
906.389	3397
906.506	3268
906.623	3268
906.74	3256
906.857	3256
906.974	3287
907.091	3473
907.208	3637
907.324	3511
907.441	3397
907.557	3264
907.674	3241
907.79	3249
907.907	3283
908.023	3412
908.139	3393
908.256	3359
908.372	3439
908.488	3363
908.604	3302
908.72	3279
908.836	3313
908.952	3283
909.068	3317
909.184	3553
909.3	3443
909.415	3511
909.531	3515
909.647	3306
909.762	3344
909.878	3264
909.993	3367
910.108	3378
910.224	3382
910.339	3424
910.454	3370
910.57	3291
910.685	3249
910.8	3587
910.915	3603
911.03	3469
911.145	3272
911.259	3325
911.374	3386
911.489	3260
911.604	3260
911.718	3180
911.833	3195
911.947	3009
912.062	3058
912.176	3180
912.291	3237
912.405	3226
912.519	3450
912.633	3504
912.748	3344
912.862	3306
912.976	3207
913.09	3089
913.204	3135
913.318	3214
913.431	3374
913.545	3367
913.659	3409
913.772	3325
913.886	3279
914	3233
914.113	3351
914.226	3424
914.34	3374
914.453	3264
914.566	3447
914.68	3336
914.793	3332
914.906	3157
915.019	3150
915.132	3119
915.245	3199
915.358	3184
915.47	3260
915.583	3275
915.696	3340
915.809	3420
915.921	3450
916.034	3256
916.146	3283
916.259	3226
916.371	3393
916.483	3386
916.595	3291
916.708	3386
916.82	3359
916.932	3363
917.044	3367
917.156	3363
917.268	3298
917.38	3310
917.491	3294
917.603	3416
917.715	3473
917.826	3473
917.938	3386
918.049	3279
918.161	3450
918.272	3576
918.384	3561
918.495	3549
918.606	3351
918.717	3298
918.828	3374
918.939	3405
919.05	3344
919.161	3424
919.272	3207
919.383	3329
919.494	3549
919.604	3740
919.715	3515
919.826	3428
919.936	3504
920.047	3591
920.157	3568
920.267	3774
920.378	3656
920.488	3572
920.598	3793
920.708	3941
920.818	3850
920.928	3846
921.038	4036
921.148	4036
921.258	3713
921.368	3637
921.477	3610
921.587	3595
921.697	3424
921.806	3667
921.916	3526
922.025	3378
922.134	3332
922.244	3351
922.353	3431
922.462	3298
922.571	3279
922.68	3127
922.789	3093
922.898	3154
923.007	3157
923.116	3241
923.224	3192
923.333	3230
923.442	3104
923.55	3112
923.659	3150
923.767	3230
923.876	3146
923.984	3272
924.092	3131
924.201	3207
924.309	3226
924.417	3268
924.525	3207
924.633	3283
924.741	4192
924.849	3066
924.956	3294
925.064	3108
925.172	3051
925.279	3093
925.387	3203
925.494	3245
925.602	3393
925.709	3332
925.816	3199
925.924	3294
926.031	3397
926.138	3321
926.245	3409
926.352	3298
926.459	3435
926.566	3469
926.673	3336
926.779	3329
926.886	3291
926.993	3154
927.099	3131
927.206	3165
927.312	3123
927.419	3264
927.525	3264
927.631	3275
927.737	3150
927.843	3150
927.95	3039
928.056	3157
928.162	3195
928.267	3264
928.373	3903
928.479	3332
928.585	3089
928.69	3226
928.796	3283
928.901	3173
929.007	3070
929.112	3222
929.218	3192
929.323	3135
929.428	3184
929.533	3329
929.638	3154
929.743	3199
929.848	3249
929.953	3195
930.058	3150
930.163	3020
930.267	3051
930.372	3207
930.477	3058
930.581	3325
930.685	3207
930.79	3074
930.894	3161
930.998	3097
931.103	3283
931.207	2986
931.311	2944
931.415	2899
931.519	2766
931.623	2807
