Data from test_V78500241_1788.txt Node
Date: Fri Mar 25 16:27:35 CST 2022
User: usil
Spectrometer: V785-0024
Trigger mode: 0
Integration Time (sec): 4.000000E-1
Scans to average: 1
Nonlinearity correction enabled: false
Boxcar width: 0
Storing dark spectrum: false
XAxis mode: Wavelengths
Number of Pixels in Spectrum: 1024
>>>>>Begin Spectral Data<<<<<
801.071	2906
801.214	2937
801.356	2880
801.499	2906
801.641	2849
801.783	2918
801.926	3058
802.068	2998
802.211	2998
802.353	3013
802.496	2929
802.638	2982
802.78	3013
802.923	3074
803.065	3001
803.208	2868
803.35	2906
803.492	2929
803.635	2922
803.777	2716
803.919	2834
804.061	3169
804.204	2941
804.346	2918
804.488	2819
804.63	3001
804.773	2853
804.915	2910
805.057	3097
805.199	2925
805.341	2941
805.483	3043
805.626	2982
805.768	2960
805.91	3116
806.052	3116
806.194	3009
806.336	3199
806.478	3009
806.62	2929
806.762	2960
806.904	3055
807.046	3165
807.188	2979
807.33	2914
807.472	2971
807.614	2906
807.756	3032
807.898	2910
808.04	2883
808.182	2956
808.324	2971
808.465	2823
808.607	2891
808.749	2777
808.891	2834
809.033	2979
809.174	2937
809.316	2872
809.458	2895
809.6	2758
809.741	2777
809.883	2781
810.025	2857
810.166	2861
810.308	2834
810.45	2830
810.591	2769
810.733	2754
810.875	2823
811.016	2785
811.158	2750
811.299	2811
811.441	2967
811.582	2880
811.724	2823
811.865	2830
812.007	2895
812.148	2876
812.29	2868
812.431	2880
812.573	2941
812.714	2944
812.855	3043
812.997	3051
813.138	3100
813.279	3001
813.421	2998
813.562	2967
813.703	2864
813.845	2891
813.986	2769
814.127	2724
814.268	2811
814.41	2861
814.551	2842
814.692	2902
814.833	2788
814.974	2864
815.115	2944
815.256	2826
815.397	2800
815.539	2849
815.68	2773
815.821	2750
815.962	2902
816.103	2910
816.244	2864
816.385	2849
816.526	2910
816.666	2876
816.807	2746
816.948	2872
817.089	2899
817.23	2861
817.371	2762
817.512	2762
817.653	2823
817.793	2830
817.934	2895
818.075	2963
818.216	3013
818.356	3009
818.497	2880
818.638	2758
818.778	2838
818.919	2754
819.06	2766
819.2	2891
819.341	2800
819.481	2804
819.622	2895
819.762	3097
819.903	3070
820.043	2933
820.184	2960
820.324	2941
820.465	2994
820.605	3005
820.746	3001
820.886	2914
821.026	3089
821.167	3157
821.307	3256
821.447	3291
821.588	3214
821.728	3169
821.868	3157
822.008	3112
822.149	3161
822.289	3260
822.429	3097
822.569	3085
822.709	3180
822.849	3020
822.99	3070
823.13	3165
823.27	3207
823.41	3108
823.55	3131
823.69	3135
823.83	3199
823.97	3097
824.11	2982
824.25	2960
824.389	3032
824.529	3093
824.669	3097
824.809	3180
824.949	3264
825.089	3226
825.228	3138
825.368	3017
825.508	2990
825.648	2975
825.787	3020
825.927	2960
826.067	2948
826.206	2994
826.346	3032
826.485	3062
826.625	3116
826.765	3233
826.904	3203
827.044	3001
827.183	2906
827.323	2861
827.462	3001
827.601	2895
827.741	2963
827.88	2929
828.02	2811
828.159	2929
828.298	3039
828.437	3138
828.577	3032
828.716	3245
828.855	3097
828.994	2929
829.134	2872
829.273	2880
829.412	2872
829.551	2849
829.69	2895
829.829	3024
829.968	3119
830.107	3017
830.246	3032
830.385	2891
830.524	2876
830.663	2834
830.802	2766
830.941	2663
831.08	2610
831.219	2785
831.357	2727
831.496	2941
831.635	2689
831.774	2648
831.913	2644
832.051	2549
832.19	2590
832.329	2674
832.467	2575
832.606	2484
832.744	2556
832.883	2568
833.022	2579
833.16	2651
833.299	2678
833.437	2705
833.576	2701
833.714	2712
833.852	2743
833.991	2746
834.129	2845
834.267	2819
834.406	2800
834.544	2887
834.682	2883
834.821	2838
834.959	3043
835.097	2914
835.235	3036
835.373	2933
835.511	3032
835.65	2929
835.788	2948
835.926	2838
836.064	2796
836.202	2849
836.34	3074
836.478	3146
836.615	3043
836.753	3138
836.891	3192
837.029	3195
837.167	3108
837.305	3036
837.443	3043
837.58	2941
837.718	3142
837.856	3058
837.993	3024
838.131	3146
838.269	3097
838.406	3119
838.544	3074
838.681	2891
838.819	2899
838.956	2811
839.094	2861
839.231	2918
839.369	3043
839.506	3370
839.643	3222
839.781	3020
839.918	2956
840.055	3047
840.193	3074
840.33	3100
840.467	3127
840.604	3138
840.742	3401
840.879	3017
841.016	3001
841.153	3100
841.29	3336
841.427	3317
841.564	3226
841.701	3294
841.838	3233
841.975	3161
842.112	3222
842.249	3066
842.385	3039
842.522	3260
842.659	3058
842.796	3032
842.933	3131
843.069	3024
843.206	2994
843.343	3161
843.479	3135
843.616	3146
843.752	2895
843.889	2880
844.025	3074
844.162	2887
844.298	3074
844.435	2929
844.571	2925
844.708	3077
844.844	3173
844.98	3211
845.117	3184
845.253	3055
845.389	3009
845.525	3097
845.661	3085
845.798	2986
845.934	3146
846.07	3047
846.206	3192
846.342	3325
846.478	3222
846.614	3047
846.75	3055
846.886	2994
847.022	3260
847.158	3169
847.294	3184
847.429	3226
847.565	3211
847.701	3443
847.837	3055
847.972	2979
848.108	3154
848.244	3127
848.379	2975
848.515	2922
848.65	2929
848.786	2960
848.921	2998
849.057	3112
849.192	3150
849.328	3051
849.463	3119
849.598	3062
849.734	3020
849.869	2963
850.004	2895
850.14	2967
850.275	2933
850.41	2830
850.545	2902
850.68	2929
850.815	2929
850.95	2944
851.085	3203
851.22	3119
851.355	3032
851.49	2971
851.625	2975
851.76	3013
851.895	2967
852.03	2876
852.165	3017
852.299	3077
852.434	3188
852.569	3161
852.703	3173
852.838	3256
852.973	3310
853.107	3351
853.242	3154
853.376	3089
853.511	2971
853.645	3017
853.78	3241
853.914	3135
854.048	3112
854.183	3028
854.317	3154
854.451	3298
854.585	3112
854.72	3081
854.854	3237
854.988	3001
855.122	3108
855.256	2944
855.39	3097
855.524	3253
855.658	3188
855.792	3135
855.926	3211
856.06	3192
856.194	3249
856.327	3165
856.461	3093
856.595	3089
856.729	3089
856.862	3161
856.996	3161
857.13	3207
857.263	3218
857.397	3260
857.53	3138
857.664	3169
857.797	3222
857.931	3237
858.064	3184
858.197	3218
858.331	3119
858.464	3089
858.597	2967
858.731	3093
858.864	3089
858.997	3112
859.13	3154
859.263	3131
859.396	3199
859.529	3066
859.662	3116
859.795	3062
859.928	3173
860.061	3264
860.194	3256
860.327	3127
860.46	3097
860.592	3203
860.725	3268
860.858	3268
860.99	3070
861.123	3055
861.256	3058
861.388	3173
861.521	3827
861.653	2998
861.786	3036
861.918	2998
862.05	3066
862.183	3074
862.315	3146
862.447	3188
862.58	3074
862.712	2948
862.844	2887
862.976	3024
863.108	2998
863.24	3401
863.372	2925
863.504	2937
863.636	2963
863.768	3039
863.9	2963
864.032	2891
864.164	2956
864.296	3024
864.428	3093
864.559	3066
864.691	3074
864.823	3062
864.954	3028
865.086	3020
865.217	3020
865.349	2952
865.48	2982
865.612	3055
865.743	3112
865.875	2967
866.006	2929
866.137	2986
866.269	2925
866.4	2937
866.531	2895
866.662	2887
866.793	2880
866.924	2899
867.055	2963
867.186	2925
867.317	2887
867.448	2823
867.579	2830
867.71	2830
867.841	2800
867.972	2906
868.103	2887
868.233	2918
868.364	2872
868.495	2895
868.625	3093
868.756	3192
868.886	2922
869.017	2998
869.147	3165
869.278	3165
869.408	3055
869.539	2986
869.669	3089
869.799	3020
869.929	3097
870.06	3104
870.19	3332
870.32	3287
870.45	3291
870.58	3325
870.71	3443
870.84	3431
870.97	3302
871.1	3230
871.23	3466
871.36	3469
871.489	3306
871.619	3382
871.749	3424
871.879	3435
872.008	3447
872.138	3325
872.267	3275
872.397	3123
872.526	3089
872.656	3024
872.785	3055
872.915	3245
873.044	3272
873.173	3222
873.303	3233
873.432	3279
873.561	3275
873.69	3135
873.819	3138
873.948	3180
874.077	3089
874.206	3032
874.335	3066
874.464	3226
874.593	3291
874.722	3222
874.851	3363
874.979	3378
875.108	3325
875.237	3169
875.365	3150
875.494	3146
875.623	3237
875.751	3089
875.88	3104
876.008	3230
876.136	3241
876.265	3363
876.393	3515
876.521	3393
876.65	3378
876.778	3340
876.906	3237
877.034	3176
877.162	3245
877.29	3180
877.418	3256
877.546	3237
877.674	3268
877.802	3233
877.93	3226
878.058	3165
878.185	3097
878.313	3195
878.441	3180
878.568	3024
878.696	3173
878.824	3253
878.951	3294
879.079	3431
879.206	3587
879.333	3431
879.461	3291
879.588	3386
879.715	3481
879.842	3580
879.97	3378
880.097	3093
880.224	3104
880.351	3184
880.478	3207
880.605	3207
880.732	3161
880.859	3447
880.986	3325
881.112	3325
881.239	3154
881.366	3070
881.493	3058
881.619	3047
881.746	3089
881.872	3104
881.999	3100
882.125	3165
882.252	3222
882.378	3287
882.505	3420
882.631	3260
882.757	3131
882.883	3249
883.01	3214
883.136	3157
883.262	3100
883.388	3142
883.514	3275
883.64	3367
883.766	3298
883.892	3192
884.018	3241
884.143	3389
884.269	3526
884.395	3165
884.52	3146
884.646	3146
884.772	3066
884.897	3089
885.023	3222
885.148	3310
885.274	3389
885.399	3355
885.524	3249
885.65	3245
885.775	3268
885.9	3302
886.025	3412
886.15	3363
886.275	3272
886.4	3203
886.525	3306
886.65	3245
886.775	3291
886.9	3458
887.025	3591
887.149	3409
887.274	3279
887.399	3218
887.523	3180
887.648	3150
887.773	3188
887.897	3374
888.021	3409
888.146	3264
888.27	3431
888.395	3530
888.519	3416
888.643	3397
888.767	3443
888.891	3344
889.015	3241
889.139	3253
889.263	3218
889.387	3378
889.511	3488
889.635	3443
889.759	3272
889.883	3325
890.006	3344
890.13	3462
890.254	3294
890.377	3321
890.501	3169
890.624	3161
890.748	3351
890.871	3142
890.995	3097
891.118	3074
891.241	3184
891.364	3203
891.488	3306
891.611	3146
891.734	3218
891.857	3275
891.98	3218
892.103	3321
892.226	3298
892.349	3233
892.471	3089
892.594	3245
892.717	3256
892.839	3275
892.962	3272
893.085	3340
893.207	3291
893.33	3142
893.452	3192
893.575	3367
893.697	3218
893.819	3450
893.941	3485
894.064	3473
894.186	3287
894.308	3275
894.43	3439
894.552	3500
894.674	3405
894.796	3294
894.918	3279
895.04	3245
895.161	3424
895.283	3378
895.405	3287
895.526	3359
895.648	3401
895.769	3420
895.891	3443
896.012	3424
896.134	3469
896.255	3401
896.376	3348
896.498	3359
896.619	3416
896.74	3340
896.861	3382
896.982	3698
897.103	3804
897.224	3572
897.345	3534
897.466	3428
897.587	3507
897.708	3625
897.828	3530
897.949	3393
898.07	3275
898.19	3393
898.311	3625
898.431	3466
898.552	3511
898.672	3610
898.792	3568
898.913	3557
899.033	3401
899.153	3298
899.273	3203
899.393	3237
899.513	3302
899.633	3302
899.753	3332
899.873	3302
899.993	3344
900.113	3351
900.232	3431
900.352	3306
900.472	3310
900.591	3214
900.711	3256
900.83	3253
900.95	3435
901.069	3458
901.189	3359
901.308	3203
901.427	3146
901.546	3112
901.665	3291
901.784	3306
901.904	3230
902.023	3123
902.141	2990
902.26	3005
902.379	3131
902.498	3055
902.617	3036
902.735	3195
902.854	3207
902.973	3173
903.091	3028
903.21	3066
903.328	3135
903.446	3146
903.565	3066
903.683	3165
903.801	3100
903.919	3279
904.038	3256
904.156	3165
904.274	3279
904.392	3253
904.51	3291
904.627	3336
904.745	3466
904.863	3466
904.981	3222
905.098	3176
905.216	3203
905.334	3268
905.451	3249
905.569	3272
905.686	3397
905.803	3405
905.921	3275
906.038	3435
906.155	3359
906.272	3203
906.389	3325
906.506	3222
906.623	3241
906.74	3249
906.857	3165
906.974	3241
907.091	3431
907.208	3576
907.324	3454
907.441	3412
907.557	3188
907.674	3222
907.79	3241
907.907	3264
908.023	3329
908.139	3370
908.256	3336
908.372	3363
908.488	3306
908.604	3214
908.72	3218
908.836	3275
908.952	3279
909.068	3340
909.184	3473
909.3	3382
909.415	3515
909.531	3447
909.647	3268
909.762	3283
909.878	3253
909.993	3363
910.108	3283
910.224	3317
910.339	3431
910.454	3310
910.57	3237
910.685	3237
910.8	3557
910.915	3488
911.03	3389
911.145	3275
911.259	3249
911.374	3298
911.489	3230
911.604	3241
911.718	3131
911.833	3165
911.947	2990
912.062	2963
912.176	3154
912.291	3116
912.405	3203
912.519	3428
912.633	3439
912.748	3279
912.862	3272
912.976	3173
913.09	3020
913.204	3135
913.318	3207
913.431	3344
913.545	3313
913.659	3412
913.772	3329
913.886	3222
914	3211
914.113	3359
914.226	3409
914.34	3378
914.453	3222
914.566	3397
914.68	3313
914.793	3325
914.906	3146
915.019	3161
915.132	3116
915.245	3207
915.358	3230
915.47	3245
915.583	3298
915.696	3336
915.809	3447
915.921	3420
916.034	3283
916.146	3249
916.259	3245
916.371	3409
916.483	3405
916.595	3302
916.708	3397
916.82	3351
916.932	3370
917.044	3374
917.156	3359
917.268	3321
917.38	3332
917.491	3329
917.603	3420
917.715	3500
917.826	3496
917.938	3416
918.049	3279
918.161	3447
918.272	3637
918.384	3606
918.495	3564
918.606	3359
918.717	3279
918.828	3435
918.939	3435
919.05	3378
919.161	3458
919.272	3230
919.383	3298
919.494	3542
919.604	3747
919.715	3534
919.826	3500
919.936	3481
920.047	3629
920.157	3584
920.267	3804
920.378	3633
920.488	3595
920.598	3797
920.708	3994
920.818	3873
920.928	3857
921.038	4090
921.148	3979
921.258	3774
921.368	3686
921.477	3610
921.587	3584
921.697	3504
921.806	3701
921.916	3584
922.025	3378
922.134	3424
922.244	3378
922.353	3496
922.462	3294
922.571	3260
922.68	3131
922.789	3123
922.898	3157
923.007	3142
923.116	3253
923.224	3218
923.333	3218
923.442	3150
923.55	3119
923.659	3188
923.767	3268
923.876	3169
923.984	3279
924.092	3108
924.201	3230
924.309	3233
924.417	3275
924.525	3218
924.633	3260
924.741	4074
924.849	3116
924.956	3306
925.064	3108
925.172	3070
925.279	3123
925.387	3241
925.494	3218
925.602	3363
925.709	3329
925.816	3233
925.924	3294
926.031	3386
926.138	3370
926.245	3367
926.352	3260
926.459	3424
926.566	3492
926.673	3363
926.779	3264
926.886	3272
926.993	3211
927.099	3195
927.206	3119
927.312	3142
927.419	3214
927.525	3260
927.631	3291
927.737	3199
927.843	3157
927.95	3058
928.056	3146
928.162	3150
928.267	3302
928.373	3899
928.479	3321
928.585	3108
928.69	3260
928.796	3325
928.901	3203
929.007	3074
929.112	3207
929.218	3226
929.323	3214
929.428	3169
929.533	3359
929.638	3161
929.743	3241
929.848	3283
929.953	3241
930.058	3169
930.163	3005
930.267	3051
930.372	3214
930.477	3074
930.581	3321
930.685	3233
930.79	3062
930.894	3154
930.998	3112
931.103	3283
931.207	2998
931.311	2960
931.415	2899
931.519	2788
931.623	2853
