Data from test_V78500241_684.txt Node
Date: Fri Mar 25 16:19:56 CST 2022
User: usil
Spectrometer: V785-0024
Trigger mode: 0
Integration Time (sec): 4.000000E-1
Scans to average: 1
Nonlinearity correction enabled: false
Boxcar width: 0
Storing dark spectrum: false
XAxis mode: Wavelengths
Number of Pixels in Spectrum: 1024
>>>>>Begin Spectral Data<<<<<
801.071	2910
801.214	3005
801.356	2895
801.499	2899
801.641	2887
801.783	2971
801.926	3074
802.068	3024
802.211	2998
802.353	3081
802.496	2963
802.638	3013
802.78	3017
802.923	3093
803.065	3020
803.208	2887
803.35	2929
803.492	2952
803.635	2960
803.777	2781
803.919	2857
804.061	3195
804.204	2925
804.346	2925
804.488	2887
804.63	3017
804.773	2895
804.915	2944
805.057	3074
805.199	2899
805.341	3017
805.483	3097
805.626	3001
805.768	2963
805.91	3066
806.052	3131
806.194	3077
806.336	3260
806.478	3032
806.62	2941
806.762	2960
806.904	3058
807.046	3165
807.188	2986
807.33	2933
807.472	3009
807.614	2868
807.756	2990
807.898	2975
808.04	2933
808.182	2982
808.324	2963
808.465	2891
808.607	2887
808.749	2811
808.891	2845
809.033	3009
809.174	2967
809.316	2887
809.458	2937
809.6	2788
809.741	2823
809.883	2769
810.025	2853
810.166	2891
810.308	2842
810.45	2883
810.591	2773
810.733	2762
810.875	2857
811.016	2788
811.158	2800
811.299	2842
811.441	2944
811.582	2891
811.724	2849
811.865	2857
812.007	2937
812.148	2876
812.29	2861
812.431	2864
812.573	2941
812.714	2956
812.855	3081
812.997	3081
813.138	3127
813.279	2998
813.421	3001
813.562	2967
813.703	2891
813.845	2887
813.986	2785
814.127	2739
814.268	2819
814.41	2830
814.551	2842
814.692	2876
814.833	2845
814.974	2910
815.115	2979
815.256	2864
815.397	2815
815.539	2872
815.68	2773
815.821	2804
815.962	2971
816.103	2956
816.244	2876
816.385	2857
816.526	2937
816.666	2944
816.807	2758
816.948	2891
817.089	2899
817.23	2853
817.371	2762
817.512	2807
817.653	2853
817.793	2834
817.934	2933
818.075	2960
818.216	3001
818.356	3032
818.497	2906
818.638	2769
818.778	2853
818.919	2823
819.06	2758
819.2	2853
819.341	2857
819.481	2807
819.622	2910
819.762	3123
819.903	3077
820.043	2937
820.184	2922
820.324	2918
820.465	3032
820.605	3043
820.746	3028
820.886	2963
821.026	3112
821.167	3161
821.307	3249
821.447	3291
821.588	3230
821.728	3226
821.868	3218
822.008	3081
822.149	3157
822.289	3214
822.429	3077
822.569	3074
822.709	3192
822.849	3036
822.99	3039
823.13	3131
823.27	3207
823.41	3112
823.55	3176
823.69	3165
823.83	3211
823.97	3085
824.11	3013
824.25	3013
824.389	3028
824.529	3119
824.669	3093
824.809	3218
824.949	3260
825.089	3226
825.228	3161
825.368	3055
825.508	2998
825.648	2952
825.787	3001
825.927	3051
826.067	2982
826.206	2994
826.346	3051
826.485	3062
826.625	3131
826.765	3233
826.904	3226
827.044	3001
827.183	2944
827.323	2857
827.462	2998
827.601	2937
827.741	2952
827.88	2963
828.02	2845
828.159	3020
828.298	3032
828.437	3097
828.577	3032
828.716	3245
828.855	3085
828.994	2929
829.134	2910
829.273	2948
829.412	2899
829.551	2891
829.69	2895
829.829	2990
829.968	3123
830.107	2994
830.246	3062
830.385	2922
830.524	2902
830.663	2830
830.802	2758
830.941	2670
831.08	2651
831.219	2777
831.357	2750
831.496	2967
831.635	2746
831.774	2640
831.913	2644
832.051	2522
832.19	2610
832.329	2689
832.467	2537
832.606	2511
832.744	2590
832.883	2583
833.022	2602
833.16	2682
833.299	2697
833.437	2686
833.576	2705
833.714	2727
833.852	2754
833.991	2792
834.129	2823
834.267	2849
834.406	2804
834.544	2845
834.682	2895
834.821	2902
834.959	3112
835.097	2929
835.235	3039
835.373	2994
835.511	3039
835.65	3001
835.788	2956
835.926	2792
836.064	2804
836.202	2853
836.34	3081
836.478	3142
836.615	3058
836.753	3165
836.891	3195
837.029	3146
837.167	3093
837.305	3074
837.443	3051
837.58	2982
837.718	3127
837.856	3062
837.993	3024
838.131	3116
838.269	3123
838.406	3081
838.544	3058
838.681	2944
838.819	2914
838.956	2792
839.094	2826
839.231	2933
839.369	3039
839.506	3386
839.643	3241
839.781	2994
839.918	2944
840.055	3028
840.193	3039
840.33	3081
840.467	3116
840.604	3161
840.742	3416
840.879	3051
841.016	3055
841.153	3093
841.29	3367
841.427	3310
841.564	3272
841.701	3260
841.838	3233
841.975	3161
842.112	3222
842.249	3028
842.385	3062
842.522	3275
842.659	3070
842.796	3036
842.933	3100
843.069	3036
843.206	3058
843.343	3165
843.479	3089
843.616	3142
843.752	2864
843.889	2876
844.025	3074
844.162	2899
844.298	3043
844.435	2956
844.571	2929
844.708	3032
844.844	3207
844.98	3256
845.117	3195
845.253	3036
845.389	3005
845.525	3081
845.661	3070
845.798	3070
845.934	3127
846.07	3066
846.206	3195
846.342	3321
846.478	3260
846.614	3085
846.75	3058
846.886	3020
847.022	3226
847.158	3112
847.294	3226
847.429	3233
847.565	3192
847.701	3481
847.837	3020
847.972	3001
848.108	3116
848.244	3135
848.379	2986
848.515	2975
848.65	2899
848.786	2948
848.921	3036
849.057	3093
849.192	3161
849.328	3089
849.463	3123
849.598	3058
849.734	3066
849.869	3001
850.004	2933
850.14	2998
850.275	2944
850.41	2811
850.545	2861
850.68	2914
850.815	3001
850.95	2933
851.085	3165
851.22	3077
851.355	3055
851.49	2986
851.625	2990
851.76	3005
851.895	2925
852.03	2925
852.165	3043
852.299	3131
852.434	3184
852.569	3127
852.703	3157
852.838	3272
852.973	3321
853.107	3329
853.242	3154
853.376	3077
853.511	2963
853.645	3005
853.78	3241
853.914	3100
854.048	3085
854.183	3070
854.317	3146
854.451	3287
854.585	3097
854.72	3074
854.854	3184
854.988	3009
855.122	3135
855.256	2952
855.39	3123
855.524	3211
855.658	3165
855.792	3138
855.926	3176
856.06	3207
856.194	3249
856.327	3165
856.461	3047
856.595	3074
856.729	3074
856.862	3184
856.996	3135
857.13	3192
857.263	3214
857.397	3279
857.53	3104
857.664	3184
857.797	3253
857.931	3268
858.064	3176
858.197	3230
858.331	3081
858.464	3085
858.597	3013
858.731	3116
858.864	3146
858.997	3066
859.13	3135
859.263	3188
859.396	3188
859.529	3055
859.662	3074
859.795	3081
859.928	3123
860.061	3279
860.194	3275
860.327	3131
860.46	3093
860.592	3230
860.725	3222
860.858	3226
860.99	3081
861.123	3051
861.256	3089
861.388	3157
861.521	3945
861.653	2967
861.786	2971
861.918	3001
862.05	3043
862.183	3081
862.315	3123
862.447	3211
862.58	3123
862.712	2967
862.844	2868
862.976	3036
863.108	2979
863.24	3428
863.372	2880
863.504	2952
863.636	2914
863.768	3055
863.9	2986
864.032	2883
864.164	2944
864.296	3028
864.428	3077
864.559	3104
864.691	3085
864.823	3070
864.954	3020
865.086	3036
865.217	2998
865.349	2864
865.48	2990
865.612	3020
865.743	3146
865.875	2990
866.006	2944
866.137	2971
866.269	2929
866.4	2948
866.531	2887
866.662	2891
866.793	2868
866.924	2857
867.055	2952
867.186	2929
867.317	2918
867.448	2815
867.579	2838
867.71	2853
867.841	2819
867.972	2868
868.103	2895
868.233	2887
868.364	2872
868.495	2925
868.625	3058
868.756	3123
868.886	2986
869.017	3020
869.147	3131
869.278	3161
869.408	3020
869.539	3009
869.669	3077
869.799	3039
869.929	3123
870.06	3093
870.19	3355
870.32	3283
870.45	3298
870.58	3340
870.71	3496
870.84	3488
870.97	3283
871.1	3253
871.23	3469
871.36	3485
871.489	3310
871.619	3412
871.749	3416
871.879	3450
872.008	3469
872.138	3340
872.267	3272
872.397	3165
872.526	3127
872.656	3017
872.785	3104
872.915	3230
873.044	3306
873.173	3203
873.303	3218
873.432	3249
873.561	3184
873.69	3184
873.819	3150
873.948	3173
874.077	3089
874.206	3039
874.335	3036
874.464	3214
874.593	3363
874.722	3241
874.851	3351
874.979	3355
875.108	3260
875.237	3188
875.365	3108
875.494	3116
875.623	3272
875.751	3051
875.88	3104
876.008	3192
876.136	3169
876.265	3363
876.393	3507
876.521	3405
876.65	3374
876.778	3351
876.906	3268
877.034	3211
877.162	3249
877.29	3157
877.418	3237
877.546	3253
877.674	3214
877.802	3279
877.93	3233
878.058	3154
878.185	3093
878.313	3207
878.441	3157
878.568	3074
878.696	3127
878.824	3279
878.951	3287
879.079	3443
879.206	3629
879.333	3420
879.461	3306
879.588	3363
879.715	3492
879.842	3591
879.97	3386
880.097	3180
880.224	3138
880.351	3214
880.478	3207
880.605	3195
880.732	3184
880.859	3454
880.986	3317
881.112	3298
881.239	3180
881.366	3089
881.493	3047
881.619	3013
881.746	3104
881.872	3070
881.999	3112
882.125	3157
882.252	3253
882.378	3268
882.505	3424
882.631	3291
882.757	3157
882.883	3211
883.01	3214
883.136	3154
883.262	3108
883.388	3089
883.514	3329
883.64	3359
883.766	3279
883.892	3199
884.018	3233
884.143	3370
884.269	3538
884.395	3211
884.52	3184
884.646	3199
884.772	3131
884.897	3108
885.023	3218
885.148	3370
885.274	3393
885.399	3397
885.524	3249
885.65	3283
885.775	3310
885.9	3253
886.025	3424
886.15	3336
886.275	3317
886.4	3249
886.525	3336
886.65	3233
886.775	3260
886.9	3488
887.025	3610
887.149	3389
887.274	3233
887.399	3195
887.523	3207
887.648	3161
887.773	3184
887.897	3393
888.021	3382
888.146	3294
888.27	3424
888.395	3507
888.519	3397
888.643	3469
888.767	3393
888.891	3302
889.015	3245
889.139	3313
889.263	3214
889.387	3405
889.511	3507
889.635	3439
889.759	3302
889.883	3294
890.006	3428
890.13	3492
890.254	3291
890.377	3321
890.501	3230
890.624	3165
890.748	3287
890.871	3150
890.995	3108
891.118	3055
891.241	3195
891.364	3214
891.488	3313
891.611	3157
891.734	3233
891.857	3241
891.98	3237
892.103	3340
892.226	3291
892.349	3222
892.471	3112
892.594	3245
892.717	3279
892.839	3313
892.962	3264
893.085	3321
893.207	3268
893.33	3176
893.452	3214
893.575	3310
893.697	3226
893.819	3466
893.941	3492
894.064	3428
894.186	3237
894.308	3256
894.43	3424
894.552	3530
894.674	3447
894.796	3260
894.918	3302
895.04	3336
895.161	3431
895.283	3363
895.405	3306
895.526	3367
895.648	3462
895.769	3443
895.891	3504
896.012	3462
896.134	3462
896.255	3409
896.376	3363
896.498	3378
896.619	3439
896.74	3359
896.861	3412
896.982	3675
897.103	3846
897.224	3576
897.345	3515
897.466	3443
897.587	3504
897.708	3580
897.828	3530
897.949	3412
898.07	3321
898.19	3409
898.311	3603
898.431	3504
898.552	3511
898.672	3580
898.792	3530
898.913	3538
899.033	3443
899.153	3291
899.273	3211
899.393	3268
899.513	3325
899.633	3317
899.753	3344
899.873	3313
899.993	3367
900.113	3325
900.232	3378
900.352	3340
900.472	3268
900.591	3199
900.711	3340
900.83	3241
900.95	3428
901.069	3466
901.189	3382
901.308	3157
901.427	3150
901.546	3169
901.665	3298
901.784	3336
901.904	3222
902.023	3146
902.141	3020
902.26	2998
902.379	3112
902.498	3085
902.617	3055
902.735	3203
902.854	3237
902.973	3176
903.091	3036
903.21	3043
903.328	3138
903.446	3104
903.565	3123
903.683	3203
903.801	3112
903.919	3233
904.038	3275
904.156	3150
904.274	3283
904.392	3272
904.51	3287
904.627	3291
904.745	3481
904.863	3469
904.981	3245
905.098	3180
905.216	3233
905.334	3317
905.451	3275
905.569	3317
905.686	3450
905.803	3416
905.921	3279
906.038	3409
906.155	3321
906.272	3291
906.389	3325
906.506	3245
906.623	3272
906.74	3260
906.857	3176
906.974	3253
907.091	3447
907.208	3561
907.324	3439
907.441	3355
907.557	3260
907.674	3237
907.79	3237
907.907	3287
908.023	3363
908.139	3363
908.256	3310
908.372	3340
908.488	3348
908.604	3241
908.72	3222
908.836	3264
908.952	3237
909.068	3336
909.184	3458
909.3	3416
909.415	3492
909.531	3500
909.647	3256
909.762	3287
909.878	3283
909.993	3382
910.108	3336
910.224	3351
910.339	3420
910.454	3310
910.57	3268
910.685	3245
910.8	3534
910.915	3545
911.03	3401
911.145	3218
911.259	3302
911.374	3313
911.489	3222
911.604	3264
911.718	3146
911.833	3135
911.947	3032
912.062	2975
912.176	3108
912.291	3241
912.405	3203
912.519	3477
912.633	3469
912.748	3310
912.862	3237
912.976	3184
913.09	3089
913.204	3119
913.318	3176
913.431	3310
913.545	3340
913.659	3409
913.772	3325
913.886	3214
914	3176
914.113	3332
914.226	3397
914.34	3355
914.453	3199
914.566	3431
914.68	3344
914.793	3310
914.906	3131
915.019	3131
915.132	3058
915.245	3199
915.358	3192
915.47	3207
915.583	3287
915.696	3253
915.809	3378
915.921	3431
916.034	3256
916.146	3237
916.259	3241
916.371	3374
916.483	3397
916.595	3336
916.708	3332
916.82	3298
916.932	3351
917.044	3370
917.156	3313
917.268	3237
917.38	3264
917.491	3302
917.603	3363
917.715	3424
917.826	3439
917.938	3363
918.049	3260
918.161	3428
918.272	3576
918.384	3603
918.495	3447
918.606	3298
918.717	3253
918.828	3367
918.939	3367
919.05	3310
919.161	3378
919.272	3146
919.383	3272
919.494	3492
919.604	3717
919.715	3458
919.826	3370
919.936	3477
920.047	3553
920.157	3511
920.267	3747
920.378	3614
920.488	3530
920.598	3789
920.708	3922
920.818	3842
920.928	3842
921.038	4025
921.148	3998
921.258	3682
921.368	3629
921.477	3591
921.587	3553
921.697	3458
921.806	3603
921.916	3511
922.025	3355
922.134	3378
922.244	3329
922.353	3401
922.462	3264
922.571	3237
922.68	3112
922.789	3089
922.898	3131
923.007	3066
923.116	3176
923.224	3188
923.333	3180
923.442	3089
923.55	3093
923.659	3138
923.767	3199
923.876	3116
923.984	3249
924.092	3074
924.201	3207
924.309	3180
924.417	3237
924.525	3184
924.633	3211
924.741	4021
924.849	3062
924.956	3245
925.064	3097
925.172	3058
925.279	3100
925.387	3192
925.494	3211
925.602	3340
925.709	3294
925.816	3226
925.924	3287
926.031	3370
926.138	3378
926.245	3386
926.352	3241
926.459	3378
926.566	3481
926.673	3321
926.779	3256
926.886	3241
926.993	3150
927.099	3154
927.206	3104
927.312	3112
927.419	3192
927.525	3184
927.631	3287
927.737	3176
927.843	3112
927.95	3051
928.056	3123
928.162	3184
928.267	3237
928.373	3785
928.479	3313
928.585	3077
928.69	3203
928.796	3256
928.901	3173
929.007	3032
929.112	3211
929.218	3173
929.323	3142
929.428	3176
929.533	3302
929.638	3138
929.743	3169
929.848	3241
929.953	3218
930.058	3150
930.163	3009
930.267	3047
930.372	3161
930.477	3036
930.581	3340
930.685	3180
930.79	3051
930.894	3138
930.998	3074
931.103	3260
931.207	2960
931.311	2925
931.415	2899
931.519	2781
931.623	2834
