Data from test_V78500241_941.txt Node
Date: Fri Mar 25 16:21:43 CST 2022
User: usil
Spectrometer: V785-0024
Trigger mode: 0
Integration Time (sec): 4.000000E-1
Scans to average: 1
Nonlinearity correction enabled: false
Boxcar width: 0
Storing dark spectrum: false
XAxis mode: Wavelengths
Number of Pixels in Spectrum: 1024
>>>>>Begin Spectral Data<<<<<
801.071	2925
801.214	2967
801.356	2895
801.499	2941
801.641	2929
801.783	2918
801.926	3077
802.068	2994
802.211	3017
802.353	3047
802.496	2982
802.638	3051
802.78	3036
802.923	3089
803.065	3039
803.208	2918
803.35	2929
803.492	2963
803.635	2910
803.777	2773
803.919	2880
804.061	3188
804.204	2967
804.346	2944
804.488	2849
804.63	3013
804.773	2883
804.915	2880
805.057	3081
805.199	2960
805.341	3009
805.483	3081
805.626	3005
805.768	2994
805.91	3089
806.052	3108
806.194	3036
806.336	3249
806.478	3005
806.62	2956
806.762	2994
806.904	3066
807.046	3192
807.188	2986
807.33	2918
807.472	2994
807.614	2933
807.756	2998
807.898	2906
808.04	2910
808.182	2986
808.324	2982
808.465	2876
808.607	2891
808.749	2800
808.891	2849
809.033	2982
809.174	2975
809.316	2941
809.458	2929
809.6	2819
809.741	2788
809.883	2739
810.025	2842
810.166	2902
810.308	2838
810.45	2891
810.591	2819
810.733	2804
810.875	2872
811.016	2788
811.158	2769
811.299	2811
811.441	2929
811.582	2876
811.724	2880
811.865	2785
812.007	2918
812.148	2914
812.29	2872
812.431	2918
812.573	2937
812.714	2963
812.855	3066
812.997	3062
813.138	3142
813.279	3032
813.421	2963
813.562	2986
813.703	2883
813.845	2906
813.986	2769
814.127	2758
814.268	2804
814.41	2815
814.551	2804
814.692	2880
814.833	2842
814.974	2929
815.115	2952
815.256	2864
815.397	2834
815.539	2883
815.68	2807
815.821	2800
815.962	2952
816.103	2944
816.244	2861
816.385	2887
816.526	2986
816.666	2956
816.807	2735
816.948	2906
817.089	2948
817.23	2864
817.371	2811
817.512	2792
817.653	2842
817.793	2853
817.934	2880
818.075	2979
818.216	2982
818.356	3024
818.497	2906
818.638	2777
818.778	2853
818.919	2819
819.06	2750
819.2	2899
819.341	2838
819.481	2830
819.622	2925
819.762	3127
819.903	3051
820.043	2967
820.184	2906
820.324	2887
820.465	3039
820.605	3058
820.746	3062
820.886	2925
821.026	3089
821.167	3169
821.307	3214
821.447	3291
821.588	3253
821.728	3211
821.868	3203
822.008	3066
822.149	3230
822.289	3268
822.429	3119
822.569	3112
822.709	3203
822.849	3047
822.99	3077
823.13	3188
823.27	3188
823.41	3104
823.55	3169
823.69	3146
823.83	3184
823.97	3081
824.11	3013
824.25	2998
824.389	3066
824.529	3100
824.669	3077
824.809	3214
824.949	3245
825.089	3222
825.228	3154
825.368	3009
825.508	2929
825.648	2986
825.787	3017
825.927	3036
826.067	2971
826.206	2971
826.346	3066
826.485	3100
826.625	3138
826.765	3264
826.904	3226
827.044	2998
827.183	2963
827.323	2918
827.462	3013
827.601	2902
827.741	2918
827.88	2979
828.02	2834
828.159	2975
828.298	3039
828.437	3150
828.577	3032
828.716	3256
828.855	3108
828.994	2910
829.134	2899
829.273	2948
829.412	2868
829.551	2883
829.69	2895
829.829	2990
829.968	3100
830.107	3024
830.246	3055
830.385	2944
830.524	2895
830.663	2800
830.802	2724
830.941	2659
831.08	2651
831.219	2762
831.357	2777
831.496	2956
831.635	2739
831.774	2655
831.913	2636
832.051	2549
832.19	2560
832.329	2670
832.467	2575
832.606	2457
832.744	2564
832.883	2632
833.022	2579
833.16	2651
833.299	2712
833.437	2708
833.576	2670
833.714	2743
833.852	2731
833.991	2758
834.129	2838
834.267	2834
834.406	2773
834.544	2853
834.682	2849
834.821	2868
834.959	3074
835.097	2872
835.235	3062
835.373	3005
835.511	3017
835.65	2967
835.788	2941
835.926	2819
836.064	2834
836.202	2864
836.34	3119
836.478	3154
836.615	3093
836.753	3104
836.891	3188
837.029	3146
837.167	3104
837.305	3058
837.443	3028
837.58	2979
837.718	3119
837.856	3043
837.993	3051
838.131	3119
838.269	3104
838.406	3085
838.544	3093
838.681	2933
838.819	2925
838.956	2811
839.094	2838
839.231	2902
839.369	3028
839.506	3386
839.643	3233
839.781	3055
839.918	2963
840.055	3047
840.193	3036
840.33	3043
840.467	3097
840.604	3195
840.742	3378
840.879	3051
841.016	3058
841.153	3135
841.29	3287
841.427	3298
841.564	3264
841.701	3325
841.838	3184
841.975	3157
842.112	3245
842.249	3093
842.385	3020
842.522	3253
842.659	3100
842.796	3043
842.933	3127
843.069	3058
843.206	3013
843.343	3192
843.479	3119
843.616	3131
843.752	2914
843.889	2876
844.025	3100
844.162	2864
844.298	3085
844.435	2914
844.571	2937
844.708	3047
844.844	3245
844.98	3226
845.117	3146
845.253	3036
845.389	2990
845.525	3116
845.661	3119
845.798	3028
845.934	3127
846.07	3097
846.206	3207
846.342	3313
846.478	3264
846.614	3112
846.75	3070
846.886	3032
847.022	3256
847.158	3119
847.294	3188
847.429	3233
847.565	3176
847.701	3481
847.837	3020
847.972	2990
848.108	3146
848.244	3127
848.379	2994
848.515	2933
848.65	2929
848.786	2952
848.921	3032
849.057	3104
849.192	3165
849.328	3104
849.463	3089
849.598	3017
849.734	3024
849.869	2948
850.004	2899
850.14	3001
850.275	2914
850.41	2807
850.545	2872
850.68	2941
850.815	2971
850.95	2960
851.085	3146
851.22	3089
851.355	3024
851.49	2960
851.625	2975
851.76	3013
851.895	2948
852.03	2895
852.165	3024
852.299	3081
852.434	3188
852.569	3146
852.703	3173
852.838	3256
852.973	3298
853.107	3321
853.242	3142
853.376	3085
853.511	2967
853.645	3032
853.78	3249
853.914	3123
854.048	3108
854.183	3051
854.317	3127
854.451	3264
854.585	3135
854.72	3070
854.854	3218
854.988	3070
855.122	3077
855.256	2963
855.39	3108
855.524	3188
855.658	3173
855.792	3135
855.926	3188
856.06	3207
856.194	3268
856.327	3173
856.461	3020
856.595	3104
856.729	3070
856.862	3176
856.996	3207
857.13	3195
857.263	3249
857.397	3268
857.53	3119
857.664	3203
857.797	3264
857.931	3237
858.064	3161
858.197	3230
858.331	3131
858.464	3123
858.597	2994
858.731	3135
858.864	3161
858.997	3055
859.13	3176
859.263	3180
859.396	3222
859.529	3070
859.662	3089
859.795	3062
859.928	3131
860.061	3268
860.194	3222
860.327	3119
860.46	3093
860.592	3230
860.725	3233
860.858	3260
860.99	3131
861.123	3036
861.256	3032
861.388	3150
861.521	3819
861.653	3032
861.786	2998
861.918	2941
862.05	3039
862.183	3085
862.315	3097
862.447	3203
862.58	3131
862.712	2941
862.844	2861
862.976	3020
863.108	2967
863.24	3397
863.372	2864
863.504	2941
863.636	2952
863.768	3020
863.9	2963
864.032	2887
864.164	2914
864.296	2971
864.428	3051
864.559	3055
864.691	3070
864.823	3077
864.954	3062
865.086	3077
865.217	2986
865.349	2933
865.48	2963
865.612	3020
865.743	3146
865.875	3028
866.006	2910
866.137	2979
866.269	2918
866.4	2925
866.531	2895
866.662	2876
866.793	2910
866.924	2891
867.055	2963
867.186	2937
867.317	2891
867.448	2845
867.579	2811
867.71	2849
867.841	2823
867.972	2925
868.103	2895
868.233	2845
868.364	2842
868.495	2925
868.625	3097
868.756	3135
868.886	2975
869.017	2994
869.147	3150
869.278	3142
869.408	3047
869.539	3047
869.669	3100
869.799	3028
869.929	3138
870.06	3085
870.19	3298
870.32	3294
870.45	3291
870.58	3363
870.71	3431
870.84	3435
870.97	3291
871.1	3256
871.23	3481
871.36	3443
871.489	3351
871.619	3386
871.749	3378
871.879	3420
872.008	3466
872.138	3313
872.267	3260
872.397	3157
872.526	3100
872.656	2994
872.785	3100
872.915	3218
873.044	3287
873.173	3180
873.303	3245
873.432	3249
873.561	3249
873.69	3154
873.819	3135
873.948	3188
874.077	3081
874.206	3055
874.335	3062
874.464	3226
874.593	3332
874.722	3230
874.851	3344
874.979	3363
875.108	3329
875.237	3173
875.365	3161
875.494	3161
875.623	3264
875.751	3058
875.88	3135
876.008	3214
876.136	3203
876.265	3363
876.393	3515
876.521	3416
876.65	3367
876.778	3298
876.906	3275
877.034	3188
877.162	3249
877.29	3214
877.418	3230
877.546	3256
877.674	3253
877.802	3222
877.93	3211
878.058	3154
878.185	3104
878.313	3195
878.441	3218
878.568	3058
878.696	3161
878.824	3211
878.951	3306
879.079	3435
879.206	3641
879.333	3443
879.461	3348
879.588	3302
879.715	3526
879.842	3622
879.97	3355
880.097	3142
880.224	3131
880.351	3157
880.478	3272
880.605	3199
880.732	3184
880.859	3526
880.986	3317
881.112	3310
881.239	3214
881.366	3093
881.493	3074
881.619	3036
881.746	3077
881.872	3062
881.999	3081
882.125	3138
882.252	3241
882.378	3268
882.505	3462
882.631	3302
882.757	3138
882.883	3199
883.01	3233
883.136	3195
883.262	3119
883.388	3119
883.514	3306
883.64	3416
883.766	3310
883.892	3173
884.018	3241
884.143	3428
884.269	3530
884.395	3188
884.52	3161
884.646	3161
884.772	3135
884.897	3119
885.023	3207
885.148	3317
885.274	3405
885.399	3416
885.524	3249
885.65	3256
885.775	3302
885.9	3245
886.025	3401
886.15	3382
886.275	3317
886.4	3272
886.525	3332
886.65	3279
886.775	3287
886.9	3454
887.025	3614
887.149	3431
887.274	3260
887.399	3161
887.523	3211
887.648	3184
887.773	3188
887.897	3382
888.021	3405
888.146	3340
888.27	3454
888.395	3507
888.519	3397
888.643	3469
888.767	3500
888.891	3294
889.015	3241
889.139	3317
889.263	3245
889.387	3348
889.511	3504
889.635	3443
889.759	3264
889.883	3283
890.006	3367
890.13	3504
890.254	3237
890.377	3317
890.501	3176
890.624	3192
890.748	3317
890.871	3161
890.995	3055
891.118	3108
891.241	3161
891.364	3188
891.488	3275
891.611	3161
891.734	3211
891.857	3241
891.98	3256
892.103	3313
892.226	3249
892.349	3188
892.471	3108
892.594	3256
892.717	3291
892.839	3237
892.962	3268
893.085	3348
893.207	3291
893.33	3081
893.452	3165
893.575	3298
893.697	3241
893.819	3454
893.941	3488
894.064	3424
894.186	3298
894.308	3283
894.43	3416
894.552	3542
894.674	3473
894.796	3249
894.918	3283
895.04	3291
895.161	3424
895.283	3382
895.405	3329
895.526	3310
895.648	3405
895.769	3443
895.891	3420
896.012	3458
896.134	3462
896.255	3424
896.376	3382
896.498	3348
896.619	3416
896.74	3340
896.861	3435
896.982	3656
897.103	3846
897.224	3580
897.345	3500
897.466	3431
897.587	3485
897.708	3606
897.828	3523
897.949	3481
898.07	3283
898.19	3359
898.311	3614
898.431	3481
898.552	3477
898.672	3591
898.792	3587
898.913	3538
899.033	3416
899.153	3272
899.273	3203
899.393	3291
899.513	3306
899.633	3332
899.753	3321
899.873	3256
899.993	3378
900.113	3329
900.232	3401
900.352	3306
900.472	3272
900.591	3203
900.711	3291
900.83	3214
900.95	3378
901.069	3454
901.189	3298
901.308	3165
901.427	3142
901.546	3192
901.665	3249
901.784	3329
901.904	3188
902.023	3146
902.141	3043
902.26	2975
902.379	3119
902.498	3047
902.617	3074
902.735	3203
902.854	3207
902.973	3165
903.091	3058
903.21	3066
903.328	3127
903.446	3085
903.565	3074
903.683	3169
903.801	3157
903.919	3173
904.038	3298
904.156	3176
904.274	3256
904.392	3294
904.51	3287
904.627	3359
904.745	3412
904.863	3500
904.981	3256
905.098	3169
905.216	3253
905.334	3279
905.451	3275
905.569	3317
905.686	3447
905.803	3443
905.921	3294
906.038	3431
906.155	3370
906.272	3279
906.389	3355
906.506	3260
906.623	3245
906.74	3294
906.857	3176
906.974	3233
907.091	3443
907.208	3549
907.324	3469
907.441	3325
907.557	3256
907.674	3233
907.79	3241
907.907	3291
908.023	3367
908.139	3382
908.256	3321
908.372	3370
908.488	3329
908.604	3245
908.72	3214
908.836	3249
908.952	3279
909.068	3306
909.184	3477
909.3	3416
909.415	3507
909.531	3466
909.647	3272
909.762	3264
909.878	3291
909.993	3348
910.108	3348
910.224	3325
910.339	3409
910.454	3359
910.57	3291
910.685	3245
910.8	3584
910.915	3519
911.03	3458
911.145	3275
911.259	3275
911.374	3287
911.489	3253
911.604	3211
911.718	3127
911.833	3154
911.947	3032
912.062	2990
912.176	3146
912.291	3203
912.405	3184
912.519	3435
912.633	3458
912.748	3310
912.862	3253
912.976	3146
913.09	3108
913.204	3154
913.318	3222
913.431	3340
913.545	3340
913.659	3378
913.772	3321
913.886	3199
914	3203
914.113	3355
914.226	3393
914.34	3412
914.453	3192
914.566	3424
914.68	3298
914.793	3268
914.906	3112
915.019	3112
915.132	3051
915.245	3176
915.358	3199
915.47	3245
915.583	3283
915.696	3306
915.809	3386
915.921	3420
916.034	3283
916.146	3256
916.259	3211
916.371	3374
916.483	3370
916.595	3233
916.708	3348
916.82	3348
916.932	3313
917.044	3306
917.156	3370
917.268	3256
917.38	3291
917.491	3279
917.603	3329
917.715	3397
917.826	3492
917.938	3382
918.049	3241
918.161	3405
918.272	3603
918.384	3564
918.495	3504
918.606	3329
918.717	3264
918.828	3397
918.939	3428
919.05	3294
919.161	3401
919.272	3199
919.383	3279
919.494	3473
919.604	3682
919.715	3477
919.826	3431
919.936	3458
920.047	3564
920.157	3549
920.267	3747
920.378	3595
920.488	3584
920.598	3724
920.708	3941
920.818	3835
920.928	3869
921.038	3994
921.148	3975
921.258	3717
921.368	3641
921.477	3595
921.587	3545
921.697	3473
921.806	3667
921.916	3515
922.025	3340
922.134	3382
922.244	3317
922.353	3435
922.462	3237
922.571	3233
922.68	3093
922.789	3074
922.898	3173
923.007	3066
923.116	3199
923.224	3165
923.333	3222
923.442	3108
923.55	3077
923.659	3165
923.767	3203
923.876	3100
923.984	3268
924.092	3077
924.201	3199
924.309	3154
924.417	3249
924.525	3203
924.633	3264
924.741	4169
924.849	3036
924.956	3279
925.064	3104
925.172	3024
925.279	3100
925.387	3188
925.494	3184
925.602	3367
925.709	3298
925.816	3176
925.924	3260
926.031	3378
926.138	3340
926.245	3332
926.352	3279
926.459	3405
926.566	3447
926.673	3302
926.779	3241
926.886	3245
926.993	3123
927.099	3138
927.206	3119
927.312	3119
927.419	3222
927.525	3211
927.631	3253
927.737	3112
927.843	3108
927.95	3028
928.056	3123
928.162	3184
928.267	3264
928.373	3876
928.479	3272
928.585	3089
928.69	3218
928.796	3253
928.901	3146
929.007	3017
929.112	3195
929.218	3154
929.323	3173
929.428	3119
929.533	3325
929.638	3100
929.743	3195
929.848	3230
929.953	3161
930.058	3150
930.163	3005
930.267	3051
930.372	3180
930.477	2990
930.581	3329
930.685	3180
930.79	3047
930.894	3077
930.998	3097
931.103	3283
931.207	2952
931.311	2948
931.415	2906
931.519	2811
931.623	2815
