Data from test_V78500241_849.txt Node
Date: Fri Mar 25 16:21:05 CST 2022
User: usil
Spectrometer: V785-0024
Trigger mode: 0
Integration Time (sec): 4.000000E-1
Scans to average: 1
Nonlinearity correction enabled: false
Boxcar width: 0
Storing dark spectrum: false
XAxis mode: Wavelengths
Number of Pixels in Spectrum: 1024
>>>>>Begin Spectral Data<<<<<
801.071	2906
801.214	2937
801.356	2853
801.499	2910
801.641	2830
801.783	2922
801.926	3039
802.068	2982
802.211	2971
802.353	3032
802.496	2933
802.638	3009
802.78	3039
802.923	3077
803.065	2994
803.208	2906
803.35	2914
803.492	2929
803.635	2929
803.777	2773
803.919	2868
804.061	3165
804.204	2975
804.346	2918
804.488	2838
804.63	3001
804.773	2887
804.915	2902
805.057	3108
805.199	2960
805.341	2933
805.483	3032
805.626	2994
805.768	2967
805.91	3055
806.052	3093
806.194	3074
806.336	3226
806.478	3001
806.62	2948
806.762	2952
806.904	3039
807.046	3169
807.188	2967
807.33	2944
807.472	3055
807.614	2910
807.756	2956
807.898	2918
808.04	2891
808.182	2956
808.324	2967
808.465	2883
808.607	2864
808.749	2826
808.891	2842
809.033	2979
809.174	2948
809.316	2880
809.458	2868
809.6	2769
809.741	2735
809.883	2800
810.025	2849
810.166	2849
810.308	2849
810.45	2842
810.591	2758
810.733	2743
810.875	2811
811.016	2773
811.158	2792
811.299	2796
811.441	2937
811.582	2910
811.724	2819
811.865	2826
812.007	2906
812.148	2857
812.29	2834
812.431	2849
812.573	2967
812.714	2979
812.855	3047
812.997	3058
813.138	3135
813.279	2971
813.421	2986
813.562	2956
813.703	2887
813.845	2895
813.986	2766
814.127	2708
814.268	2838
814.41	2826
814.551	2834
814.692	2891
814.833	2830
814.974	2914
815.115	2944
815.256	2849
815.397	2807
815.539	2876
815.68	2792
815.821	2766
815.962	2963
816.103	2925
816.244	2891
816.385	2883
816.526	2960
816.666	2910
816.807	2777
816.948	2868
817.089	2883
817.23	2804
817.371	2823
817.512	2766
817.653	2804
817.793	2872
817.934	2902
818.075	2948
818.216	2967
818.356	3024
818.497	2883
818.638	2777
818.778	2830
818.919	2777
819.06	2758
819.2	2857
819.341	2826
819.481	2807
819.622	2963
819.762	3085
819.903	3020
820.043	2925
820.184	2880
820.324	2887
820.465	3005
820.605	3028
820.746	2971
820.886	2933
821.026	3089
821.167	3150
821.307	3260
821.447	3249
821.588	3264
821.728	3161
821.868	3188
822.008	3070
822.149	3199
822.289	3218
822.429	3081
822.569	3100
822.709	3173
822.849	3024
822.99	3062
823.13	3142
823.27	3188
823.41	3116
823.55	3093
823.69	3192
823.83	3146
823.97	3070
824.11	2975
824.25	2975
824.389	3074
824.529	3135
824.669	3047
824.809	3176
824.949	3283
825.089	3264
825.228	3161
825.368	3024
825.508	2948
825.648	2960
825.787	3005
825.927	2990
826.067	2941
826.206	2975
826.346	3047
826.485	3024
826.625	3062
826.765	3245
826.904	3199
827.044	2986
827.183	2887
827.323	2857
827.462	3001
827.601	2883
827.741	2906
827.88	2937
828.02	2834
828.159	2971
828.298	3070
828.437	3100
828.577	3085
828.716	3233
828.855	3089
828.994	2933
829.134	2868
829.273	2929
829.412	2834
829.551	2845
829.69	2864
829.829	2952
829.968	3097
830.107	3013
830.246	3005
830.385	2895
830.524	2853
830.663	2804
830.802	2724
830.941	2632
831.08	2640
831.219	2739
831.357	2758
831.496	2937
831.635	2674
831.774	2629
831.913	2621
832.051	2552
832.19	2571
832.329	2682
832.467	2537
832.606	2465
832.744	2556
832.883	2587
833.022	2590
833.16	2621
833.299	2697
833.437	2705
833.576	2724
833.714	2727
833.852	2758
833.991	2762
834.129	2880
834.267	2804
834.406	2788
834.544	2868
834.682	2864
834.821	2864
834.959	3047
835.097	2883
835.235	3013
835.373	2975
835.511	2971
835.65	2967
835.788	2963
835.926	2811
836.064	2792
836.202	2800
836.34	3085
836.478	3146
836.615	3058
836.753	3112
836.891	3199
837.029	3165
837.167	3062
837.305	3062
837.443	3017
837.58	2967
837.718	3123
837.856	3081
837.993	3024
838.131	3135
838.269	3097
838.406	3116
838.544	3066
838.681	2967
838.819	2922
838.956	2845
839.094	2830
839.231	2914
839.369	2994
839.506	3374
839.643	3169
839.781	3024
839.918	2998
840.055	3036
840.193	3039
840.33	3036
840.467	3135
840.604	3093
840.742	3393
840.879	3020
841.016	3047
841.153	3135
841.29	3302
841.427	3298
841.564	3272
841.701	3306
841.838	3192
841.975	3146
842.112	3207
842.249	3085
842.385	3055
842.522	3256
842.659	3074
842.796	3047
842.933	3097
843.069	3055
843.206	3051
843.343	3230
843.479	3070
843.616	3123
843.752	2922
843.889	2891
844.025	3081
844.162	2857
844.298	3058
844.435	2944
844.571	2872
844.708	3066
844.844	3176
844.98	3241
845.117	3146
845.253	3077
845.389	2994
845.525	3097
845.661	3104
845.798	3055
845.934	3108
846.07	3085
846.206	3226
846.342	3313
846.478	3203
846.614	3043
846.75	3051
846.886	3009
847.022	3226
847.158	3119
847.294	3192
847.429	3237
847.565	3184
847.701	3466
847.837	3032
847.972	2963
848.108	3161
848.244	3119
848.379	2971
848.515	2941
848.65	2925
848.786	2979
848.921	2990
849.057	3104
849.192	3116
849.328	3051
849.463	3058
849.598	3039
849.734	3013
849.869	2956
850.004	2960
850.14	2986
850.275	2899
850.41	2834
850.545	2872
850.68	2952
850.815	2956
850.95	2956
851.085	3176
851.22	3070
851.355	3043
851.49	3001
851.625	3032
851.76	2990
851.895	2944
852.03	2925
852.165	3024
852.299	3081
852.434	3180
852.569	3150
852.703	3131
852.838	3256
852.973	3321
853.107	3317
853.242	3169
853.376	3104
853.511	2956
853.645	3017
853.78	3203
853.914	3070
854.048	3138
854.183	3058
854.317	3123
854.451	3294
854.585	3112
854.72	3077
854.854	3199
854.988	3036
855.122	3062
855.256	2967
855.39	3116
855.524	3222
855.658	3184
855.792	3169
855.926	3211
856.06	3192
856.194	3256
856.327	3142
856.461	3119
856.595	3058
856.729	3116
856.862	3203
856.996	3119
857.13	3192
857.263	3195
857.397	3294
857.53	3112
857.664	3157
857.797	3199
857.931	3268
858.064	3173
858.197	3245
858.331	3123
858.464	3108
858.597	3005
858.731	3074
858.864	3085
858.997	3047
859.13	3135
859.263	3192
859.396	3173
859.529	3074
859.662	3077
859.795	3024
859.928	3154
860.061	3249
860.194	3294
860.327	3165
860.46	3116
860.592	3233
860.725	3245
860.858	3253
860.99	3077
861.123	3055
861.256	3066
861.388	3138
861.521	3934
861.653	3024
861.786	2944
861.918	3024
862.05	3066
862.183	3089
862.315	3165
862.447	3222
862.58	3097
862.712	2948
862.844	2853
862.976	3051
863.108	2998
863.24	3275
863.372	2906
863.504	2944
863.636	2967
863.768	3062
863.9	2956
864.032	2906
864.164	2948
864.296	3009
864.428	3074
864.559	3108
864.691	3058
864.823	3066
864.954	3066
865.086	2994
865.217	3001
865.349	2933
865.48	2971
865.612	2986
865.743	3173
865.875	2998
866.006	2944
866.137	2918
866.269	2944
866.4	2922
866.531	2899
866.662	2864
866.793	2914
866.924	2902
867.055	2937
867.186	2925
867.317	2883
867.448	2849
867.579	2845
867.71	2853
867.841	2830
867.972	2891
868.103	2918
868.233	2876
868.364	2845
868.495	2910
868.625	3058
868.756	3199
868.886	2941
869.017	2998
869.147	3176
869.278	3127
869.408	3074
869.539	3017
869.669	3093
869.799	3009
869.929	3104
870.06	3116
870.19	3332
870.32	3332
870.45	3302
870.58	3332
870.71	3454
870.84	3428
870.97	3321
871.1	3230
871.23	3492
871.36	3416
871.489	3374
871.619	3431
871.749	3344
871.879	3431
872.008	3500
872.138	3344
872.267	3313
872.397	3108
872.526	3085
872.656	2982
872.785	3112
872.915	3203
873.044	3325
873.173	3237
873.303	3241
873.432	3279
873.561	3214
873.69	3161
873.819	3104
873.948	3218
874.077	3077
874.206	3036
874.335	3055
874.464	3192
874.593	3283
874.722	3279
874.851	3393
874.979	3363
875.108	3313
875.237	3195
875.365	3154
875.494	3131
875.623	3230
875.751	3081
875.88	3119
876.008	3154
876.136	3241
876.265	3382
876.393	3492
876.521	3386
876.65	3389
876.778	3336
876.906	3260
877.034	3230
877.162	3211
877.29	3207
877.418	3245
877.546	3275
877.674	3241
877.802	3203
877.93	3218
878.058	3150
878.185	3127
878.313	3203
878.441	3226
878.568	3062
878.696	3138
878.824	3264
878.951	3302
879.079	3462
879.206	3648
879.333	3435
879.461	3348
879.588	3313
879.715	3450
879.842	3587
879.97	3370
880.097	3135
880.224	3104
880.351	3230
880.478	3237
880.605	3203
880.732	3169
880.859	3477
880.986	3310
881.112	3321
881.239	3230
881.366	3066
881.493	3005
881.619	2994
881.746	3039
881.872	3104
881.999	3062
882.125	3150
882.252	3226
882.378	3237
882.505	3447
882.631	3306
882.757	3169
882.883	3233
883.01	3226
883.136	3135
883.262	3070
883.388	3138
883.514	3325
883.64	3363
883.766	3317
883.892	3195
884.018	3260
884.143	3439
884.269	3561
884.395	3195
884.52	3146
884.646	3203
884.772	3157
884.897	3116
885.023	3195
885.148	3306
885.274	3405
885.399	3348
885.524	3264
885.65	3256
885.775	3310
885.9	3279
886.025	3389
886.15	3355
886.275	3294
886.4	3226
886.525	3306
886.65	3268
886.775	3275
886.9	3481
887.025	3603
887.149	3389
887.274	3245
887.399	3203
887.523	3192
887.648	3222
887.773	3157
887.897	3332
888.021	3412
888.146	3287
888.27	3454
888.395	3545
888.519	3447
888.643	3458
888.767	3462
888.891	3306
889.015	3207
889.139	3260
889.263	3237
889.387	3355
889.511	3523
889.635	3435
889.759	3260
889.883	3272
890.006	3344
890.13	3473
890.254	3249
890.377	3363
890.501	3199
890.624	3203
890.748	3268
890.871	3180
890.995	3093
891.118	3058
891.241	3188
891.364	3226
891.488	3313
891.611	3176
891.734	3203
891.857	3279
891.98	3249
892.103	3348
892.226	3260
892.349	3226
892.471	3100
892.594	3260
892.717	3275
892.839	3275
892.962	3272
893.085	3370
893.207	3321
893.33	3192
893.452	3176
893.575	3325
893.697	3253
893.819	3504
893.941	3485
894.064	3447
894.186	3233
894.308	3272
894.43	3439
894.552	3511
894.674	3473
894.796	3241
894.918	3321
895.04	3332
895.161	3424
895.283	3374
895.405	3302
895.526	3363
895.648	3435
895.769	3386
895.891	3428
896.012	3485
896.134	3515
896.255	3405
896.376	3401
896.498	3351
896.619	3374
896.74	3355
896.861	3351
896.982	3679
897.103	3827
897.224	3564
897.345	3496
897.466	3428
897.587	3481
897.708	3625
897.828	3523
897.949	3458
898.07	3340
898.19	3412
898.311	3587
898.431	3477
898.552	3481
898.672	3572
898.792	3564
898.913	3504
899.033	3386
899.153	3306
899.273	3245
899.393	3283
899.513	3298
899.633	3348
899.753	3313
899.873	3279
899.993	3386
900.113	3317
900.232	3370
900.352	3325
900.472	3287
900.591	3176
900.711	3275
900.83	3230
900.95	3359
901.069	3485
901.189	3344
901.308	3154
901.427	3146
901.546	3211
901.665	3283
901.784	3313
901.904	3165
902.023	3131
902.141	3024
902.26	3009
902.379	3127
902.498	3081
902.617	3009
902.735	3188
902.854	3214
902.973	3184
903.091	3051
903.21	3070
903.328	3188
903.446	3074
903.565	3089
903.683	3169
903.801	3161
903.919	3222
904.038	3241
904.156	3188
904.274	3310
904.392	3218
904.51	3283
904.627	3291
904.745	3447
904.863	3481
904.981	3245
905.098	3157
905.216	3241
905.334	3317
905.451	3302
905.569	3275
905.686	3428
905.803	3454
905.921	3283
906.038	3405
906.155	3370
906.272	3275
906.389	3294
906.506	3180
906.623	3249
906.74	3294
906.857	3203
906.974	3272
907.091	3504
907.208	3576
907.324	3454
907.441	3370
907.557	3207
907.674	3218
907.79	3207
907.907	3226
908.023	3416
908.139	3370
908.256	3340
908.372	3370
908.488	3313
908.604	3272
908.72	3222
908.836	3287
908.952	3287
909.068	3344
909.184	3477
909.3	3348
909.415	3500
909.531	3492
909.647	3249
909.762	3268
909.878	3237
909.993	3325
910.108	3336
910.224	3298
910.339	3401
910.454	3348
910.57	3291
910.685	3207
910.8	3576
910.915	3538
911.03	3416
911.145	3264
911.259	3256
911.374	3321
911.489	3222
911.604	3214
911.718	3097
911.833	3138
911.947	3062
912.062	2982
912.176	3199
912.291	3161
912.405	3218
912.519	3420
912.633	3454
912.748	3336
912.862	3233
912.976	3214
913.09	3085
913.204	3138
913.318	3245
913.431	3313
913.545	3332
913.659	3393
913.772	3291
913.886	3241
914	3211
914.113	3397
914.226	3382
914.34	3389
914.453	3207
914.566	3405
914.68	3287
914.793	3325
914.906	3138
915.019	3058
915.132	3051
915.245	3169
915.358	3211
915.47	3218
915.583	3230
915.696	3275
915.809	3359
915.921	3393
916.034	3233
916.146	3233
916.259	3211
916.371	3367
916.483	3374
916.595	3275
916.708	3306
916.82	3340
916.932	3344
917.044	3325
917.156	3313
917.268	3241
917.38	3298
917.491	3241
917.603	3367
917.715	3405
917.826	3405
917.938	3363
918.049	3264
918.161	3409
918.272	3576
918.384	3591
918.495	3488
918.606	3348
918.717	3275
918.828	3336
918.939	3401
919.05	3313
919.161	3393
919.272	3157
919.383	3283
919.494	3477
919.604	3660
919.715	3485
919.826	3420
919.936	3431
920.047	3587
920.157	3542
920.267	3751
920.378	3545
920.488	3610
920.598	3804
920.708	3937
920.818	3774
920.928	3869
921.038	4029
921.148	3987
921.258	3694
921.368	3633
921.477	3557
921.587	3538
921.697	3412
921.806	3622
921.916	3519
922.025	3370
922.134	3378
922.244	3310
922.353	3447
922.462	3294
922.571	3233
922.68	3127
922.789	3074
922.898	3127
923.007	3047
923.116	3241
923.224	3142
923.333	3165
923.442	3097
923.55	3089
923.659	3112
923.767	3226
923.876	3116
923.984	3233
924.092	3116
924.201	3184
924.309	3203
924.417	3207
924.525	3165
924.633	3214
924.741	3994
924.849	3047
924.956	3294
925.064	3070
925.172	3005
925.279	3097
925.387	3207
925.494	3184
925.602	3332
925.709	3294
925.816	3169
925.924	3264
926.031	3405
926.138	3348
926.245	3363
926.352	3233
926.459	3374
926.566	3454
926.673	3298
926.779	3245
926.886	3222
926.993	3146
927.099	3127
927.206	3104
927.312	3097
927.419	3214
927.525	3157
927.631	3260
927.737	3100
927.843	3116
927.95	2998
928.056	3131
928.162	3203
928.267	3253
928.373	3793
928.479	3275
928.585	3032
928.69	3195
928.796	3291
928.901	3173
929.007	3032
929.112	3192
929.218	3131
929.323	3142
929.428	3135
929.533	3306
929.638	3119
929.743	3195
929.848	3260
929.953	3192
930.058	3154
930.163	3005
930.267	3062
930.372	3173
930.477	3039
930.581	3332
930.685	3142
930.79	3074
930.894	3104
930.998	3097
931.103	3256
931.207	2979
931.311	2918
931.415	2899
931.519	2781
931.623	2800
