Data from test_V78500241_1330.txt Node
Date: Fri Mar 25 16:24:25 CST 2022
User: usil
Spectrometer: V785-0024
Trigger mode: 0
Integration Time (sec): 4.000000E-1
Scans to average: 1
Nonlinearity correction enabled: false
Boxcar width: 0
Storing dark spectrum: false
XAxis mode: Wavelengths
Number of Pixels in Spectrum: 1024
>>>>>Begin Spectral Data<<<<<
801.071	2944
801.214	2941
801.356	2880
801.499	2830
801.641	2868
801.783	2925
801.926	3032
802.068	2933
802.211	2979
802.353	3039
802.496	2933
802.638	3032
802.78	3036
802.923	3085
803.065	2956
803.208	2872
803.35	2891
803.492	2925
803.635	2906
803.777	2769
803.919	2849
804.061	3173
804.204	2967
804.346	2891
804.488	2868
804.63	3013
804.773	2849
804.915	2910
805.057	3047
805.199	2914
805.341	2979
805.483	3036
805.626	2998
805.768	2986
805.91	3070
806.052	3119
806.194	3028
806.336	3211
806.478	3024
806.62	3001
806.762	2971
806.904	3039
807.046	3176
807.188	2948
807.33	2868
807.472	2982
807.614	2929
807.756	2960
807.898	2891
808.04	2876
808.182	2963
808.324	2952
808.465	2857
808.607	2883
808.749	2788
808.891	2819
809.033	2944
809.174	2990
809.316	2857
809.458	2895
809.6	2769
809.741	2762
809.883	2762
810.025	2857
810.166	2834
810.308	2845
810.45	2857
810.591	2785
810.733	2766
810.875	2849
811.016	2743
811.158	2746
811.299	2781
811.441	2937
811.582	2914
811.724	2811
811.865	2807
812.007	2902
812.148	2864
812.29	2842
812.431	2925
812.573	2956
812.714	2956
812.855	3055
812.997	3039
813.138	3135
813.279	2994
813.421	3009
813.562	2963
813.703	2857
813.845	2899
813.986	2773
814.127	2762
814.268	2830
814.41	2800
814.551	2811
814.692	2880
814.833	2807
814.974	2845
815.115	2956
815.256	2857
815.397	2819
815.539	2864
815.68	2781
815.821	2804
815.962	2918
816.103	2895
816.244	2902
816.385	2880
816.526	2922
816.666	2922
816.807	2754
816.948	2880
817.089	2914
817.23	2883
817.371	2788
817.512	2800
817.653	2811
817.793	2815
817.934	2849
818.075	2971
818.216	2975
818.356	2998
818.497	2849
818.638	2788
818.778	2804
818.919	2807
819.06	2785
819.2	2861
819.341	2781
819.481	2800
819.622	2937
819.762	3100
819.903	3039
820.043	2902
820.184	2899
820.324	2910
820.465	2998
820.605	3047
820.746	3036
820.886	2906
821.026	3066
821.167	3127
821.307	3188
821.447	3268
821.588	3237
821.728	3218
821.868	3188
822.008	3039
822.149	3169
822.289	3214
822.429	3055
822.569	3055
822.709	3173
822.849	3024
822.99	3062
823.13	3131
823.27	3218
823.41	3123
823.55	3161
823.69	3131
823.83	3161
823.97	3104
824.11	2986
824.25	2971
824.389	3051
824.529	3085
824.669	3047
824.809	3199
824.949	3233
825.089	3218
825.228	3146
825.368	2990
825.508	2952
825.648	2975
825.787	3017
825.927	3013
826.067	2918
826.206	2956
826.346	3066
826.485	3077
826.625	3093
826.765	3256
826.904	3207
827.044	3005
827.183	2910
827.323	2872
827.462	2944
827.601	2902
827.741	2933
827.88	2963
828.02	2823
828.159	2975
828.298	2998
828.437	3097
828.577	3055
828.716	3249
828.855	3058
828.994	2918
829.134	2857
829.273	2910
829.412	2842
829.551	2857
829.69	2868
829.829	2979
829.968	3100
830.107	3039
830.246	3036
830.385	2906
830.524	2857
830.663	2815
830.802	2701
830.941	2636
831.08	2648
831.219	2777
831.357	2735
831.496	2944
831.635	2701
831.774	2640
831.913	2686
832.051	2522
832.19	2606
832.329	2678
832.467	2545
832.606	2480
832.744	2556
832.883	2568
833.022	2552
833.16	2663
833.299	2678
833.437	2701
833.576	2674
833.714	2735
833.852	2724
833.991	2777
834.129	2826
834.267	2838
834.406	2792
834.544	2868
834.682	2872
834.821	2864
834.959	3085
835.097	2918
835.235	3058
835.373	2960
835.511	3020
835.65	2967
835.788	2914
835.926	2838
836.064	2811
836.202	2826
836.34	3051
836.478	3176
836.615	3039
836.753	3119
836.891	3192
837.029	3184
837.167	3100
837.305	3043
837.443	3051
837.58	2944
837.718	3074
837.856	3051
837.993	2979
838.131	3066
838.269	3089
838.406	3154
838.544	3039
838.681	2902
838.819	2887
838.956	2811
839.094	2807
839.231	2899
839.369	3039
839.506	3359
839.643	3184
839.781	3024
839.918	2929
840.055	3047
840.193	3062
840.33	3043
840.467	3127
840.604	3138
840.742	3420
840.879	3047
841.016	3051
841.153	3131
841.29	3351
841.427	3272
841.564	3272
841.701	3291
841.838	3192
841.975	3192
842.112	3195
842.249	3074
842.385	3005
842.522	3233
842.659	3097
842.796	3047
842.933	3100
843.069	3066
843.206	3009
843.343	3199
843.479	3081
843.616	3142
843.752	2895
843.889	2880
844.025	3051
844.162	2887
844.298	3062
844.435	2948
844.571	2868
844.708	3047
844.844	3184
844.98	3218
845.117	3218
845.253	3047
845.389	3039
845.525	3097
845.661	3104
845.798	2982
845.934	3119
846.07	3024
846.206	3203
846.342	3336
846.478	3211
846.614	3058
846.75	3036
846.886	3036
847.022	3249
847.158	3116
847.294	3222
847.429	3237
847.565	3199
847.701	3511
847.837	3017
847.972	2982
848.108	3161
848.244	3112
848.379	2986
848.515	2929
848.65	2906
848.786	2952
848.921	2963
849.057	3116
849.192	3131
849.328	3051
849.463	3123
849.598	3070
849.734	3024
849.869	2956
850.004	2914
850.14	2960
850.275	2952
850.41	2864
850.545	2864
850.68	2910
850.815	2963
850.95	2952
851.085	3195
851.22	3097
851.355	3024
851.49	2937
851.625	2986
851.76	2998
851.895	2922
852.03	2887
852.165	3051
852.299	3119
852.434	3161
852.569	3146
852.703	3199
852.838	3245
852.973	3317
853.107	3340
853.242	3119
853.376	3104
853.511	2960
853.645	3066
853.78	3260
853.914	3104
854.048	3119
854.183	3070
854.317	3138
854.451	3233
854.585	3123
854.72	3077
854.854	3195
854.988	3058
855.122	3077
855.256	2975
855.39	3097
855.524	3249
855.658	3173
855.792	3146
855.926	3195
856.06	3195
856.194	3214
856.327	3135
856.461	3077
856.595	3039
856.729	3058
856.862	3199
856.996	3135
857.13	3222
857.263	3264
857.397	3306
857.53	3108
857.664	3127
857.797	3260
857.931	3268
858.064	3176
858.197	3245
858.331	3154
858.464	3074
858.597	3036
858.731	3085
858.864	3119
858.997	3070
859.13	3173
859.263	3150
859.396	3241
859.529	3077
859.662	3081
859.795	3020
859.928	3123
860.061	3279
860.194	3283
860.327	3119
860.46	3093
860.592	3207
860.725	3226
860.858	3230
860.99	3089
861.123	3055
861.256	3032
861.388	3112
861.521	3720
861.653	2982
861.786	2982
861.918	2986
862.05	3043
862.183	3051
862.315	3135
862.447	3165
862.58	3051
862.712	2922
862.844	2876
862.976	2994
863.108	2986
863.24	3268
863.372	2876
863.504	2975
863.636	2922
863.768	3005
863.9	2963
864.032	2895
864.164	2960
864.296	2994
864.428	3058
864.559	3036
864.691	3077
864.823	3077
864.954	3043
865.086	3009
865.217	2990
865.349	2933
865.48	2994
865.612	2982
865.743	3146
865.875	2986
866.006	2948
866.137	2990
866.269	2967
866.4	2952
866.531	2925
866.662	2883
866.793	2861
866.924	2857
867.055	2963
867.186	2895
867.317	2876
867.448	2834
867.579	2815
867.71	2838
867.841	2842
867.972	2891
868.103	2899
868.233	2906
868.364	2842
868.495	2891
868.625	3047
868.756	3100
868.886	2982
869.017	2982
869.147	3157
869.278	3150
869.408	3020
869.539	3028
869.669	3097
869.799	3032
869.929	3070
870.06	3108
870.19	3317
870.32	3264
870.45	3325
870.58	3363
870.71	3416
870.84	3443
870.97	3260
871.1	3226
871.23	3454
871.36	3439
871.489	3317
871.619	3416
871.749	3412
871.879	3336
872.008	3450
872.138	3351
872.267	3245
872.397	3127
872.526	3051
872.656	2998
872.785	3112
872.915	3233
873.044	3306
873.173	3207
873.303	3218
873.432	3226
873.561	3237
873.69	3112
873.819	3142
873.948	3211
874.077	3085
874.206	3039
874.335	3055
874.464	3211
874.593	3329
874.722	3237
874.851	3378
874.979	3317
875.108	3298
875.237	3169
875.365	3154
875.494	3131
875.623	3233
875.751	3066
875.88	3116
876.008	3195
876.136	3211
876.265	3382
876.393	3462
876.521	3389
876.65	3374
876.778	3272
876.906	3237
877.034	3169
877.162	3184
877.29	3131
877.418	3256
877.546	3214
877.674	3230
877.802	3203
877.93	3146
878.058	3195
878.185	3127
878.313	3192
878.441	3214
878.568	3081
878.696	3123
878.824	3230
878.951	3268
879.079	3405
879.206	3648
879.333	3416
879.461	3310
879.588	3348
879.715	3481
879.842	3561
879.97	3370
880.097	3169
880.224	3112
880.351	3142
880.478	3192
880.605	3176
880.732	3195
880.859	3507
880.986	3287
881.112	3321
881.239	3203
881.366	3089
881.493	3017
881.619	3039
881.746	3100
881.872	3081
881.999	3081
882.125	3157
882.252	3233
882.378	3302
882.505	3412
882.631	3264
882.757	3131
882.883	3192
883.01	3211
883.136	3116
883.262	3100
883.388	3112
883.514	3317
883.64	3363
883.766	3302
883.892	3195
884.018	3237
884.143	3405
884.269	3530
884.395	3207
884.52	3192
884.646	3188
884.772	3108
884.897	3100
885.023	3192
885.148	3340
885.274	3401
885.399	3363
885.524	3230
885.65	3233
885.775	3332
885.9	3275
886.025	3416
886.15	3340
886.275	3306
886.4	3237
886.525	3298
886.65	3268
886.775	3283
886.9	3462
887.025	3599
887.149	3397
887.274	3253
887.399	3165
887.523	3157
887.648	3176
887.773	3169
887.897	3389
888.021	3397
888.146	3279
888.27	3416
888.395	3515
888.519	3378
888.643	3416
888.767	3447
888.891	3306
889.015	3233
889.139	3279
889.263	3233
889.387	3435
889.511	3530
889.635	3424
889.759	3256
889.883	3260
890.006	3355
890.13	3504
890.254	3256
890.377	3370
890.501	3157
890.624	3176
890.748	3272
890.871	3211
890.995	3077
891.118	3043
891.241	3199
891.364	3207
891.488	3367
891.611	3184
891.734	3237
891.857	3260
891.98	3192
892.103	3329
892.226	3253
892.349	3184
892.471	3104
892.594	3233
892.717	3336
892.839	3268
892.962	3283
893.085	3367
893.207	3272
893.33	3157
893.452	3195
893.575	3359
893.697	3218
893.819	3443
893.941	3504
894.064	3409
894.186	3287
894.308	3260
894.43	3428
894.552	3534
894.674	3458
894.796	3287
894.918	3264
895.04	3256
895.161	3424
895.283	3382
895.405	3310
895.526	3348
895.648	3393
895.769	3389
895.891	3401
896.012	3473
896.134	3443
896.255	3401
896.376	3382
896.498	3329
896.619	3469
896.74	3340
896.861	3401
896.982	3705
897.103	3896
897.224	3568
897.345	3485
897.466	3401
897.587	3492
897.708	3606
897.828	3557
897.949	3431
898.07	3310
898.19	3431
898.311	3545
898.431	3416
898.552	3500
898.672	3549
898.792	3576
898.913	3526
899.033	3420
899.153	3275
899.273	3218
899.393	3245
899.513	3313
899.633	3302
899.753	3363
899.873	3298
899.993	3367
900.113	3306
900.232	3344
900.352	3313
900.472	3256
900.591	3173
900.711	3268
900.83	3230
900.95	3416
901.069	3469
901.189	3370
901.308	3131
901.427	3116
901.546	3165
901.665	3260
901.784	3313
901.904	3195
902.023	3119
902.141	2982
902.26	2967
902.379	3119
902.498	3043
902.617	3036
902.735	3161
902.854	3218
902.973	3195
903.091	3047
903.21	3013
903.328	3127
903.446	3104
903.565	3055
903.683	3203
903.801	3104
903.919	3241
904.038	3287
904.156	3192
904.274	3253
904.392	3253
904.51	3310
904.627	3317
904.745	3447
904.863	3485
904.981	3275
905.098	3199
905.216	3260
905.334	3325
905.451	3313
905.569	3329
905.686	3439
905.803	3431
905.921	3268
906.038	3420
906.155	3397
906.272	3268
906.389	3344
906.506	3211
906.623	3260
906.74	3317
906.857	3211
906.974	3291
907.091	3485
907.208	3568
907.324	3523
907.441	3412
907.557	3222
907.674	3264
907.79	3226
907.907	3310
908.023	3401
908.139	3382
908.256	3363
908.372	3416
908.488	3386
908.604	3287
908.72	3237
908.836	3302
908.952	3340
909.068	3363
909.184	3511
909.3	3443
909.415	3523
909.531	3530
909.647	3310
909.762	3351
909.878	3275
909.993	3374
910.108	3340
910.224	3363
910.339	3416
910.454	3344
910.57	3355
910.685	3302
910.8	3652
910.915	3576
911.03	3496
911.145	3283
911.259	3275
911.374	3340
911.489	3298
911.604	3256
911.718	3173
911.833	3173
911.947	3062
912.062	3028
912.176	3222
912.291	3253
912.405	3249
912.519	3485
912.633	3538
912.748	3325
912.862	3321
912.976	3218
913.09	3135
913.204	3195
913.318	3237
913.431	3378
913.545	3351
913.659	3469
913.772	3382
913.886	3203
914	3211
914.113	3397
914.226	3458
914.34	3378
914.453	3275
914.566	3466
914.68	3291
914.793	3336
914.906	3169
915.019	3138
915.132	3104
915.245	3214
915.358	3207
915.47	3237
915.583	3249
915.696	3325
915.809	3424
915.921	3488
916.034	3287
916.146	3241
916.259	3268
916.371	3412
916.483	3397
916.595	3272
916.708	3351
916.82	3329
916.932	3370
917.044	3374
917.156	3386
917.268	3279
917.38	3378
917.491	3329
917.603	3435
917.715	3485
917.826	3469
917.938	3443
918.049	3306
918.161	3450
918.272	3625
918.384	3652
918.495	3504
918.606	3386
918.717	3279
918.828	3412
918.939	3428
919.05	3340
919.161	3401
919.272	3218
919.383	3329
919.494	3538
919.604	3675
919.715	3523
919.826	3454
919.936	3507
920.047	3622
920.157	3542
920.267	3797
920.378	3625
920.488	3557
920.598	3804
920.708	3911
920.818	3873
920.928	3861
921.038	4036
921.148	4029
921.258	3755
921.368	3663
921.477	3606
921.587	3557
921.697	3469
921.806	3652
921.916	3538
922.025	3351
922.134	3355
922.244	3332
922.353	3469
922.462	3306
922.571	3260
922.68	3150
922.789	3085
922.898	3165
923.007	3135
923.116	3260
923.224	3199
923.333	3218
923.442	3119
923.55	3119
923.659	3169
923.767	3241
923.876	3157
923.984	3233
924.092	3154
924.201	3230
924.309	3203
924.417	3275
924.525	3230
924.633	3279
924.741	4036
924.849	3093
924.956	3302
925.064	3116
925.172	3077
925.279	3131
925.387	3230
925.494	3222
925.602	3397
925.709	3359
925.816	3214
925.924	3317
926.031	3409
926.138	3332
926.245	3405
926.352	3310
926.459	3439
926.566	3507
926.673	3340
926.779	3306
926.886	3245
926.993	3195
927.099	3138
927.206	3123
927.312	3154
927.419	3253
927.525	3253
927.631	3325
927.737	3169
927.843	3150
927.95	3058
928.056	3161
928.162	3214
928.267	3268
928.373	3876
928.479	3355
928.585	3066
928.69	3253
928.796	3291
928.901	3173
929.007	3089
929.112	3283
929.218	3230
929.323	3188
929.428	3173
929.533	3336
929.638	3161
929.743	3218
929.848	3268
929.953	3256
930.058	3188
930.163	3005
930.267	3119
930.372	3203
930.477	3066
930.581	3378
930.685	3237
930.79	3100
930.894	3127
930.998	3127
931.103	3287
931.207	3017
931.311	2971
931.415	2967
931.519	2754
931.623	2834
