Data from test_V78500241_1406.txt Node
Date: Fri Mar 25 16:24:56 CST 2022
User: usil
Spectrometer: V785-0024
Trigger mode: 0
Integration Time (sec): 4.000000E-1
Scans to average: 1
Nonlinearity correction enabled: false
Boxcar width: 0
Storing dark spectrum: false
XAxis mode: Wavelengths
Number of Pixels in Spectrum: 1024
>>>>>Begin Spectral Data<<<<<
801.071	2937
801.214	2933
801.356	2880
801.499	2895
801.641	2883
801.783	2963
801.926	3055
802.068	2971
802.211	3024
802.353	3043
802.496	2941
802.638	3028
802.78	3058
802.923	3081
803.065	3009
803.208	2891
803.35	2956
803.492	2975
803.635	2922
803.777	2796
803.919	2883
804.061	3184
804.204	2944
804.346	2937
804.488	2811
804.63	3036
804.773	2906
804.915	2902
805.057	3093
805.199	2910
805.341	2960
805.483	3062
805.626	3020
805.768	2990
805.91	3081
806.052	3131
806.194	3077
806.336	3275
806.478	3005
806.62	2979
806.762	2982
806.904	3066
807.046	3199
807.188	3020
807.33	2941
807.472	3009
807.614	2933
807.756	2971
807.898	2914
808.04	2895
808.182	2982
808.324	2979
808.465	2929
808.607	2895
808.749	2792
808.891	2845
809.033	3005
809.174	2982
809.316	2895
809.458	2891
809.6	2785
809.741	2766
809.883	2781
810.025	2849
810.166	2849
810.308	2842
810.45	2853
810.591	2800
810.733	2750
810.875	2845
811.016	2781
811.158	2754
811.299	2834
811.441	2925
811.582	2922
811.724	2796
811.865	2826
812.007	2883
812.148	2872
812.29	2876
812.431	2880
812.573	2914
812.714	2979
812.855	3017
812.997	3020
813.138	3070
813.279	3043
813.421	2960
813.562	2979
813.703	2902
813.845	2887
813.986	2792
814.127	2716
814.268	2845
814.41	2830
814.551	2804
814.692	2861
814.833	2804
814.974	2899
815.115	2914
815.256	2834
815.397	2819
815.539	2872
815.68	2804
815.821	2796
815.962	2929
816.103	2918
816.244	2872
816.385	2853
816.526	2967
816.666	2906
816.807	2754
816.948	2891
817.089	2925
817.23	2842
817.371	2785
817.512	2826
817.653	2796
817.793	2849
817.934	2880
818.075	2918
818.216	2979
818.356	3043
818.497	2899
818.638	2807
818.778	2819
818.919	2796
819.06	2800
819.2	2891
819.341	2796
819.481	2819
819.622	2902
819.762	3112
819.903	3055
820.043	2902
820.184	2876
820.324	2937
820.465	3058
820.605	3017
820.746	3028
820.886	2952
821.026	3119
821.167	3161
821.307	3260
821.447	3237
821.588	3249
821.728	3218
821.868	3207
822.008	3062
822.149	3154
822.289	3154
822.429	3074
822.569	3081
822.709	3165
822.849	3017
822.99	3077
823.13	3188
823.27	3154
823.41	3085
823.55	3180
823.69	3161
823.83	3173
823.97	3093
824.11	2982
824.25	2998
824.389	3047
824.529	3089
824.669	3051
824.809	3180
824.949	3226
825.089	3226
825.228	3169
825.368	2982
825.508	2963
825.648	3017
825.787	3032
825.927	3009
826.067	2967
826.206	2967
826.346	3017
826.485	3070
826.625	3104
826.765	3272
826.904	3222
827.044	2986
827.183	2944
827.323	2849
827.462	3013
827.601	2914
827.741	2941
827.88	2906
828.02	2838
828.159	2979
828.298	3024
828.437	3116
828.577	3047
828.716	3230
828.855	3070
828.994	2868
829.134	2895
829.273	2925
829.412	2918
829.551	2872
829.69	2887
829.829	3001
829.968	3112
830.107	3013
830.246	3005
830.385	2941
830.524	2880
830.663	2792
830.802	2727
830.941	2659
831.08	2625
831.219	2766
831.357	2743
831.496	2960
831.635	2720
831.774	2659
831.913	2632
832.051	2579
832.19	2598
832.329	2659
832.467	2541
832.606	2495
832.744	2587
832.883	2571
833.022	2632
833.16	2648
833.299	2697
833.437	2659
833.576	2659
833.714	2720
833.852	2743
833.991	2754
834.129	2853
834.267	2830
834.406	2823
834.544	2834
834.682	2876
834.821	2838
834.959	3085
835.097	2910
835.235	3036
835.373	3020
835.511	3055
835.65	2975
835.788	2929
835.926	2796
836.064	2792
836.202	2830
836.34	3108
836.478	3180
836.615	3055
836.753	3112
836.891	3195
837.029	3146
837.167	3093
837.305	3081
837.443	3062
837.58	2975
837.718	3123
837.856	3047
837.993	3093
838.131	3123
838.269	3097
838.406	3112
838.544	3066
838.681	2922
838.819	2902
838.956	2830
839.094	2823
839.231	2895
839.369	3013
839.506	3382
839.643	3169
839.781	3058
839.918	2975
840.055	2982
840.193	3062
840.33	3043
840.467	3089
840.604	3127
840.742	3389
840.879	3024
841.016	3036
841.153	3150
841.29	3351
841.427	3344
841.564	3291
841.701	3283
841.838	3222
841.975	3165
842.112	3184
842.249	3085
842.385	3024
842.522	3272
842.659	3070
842.796	3081
842.933	3116
843.069	3036
843.206	3051
843.343	3180
843.479	3104
843.616	3116
843.752	2880
843.889	2872
844.025	3108
844.162	2857
844.298	3097
844.435	2906
844.571	2922
844.708	3047
844.844	3199
844.98	3207
845.117	3161
845.253	3108
845.389	2990
845.525	3108
845.661	3135
845.798	3036
845.934	3108
846.07	3024
846.206	3165
846.342	3317
846.478	3230
846.614	3089
846.75	3055
846.886	3039
847.022	3233
847.158	3150
847.294	3176
847.429	3211
847.565	3211
847.701	3500
847.837	2982
847.972	3001
848.108	3146
848.244	3150
848.379	3017
848.515	2956
848.65	2956
848.786	2952
848.921	3039
849.057	3119
849.192	3116
849.328	3062
849.463	3131
849.598	3066
849.734	3047
849.869	2982
850.004	2929
850.14	2975
850.275	2876
850.41	2834
850.545	2899
850.68	2937
850.815	2937
850.95	2990
851.085	3222
851.22	3123
851.355	2994
851.49	2975
851.625	3005
851.76	3028
851.895	2941
852.03	2887
852.165	3024
852.299	3116
852.434	3188
852.569	3192
852.703	3112
852.838	3230
852.973	3329
853.107	3344
853.242	3131
853.376	3138
853.511	2963
853.645	3017
853.78	3256
853.914	3119
854.048	3116
854.183	3089
854.317	3157
854.451	3294
854.585	3169
854.72	3093
854.854	3199
854.988	3043
855.122	3081
855.256	2979
855.39	3119
855.524	3260
855.658	3180
855.792	3161
855.926	3188
856.06	3218
856.194	3233
856.327	3142
856.461	3047
856.595	3055
856.729	3077
856.862	3241
856.996	3138
857.13	3173
857.263	3207
857.397	3264
857.53	3123
857.664	3203
857.797	3245
857.931	3264
858.064	3150
858.197	3253
858.331	3127
858.464	3093
858.597	2967
858.731	3070
858.864	3157
858.997	3108
859.13	3150
859.263	3146
859.396	3169
859.529	3085
859.662	3085
859.795	3039
859.928	3131
860.061	3226
860.194	3207
860.327	3116
860.46	3070
860.592	3218
860.725	3237
860.858	3264
860.99	3100
861.123	3043
861.256	3062
861.388	3146
861.521	3747
861.653	3017
861.786	2956
861.918	3013
862.05	3051
862.183	3070
862.315	3138
862.447	3188
862.58	3108
862.712	2933
862.844	2880
862.976	3036
863.108	2975
863.24	3287
863.372	2887
863.504	2990
863.636	2952
863.768	2998
863.9	2982
864.032	2922
864.164	2967
864.296	2994
864.428	3089
864.559	3085
864.691	3017
864.823	3039
864.954	3032
865.086	3028
865.217	2982
865.349	2925
865.48	2941
865.612	3036
865.743	3127
865.875	2986
866.006	2933
866.137	2971
866.269	2960
866.4	2922
866.531	2918
866.662	2891
866.793	2895
866.924	2887
867.055	2948
867.186	2899
867.317	2902
867.448	2845
867.579	2845
867.71	2853
867.841	2830
867.972	2895
868.103	2906
868.233	2902
868.364	2891
868.495	2891
868.625	3070
868.756	3127
868.886	2941
869.017	2975
869.147	3150
869.278	3173
869.408	3039
869.539	3039
869.669	3093
869.799	3039
869.929	3173
870.06	3077
870.19	3279
870.32	3302
870.45	3253
870.58	3359
870.71	3447
870.84	3466
870.97	3268
871.1	3230
871.23	3473
871.36	3458
871.489	3325
871.619	3393
871.749	3401
871.879	3393
872.008	3473
872.138	3351
872.267	3272
872.397	3123
872.526	3108
872.656	3028
872.785	3051
872.915	3230
873.044	3313
873.173	3230
873.303	3260
873.432	3199
873.561	3253
873.69	3154
873.819	3154
873.948	3218
874.077	3119
874.206	3024
874.335	3085
874.464	3207
874.593	3317
874.722	3260
874.851	3378
874.979	3336
875.108	3283
875.237	3180
875.365	3154
875.494	3180
875.623	3218
875.751	3093
875.88	3100
876.008	3203
876.136	3192
876.265	3397
876.393	3485
876.521	3393
876.65	3374
876.778	3355
876.906	3237
877.034	3203
877.162	3195
877.29	3169
877.418	3192
877.546	3233
877.674	3256
877.802	3237
877.93	3211
878.058	3108
878.185	3085
878.313	3173
878.441	3226
878.568	3047
878.696	3161
878.824	3264
878.951	3306
879.079	3454
879.206	3603
879.333	3435
879.461	3325
879.588	3344
879.715	3496
879.842	3622
879.97	3412
880.097	3173
880.224	3157
880.351	3226
880.478	3203
880.605	3192
880.732	3169
880.859	3477
880.986	3298
881.112	3310
881.239	3165
881.366	3097
881.493	3032
881.619	3005
881.746	3062
881.872	3097
881.999	3108
882.125	3135
882.252	3233
882.378	3249
882.505	3405
882.631	3275
882.757	3116
882.883	3245
883.01	3237
883.136	3142
883.262	3089
883.388	3104
883.514	3294
883.64	3382
883.766	3310
883.892	3192
884.018	3237
884.143	3409
884.269	3572
884.395	3180
884.52	3135
884.646	3123
884.772	3131
884.897	3070
885.023	3161
885.148	3306
885.274	3416
885.399	3363
885.524	3283
885.65	3245
885.775	3336
885.9	3264
886.025	3458
886.15	3382
886.275	3283
886.4	3264
886.525	3253
886.65	3298
886.775	3275
886.9	3485
887.025	3637
887.149	3416
887.274	3272
887.399	3157
887.523	3237
887.648	3142
887.773	3173
887.897	3370
888.021	3393
888.146	3253
888.27	3443
888.395	3538
888.519	3382
888.643	3428
888.767	3416
888.891	3298
889.015	3256
889.139	3279
889.263	3199
889.387	3397
889.511	3545
889.635	3435
889.759	3272
889.883	3294
890.006	3382
890.13	3458
890.254	3264
890.377	3332
890.501	3184
890.624	3150
890.748	3287
890.871	3180
890.995	3108
891.118	3051
891.241	3203
891.364	3233
891.488	3310
891.611	3192
891.734	3199
891.857	3249
891.98	3214
892.103	3313
892.226	3279
892.349	3218
892.471	3108
892.594	3230
892.717	3272
892.839	3253
892.962	3272
893.085	3336
893.207	3298
893.33	3119
893.452	3180
893.575	3336
893.697	3264
893.819	3492
893.941	3477
894.064	3466
894.186	3260
894.308	3256
894.43	3412
894.552	3500
894.674	3519
894.796	3188
894.918	3306
895.04	3321
895.161	3382
895.283	3359
895.405	3363
895.526	3306
895.648	3435
895.769	3405
895.891	3458
896.012	3485
896.134	3439
896.255	3359
896.376	3370
896.498	3344
896.619	3389
896.74	3340
896.861	3359
896.982	3694
897.103	3865
897.224	3606
897.345	3530
897.466	3424
897.587	3496
897.708	3595
897.828	3519
897.949	3447
898.07	3325
898.19	3393
898.311	3591
898.431	3447
898.552	3492
898.672	3591
898.792	3549
898.913	3500
899.033	3409
899.153	3264
899.273	3203
899.393	3226
899.513	3302
899.633	3313
899.753	3355
899.873	3321
899.993	3386
900.113	3325
900.232	3416
900.352	3340
900.472	3264
900.591	3199
900.711	3264
900.83	3218
900.95	3416
901.069	3488
901.189	3374
901.308	3135
901.427	3150
901.546	3188
901.665	3302
901.784	3348
901.904	3230
902.023	3173
902.141	3005
902.26	2998
902.379	3138
902.498	3070
902.617	3028
902.735	3169
902.854	3253
902.973	3222
903.091	3024
903.21	3058
903.328	3161
903.446	3070
903.565	3116
903.683	3214
903.801	3176
903.919	3256
904.038	3306
904.156	3180
904.274	3302
904.392	3260
904.51	3283
904.627	3302
904.745	3447
904.863	3462
904.981	3291
905.098	3180
905.216	3214
905.334	3310
905.451	3279
905.569	3325
905.686	3401
905.803	3420
905.921	3260
906.038	3401
906.155	3329
906.272	3291
906.389	3306
906.506	3188
906.623	3211
906.74	3279
906.857	3218
906.974	3241
907.091	3416
907.208	3591
907.324	3511
907.441	3405
907.557	3222
907.674	3222
907.79	3169
907.907	3291
908.023	3325
908.139	3374
908.256	3321
908.372	3351
908.488	3393
908.604	3268
908.72	3226
908.836	3302
908.952	3283
909.068	3313
909.184	3485
909.3	3428
909.415	3500
909.531	3424
909.647	3268
909.762	3245
909.878	3237
909.993	3348
910.108	3317
910.224	3310
910.339	3363
910.454	3302
910.57	3275
910.685	3230
910.8	3530
910.915	3561
911.03	3409
911.145	3260
911.259	3294
911.374	3302
911.489	3245
911.604	3180
911.718	3131
911.833	3138
911.947	2994
912.062	3020
912.176	3138
912.291	3188
912.405	3207
912.519	3412
912.633	3435
912.748	3275
912.862	3253
912.976	3157
913.09	3039
913.204	3077
913.318	3218
913.431	3294
913.545	3340
913.659	3416
913.772	3291
913.886	3214
914	3173
914.113	3351
914.226	3370
914.34	3359
914.453	3203
914.566	3405
914.68	3287
914.793	3313
914.906	3112
915.019	3100
915.132	3058
915.245	3157
915.358	3188
915.47	3192
915.583	3260
915.696	3298
915.809	3359
915.921	3374
916.034	3241
916.146	3226
916.259	3165
916.371	3378
916.483	3351
916.595	3195
916.708	3348
916.82	3313
916.932	3344
917.044	3332
917.156	3336
917.268	3264
917.38	3302
917.491	3275
917.603	3355
917.715	3443
917.826	3473
917.938	3386
918.049	3287
918.161	3469
918.272	3580
918.384	3526
918.495	3496
918.606	3370
918.717	3283
918.828	3363
918.939	3454
919.05	3310
919.161	3363
919.272	3192
919.383	3321
919.494	3511
919.604	3698
919.715	3481
919.826	3458
919.936	3469
920.047	3629
920.157	3587
920.267	3759
920.378	3648
920.488	3610
920.598	3804
920.708	3979
920.818	3850
920.928	3869
921.038	4063
921.148	4013
921.258	3709
921.368	3648
921.477	3622
921.587	3549
921.697	3511
921.806	3656
921.916	3557
922.025	3367
922.134	3389
922.244	3348
922.353	3439
922.462	3260
922.571	3291
922.68	3127
922.789	3112
922.898	3161
923.007	3127
923.116	3230
923.224	3211
923.333	3237
923.442	3131
923.55	3135
923.659	3192
923.767	3249
923.876	3169
923.984	3279
924.092	3108
924.201	3211
924.309	3253
924.417	3279
924.525	3241
924.633	3268
924.741	4093
924.849	3085
924.956	3321
925.064	3157
925.172	3077
925.279	3138
925.387	3245
925.494	3256
925.602	3386
925.709	3397
925.816	3222
925.924	3321
926.031	3409
926.138	3359
926.245	3401
926.352	3264
926.459	3450
926.566	3500
926.673	3363
926.779	3264
926.886	3264
926.993	3203
927.099	3203
927.206	3131
927.312	3127
927.419	3275
927.525	3260
927.631	3321
927.737	3173
927.843	3211
927.95	3104
928.056	3135
928.162	3226
928.267	3275
928.373	3873
928.479	3336
928.585	3100
928.69	3256
928.796	3287
928.901	3214
929.007	3051
929.112	3245
929.218	3211
929.323	3169
929.428	3214
929.533	3363
929.638	3165
929.743	3207
929.848	3325
929.953	3237
930.058	3184
930.163	2998
930.267	3085
930.372	3214
930.477	3062
930.581	3344
930.685	3230
930.79	3062
930.894	3119
930.998	3112
931.103	3336
931.207	3005
931.311	3017
931.415	2979
931.519	2796
931.623	2868
