Data from test_V78500241_1317.txt Node
Date: Fri Mar 25 16:24:19 CST 2022
User: usil
Spectrometer: V785-0024
Trigger mode: 0
Integration Time (sec): 4.000000E-1
Scans to average: 1
Nonlinearity correction enabled: false
Boxcar width: 0
Storing dark spectrum: false
XAxis mode: Wavelengths
Number of Pixels in Spectrum: 1024
>>>>>Begin Spectral Data<<<<<
801.071	2952
801.214	2948
801.356	2899
801.499	2914
801.641	2876
801.783	2944
801.926	3062
802.068	2963
802.211	3009
802.353	3043
802.496	3013
802.638	3024
802.78	3039
802.923	3100
803.065	3013
803.208	2899
803.35	2902
803.492	2963
803.635	2941
803.777	2735
803.919	2891
804.061	3233
804.204	2967
804.346	2925
804.488	2861
804.63	3036
804.773	2887
804.915	2922
805.057	3097
805.199	2910
805.341	2960
805.483	3032
805.626	3020
805.768	2971
805.91	3093
806.052	3131
806.194	3043
806.336	3249
806.478	3024
806.62	2967
806.762	2967
806.904	3093
807.046	3184
807.188	2967
807.33	2963
807.472	2979
807.614	2899
807.756	2971
807.898	2918
808.04	2883
808.182	2986
808.324	2982
808.465	2883
808.607	2895
808.749	2823
808.891	2845
809.033	2994
809.174	2990
809.316	2914
809.458	2868
809.6	2766
809.741	2781
809.883	2758
810.025	2864
810.166	2864
810.308	2853
810.45	2880
810.591	2811
810.733	2785
810.875	2902
811.016	2785
811.158	2792
811.299	2830
811.441	2937
811.582	2925
811.724	2826
811.865	2845
812.007	2914
812.148	2876
812.29	2887
812.431	2880
812.573	2944
812.714	2979
812.855	3039
812.997	3047
813.138	3116
813.279	3017
813.421	2967
813.562	2967
813.703	2891
813.845	2887
813.986	2785
814.127	2766
814.268	2796
814.41	2872
814.551	2815
814.692	2891
814.833	2842
814.974	2937
815.115	2956
815.256	2834
815.397	2842
815.539	2876
815.68	2777
815.821	2792
815.962	2956
816.103	2948
816.244	2887
816.385	2883
816.526	2952
816.666	2895
816.807	2750
816.948	2864
817.089	2906
817.23	2891
817.371	2819
817.512	2792
817.653	2853
817.793	2819
817.934	2899
818.075	2944
818.216	3001
818.356	2963
818.497	2880
818.638	2807
818.778	2804
818.919	2804
819.06	2769
819.2	2887
819.341	2762
819.481	2845
819.622	2929
819.762	3085
819.903	3036
820.043	2925
820.184	2891
820.324	2895
820.465	2998
820.605	2986
820.746	3032
820.886	2937
821.026	3085
821.167	3154
821.307	3241
821.447	3272
821.588	3279
821.728	3184
821.868	3199
822.008	3077
822.149	3157
822.289	3211
822.429	3127
822.569	3112
822.709	3211
822.849	3024
822.99	3058
823.13	3169
823.27	3199
823.41	3112
823.55	3157
823.69	3135
823.83	3214
823.97	3135
824.11	3009
824.25	3028
824.389	3058
824.529	3108
824.669	3051
824.809	3222
824.949	3279
825.089	3230
825.228	3192
825.368	3020
825.508	2944
825.648	2956
825.787	3009
825.927	3039
826.067	2998
826.206	2960
826.346	3024
826.485	3097
826.625	3104
826.765	3272
826.904	3264
827.044	3020
827.183	2925
827.323	2910
827.462	3009
827.601	2910
827.741	2929
827.88	2944
828.02	2830
828.159	2998
828.298	3039
828.437	3135
828.577	3028
828.716	3264
828.855	3108
828.994	2933
829.134	2883
829.273	2933
829.412	2883
829.551	2891
829.69	2883
829.829	2967
829.968	3127
830.107	3005
830.246	3036
830.385	2918
830.524	2891
830.663	2849
830.802	2743
830.941	2644
831.08	2659
831.219	2766
831.357	2781
831.496	2944
831.635	2712
831.774	2667
831.913	2670
832.051	2522
832.19	2575
832.329	2705
832.467	2533
832.606	2488
832.744	2575
832.883	2587
833.022	2583
833.16	2640
833.299	2705
833.437	2678
833.576	2708
833.714	2727
833.852	2720
833.991	2773
834.129	2853
834.267	2883
834.406	2811
834.544	2887
834.682	2902
834.821	2891
834.959	3070
835.097	2883
835.235	3047
835.373	2960
835.511	3001
835.65	2963
835.788	2963
835.926	2819
836.064	2819
836.202	2857
836.34	3135
836.478	3184
836.615	3058
836.753	3097
836.891	3233
837.029	3195
837.167	3112
837.305	3074
837.443	2998
837.58	2933
837.718	3138
837.856	3089
837.993	3051
838.131	3127
838.269	3097
838.406	3108
838.544	3093
838.681	2971
838.819	2880
838.956	2773
839.094	2864
839.231	2910
839.369	3005
839.506	3393
839.643	3203
839.781	3009
839.918	2967
840.055	3055
840.193	3013
840.33	3085
840.467	3070
840.604	3150
840.742	3389
840.879	3085
841.016	3024
841.153	3097
841.29	3329
841.427	3275
841.564	3279
841.701	3302
841.838	3218
841.975	3154
842.112	3165
842.249	3055
842.385	3020
842.522	3264
842.659	3135
842.796	3062
842.933	3116
843.069	3028
843.206	3043
843.343	3173
843.479	3108
843.616	3123
843.752	2910
843.889	2853
844.025	3055
844.162	2868
844.298	3085
844.435	2948
844.571	2891
844.708	3066
844.844	3207
844.98	3272
845.117	3161
845.253	3039
845.389	3013
845.525	3123
845.661	3081
845.798	3005
845.934	3119
846.07	3055
846.206	3233
846.342	3321
846.478	3214
846.614	3066
846.75	3051
846.886	3039
847.022	3237
847.158	3142
847.294	3165
847.429	3222
847.565	3253
847.701	3458
847.837	3077
847.972	2982
848.108	3131
848.244	3135
848.379	3009
848.515	2929
848.65	2929
848.786	2952
848.921	3009
849.057	3058
849.192	3157
849.328	3062
849.463	3104
849.598	3043
849.734	3047
849.869	2982
850.004	2899
850.14	2975
850.275	2906
850.41	2830
850.545	2872
850.68	2952
850.815	2990
850.95	2956
851.085	3150
851.22	3135
851.355	3039
851.49	2960
851.625	3032
851.76	3005
851.895	2918
852.03	2910
852.165	3043
852.299	3085
852.434	3169
852.569	3150
852.703	3135
852.838	3287
852.973	3355
853.107	3340
853.242	3169
853.376	3070
853.511	2941
853.645	3097
853.78	3222
853.914	3123
854.048	3112
854.183	3074
854.317	3142
854.451	3253
854.585	3135
854.72	3093
854.854	3207
854.988	3051
855.122	3074
855.256	2982
855.39	3127
855.524	3233
855.658	3173
855.792	3138
855.926	3188
856.06	3214
856.194	3268
856.327	3131
856.461	3089
856.595	3100
856.729	3093
856.862	3218
856.996	3123
857.13	3207
857.263	3233
857.397	3260
857.53	3146
857.664	3157
857.797	3245
857.931	3245
858.064	3138
858.197	3233
858.331	3154
858.464	3097
858.597	3009
858.731	3112
858.864	3123
858.997	3066
859.13	3154
859.263	3123
859.396	3199
859.529	3119
859.662	3062
859.795	3047
859.928	3135
860.061	3325
860.194	3287
860.327	3131
860.46	3062
860.592	3226
860.725	3233
860.858	3241
860.99	3119
861.123	3047
861.256	3024
861.388	3104
861.521	3701
861.653	2998
861.786	3001
861.918	2975
862.05	3043
862.183	3085
862.315	3135
862.447	3207
862.58	3081
862.712	2937
862.844	2842
862.976	3028
863.108	3009
863.24	3302
863.372	2849
863.504	2975
863.636	2956
863.768	3001
863.9	2979
864.032	2918
864.164	2948
864.296	3005
864.428	3085
864.559	3127
864.691	3047
864.823	3089
864.954	2994
865.086	3032
865.217	2994
865.349	2929
865.48	2982
865.612	3039
865.743	3138
865.875	3001
866.006	2910
866.137	2990
866.269	2929
866.4	2925
866.531	2925
866.662	2895
866.793	2864
866.924	2861
867.055	2948
867.186	2906
867.317	2899
867.448	2800
867.579	2883
867.71	2838
867.841	2766
867.972	2937
868.103	2849
868.233	2883
868.364	2876
868.495	2922
868.625	3085
868.756	3173
868.886	2944
869.017	2979
869.147	3188
869.278	3127
869.408	3013
869.539	2998
869.669	3100
869.799	3043
869.929	3146
870.06	3077
870.19	3329
870.32	3287
870.45	3283
870.58	3329
870.71	3462
870.84	3428
870.97	3291
871.1	3230
871.23	3519
871.36	3450
871.489	3332
871.619	3386
871.749	3355
871.879	3424
872.008	3454
872.138	3363
872.267	3253
872.397	3142
872.526	3127
872.656	3028
872.785	3112
872.915	3226
873.044	3325
873.173	3211
873.303	3214
873.432	3249
873.561	3211
873.69	3169
873.819	3142
873.948	3184
874.077	3081
874.206	3024
874.335	3085
874.464	3211
874.593	3336
874.722	3237
874.851	3401
874.979	3355
875.108	3355
875.237	3154
875.365	3192
875.494	3157
875.623	3226
875.751	3085
875.88	3135
876.008	3199
876.136	3207
876.265	3344
876.393	3481
876.521	3416
876.65	3416
876.778	3291
876.906	3214
877.034	3161
877.162	3245
877.29	3184
877.418	3272
877.546	3260
877.674	3245
877.802	3233
877.93	3241
878.058	3123
878.185	3138
878.313	3241
878.441	3207
878.568	3047
878.696	3157
878.824	3233
878.951	3249
879.079	3416
879.206	3599
879.333	3409
879.461	3302
879.588	3344
879.715	3469
879.842	3587
879.97	3405
880.097	3138
880.224	3123
880.351	3207
880.478	3176
880.605	3180
880.732	3154
880.859	3504
880.986	3302
881.112	3313
881.239	3218
881.366	3112
881.493	3013
881.619	3017
881.746	3077
881.872	3112
881.999	3119
882.125	3127
882.252	3237
882.378	3260
882.505	3374
882.631	3253
882.757	3138
882.883	3173
883.01	3207
883.136	3142
883.262	3089
883.388	3131
883.514	3294
883.64	3355
883.766	3310
883.892	3199
884.018	3226
884.143	3428
884.269	3534
884.395	3180
884.52	3157
884.646	3180
884.772	3116
884.897	3142
885.023	3222
885.148	3317
885.274	3420
885.399	3386
885.524	3340
885.65	3268
885.775	3329
885.9	3310
886.025	3473
886.15	3370
886.275	3287
886.4	3256
886.525	3272
886.65	3249
886.775	3272
886.9	3519
887.025	3622
887.149	3367
887.274	3237
887.399	3180
887.523	3154
887.648	3165
887.773	3207
887.897	3363
888.021	3378
888.146	3268
888.27	3416
888.395	3485
888.519	3439
888.643	3389
888.767	3439
888.891	3298
889.015	3237
889.139	3306
889.263	3218
889.387	3393
889.511	3481
889.635	3409
889.759	3260
889.883	3237
890.006	3351
890.13	3492
890.254	3283
890.377	3351
890.501	3214
890.624	3154
890.748	3298
890.871	3157
890.995	3104
891.118	3047
891.241	3180
891.364	3188
891.488	3264
891.611	3169
891.734	3233
891.857	3275
891.98	3222
892.103	3363
892.226	3268
892.349	3207
892.471	3150
892.594	3249
892.717	3283
892.839	3275
892.962	3306
893.085	3329
893.207	3321
893.33	3142
893.452	3222
893.575	3332
893.697	3241
893.819	3439
893.941	3481
894.064	3405
894.186	3253
894.308	3291
894.43	3431
894.552	3526
894.674	3469
894.796	3249
894.918	3329
895.04	3306
895.161	3389
895.283	3389
895.405	3275
895.526	3367
895.648	3412
895.769	3420
895.891	3447
896.012	3496
896.134	3485
896.255	3424
896.376	3363
896.498	3378
896.619	3386
896.74	3367
896.861	3374
896.982	3663
897.103	3865
897.224	3614
897.345	3523
897.466	3450
897.587	3492
897.708	3587
897.828	3542
897.949	3412
898.07	3336
898.19	3382
898.311	3603
898.431	3466
898.552	3481
898.672	3553
898.792	3572
898.913	3538
899.033	3428
899.153	3283
899.273	3279
899.393	3283
899.513	3279
899.633	3325
899.753	3317
899.873	3306
899.993	3374
900.113	3313
900.232	3340
900.352	3313
900.472	3275
900.591	3203
900.711	3283
900.83	3237
900.95	3420
901.069	3469
901.189	3363
901.308	3180
901.427	3119
901.546	3150
901.665	3245
901.784	3329
901.904	3199
902.023	3123
902.141	3028
902.26	2967
902.379	3089
902.498	3058
902.617	3028
902.735	3188
902.854	3214
902.973	3192
903.091	3032
903.21	3074
903.328	3097
903.446	3093
903.565	3116
903.683	3226
903.801	3104
903.919	3188
904.038	3298
904.156	3150
904.274	3291
904.392	3207
904.51	3256
904.627	3272
904.745	3405
904.863	3481
904.981	3287
905.098	3157
905.216	3256
905.334	3302
905.451	3283
905.569	3321
905.686	3405
905.803	3412
905.921	3298
906.038	3405
906.155	3359
906.272	3275
906.389	3294
906.506	3249
906.623	3283
906.74	3230
906.857	3161
906.974	3230
907.091	3450
907.208	3568
907.324	3466
907.441	3401
907.557	3241
907.674	3199
907.79	3226
907.907	3237
908.023	3351
908.139	3370
908.256	3313
908.372	3363
908.488	3355
908.604	3237
908.72	3233
908.836	3256
908.952	3283
909.068	3340
909.184	3488
909.3	3409
909.415	3473
909.531	3469
909.647	3264
909.762	3291
909.878	3245
909.993	3359
910.108	3351
910.224	3340
910.339	3386
910.454	3370
910.57	3283
910.685	3260
910.8	3580
910.915	3485
911.03	3393
911.145	3272
911.259	3245
911.374	3283
911.489	3245
911.604	3237
911.718	3116
911.833	3131
911.947	3028
912.062	2982
912.176	3169
912.291	3176
912.405	3188
912.519	3409
912.633	3481
912.748	3321
912.862	3245
912.976	3180
913.09	3085
913.204	3127
913.318	3176
913.431	3321
913.545	3313
913.659	3374
913.772	3291
913.886	3203
914	3161
914.113	3317
914.226	3443
914.34	3378
914.453	3203
914.566	3370
914.68	3279
914.793	3275
914.906	3123
915.019	3097
915.132	3074
915.245	3199
915.358	3195
915.47	3214
915.583	3279
915.696	3302
915.809	3382
915.921	3409
916.034	3264
916.146	3222
916.259	3203
916.371	3382
916.483	3332
916.595	3264
916.708	3355
916.82	3302
916.932	3325
917.044	3355
917.156	3351
917.268	3272
917.38	3306
917.491	3317
917.603	3405
917.715	3473
917.826	3469
917.938	3367
918.049	3264
918.161	3435
918.272	3587
918.384	3587
918.495	3466
918.606	3321
918.717	3310
918.828	3363
918.939	3378
919.05	3344
919.161	3374
919.272	3169
919.383	3279
919.494	3488
919.604	3644
919.715	3469
919.826	3378
919.936	3431
920.047	3595
920.157	3549
920.267	3789
920.378	3618
920.488	3599
920.598	3774
920.708	3911
920.818	3823
920.928	3842
921.038	4013
921.148	3998
921.258	3660
921.368	3622
921.477	3587
921.587	3538
921.697	3443
921.806	3633
921.916	3526
922.025	3351
922.134	3348
922.244	3291
922.353	3462
922.462	3256
922.571	3230
922.68	3089
922.789	3089
922.898	3131
923.007	3135
923.116	3226
923.224	3169
923.333	3180
923.442	3119
923.55	3097
923.659	3135
923.767	3180
923.876	3074
923.984	3241
924.092	3116
924.201	3165
924.309	3218
924.417	3230
924.525	3154
924.633	3268
924.741	4013
924.849	3055
924.956	3283
925.064	3085
925.172	3058
925.279	3089
925.387	3218
925.494	3176
925.602	3317
925.709	3321
925.816	3195
925.924	3264
926.031	3336
926.138	3287
926.245	3367
926.352	3272
926.459	3428
926.566	3466
926.673	3329
926.779	3237
926.886	3268
926.993	3165
927.099	3093
927.206	3093
927.312	3112
927.419	3241
927.525	3195
927.631	3272
927.737	3165
927.843	3112
927.95	3017
928.056	3131
928.162	3195
928.267	3211
928.373	3892
928.479	3294
928.585	3127
928.69	3222
928.796	3237
928.901	3157
929.007	3039
929.112	3203
929.218	3169
929.323	3173
929.428	3131
929.533	3329
929.638	3116
929.743	3176
929.848	3260
929.953	3226
930.058	3142
930.163	2990
930.267	3032
930.372	3203
930.477	3058
930.581	3291
930.685	3150
930.79	3009
930.894	3138
930.998	3108
931.103	3332
931.207	2956
931.311	2914
931.415	2910
931.519	2785
931.623	2804
