Data from test_V78500241_155.txt Node
Date: Fri Mar 25 16:16:16 CST 2022
User: usil
Spectrometer: V785-0024
Trigger mode: 0
Integration Time (sec): 4.000000E-1
Scans to average: 1
Nonlinearity correction enabled: false
Boxcar width: 0
Storing dark spectrum: false
XAxis mode: Wavelengths
Number of Pixels in Spectrum: 1024
>>>>>Begin Spectral Data<<<<<
801.071	2925
801.214	2982
801.356	2872
801.499	2895
801.641	2849
801.783	2933
801.926	3047
802.068	2975
802.211	2998
802.353	3055
802.496	2986
802.638	3055
802.78	3047
802.923	3112
803.065	3036
803.208	2910
803.35	2902
803.492	2952
803.635	2941
803.777	2762
803.919	2902
804.061	3203
804.204	2963
804.346	2929
804.488	2861
804.63	2971
804.773	2880
804.915	2956
805.057	3100
805.199	2963
805.341	2994
805.483	3066
805.626	2975
805.768	2982
805.91	3108
806.052	3150
806.194	3020
806.336	3253
806.478	3013
806.62	2971
806.762	2979
806.904	3051
807.046	3157
807.188	3020
807.33	2941
807.472	3009
807.614	2910
807.756	2998
807.898	2941
808.04	2899
808.182	2986
808.324	2971
808.465	2918
808.607	2883
808.749	2811
808.891	2891
809.033	2956
809.174	2975
809.316	2883
809.458	2925
809.6	2781
809.741	2800
809.883	2792
810.025	2853
810.166	2880
810.308	2834
810.45	2842
810.591	2826
810.733	2785
810.875	2861
811.016	2807
811.158	2773
811.299	2849
811.441	2922
811.582	2929
811.724	2830
811.865	2861
812.007	2975
812.148	2887
812.29	2849
812.431	2899
812.573	2937
812.714	2998
812.855	3066
812.997	3077
813.138	3131
813.279	3047
813.421	2986
813.562	2948
813.703	2895
813.845	2883
813.986	2785
814.127	2739
814.268	2826
814.41	2861
814.551	2853
814.692	2887
814.833	2849
814.974	2922
815.115	3001
815.256	2864
815.397	2849
815.539	2910
815.68	2766
815.821	2796
815.962	2948
816.103	2956
816.244	2929
816.385	2910
816.526	3009
816.666	2960
816.807	2769
816.948	2941
817.089	2918
817.23	2872
817.371	2777
817.512	2815
817.653	2849
817.793	2891
817.934	2895
818.075	2967
818.216	3009
818.356	3024
818.497	2910
818.638	2807
818.778	2868
818.919	2845
819.06	2773
819.2	2887
819.341	2823
819.481	2804
819.622	2963
819.762	3127
819.903	3043
820.043	2952
820.184	2895
820.324	2948
820.465	3047
820.605	3047
820.746	3051
820.886	2975
821.026	3123
821.167	3142
821.307	3264
821.447	3310
821.588	3249
821.728	3275
821.868	3233
822.008	3074
822.149	3195
822.289	3253
822.429	3108
822.569	3100
822.709	3192
822.849	3039
822.99	3051
823.13	3180
823.27	3222
823.41	3150
823.55	3154
823.69	3146
823.83	3180
823.97	3108
824.11	3032
824.25	3039
824.389	3089
824.529	3150
824.669	3070
824.809	3199
824.949	3275
825.089	3214
825.228	3123
825.368	3005
825.508	2956
825.648	3001
825.787	2990
825.927	3028
826.067	2975
826.206	2975
826.346	3070
826.485	3070
826.625	3123
826.765	3298
826.904	3245
827.044	2998
827.183	2933
827.323	2845
827.462	2994
827.601	2937
827.741	2929
827.88	2963
828.02	2864
828.159	3009
828.298	3043
828.437	3146
828.577	3028
828.716	3256
828.855	3104
828.994	2948
829.134	2929
829.273	2979
829.412	2830
829.551	2826
829.69	2922
829.829	3017
829.968	3169
830.107	3043
830.246	3028
830.385	2922
830.524	2883
830.663	2807
830.802	2773
830.941	2659
831.08	2644
831.219	2788
831.357	2758
831.496	2941
831.635	2754
831.774	2689
831.913	2678
832.051	2526
832.19	2598
832.329	2701
832.467	2560
832.606	2499
832.744	2594
832.883	2549
833.022	2590
833.16	2670
833.299	2655
833.437	2708
833.576	2670
833.714	2701
833.852	2743
833.991	2788
834.129	2857
834.267	2845
834.406	2807
834.544	2880
834.682	2891
834.821	2834
834.959	3066
835.097	2918
835.235	3047
835.373	3043
835.511	3043
835.65	3013
835.788	2960
835.926	2857
836.064	2792
836.202	2845
836.34	3123
836.478	3214
836.615	3055
836.753	3123
836.891	3203
837.029	3169
837.167	3119
837.305	3089
837.443	3089
837.58	2998
837.718	3127
837.856	3066
837.993	3081
838.131	3123
838.269	3127
838.406	3123
838.544	3097
838.681	2952
838.819	2914
838.956	2830
839.094	2853
839.231	2944
839.369	3055
839.506	3428
839.643	3211
839.781	3066
839.918	2971
840.055	3055
840.193	3066
840.33	3081
840.467	3108
840.604	3154
840.742	3393
840.879	3108
841.016	3085
841.153	3150
841.29	3389
841.427	3294
841.564	3253
841.701	3336
841.838	3233
841.975	3226
842.112	3207
842.249	3093
842.385	3047
842.522	3302
842.659	3119
842.796	3097
842.933	3116
843.069	3066
843.206	3058
843.343	3192
843.479	3127
843.616	3112
843.752	2895
843.889	2895
844.025	3112
844.162	2876
844.298	3131
844.435	2967
844.571	2910
844.708	3089
844.844	3176
844.98	3256
845.117	3199
845.253	3070
845.389	3036
845.525	3108
845.661	3112
845.798	3013
845.934	3119
846.07	3077
846.206	3218
846.342	3310
846.478	3260
846.614	3089
846.75	3055
846.886	2982
847.022	3279
847.158	3165
847.294	3214
847.429	3249
847.565	3233
847.701	3488
847.837	3051
847.972	3039
848.108	3180
848.244	3161
848.379	2990
848.515	2941
848.65	2956
848.786	2967
848.921	3013
849.057	3116
849.192	3150
849.328	3093
849.463	3116
849.598	3062
849.734	3051
849.869	2982
850.004	2956
850.14	2986
850.275	2914
850.41	2853
850.545	2887
850.68	2952
850.815	2941
850.95	2979
851.085	3188
851.22	3108
851.355	3043
851.49	2994
851.625	3020
851.76	3032
851.895	2941
852.03	2864
852.165	3081
852.299	3127
852.434	3188
852.569	3154
852.703	3176
852.838	3249
852.973	3401
853.107	3321
853.242	3127
853.376	3112
853.511	2982
853.645	3066
853.78	3268
853.914	3146
854.048	3123
854.183	3104
854.317	3138
854.451	3279
854.585	3150
854.72	3119
854.854	3218
854.988	3077
855.122	3097
855.256	2986
855.39	3108
855.524	3256
855.658	3218
855.792	3161
855.926	3188
856.06	3214
856.194	3287
856.327	3161
856.461	3100
856.595	3131
856.729	3108
856.862	3245
856.996	3192
857.13	3226
857.263	3249
857.397	3287
857.53	3142
857.664	3195
857.797	3249
857.931	3268
858.064	3180
858.197	3237
858.331	3135
858.464	3123
858.597	3013
858.731	3138
858.864	3119
858.997	3108
859.13	3146
859.263	3169
859.396	3184
859.529	3119
859.662	3066
859.795	3062
859.928	3165
860.061	3272
860.194	3298
860.327	3142
860.46	3127
860.592	3260
860.725	3233
860.858	3260
860.99	3123
861.123	3066
861.256	3062
861.388	3150
861.521	3671
861.653	3005
861.786	2990
861.918	3009
862.05	3100
862.183	3100
862.315	3165
862.447	3233
862.58	3097
862.712	2944
862.844	2899
862.976	3032
863.108	3024
863.24	3332
863.372	2906
863.504	2952
863.636	2941
863.768	3051
863.9	3005
864.032	2918
864.164	2944
864.296	3028
864.428	3112
864.559	3097
864.691	3070
864.823	3077
864.954	3058
865.086	3081
865.217	3009
865.349	2979
865.48	3001
865.612	2979
865.743	3184
865.875	2998
866.006	2982
866.137	2994
866.269	2986
866.4	2933
866.531	2929
866.662	2929
866.793	2895
866.924	2933
867.055	2982
867.186	2902
867.317	2899
867.448	2826
867.579	2819
867.71	2891
867.841	2834
867.972	2910
868.103	2876
868.233	2891
868.364	2948
868.495	2922
868.625	3104
868.756	3207
868.886	2979
869.017	3028
869.147	3173
869.278	3150
869.408	3047
869.539	3020
869.669	3097
869.799	3074
869.929	3123
870.06	3123
870.19	3332
870.32	3283
870.45	3310
870.58	3386
870.71	3485
870.84	3481
870.97	3348
871.1	3260
871.23	3496
871.36	3447
871.489	3378
871.619	3393
871.749	3469
871.879	3428
872.008	3500
872.138	3386
872.267	3294
872.397	3150
872.526	3123
872.656	3013
872.785	3093
872.915	3230
873.044	3332
873.173	3222
873.303	3245
873.432	3241
873.561	3310
873.69	3157
873.819	3165
873.948	3192
874.077	3131
874.206	3062
874.335	3127
874.464	3214
874.593	3344
874.722	3279
874.851	3420
874.979	3382
875.108	3325
875.237	3253
875.365	3188
875.494	3203
875.623	3283
875.751	3077
875.88	3169
876.008	3207
876.136	3256
876.265	3336
876.393	3526
876.521	3424
876.65	3363
876.778	3348
876.906	3272
877.034	3253
877.162	3287
877.29	3161
877.418	3256
877.546	3230
877.674	3249
877.802	3256
877.93	3256
878.058	3119
878.185	3116
878.313	3203
878.441	3218
878.568	3051
878.696	3146
878.824	3241
878.951	3325
879.079	3450
879.206	3641
879.333	3454
879.461	3374
879.588	3359
879.715	3473
879.842	3625
879.97	3393
880.097	3173
880.224	3157
880.351	3188
880.478	3233
880.605	3237
880.732	3211
880.859	3485
880.986	3348
881.112	3344
881.239	3176
881.366	3093
881.493	3055
881.619	3032
881.746	3081
881.872	3131
881.999	3138
882.125	3180
882.252	3279
882.378	3298
882.505	3477
882.631	3279
882.757	3154
882.883	3184
883.01	3211
883.136	3146
883.262	3127
883.388	3150
883.514	3313
883.64	3401
883.766	3302
883.892	3154
884.018	3214
884.143	3420
884.269	3519
884.395	3207
884.52	3173
884.646	3184
884.772	3131
884.897	3127
885.023	3222
885.148	3367
885.274	3397
885.399	3367
885.524	3321
885.65	3298
885.775	3344
885.9	3283
886.025	3397
886.15	3340
886.275	3298
886.4	3211
886.525	3359
886.65	3264
886.775	3321
886.9	3530
887.025	3629
887.149	3431
887.274	3264
887.399	3150
887.523	3184
887.648	3203
887.773	3211
887.897	3409
888.021	3439
888.146	3302
888.27	3416
888.395	3545
888.519	3439
888.643	3477
888.767	3454
888.891	3302
889.015	3275
889.139	3329
889.263	3291
889.387	3401
889.511	3542
889.635	3488
889.759	3298
889.883	3355
890.006	3397
890.13	3477
890.254	3329
890.377	3374
890.501	3199
890.624	3188
890.748	3355
890.871	3180
890.995	3112
891.118	3085
891.241	3218
891.364	3222
891.488	3321
891.611	3180
891.734	3222
891.857	3329
891.98	3233
892.103	3370
892.226	3325
892.349	3218
892.471	3119
892.594	3256
892.717	3313
892.839	3253
892.962	3291
893.085	3386
893.207	3264
893.33	3184
893.452	3222
893.575	3374
893.697	3275
893.819	3473
893.941	3572
894.064	3507
894.186	3302
894.308	3283
894.43	3473
894.552	3568
894.674	3473
894.796	3313
894.918	3317
895.04	3268
895.161	3450
895.283	3378
895.405	3321
895.526	3348
895.648	3416
895.769	3420
895.891	3481
896.012	3526
896.134	3447
896.255	3462
896.376	3409
896.498	3378
896.619	3458
896.74	3367
896.861	3424
896.982	3720
897.103	3854
897.224	3671
897.345	3507
897.466	3439
897.587	3481
897.708	3648
897.828	3538
897.949	3481
898.07	3359
898.19	3401
898.311	3648
898.431	3443
898.552	3557
898.672	3572
898.792	3584
898.913	3538
899.033	3420
899.153	3302
899.273	3230
899.393	3306
899.513	3344
899.633	3351
899.753	3348
899.873	3374
899.993	3397
900.113	3359
900.232	3378
900.352	3382
900.472	3351
900.591	3249
900.711	3325
900.83	3233
900.95	3439
901.069	3500
901.189	3393
901.308	3157
901.427	3146
901.546	3233
901.665	3272
901.784	3321
901.904	3207
902.023	3176
902.141	3017
902.26	3043
902.379	3127
902.498	3104
902.617	3051
902.735	3264
902.854	3279
902.973	3214
903.091	3074
903.21	3066
903.328	3146
903.446	3161
903.565	3135
903.683	3264
903.801	3169
903.919	3287
904.038	3260
904.156	3173
904.274	3306
904.392	3245
904.51	3317
904.627	3332
904.745	3500
904.863	3530
904.981	3298
905.098	3188
905.216	3226
905.334	3317
905.451	3298
905.569	3351
905.686	3420
905.803	3477
905.921	3325
906.038	3462
906.155	3374
906.272	3298
906.389	3351
906.506	3253
906.623	3287
906.74	3298
906.857	3230
906.974	3279
907.091	3454
907.208	3545
907.324	3492
907.441	3416
907.557	3241
907.674	3264
907.79	3249
907.907	3310
908.023	3386
908.139	3409
908.256	3370
908.372	3416
908.488	3370
908.604	3256
908.72	3245
908.836	3310
908.952	3291
909.068	3325
909.184	3519
909.3	3428
909.415	3542
909.531	3515
909.647	3317
909.762	3344
909.878	3245
909.993	3374
910.108	3340
910.224	3344
910.339	3420
910.454	3359
910.57	3298
910.685	3313
910.8	3618
910.915	3553
911.03	3424
911.145	3306
911.259	3294
911.374	3298
911.489	3287
911.604	3245
911.718	3112
911.833	3176
911.947	3058
912.062	3032
912.176	3218
912.291	3226
912.405	3249
912.519	3473
912.633	3473
912.748	3348
912.862	3287
912.976	3199
913.09	3074
913.204	3142
913.318	3272
913.431	3378
913.545	3332
913.659	3428
913.772	3363
913.886	3256
914	3214
914.113	3348
914.226	3416
914.34	3386
914.453	3214
914.566	3412
914.68	3306
914.793	3325
914.906	3165
915.019	3169
915.132	3119
915.245	3192
915.358	3192
915.47	3249
915.583	3332
915.696	3306
915.809	3409
915.921	3454
916.034	3287
916.146	3226
916.259	3260
916.371	3412
916.483	3409
916.595	3283
916.708	3386
916.82	3363
916.932	3363
917.044	3340
917.156	3363
917.268	3268
917.38	3313
917.491	3302
917.603	3367
917.715	3466
917.826	3507
917.938	3397
918.049	3283
918.161	3492
918.272	3591
918.384	3595
918.495	3496
918.606	3397
918.717	3325
918.828	3401
918.939	3454
919.05	3325
919.161	3389
919.272	3188
919.383	3272
919.494	3549
919.604	3740
919.715	3526
919.826	3389
919.936	3447
920.047	3576
920.157	3595
920.267	3770
920.378	3641
920.488	3580
920.598	3789
920.708	4006
920.818	3842
920.928	3842
921.038	4051
921.148	4040
921.258	3755
921.368	3629
921.477	3618
921.587	3591
921.697	3477
921.806	3698
921.916	3549
922.025	3378
922.134	3382
922.244	3313
922.353	3504
922.462	3275
922.571	3260
922.68	3119
922.789	3077
922.898	3146
923.007	3097
923.116	3222
923.224	3222
923.333	3188
923.442	3112
923.55	3085
923.659	3131
923.767	3237
923.876	3142
923.984	3272
924.092	3112
924.201	3230
924.309	3230
924.417	3291
924.525	3192
924.633	3275
924.741	4219
924.849	3085
924.956	3272
925.064	3104
925.172	3089
925.279	3135
925.387	3214
925.494	3230
925.602	3340
925.709	3348
925.816	3211
925.924	3340
926.031	3405
926.138	3298
926.245	3409
926.352	3279
926.459	3424
926.566	3454
926.673	3329
926.779	3264
926.886	3275
926.993	3173
927.099	3161
927.206	3127
927.312	3135
927.419	3245
927.525	3214
927.631	3260
927.737	3173
927.843	3165
927.95	3005
928.056	3161
928.162	3214
928.267	3260
928.373	3861
928.479	3329
928.585	3070
928.69	3222
928.796	3253
928.901	3180
929.007	3093
929.112	3226
929.218	3218
929.323	3157
929.428	3157
929.533	3313
929.638	3154
929.743	3207
929.848	3268
929.953	3222
930.058	3180
930.163	3005
930.267	3066
930.372	3245
930.477	3051
930.581	3348
930.685	3195
930.79	3055
930.894	3127
930.998	3131
931.103	3275
931.207	2975
931.311	2948
931.415	2933
931.519	2788
931.623	2819
