Data from test_V78500241_2040.txt Node
Date: Fri Mar 25 16:29:20 CST 2022
User: usil
Spectrometer: V785-0024
Trigger mode: 0
Integration Time (sec): 4.000000E-1
Scans to average: 1
Nonlinearity correction enabled: false
Boxcar width: 0
Storing dark spectrum: false
XAxis mode: Wavelengths
Number of Pixels in Spectrum: 1024
>>>>>Begin Spectral Data<<<<<
801.071	2883
801.214	2922
801.356	2880
801.499	2872
801.641	2853
801.783	2933
801.926	3028
802.068	2941
802.211	2994
802.353	3039
802.496	3001
802.638	3024
802.78	3028
802.923	3081
803.065	2998
803.208	2910
803.35	2891
803.492	2963
803.635	2914
803.777	2758
803.919	2861
804.061	3161
804.204	2910
804.346	2891
804.488	2834
804.63	2994
804.773	2887
804.915	2887
805.057	3077
805.199	2933
805.341	2967
805.483	2998
805.626	2994
805.768	2941
805.91	3032
806.052	3135
806.194	3009
806.336	3192
806.478	3032
806.62	2967
806.762	2982
806.904	3020
807.046	3165
807.188	2971
807.33	2891
807.472	2990
807.614	2933
807.756	2960
807.898	2906
808.04	2880
808.182	2963
808.324	2975
808.465	2868
808.607	2891
808.749	2800
808.891	2834
809.033	2979
809.174	2967
809.316	2864
809.458	2910
809.6	2781
809.741	2769
809.883	2754
810.025	2880
810.166	2823
810.308	2834
810.45	2811
810.591	2766
810.733	2785
810.875	2834
811.016	2781
811.158	2769
811.299	2838
811.441	2937
811.582	2891
811.724	2838
811.865	2853
812.007	2937
812.148	2864
812.29	2857
812.431	2872
812.573	2952
812.714	2986
812.855	3070
812.997	3020
813.138	3089
813.279	3024
813.421	2986
813.562	2963
813.703	2883
813.845	2922
813.986	2758
814.127	2720
814.268	2796
814.41	2826
814.551	2800
814.692	2868
814.833	2819
814.974	2910
815.115	2944
815.256	2811
815.397	2823
815.539	2883
815.68	2807
815.821	2781
815.962	2944
816.103	2899
816.244	2872
816.385	2864
816.526	2963
816.666	2910
816.807	2705
816.948	2891
817.089	2902
817.23	2868
817.371	2785
817.512	2792
817.653	2830
817.793	2804
817.934	2880
818.075	2918
818.216	2979
818.356	3024
818.497	2857
818.638	2758
818.778	2777
818.919	2815
819.06	2766
819.2	2857
819.341	2819
819.481	2807
819.622	2906
819.762	3043
819.903	3001
820.043	2952
820.184	2883
820.324	2914
820.465	3005
820.605	3028
820.746	3005
820.886	2933
821.026	3066
821.167	3184
821.307	3237
821.447	3279
821.588	3264
821.728	3214
821.868	3165
822.008	3051
822.149	3218
822.289	3233
822.429	3085
822.569	3108
822.709	3142
822.849	3001
822.99	3055
823.13	3142
823.27	3195
823.41	3123
823.55	3138
823.69	3165
823.83	3195
823.97	3081
824.11	2975
824.25	2990
824.389	3051
824.529	3104
824.669	3081
824.809	3154
824.949	3241
825.089	3241
825.228	3184
825.368	2990
825.508	2925
825.648	2941
825.787	3001
825.927	3001
826.067	2925
826.206	2941
826.346	3001
826.485	3085
826.625	3108
826.765	3249
826.904	3237
827.044	2967
827.183	2891
827.323	2815
827.462	2979
827.601	2929
827.741	2891
827.88	2956
828.02	2868
828.159	2975
828.298	3013
828.437	3093
828.577	3020
828.716	3245
828.855	3051
828.994	2918
829.134	2899
829.273	2895
829.412	2826
829.551	2849
829.69	2876
829.829	2990
829.968	3089
830.107	3013
830.246	3009
830.385	2918
830.524	2891
830.663	2788
830.802	2735
830.941	2644
831.08	2648
831.219	2769
831.357	2754
831.496	2948
831.635	2705
831.774	2640
831.913	2659
832.051	2526
832.19	2571
832.329	2667
832.467	2514
832.606	2423
832.744	2571
832.883	2514
833.022	2602
833.16	2640
833.299	2689
833.437	2667
833.576	2697
833.714	2727
833.852	2720
833.991	2746
834.129	2800
834.267	2792
834.406	2792
834.544	2864
834.682	2883
834.821	2876
834.959	3058
835.097	2906
835.235	3066
835.373	2998
835.511	2998
835.65	2982
835.788	2963
835.926	2830
836.064	2788
836.202	2834
836.34	3100
836.478	3127
836.615	3024
836.753	3081
836.891	3218
837.029	3161
837.167	3070
837.305	3089
837.443	3005
837.58	2941
837.718	3127
837.856	3062
837.993	3024
838.131	3116
838.269	3085
838.406	3097
838.544	3074
838.681	2944
838.819	2910
838.956	2807
839.094	2811
839.231	2937
839.369	2979
839.506	3401
839.643	3222
839.781	3001
839.918	2941
840.055	3043
840.193	3051
840.33	3043
840.467	3089
840.604	3142
840.742	3428
840.879	3036
841.016	3024
841.153	3150
841.29	3317
841.427	3287
841.564	3230
841.701	3291
841.838	3211
841.975	3184
842.112	3180
842.249	3062
842.385	3020
842.522	3211
842.659	3036
842.796	3036
842.933	3097
843.069	3001
843.206	3020
843.343	3207
843.479	3085
843.616	3104
843.752	2891
843.889	2857
844.025	3070
844.162	2853
844.298	3081
844.435	2941
844.571	2910
844.708	3036
844.844	3207
844.98	3203
845.117	3214
845.253	3032
845.389	3005
845.525	3047
845.661	3108
845.798	3013
845.934	3051
846.07	3032
846.206	3226
846.342	3283
846.478	3218
846.614	3055
846.75	3028
846.886	3032
847.022	3199
847.158	3112
847.294	3184
847.429	3272
847.565	3218
847.701	3458
847.837	3036
847.972	2963
848.108	3150
848.244	3123
848.379	2994
848.515	2929
848.65	2895
848.786	2952
848.921	2986
849.057	3077
849.192	3131
849.328	3051
849.463	3074
849.598	3055
849.734	3013
849.869	2960
850.004	2918
850.14	2971
850.275	2918
850.41	2842
850.545	2830
850.68	2914
850.815	2948
850.95	2990
851.085	3199
851.22	3112
851.355	2990
851.49	2963
851.625	2967
851.76	3001
851.895	2906
852.03	2925
852.165	3005
852.299	3138
852.434	3199
852.569	3135
852.703	3192
852.838	3272
852.973	3313
853.107	3279
853.242	3161
853.376	3077
853.511	2960
853.645	3028
853.78	3241
853.914	3142
854.048	3112
854.183	3100
854.317	3150
854.451	3283
854.585	3100
854.72	3024
854.854	3161
854.988	3062
855.122	3112
855.256	2952
855.39	3104
855.524	3264
855.658	3161
855.792	3100
855.926	3214
856.06	3207
856.194	3226
856.327	3142
856.461	3058
856.595	3077
856.729	3112
856.862	3207
856.996	3131
857.13	3157
857.263	3192
857.397	3302
857.53	3108
857.664	3203
857.797	3222
857.931	3207
858.064	3154
858.197	3214
858.331	3165
858.464	3070
858.597	3005
858.731	3085
858.864	3127
858.997	3062
859.13	3169
859.263	3199
859.396	3222
859.529	3074
859.662	3085
859.795	3051
859.928	3100
860.061	3260
860.194	3294
860.327	3116
860.46	3085
860.592	3184
860.725	3222
860.858	3245
860.99	3119
861.123	3051
861.256	3020
861.388	3135
861.521	3823
861.653	3024
861.786	2967
861.918	3020
862.05	3051
862.183	3089
862.315	3116
862.447	3184
862.58	3097
862.712	2944
862.844	2849
862.976	3020
863.108	2963
863.24	3325
863.372	2864
863.504	2971
863.636	2960
863.768	2998
863.9	2963
864.032	2922
864.164	2941
864.296	2960
864.428	3089
864.559	3104
864.691	3077
864.823	3055
864.954	3036
865.086	3039
865.217	3009
865.349	2929
865.48	2975
865.612	3009
865.743	3127
865.875	2982
866.006	2929
866.137	2967
866.269	2967
866.4	2960
866.531	2880
866.662	2899
866.793	2883
866.924	2872
867.055	3001
867.186	2906
867.317	2902
867.448	2823
867.579	2792
867.71	2830
867.841	2819
867.972	2887
868.103	2906
868.233	2868
868.364	2887
868.495	2944
868.625	3089
868.756	3154
868.886	2944
869.017	3001
869.147	3154
869.278	3169
869.408	3043
869.539	3036
869.669	3085
869.799	3009
869.929	3131
870.06	3131
870.19	3256
870.32	3310
870.45	3313
870.58	3344
870.71	3462
870.84	3443
870.97	3310
871.1	3241
871.23	3492
871.36	3443
871.489	3329
871.619	3393
871.749	3405
871.879	3416
872.008	3496
872.138	3355
872.267	3264
872.397	3142
872.526	3081
872.656	3013
872.785	3097
872.915	3249
873.044	3253
873.173	3211
873.303	3233
873.432	3241
873.561	3207
873.69	3157
873.819	3142
873.948	3169
874.077	3074
874.206	3009
874.335	3070
874.464	3226
874.593	3340
874.722	3230
874.851	3374
874.979	3351
875.108	3355
875.237	3192
875.365	3157
875.494	3192
875.623	3230
875.751	3051
875.88	3093
876.008	3161
876.136	3226
876.265	3386
876.393	3488
876.521	3450
876.65	3370
876.778	3294
876.906	3253
877.034	3203
877.162	3226
877.29	3184
877.418	3264
877.546	3211
877.674	3218
877.802	3211
877.93	3207
878.058	3116
878.185	3116
878.313	3184
878.441	3157
878.568	3062
878.696	3173
878.824	3256
878.951	3249
879.079	3458
879.206	3641
879.333	3393
879.461	3348
879.588	3325
879.715	3458
879.842	3576
879.97	3412
880.097	3180
880.224	3112
880.351	3199
880.478	3211
880.605	3214
880.732	3192
880.859	3462
880.986	3344
881.112	3344
881.239	3192
881.366	3051
881.493	3032
881.619	3028
881.746	3066
881.872	3093
881.999	3093
882.125	3116
882.252	3241
882.378	3249
882.505	3397
882.631	3313
882.757	3157
882.883	3203
883.01	3218
883.136	3123
883.262	3070
883.388	3070
883.514	3313
883.64	3355
883.766	3294
883.892	3165
884.018	3222
884.143	3401
884.269	3549
884.395	3218
884.52	3173
884.646	3169
884.772	3100
884.897	3112
885.023	3199
885.148	3336
885.274	3374
885.399	3363
885.524	3283
885.65	3237
885.775	3294
885.9	3294
886.025	3409
886.15	3325
886.275	3317
886.4	3211
886.525	3302
886.65	3283
886.775	3218
886.9	3519
887.025	3618
887.149	3409
887.274	3260
887.399	3192
887.523	3214
887.648	3192
887.773	3195
887.897	3351
888.021	3393
888.146	3260
888.27	3393
888.395	3530
888.519	3435
888.643	3416
888.767	3469
888.891	3264
889.015	3256
889.139	3287
889.263	3241
889.387	3389
889.511	3488
889.635	3405
889.759	3264
889.883	3291
890.006	3397
890.13	3473
890.254	3272
890.377	3329
890.501	3199
890.624	3173
890.748	3253
890.871	3176
890.995	3127
891.118	3036
891.241	3173
891.364	3180
891.488	3310
891.611	3131
891.734	3226
891.857	3279
891.98	3195
892.103	3317
892.226	3275
892.349	3218
892.471	3093
892.594	3226
892.717	3264
892.839	3230
892.962	3283
893.085	3359
893.207	3275
893.33	3154
893.452	3180
893.575	3370
893.697	3218
893.819	3435
893.941	3496
894.064	3439
894.186	3245
894.308	3279
894.43	3409
894.552	3530
894.674	3435
894.796	3245
894.918	3310
895.04	3272
895.161	3393
895.283	3397
895.405	3310
895.526	3401
895.648	3420
895.769	3439
895.891	3431
896.012	3534
896.134	3450
896.255	3389
896.376	3382
896.498	3336
896.619	3397
896.74	3363
896.861	3393
896.982	3709
897.103	3808
897.224	3587
897.345	3481
897.466	3416
897.587	3485
897.708	3587
897.828	3553
897.949	3397
898.07	3313
898.19	3355
898.311	3549
898.431	3462
898.552	3477
898.672	3599
898.792	3523
898.913	3523
899.033	3397
899.153	3283
899.273	3207
899.393	3291
899.513	3348
899.633	3310
899.753	3325
899.873	3298
899.993	3397
900.113	3359
900.232	3386
900.352	3348
900.472	3294
900.591	3222
900.711	3291
900.83	3245
900.95	3397
901.069	3511
901.189	3317
901.308	3161
901.427	3112
901.546	3157
901.665	3264
901.784	3325
901.904	3203
902.023	3142
902.141	3009
902.26	2979
902.379	3093
902.498	3051
902.617	3017
902.735	3214
902.854	3245
902.973	3165
903.091	3051
903.21	3032
903.328	3112
903.446	3123
903.565	3112
903.683	3180
903.801	3108
903.919	3241
904.038	3260
904.156	3173
904.274	3272
904.392	3230
904.51	3287
904.627	3344
904.745	3428
904.863	3454
904.981	3249
905.098	3176
905.216	3249
905.334	3294
905.451	3291
905.569	3310
905.686	3382
905.803	3386
905.921	3279
906.038	3412
906.155	3313
906.272	3264
906.389	3344
906.506	3230
906.623	3203
906.74	3230
906.857	3142
906.974	3230
907.091	3443
907.208	3591
907.324	3462
907.441	3401
907.557	3207
907.674	3218
907.79	3214
907.907	3291
908.023	3367
908.139	3359
908.256	3302
908.372	3382
908.488	3329
908.604	3249
908.72	3218
908.836	3283
908.952	3310
909.068	3310
909.184	3466
909.3	3401
909.415	3488
909.531	3485
909.647	3275
909.762	3306
909.878	3207
909.993	3325
910.108	3325
910.224	3317
910.339	3416
910.454	3363
910.57	3268
910.685	3222
910.8	3595
910.915	3584
911.03	3412
911.145	3249
911.259	3253
911.374	3291
911.489	3253
911.604	3180
911.718	3104
911.833	3173
911.947	2994
912.062	2994
912.176	3138
912.291	3180
912.405	3218
912.519	3401
912.633	3488
912.748	3363
912.862	3272
912.976	3188
913.09	3055
913.204	3112
913.318	3218
913.431	3317
913.545	3332
913.659	3393
913.772	3294
913.886	3214
914	3230
914.113	3325
914.226	3363
914.34	3336
914.453	3203
914.566	3409
914.68	3253
914.793	3317
914.906	3150
915.019	3081
915.132	3066
915.245	3165
915.358	3176
915.47	3245
915.583	3302
915.696	3283
915.809	3397
915.921	3435
916.034	3279
916.146	3245
916.259	3245
916.371	3370
916.483	3344
916.595	3245
916.708	3348
916.82	3329
916.932	3363
917.044	3344
917.156	3378
917.268	3253
917.38	3294
917.491	3306
917.603	3370
917.715	3428
917.826	3481
917.938	3405
918.049	3260
918.161	3439
918.272	3553
918.384	3610
918.495	3500
918.606	3348
918.717	3253
918.828	3393
918.939	3416
919.05	3313
919.161	3374
919.272	3150
919.383	3283
919.494	3500
919.604	3690
919.715	3504
919.826	3409
919.936	3424
920.047	3557
920.157	3545
920.267	3766
920.378	3614
920.488	3587
920.598	3789
920.708	3972
920.818	3838
920.928	3823
921.038	4021
921.148	4013
921.258	3717
921.368	3622
921.477	3603
921.587	3549
921.697	3428
921.806	3648
921.916	3462
922.025	3378
922.134	3348
922.244	3306
922.353	3424
922.462	3272
922.571	3199
922.68	3104
922.789	3058
922.898	3157
923.007	3108
923.116	3146
923.224	3184
923.333	3207
923.442	3085
923.55	3081
923.659	3131
923.767	3214
923.876	3127
923.984	3222
924.092	3119
924.201	3135
924.309	3207
924.417	3241
924.525	3192
924.633	3222
924.741	4177
924.849	3047
924.956	3291
925.064	3089
925.172	3032
925.279	3104
925.387	3154
925.494	3199
925.602	3317
925.709	3272
925.816	3188
925.924	3310
926.031	3370
926.138	3351
926.245	3409
926.352	3256
926.459	3389
926.566	3435
926.673	3317
926.779	3253
926.886	3264
926.993	3157
927.099	3097
927.206	3104
927.312	3100
927.419	3214
927.525	3192
927.631	3256
927.737	3157
927.843	3131
927.95	3020
928.056	3135
928.162	3218
928.267	3268
928.373	3903
928.479	3317
928.585	3055
928.69	3192
928.796	3268
928.901	3154
929.007	3043
929.112	3214
929.218	3157
929.323	3161
929.428	3131
929.533	3329
929.638	3108
929.743	3142
929.848	3203
929.953	3226
930.058	3154
930.163	3001
930.267	3028
930.372	3184
930.477	3062
930.581	3321
930.685	3142
930.79	3089
930.894	3127
930.998	3104
931.103	3275
931.207	2944
931.311	2967
931.415	2922
931.519	2769
931.623	2758
