Data from test_V78500241_2030.txt Node
Date: Fri Mar 25 16:29:15 CST 2022
User: usil
Spectrometer: V785-0024
Trigger mode: 0
Integration Time (sec): 4.000000E-1
Scans to average: 1
Nonlinearity correction enabled: false
Boxcar width: 0
Storing dark spectrum: false
XAxis mode: Wavelengths
Number of Pixels in Spectrum: 1024
>>>>>Begin Spectral Data<<<<<
801.071	2914
801.214	2952
801.356	2876
801.499	2891
801.641	2868
801.783	2925
801.926	3032
802.068	2963
802.211	2982
802.353	3032
802.496	2933
802.638	2982
802.78	3013
802.923	3051
803.065	3013
803.208	2887
803.35	2902
803.492	2914
803.635	2922
803.777	2743
803.919	2872
804.061	3176
804.204	2944
804.346	2937
804.488	2800
804.63	2979
804.773	2857
804.915	2887
805.057	3104
805.199	2933
805.341	2952
805.483	3024
805.626	3009
805.768	2975
805.91	3066
806.052	3116
806.194	3066
806.336	3214
806.478	3017
806.62	2925
806.762	2937
806.904	3077
807.046	3150
807.188	2971
807.33	2929
807.472	3020
807.614	2914
807.756	2971
807.898	2948
808.04	2899
808.182	2967
808.324	2922
808.465	2868
808.607	2864
808.749	2788
808.891	2861
809.033	2967
809.174	2922
809.316	2872
809.458	2899
809.6	2762
809.741	2735
809.883	2781
810.025	2804
810.166	2872
810.308	2864
810.45	2887
810.591	2758
810.733	2781
810.875	2830
811.016	2788
811.158	2750
811.299	2849
811.441	2952
811.582	2842
811.724	2804
811.865	2807
812.007	2910
812.148	2895
812.29	2861
812.431	2891
812.573	2899
812.714	2933
812.855	3036
812.997	3051
813.138	3108
813.279	3051
813.421	2979
813.562	2933
813.703	2861
813.845	2868
813.986	2754
814.127	2724
814.268	2792
814.41	2842
814.551	2785
814.692	2876
814.833	2796
814.974	2922
815.115	2918
815.256	2830
815.397	2823
815.539	2887
815.68	2792
815.821	2788
815.962	2929
816.103	2910
816.244	2853
816.385	2826
816.526	2956
816.666	2891
816.807	2754
816.948	2861
817.089	2918
817.23	2864
817.371	2735
817.512	2758
817.653	2845
817.793	2826
817.934	2883
818.075	2971
818.216	2975
818.356	3062
818.497	2899
818.638	2788
818.778	2792
818.919	2766
819.06	2731
819.2	2853
819.341	2792
819.481	2777
819.622	2933
819.762	3070
819.903	2998
820.043	2895
820.184	2899
820.324	2910
820.465	3028
820.605	3017
820.746	3032
820.886	2906
821.026	3100
821.167	3176
821.307	3226
821.447	3268
821.588	3233
821.728	3188
821.868	3184
822.008	3081
822.149	3188
822.289	3226
822.429	3112
822.569	3108
822.709	3131
822.849	3039
822.99	3085
823.13	3127
823.27	3165
823.41	3123
823.55	3127
823.69	3127
823.83	3192
823.97	3077
824.11	2975
824.25	3009
824.389	3062
824.529	3089
824.669	3051
824.809	3195
824.949	3253
825.089	3195
825.228	3135
825.368	2998
825.508	2994
825.648	2948
825.787	3013
825.927	3020
826.067	2933
826.206	2944
826.346	3028
826.485	3074
826.625	3116
826.765	3310
826.904	3184
827.044	2998
827.183	2857
827.323	2876
827.462	2963
827.601	2891
827.741	2925
827.88	2986
828.02	2845
828.159	2948
828.298	3009
828.437	3093
828.577	3032
828.716	3241
828.855	3104
828.994	2922
829.134	2872
829.273	2944
829.412	2861
829.551	2838
829.69	2906
829.829	2979
829.968	3100
830.107	3001
830.246	3005
830.385	2952
830.524	2861
830.663	2807
830.802	2701
830.941	2640
831.08	2659
831.219	2735
831.357	2724
831.496	2963
831.635	2708
831.774	2621
831.913	2636
832.051	2541
832.19	2541
832.329	2705
832.467	2530
832.606	2499
832.744	2583
832.883	2545
833.022	2564
833.16	2625
833.299	2674
833.437	2686
833.576	2674
833.714	2720
833.852	2735
833.991	2781
834.129	2857
834.267	2796
834.406	2804
834.544	2849
834.682	2880
834.821	2876
834.959	3085
835.097	2872
835.235	3043
835.373	2952
835.511	2998
835.65	2963
835.788	2941
835.926	2823
836.064	2815
836.202	2826
836.34	3112
836.478	3138
836.615	3051
836.753	3104
836.891	3192
837.029	3180
837.167	3123
837.305	3024
837.443	3039
837.58	2933
837.718	3116
837.856	3062
837.993	2998
838.131	3112
838.269	3077
838.406	3066
838.544	3089
838.681	2910
838.819	2895
838.956	2804
839.094	2842
839.231	2899
839.369	3043
839.506	3340
839.643	3176
839.781	3020
839.918	2956
840.055	3039
840.193	3043
840.33	3039
840.467	3127
840.604	3142
840.742	3374
840.879	3070
841.016	3032
841.153	3093
841.29	3313
841.427	3325
841.564	3230
841.701	3325
841.838	3199
841.975	3169
842.112	3180
842.249	3085
842.385	3036
842.522	3199
842.659	3055
842.796	3043
842.933	3089
843.069	3070
843.206	3028
843.343	3207
843.479	3074
843.616	3150
843.752	2887
843.889	2872
844.025	3077
844.162	2868
844.298	3047
844.435	2952
844.571	2929
844.708	3097
844.844	3195
844.98	3245
845.117	3188
845.253	2998
845.389	3001
845.525	3123
845.661	3100
845.798	2982
845.934	3123
846.07	3047
846.206	3195
846.342	3291
846.478	3237
846.614	3066
846.75	3024
846.886	3036
847.022	3233
847.158	3146
847.294	3161
847.429	3222
847.565	3222
847.701	3450
847.837	3020
847.972	2994
848.108	3150
848.244	3123
848.379	2990
848.515	2941
848.65	2918
848.786	2925
848.921	3005
849.057	3074
849.192	3161
849.328	3074
849.463	3089
849.598	3062
849.734	3058
849.869	2944
850.004	2941
850.14	3013
850.275	2876
850.41	2834
850.545	2868
850.68	2933
850.815	2933
850.95	2944
851.085	3157
851.22	3081
851.355	2982
851.49	2929
851.625	3024
851.76	2998
851.895	2891
852.03	2902
852.165	2998
852.299	3123
852.434	3154
852.569	3150
852.703	3150
852.838	3218
852.973	3359
853.107	3272
853.242	3131
853.376	3085
853.511	2963
853.645	3017
853.78	3214
853.914	3146
854.048	3104
854.183	3066
854.317	3146
854.451	3272
854.585	3131
854.72	3062
854.854	3184
854.988	3043
855.122	3100
855.256	2998
855.39	3123
855.524	3207
855.658	3138
855.792	3138
855.926	3169
856.06	3218
856.194	3241
856.327	3142
856.461	3085
856.595	3055
856.729	3066
856.862	3211
856.996	3165
857.13	3165
857.263	3207
857.397	3264
857.53	3135
857.664	3150
857.797	3211
857.931	3275
858.064	3173
858.197	3195
858.331	3127
858.464	3097
858.597	2986
858.731	3108
858.864	3127
858.997	3070
859.13	3169
859.263	3104
859.396	3195
859.529	3089
859.662	3062
859.795	3047
859.928	3097
860.061	3268
860.194	3260
860.327	3169
860.46	3093
860.592	3211
860.725	3237
860.858	3272
860.99	3108
861.123	3051
861.256	3077
861.388	3116
861.521	3846
861.653	3005
861.786	3001
861.918	2952
862.05	3047
862.183	3104
862.315	3157
862.447	3192
862.58	3081
862.712	2922
862.844	2842
862.976	3020
863.108	2998
863.24	3310
863.372	2864
863.504	2963
863.636	2929
863.768	3051
863.9	2986
864.032	2880
864.164	2956
864.296	2998
864.428	3081
864.559	3150
864.691	3017
864.823	3055
864.954	3043
865.086	3047
865.217	2994
865.349	2971
865.48	2937
865.612	3058
865.743	3154
865.875	2982
866.006	2933
866.137	2952
866.269	2918
866.4	2948
866.531	2902
866.662	2868
866.793	2861
866.924	2929
867.055	2941
867.186	2891
867.317	2876
867.448	2811
867.579	2823
867.71	2868
867.841	2804
867.972	2899
868.103	2914
868.233	2887
868.364	2872
868.495	2887
868.625	3077
868.756	3173
868.886	2960
869.017	3009
869.147	3184
869.278	3180
869.408	3028
869.539	2986
869.669	3112
869.799	3039
869.929	3123
870.06	3112
870.19	3291
870.32	3306
870.45	3306
870.58	3389
870.71	3439
870.84	3454
870.97	3226
871.1	3241
871.23	3500
871.36	3504
871.489	3336
871.619	3428
871.749	3397
871.879	3409
872.008	3488
872.138	3348
872.267	3272
872.397	3199
872.526	3077
872.656	3001
872.785	3100
872.915	3241
873.044	3302
873.173	3195
873.303	3214
873.432	3237
873.561	3233
873.69	3146
873.819	3100
873.948	3165
874.077	3097
874.206	3028
874.335	3070
874.464	3199
874.593	3370
874.722	3268
874.851	3428
874.979	3317
875.108	3279
875.237	3169
875.365	3157
875.494	3138
875.623	3218
875.751	3104
875.88	3119
876.008	3203
876.136	3214
876.265	3344
876.393	3538
876.521	3416
876.65	3374
876.778	3325
876.906	3226
877.034	3157
877.162	3218
877.29	3173
877.418	3195
877.546	3253
877.674	3253
877.802	3245
877.93	3230
878.058	3116
878.185	3085
878.313	3165
878.441	3207
878.568	3081
878.696	3195
878.824	3268
878.951	3256
879.079	3420
879.206	3641
879.333	3401
879.461	3336
879.588	3348
879.715	3500
879.842	3584
879.97	3370
880.097	3154
880.224	3104
880.351	3157
880.478	3241
880.605	3188
880.732	3157
880.859	3488
880.986	3287
881.112	3272
881.239	3218
881.366	3135
881.493	3032
881.619	2982
881.746	3058
881.872	3058
881.999	3085
882.125	3165
882.252	3199
882.378	3268
882.505	3431
882.631	3279
882.757	3199
882.883	3180
883.01	3195
883.136	3157
883.262	3093
883.388	3093
883.514	3298
883.64	3382
883.766	3313
883.892	3180
884.018	3226
884.143	3393
884.269	3561
884.395	3184
884.52	3199
884.646	3180
884.772	3104
884.897	3089
885.023	3176
885.148	3306
885.274	3412
885.399	3348
885.524	3287
885.65	3264
885.775	3332
885.9	3283
886.025	3439
886.15	3382
886.275	3298
886.4	3237
886.525	3279
886.65	3253
886.775	3291
886.9	3466
887.025	3587
887.149	3397
887.274	3237
887.399	3192
887.523	3211
887.648	3203
887.773	3165
887.897	3363
888.021	3397
888.146	3272
888.27	3389
888.395	3534
888.519	3424
888.643	3443
888.767	3511
888.891	3283
889.015	3188
889.139	3310
889.263	3256
889.387	3412
889.511	3507
889.635	3473
889.759	3294
889.883	3268
890.006	3359
890.13	3450
890.254	3287
890.377	3279
890.501	3218
890.624	3184
890.748	3317
890.871	3157
890.995	3097
891.118	3039
891.241	3192
891.364	3218
891.488	3325
891.611	3165
891.734	3203
891.857	3302
891.98	3207
892.103	3340
892.226	3298
892.349	3226
892.471	3119
892.594	3245
892.717	3294
892.839	3291
892.962	3294
893.085	3359
893.207	3317
893.33	3165
893.452	3230
893.575	3340
893.697	3256
893.819	3462
893.941	3496
894.064	3466
894.186	3268
894.308	3272
894.43	3447
894.552	3507
894.674	3443
894.796	3268
894.918	3298
895.04	3283
895.161	3401
895.283	3409
895.405	3310
895.526	3386
895.648	3439
895.769	3401
895.891	3485
896.012	3462
896.134	3492
896.255	3420
896.376	3363
896.498	3355
896.619	3412
896.74	3355
896.861	3393
896.982	3667
897.103	3854
897.224	3584
897.345	3500
897.466	3416
897.587	3477
897.708	3564
897.828	3534
897.949	3412
898.07	3279
898.19	3412
898.311	3572
898.431	3477
898.552	3523
898.672	3618
898.792	3603
898.913	3507
899.033	3412
899.153	3310
899.273	3199
899.393	3268
899.513	3291
899.633	3294
899.753	3294
899.873	3310
899.993	3382
900.113	3329
900.232	3374
900.352	3310
900.472	3310
900.591	3253
900.711	3283
900.83	3245
900.95	3454
901.069	3485
901.189	3340
901.308	3169
901.427	3142
901.546	3199
901.665	3283
901.784	3325
901.904	3176
902.023	3154
902.141	3020
902.26	3005
902.379	3131
902.498	3066
902.617	3043
902.735	3203
902.854	3211
902.973	3195
903.091	3028
903.21	3032
903.328	3112
903.446	3100
903.565	3093
903.683	3169
903.801	3116
903.919	3233
904.038	3283
904.156	3150
904.274	3241
904.392	3207
904.51	3256
904.627	3306
904.745	3477
904.863	3477
904.981	3256
905.098	3138
905.216	3264
905.334	3291
905.451	3294
905.569	3260
905.686	3401
905.803	3435
905.921	3260
906.038	3412
906.155	3344
906.272	3306
906.389	3329
906.506	3226
906.623	3275
906.74	3253
906.857	3207
906.974	3233
907.091	3458
907.208	3538
907.324	3481
907.441	3355
907.557	3222
907.674	3237
907.79	3184
907.907	3294
908.023	3374
908.139	3367
908.256	3287
908.372	3382
908.488	3351
908.604	3245
908.72	3184
908.836	3313
908.952	3272
909.068	3332
909.184	3496
909.3	3378
909.415	3488
909.531	3454
909.647	3241
909.762	3283
909.878	3233
909.993	3332
910.108	3382
910.224	3348
910.339	3378
910.454	3329
910.57	3264
910.685	3260
910.8	3595
910.915	3557
911.03	3409
911.145	3302
911.259	3279
911.374	3310
911.489	3233
911.604	3199
911.718	3112
911.833	3146
911.947	3001
912.062	2990
912.176	3135
912.291	3173
912.405	3222
912.519	3401
912.633	3488
912.748	3351
912.862	3249
912.976	3165
913.09	3081
913.204	3146
913.318	3188
913.431	3287
913.545	3313
913.659	3416
913.772	3363
913.886	3207
914	3192
914.113	3340
914.226	3428
914.34	3336
914.453	3230
914.566	3389
914.68	3302
914.793	3306
914.906	3154
915.019	3100
915.132	3097
915.245	3157
915.358	3214
915.47	3199
915.583	3287
915.696	3253
915.809	3412
915.921	3416
916.034	3268
916.146	3283
916.259	3192
916.371	3401
916.483	3367
916.595	3279
916.708	3325
916.82	3317
916.932	3317
917.044	3336
917.156	3367
917.268	3287
917.38	3287
917.491	3283
917.603	3363
917.715	3477
917.826	3443
917.938	3351
918.049	3233
918.161	3435
918.272	3538
918.384	3538
918.495	3454
918.606	3329
918.717	3283
918.828	3363
918.939	3405
919.05	3332
919.161	3363
919.272	3146
919.383	3298
919.494	3519
919.604	3629
919.715	3500
919.826	3389
919.936	3485
920.047	3568
920.157	3526
920.267	3717
920.378	3584
920.488	3564
920.598	3770
920.708	3941
920.818	3804
920.928	3876
921.038	4002
921.148	4002
921.258	3736
921.368	3606
921.477	3545
921.587	3492
921.697	3454
921.806	3644
921.916	3549
922.025	3317
922.134	3374
922.244	3340
922.353	3443
922.462	3291
922.571	3264
922.68	3116
922.789	3108
922.898	3142
923.007	3112
923.116	3222
923.224	3195
923.333	3142
923.442	3077
923.55	3100
923.659	3112
923.767	3237
923.876	3100
923.984	3222
924.092	3108
924.201	3176
924.309	3188
924.417	3233
924.525	3188
924.633	3195
924.741	4204
924.849	3055
924.956	3260
925.064	3070
925.172	3024
925.279	3093
925.387	3176
925.494	3188
925.602	3313
925.709	3310
925.816	3169
925.924	3241
926.031	3382
926.138	3329
926.245	3355
926.352	3249
926.459	3447
926.566	3500
926.673	3317
926.779	3264
926.886	3207
926.993	3154
927.099	3123
927.206	3112
927.312	3138
927.419	3180
927.525	3169
927.631	3279
927.737	3116
927.843	3154
927.95	2998
928.056	3138
928.162	3173
928.267	3241
928.373	3911
928.479	3306
928.585	3062
928.69	3226
928.796	3264
928.901	3142
929.007	3058
929.112	3192
929.218	3180
929.323	3161
929.428	3146
929.533	3283
929.638	3097
929.743	3161
929.848	3241
929.953	3207
930.058	3154
930.163	2986
930.267	3081
930.372	3199
930.477	3039
930.581	3302
930.685	3180
930.79	3058
930.894	3142
930.998	3093
931.103	3283
931.207	2929
931.311	2925
931.415	2929
931.519	2743
931.623	2823
