Data from test_V78500241_979.txt Node
Date: Fri Mar 25 16:21:59 CST 2022
User: usil
Spectrometer: V785-0024
Trigger mode: 0
Integration Time (sec): 4.000000E-1
Scans to average: 1
Nonlinearity correction enabled: false
Boxcar width: 0
Storing dark spectrum: false
XAxis mode: Wavelengths
Number of Pixels in Spectrum: 1024
>>>>>Begin Spectral Data<<<<<
801.071	2929
801.214	2979
801.356	2853
801.499	2899
801.641	2857
801.783	2933
801.926	3017
802.068	2944
802.211	2979
802.353	3009
802.496	2971
802.638	3036
802.78	3058
802.923	3058
803.065	2967
803.208	2883
803.35	2979
803.492	2910
803.635	2880
803.777	2754
803.919	2872
804.061	3211
804.204	2944
804.346	2899
804.488	2804
804.63	2990
804.773	2868
804.915	2914
805.057	3093
805.199	2906
805.341	2944
805.483	3032
805.626	2971
805.768	2967
805.91	3097
806.052	3104
806.194	3039
806.336	3264
806.478	3032
806.62	2922
806.762	2998
806.904	3062
807.046	3176
807.188	2975
807.33	2891
807.472	2956
807.614	2918
807.756	2975
807.898	2902
808.04	2899
808.182	2986
808.324	2948
808.465	2891
808.607	2914
808.749	2777
808.891	2815
809.033	2967
809.174	2948
809.316	2899
809.458	2914
809.6	2754
809.741	2758
809.883	2777
810.025	2857
810.166	2830
810.308	2834
810.45	2853
810.591	2773
810.733	2762
810.875	2849
811.016	2804
811.158	2758
811.299	2804
811.441	2891
811.582	2876
811.724	2785
811.865	2864
812.007	2906
812.148	2895
812.29	2838
812.431	2857
812.573	2925
812.714	2971
812.855	3032
812.997	3066
813.138	3100
813.279	2971
813.421	2994
813.562	2933
813.703	2891
813.845	2872
813.986	2807
814.127	2731
814.268	2823
814.41	2857
814.551	2819
814.692	2857
814.833	2807
814.974	2906
815.115	2910
815.256	2868
815.397	2807
815.539	2857
815.68	2746
815.821	2785
815.962	2883
816.103	2952
816.244	2845
816.385	2857
816.526	2982
816.666	2902
816.807	2686
816.948	2887
817.089	2883
817.23	2868
817.371	2731
817.512	2811
817.653	2823
817.793	2796
817.934	2880
818.075	2944
818.216	2979
818.356	3013
818.497	2868
818.638	2819
818.778	2838
818.919	2792
819.06	2746
819.2	2887
819.341	2800
819.481	2807
819.622	2941
819.762	3070
819.903	3017
820.043	2922
820.184	2883
820.324	2838
820.465	3020
820.605	3009
820.746	2994
820.886	2937
821.026	3119
821.167	3161
821.307	3245
821.447	3294
821.588	3214
821.728	3192
821.868	3207
822.008	3085
822.149	3184
822.289	3245
822.429	3116
822.569	3100
822.709	3180
822.849	3017
822.99	3100
823.13	3188
823.27	3241
823.41	3104
823.55	3112
823.69	3173
823.83	3211
823.97	3119
824.11	3043
824.25	3024
824.389	3108
824.529	3131
824.669	3119
824.809	3249
824.949	3291
825.089	3218
825.228	3192
825.368	3062
825.508	2986
825.648	3013
825.787	3055
825.927	3074
826.067	2994
826.206	2979
826.346	3100
826.485	3081
826.625	3173
826.765	3348
826.904	3264
827.044	3020
827.183	2967
827.323	2883
827.462	3013
827.601	2960
827.741	2960
827.88	2967
828.02	2906
828.159	3020
828.298	3100
828.437	3146
828.577	3085
828.716	3272
828.855	3154
828.994	2948
829.134	2944
829.273	2956
829.412	2918
829.551	2887
829.69	2887
829.829	3017
829.968	3199
830.107	3013
830.246	3062
830.385	2990
830.524	2910
830.663	2864
830.802	2792
830.941	2659
831.08	2663
831.219	2792
831.357	2804
831.496	2994
831.635	2743
831.774	2693
831.913	2697
832.051	2602
832.19	2610
832.329	2716
832.467	2590
832.606	2530
832.744	2625
832.883	2648
833.022	2636
833.16	2701
833.299	2705
833.437	2750
833.576	2724
833.714	2754
833.852	2777
833.991	2823
834.129	2838
834.267	2849
834.406	2800
834.544	2899
834.682	2922
834.821	2887
834.959	3112
835.097	2899
835.235	3047
835.373	3009
835.511	3077
835.65	2986
835.788	3001
835.926	2861
836.064	2857
836.202	2880
836.34	3131
836.478	3211
836.615	3047
836.753	3157
836.891	3237
837.029	3211
837.167	3142
837.305	3104
837.443	3081
837.58	3009
837.718	3157
837.856	3142
837.993	3085
838.131	3161
838.269	3116
838.406	3146
838.544	3135
838.681	2960
838.819	2933
838.956	2845
839.094	2834
839.231	2960
839.369	3036
839.506	3420
839.643	3275
839.781	3009
839.918	3005
840.055	3089
840.193	3089
840.33	3077
840.467	3150
840.604	3176
840.742	3458
840.879	3093
841.016	3089
841.153	3112
841.29	3351
841.427	3336
841.564	3287
841.701	3336
841.838	3245
841.975	3203
842.112	3249
842.249	3085
842.385	3055
842.522	3264
842.659	3123
842.796	3070
842.933	3146
843.069	3081
843.206	3036
843.343	3249
843.479	3131
843.616	3150
843.752	2941
843.889	2937
844.025	3104
844.162	2906
844.298	3108
844.435	2956
844.571	2925
844.708	3081
844.844	3192
844.98	3268
845.117	3260
845.253	3085
845.389	3039
845.525	3093
845.661	3131
845.798	3005
845.934	3142
846.07	3097
846.206	3268
846.342	3272
846.478	3230
846.614	3135
846.75	3066
846.886	3062
847.022	3256
847.158	3142
847.294	3214
847.429	3264
847.565	3218
847.701	3504
847.837	3085
847.972	3024
848.108	3173
848.244	3154
848.379	3047
848.515	2956
848.65	2922
848.786	2963
848.921	3013
849.057	3112
849.192	3184
849.328	3112
849.463	3142
849.598	3093
849.734	3028
849.869	3005
850.004	2914
850.14	2994
850.275	2933
850.41	2883
850.545	2868
850.68	2963
850.815	2986
850.95	2971
851.085	3199
851.22	3173
851.355	3070
851.49	2971
851.625	3036
851.76	3032
851.895	2963
852.03	2944
852.165	3066
852.299	3150
852.434	3192
852.569	3131
852.703	3180
852.838	3272
852.973	3332
853.107	3336
853.242	3195
853.376	3119
853.511	2986
853.645	3070
853.78	3233
853.914	3119
854.048	3195
854.183	3097
854.317	3150
854.451	3317
854.585	3127
854.72	3119
854.854	3211
854.988	3100
855.122	3112
855.256	2994
855.39	3150
855.524	3230
855.658	3211
855.792	3169
855.926	3249
856.06	3253
856.194	3272
856.327	3169
856.461	3058
856.595	3062
856.729	3119
856.862	3253
856.996	3157
857.13	3241
857.263	3264
857.397	3264
857.53	3154
857.664	3218
857.797	3237
857.931	3310
858.064	3169
858.197	3268
858.331	3146
858.464	3116
858.597	3051
858.731	3135
858.864	3165
858.997	3077
859.13	3180
859.263	3230
859.396	3195
859.529	3085
859.662	3104
859.795	3081
859.928	3127
860.061	3279
860.194	3313
860.327	3123
860.46	3119
860.592	3253
860.725	3268
860.858	3313
860.99	3085
861.123	3066
861.256	3070
861.388	3157
861.521	3827
861.653	3005
861.786	2994
861.918	3047
862.05	3055
862.183	3097
862.315	3157
862.447	3226
862.58	3108
862.712	2971
862.844	2864
862.976	3051
863.108	3001
863.24	3424
863.372	2895
863.504	2963
863.636	2986
863.768	3039
863.9	2990
864.032	2929
864.164	2979
864.296	3036
864.428	3116
864.559	3116
864.691	3066
864.823	3074
864.954	3055
865.086	3070
865.217	2967
865.349	2998
865.48	3005
865.612	3055
865.743	3176
865.875	3039
866.006	2990
866.137	2990
866.269	2982
866.4	2952
866.531	2929
866.662	2910
866.793	2925
866.924	2918
867.055	2971
867.186	2956
867.317	2902
867.448	2861
867.579	2864
867.71	2857
867.841	2838
867.972	2918
868.103	2952
868.233	2902
868.364	2895
868.495	2948
868.625	3093
868.756	3154
868.886	2986
869.017	3058
869.147	3180
869.278	3195
869.408	3066
869.539	3036
869.669	3066
869.799	3104
869.929	3176
870.06	3169
870.19	3329
870.32	3279
870.45	3321
870.58	3412
870.71	3447
870.84	3439
870.97	3321
871.1	3249
871.23	3473
871.36	3466
871.489	3431
871.619	3374
871.749	3431
871.879	3447
872.008	3492
872.138	3378
872.267	3294
872.397	3169
872.526	3104
872.656	3024
872.785	3119
872.915	3256
873.044	3348
873.173	3218
873.303	3279
873.432	3237
873.561	3237
873.69	3173
873.819	3142
873.948	3226
874.077	3062
874.206	3070
874.335	3154
874.464	3230
874.593	3340
874.722	3256
874.851	3374
874.979	3409
875.108	3340
875.237	3249
875.365	3173
875.494	3173
875.623	3245
875.751	3077
875.88	3131
876.008	3226
876.136	3275
876.265	3397
876.393	3519
876.521	3443
876.65	3416
876.778	3329
876.906	3249
877.034	3241
877.162	3222
877.29	3214
877.418	3249
877.546	3249
877.674	3245
877.802	3253
877.93	3233
878.058	3123
878.185	3108
878.313	3222
878.441	3226
878.568	3108
878.696	3157
878.824	3268
878.951	3306
879.079	3473
879.206	3663
879.333	3431
879.461	3287
879.588	3351
879.715	3549
879.842	3595
879.97	3382
880.097	3207
880.224	3100
880.351	3218
880.478	3241
880.605	3222
880.732	3192
880.859	3496
880.986	3332
881.112	3332
881.239	3195
881.366	3074
881.493	3093
881.619	3062
881.746	3097
881.872	3089
881.999	3066
882.125	3116
882.252	3253
882.378	3294
882.505	3447
882.631	3317
882.757	3169
882.883	3195
883.01	3218
883.136	3176
883.262	3097
883.388	3157
883.514	3378
883.64	3370
883.766	3332
883.892	3192
884.018	3199
884.143	3428
884.269	3584
884.395	3207
884.52	3157
884.646	3211
884.772	3119
884.897	3127
885.023	3214
885.148	3291
885.274	3439
885.399	3378
885.524	3241
885.65	3256
885.775	3329
885.9	3268
886.025	3454
886.15	3374
886.275	3325
886.4	3272
886.525	3325
886.65	3310
886.775	3287
886.9	3530
887.025	3633
887.149	3405
887.274	3272
887.399	3188
887.523	3218
887.648	3195
887.773	3188
887.897	3367
888.021	3389
888.146	3287
888.27	3454
888.395	3530
888.519	3454
888.643	3454
888.767	3488
888.891	3325
889.015	3279
889.139	3310
889.263	3241
889.387	3439
889.511	3561
889.635	3439
889.759	3298
889.883	3325
890.006	3355
890.13	3488
890.254	3291
890.377	3386
890.501	3192
890.624	3203
890.748	3283
890.871	3207
890.995	3097
891.118	3066
891.241	3211
891.364	3230
891.488	3325
891.611	3180
891.734	3211
891.857	3287
891.98	3226
892.103	3310
892.226	3279
892.349	3230
892.471	3127
892.594	3241
892.717	3336
892.839	3279
892.962	3313
893.085	3382
893.207	3329
893.33	3142
893.452	3222
893.575	3332
893.697	3256
893.819	3511
893.941	3477
894.064	3435
894.186	3275
894.308	3218
894.43	3439
894.552	3515
894.674	3504
894.796	3264
894.918	3313
895.04	3321
895.161	3458
895.283	3405
895.405	3313
895.526	3351
895.648	3439
895.769	3431
895.891	3447
896.012	3469
896.134	3466
896.255	3424
896.376	3386
896.498	3332
896.619	3424
896.74	3370
896.861	3389
896.982	3675
897.103	3857
897.224	3603
897.345	3485
897.466	3431
897.587	3485
897.708	3633
897.828	3561
897.949	3443
898.07	3348
898.19	3435
898.311	3633
898.431	3416
898.552	3504
898.672	3614
898.792	3591
898.913	3549
899.033	3416
899.153	3302
899.273	3214
899.393	3264
899.513	3332
899.633	3298
899.753	3359
899.873	3332
899.993	3405
900.113	3367
900.232	3389
900.352	3351
900.472	3272
900.591	3203
900.711	3302
900.83	3264
900.95	3397
901.069	3481
901.189	3344
901.308	3199
901.427	3135
901.546	3169
901.665	3260
901.784	3306
901.904	3214
902.023	3119
902.141	3024
902.26	2990
902.379	3135
902.498	3070
902.617	3070
902.735	3226
902.854	3207
902.973	3165
903.091	3051
903.21	3043
903.328	3154
903.446	3138
903.565	3119
903.683	3184
903.801	3112
903.919	3268
904.038	3291
904.156	3157
904.274	3287
904.392	3264
904.51	3317
904.627	3340
904.745	3466
904.863	3530
904.981	3256
905.098	3165
905.216	3222
905.334	3237
905.451	3310
905.569	3283
905.686	3420
905.803	3454
905.921	3294
906.038	3424
906.155	3370
906.272	3249
906.389	3310
906.506	3241
906.623	3260
906.74	3298
906.857	3176
906.974	3241
907.091	3439
907.208	3564
907.324	3488
907.441	3397
907.557	3245
907.674	3230
907.79	3222
907.907	3283
908.023	3370
908.139	3428
908.256	3325
908.372	3412
908.488	3363
908.604	3264
908.72	3241
908.836	3302
908.952	3294
909.068	3340
909.184	3481
909.3	3355
909.415	3504
909.531	3496
909.647	3264
909.762	3279
909.878	3260
909.993	3359
910.108	3340
910.224	3344
910.339	3401
910.454	3332
910.57	3275
910.685	3233
910.8	3595
910.915	3519
911.03	3420
911.145	3256
911.259	3260
911.374	3344
911.489	3256
911.604	3226
911.718	3112
911.833	3138
911.947	3055
912.062	3005
912.176	3150
912.291	3211
912.405	3222
912.519	3416
912.633	3469
912.748	3336
912.862	3302
912.976	3169
913.09	3055
913.204	3161
913.318	3233
913.431	3340
913.545	3348
913.659	3374
913.772	3294
913.886	3192
914	3180
914.113	3329
914.226	3382
914.34	3344
914.453	3226
914.566	3435
914.68	3313
914.793	3336
914.906	3154
915.019	3131
915.132	3070
915.245	3169
915.358	3218
915.47	3226
915.583	3272
915.696	3291
915.809	3447
915.921	3435
916.034	3222
916.146	3321
916.259	3176
916.371	3401
916.483	3363
916.595	3272
916.708	3351
916.82	3329
916.932	3386
917.044	3378
917.156	3386
917.268	3241
917.38	3298
917.491	3294
917.603	3370
917.715	3466
917.826	3454
917.938	3405
918.049	3294
918.161	3447
918.272	3587
918.384	3553
918.495	3488
918.606	3332
918.717	3272
918.828	3363
918.939	3439
919.05	3237
919.161	3389
919.272	3165
919.383	3237
919.494	3477
919.604	3709
919.715	3507
919.826	3397
919.936	3435
920.047	3618
920.157	3572
920.267	3778
920.378	3572
920.488	3557
920.598	3800
920.708	3922
920.818	3812
920.928	3812
921.038	4002
921.148	3998
921.258	3705
921.368	3606
921.477	3580
921.587	3534
921.697	3485
921.806	3622
921.916	3549
922.025	3359
922.134	3367
922.244	3313
922.353	3420
922.462	3249
922.571	3256
922.68	3119
922.789	3097
922.898	3150
923.007	3138
923.116	3222
923.224	3161
923.333	3218
923.442	3123
923.55	3085
923.659	3138
923.767	3199
923.876	3097
923.984	3218
924.092	3100
924.201	3230
924.309	3211
924.417	3230
924.525	3188
924.633	3199
924.741	4154
924.849	3055
924.956	3272
925.064	3081
925.172	3028
925.279	3085
925.387	3199
925.494	3226
925.602	3317
925.709	3336
925.816	3211
925.924	3298
926.031	3363
926.138	3348
926.245	3329
926.352	3241
926.459	3374
926.566	3462
926.673	3344
926.779	3230
926.886	3256
926.993	3142
927.099	3154
927.206	3108
927.312	3176
927.419	3230
927.525	3218
927.631	3275
927.737	3127
927.843	3089
927.95	3028
928.056	3108
928.162	3161
928.267	3241
928.373	3861
928.479	3351
928.585	3074
928.69	3199
928.796	3241
928.901	3169
929.007	3047
929.112	3214
929.218	3195
929.323	3146
929.428	3119
929.533	3302
929.638	3131
929.743	3154
929.848	3237
929.953	3214
930.058	3146
930.163	2982
930.267	3051
930.372	3218
930.477	3058
930.581	3325
930.685	3203
930.79	3047
930.894	3123
930.998	3108
931.103	3302
931.207	2952
931.311	2922
931.415	2922
931.519	2796
931.623	2766
