Data from test_V78500241_1955.txt Node
Date: Fri Mar 25 16:28:44 CST 2022
User: usil
Spectrometer: V785-0024
Trigger mode: 0
Integration Time (sec): 4.000000E-1
Scans to average: 1
Nonlinearity correction enabled: false
Boxcar width: 0
Storing dark spectrum: false
XAxis mode: Wavelengths
Number of Pixels in Spectrum: 1024
>>>>>Begin Spectral Data<<<<<
801.071	2933
801.214	2979
801.356	2902
801.499	2922
801.641	2922
801.783	2914
801.926	3055
802.068	3020
802.211	3028
802.353	3058
802.496	2994
802.638	3058
802.78	3062
802.923	3097
803.065	3047
803.208	2937
803.35	2971
803.492	2960
803.635	2948
803.777	2800
803.919	2876
804.061	3222
804.204	2960
804.346	2941
804.488	2857
804.63	2990
804.773	2891
804.915	2937
805.057	3066
805.199	2963
805.341	2986
805.483	3020
805.626	3028
805.768	2975
805.91	3108
806.052	3097
806.194	3058
806.336	3275
806.478	3051
806.62	2975
806.762	3013
806.904	3055
807.046	3154
807.188	2990
807.33	2910
807.472	2986
807.614	2906
807.756	3013
807.898	2937
808.04	2899
808.182	2975
808.324	2975
808.465	2910
808.607	2963
808.749	2819
808.891	2899
809.033	2960
809.174	2982
809.316	2914
809.458	2922
809.6	2777
809.741	2800
809.883	2750
810.025	2872
810.166	2872
810.308	2880
810.45	2861
810.591	2792
810.733	2804
810.875	2857
811.016	2762
811.158	2773
811.299	2830
811.441	2925
811.582	2861
811.724	2842
811.865	2823
812.007	2941
812.148	2906
812.29	2861
812.431	2902
812.573	2979
812.714	2963
812.855	3089
812.997	3055
813.138	3138
813.279	3058
813.421	2967
813.562	2967
813.703	2910
813.845	2914
813.986	2781
814.127	2735
814.268	2807
814.41	2861
814.551	2838
814.692	2891
814.833	2804
814.974	2887
815.115	2967
815.256	2830
815.397	2792
815.539	2902
815.68	2773
815.821	2811
815.962	2967
816.103	2906
816.244	2876
816.385	2880
816.526	2971
816.666	2963
816.807	2769
816.948	2933
817.089	2933
817.23	2834
817.371	2800
817.512	2826
817.653	2868
817.793	2845
817.934	2910
818.075	3001
818.216	2998
818.356	3028
818.497	2891
818.638	2800
818.778	2823
818.919	2838
819.06	2739
819.2	2857
819.341	2819
819.481	2868
819.622	2952
819.762	3093
819.903	3047
820.043	2910
820.184	2944
820.324	2895
820.465	3001
820.605	3043
820.746	3028
820.886	2944
821.026	3127
821.167	3195
821.307	3268
821.447	3294
821.588	3233
821.728	3211
821.868	3199
822.008	3077
822.149	3233
822.289	3211
822.429	3104
822.569	3093
822.709	3192
822.849	3036
822.99	3062
823.13	3184
823.27	3222
823.41	3104
823.55	3142
823.69	3184
823.83	3173
823.97	3100
824.11	2998
824.25	3013
824.389	3066
824.529	3081
824.669	3081
824.809	3214
824.949	3249
825.089	3230
825.228	3157
825.368	3020
825.508	2933
825.648	2986
825.787	3017
825.927	3043
826.067	3028
826.206	2971
826.346	3055
826.485	3066
826.625	3116
826.765	3268
826.904	3203
827.044	3001
827.183	2899
827.323	2857
827.462	2990
827.601	2929
827.741	2933
827.88	2937
828.02	2861
828.159	2975
828.298	3036
828.437	3119
828.577	3074
828.716	3199
828.855	3077
828.994	2952
829.134	2918
829.273	2929
829.412	2834
829.551	2876
829.69	2906
829.829	2986
829.968	3135
830.107	3020
830.246	3028
830.385	2922
830.524	2876
830.663	2853
830.802	2762
830.941	2659
831.08	2629
831.219	2773
831.357	2773
831.496	2944
831.635	2727
831.774	2632
831.913	2663
832.051	2583
832.19	2598
832.329	2689
832.467	2560
832.606	2484
832.744	2571
832.883	2606
833.022	2617
833.16	2659
833.299	2701
833.437	2678
833.576	2743
833.714	2720
833.852	2739
833.991	2769
834.129	2883
834.267	2838
834.406	2773
834.544	2891
834.682	2861
834.821	2880
834.959	3047
835.097	2906
835.235	3097
835.373	3013
835.511	3070
835.65	2990
835.788	2956
835.926	2864
836.064	2830
836.202	2868
836.34	3097
836.478	3131
836.615	3051
836.753	3142
836.891	3188
837.029	3165
837.167	3135
837.305	3070
837.443	3036
837.58	3005
837.718	3150
837.856	3032
837.993	3077
838.131	3100
838.269	3089
838.406	3100
838.544	3089
838.681	2925
838.819	2868
838.956	2819
839.094	2853
839.231	2895
839.369	3047
839.506	3340
839.643	3233
839.781	3036
839.918	2975
840.055	3066
840.193	3013
840.33	3043
840.467	3127
840.604	3157
840.742	3409
840.879	3032
841.016	3028
841.153	3108
841.29	3317
841.427	3294
841.564	3317
841.701	3298
841.838	3203
841.975	3176
842.112	3180
842.249	3100
842.385	3039
842.522	3237
842.659	3089
842.796	3039
842.933	3127
843.069	3093
843.206	3020
843.343	3154
843.479	3116
843.616	3119
843.752	2925
843.889	2872
844.025	3097
844.162	2883
844.298	3089
844.435	2902
844.571	2944
844.708	3085
844.844	3199
844.98	3211
845.117	3203
845.253	2998
845.389	3013
845.525	3093
845.661	3135
845.798	3017
845.934	3127
846.07	3051
846.206	3211
846.342	3329
846.478	3214
846.614	3070
846.75	3058
846.886	3017
847.022	3237
847.158	3131
847.294	3245
847.429	3211
847.565	3226
847.701	3485
847.837	3062
847.972	2982
848.108	3146
848.244	3116
848.379	2982
848.515	2925
848.65	2937
848.786	2963
848.921	2975
849.057	3173
849.192	3146
849.328	3081
849.463	3112
849.598	3039
849.734	3070
849.869	2944
850.004	2910
850.14	2986
850.275	2887
850.41	2849
850.545	2929
850.68	2914
850.815	2956
850.95	2956
851.085	3218
851.22	3108
851.355	3074
851.49	2998
851.625	3017
851.76	3001
851.895	2975
852.03	2929
852.165	3039
852.299	3138
852.434	3150
852.569	3146
852.703	3173
852.838	3264
852.973	3386
853.107	3340
853.242	3161
853.376	3108
853.511	2960
853.645	3020
853.78	3249
853.914	3097
854.048	3127
854.183	3085
854.317	3135
854.451	3283
854.585	3119
854.72	3070
854.854	3211
854.988	3058
855.122	3104
855.256	2963
855.39	3108
855.524	3218
855.658	3195
855.792	3173
855.926	3161
856.06	3214
856.194	3226
856.327	3157
856.461	3085
856.595	3062
856.729	3108
856.862	3188
856.996	3176
857.13	3169
857.263	3218
857.397	3268
857.53	3135
857.664	3180
857.797	3245
857.931	3283
858.064	3135
858.197	3226
858.331	3123
858.464	3097
858.597	3036
858.731	3127
858.864	3150
858.997	3077
859.13	3157
859.263	3176
859.396	3173
859.529	3097
859.662	3081
859.795	3070
859.928	3135
860.061	3310
860.194	3260
860.327	3108
860.46	3097
860.592	3249
860.725	3233
860.858	3256
860.99	3089
861.123	3055
861.256	3036
861.388	3142
861.521	3861
861.653	2994
861.786	3017
861.918	3001
862.05	3093
862.183	3089
862.315	3173
862.447	3241
862.58	3070
862.712	2956
862.844	2838
862.976	3058
863.108	2990
863.24	3348
863.372	2929
863.504	2967
863.636	2971
863.768	3036
863.9	2956
864.032	2914
864.164	2922
864.296	3005
864.428	3100
864.559	3077
864.691	3085
864.823	3089
864.954	3009
865.086	3081
865.217	3009
865.349	2925
865.48	2967
865.612	3017
865.743	3116
865.875	2994
866.006	2918
866.137	2982
866.269	2922
866.4	2941
866.531	2971
866.662	2902
866.793	2887
866.924	2906
867.055	2952
867.186	2941
867.317	2899
867.448	2842
867.579	2845
867.71	2838
867.841	2804
867.972	2895
868.103	2914
868.233	2876
868.364	2887
868.495	2876
868.625	3093
868.756	3093
868.886	2944
869.017	3020
869.147	3119
869.278	3184
869.408	2982
869.539	3043
869.669	3085
869.799	3013
869.929	3146
870.06	3039
870.19	3287
870.32	3294
870.45	3291
870.58	3348
870.71	3481
870.84	3428
870.97	3283
871.1	3253
871.23	3462
871.36	3466
871.489	3313
871.619	3405
871.749	3397
871.879	3405
872.008	3428
872.138	3317
872.267	3249
872.397	3135
872.526	3097
872.656	2998
872.785	3127
872.915	3230
873.044	3325
873.173	3226
873.303	3226
873.432	3233
873.561	3214
873.69	3157
873.819	3176
873.948	3176
874.077	3112
874.206	3020
874.335	3093
874.464	3218
874.593	3344
874.722	3260
874.851	3382
874.979	3374
875.108	3340
875.237	3226
875.365	3154
875.494	3142
875.623	3230
875.751	3051
875.88	3043
876.008	3192
876.136	3241
876.265	3340
876.393	3511
876.521	3401
876.65	3393
876.778	3325
876.906	3237
877.034	3192
877.162	3214
877.29	3154
877.418	3256
877.546	3279
877.674	3237
877.802	3249
877.93	3207
878.058	3173
878.185	3112
878.313	3203
878.441	3192
878.568	3047
878.696	3138
878.824	3249
878.951	3279
879.079	3409
879.206	3614
879.333	3447
879.461	3317
879.588	3348
879.715	3428
879.842	3595
879.97	3367
880.097	3180
880.224	3127
880.351	3176
880.478	3287
880.605	3192
880.732	3237
880.859	3504
880.986	3310
881.112	3332
881.239	3218
881.366	3077
881.493	3039
881.619	2990
881.746	3074
881.872	3081
881.999	3093
882.125	3161
882.252	3245
882.378	3302
882.505	3454
882.631	3302
882.757	3119
882.883	3176
883.01	3199
883.136	3161
883.262	3112
883.388	3089
883.514	3313
883.64	3359
883.766	3287
883.892	3188
884.018	3237
884.143	3405
884.269	3523
884.395	3195
884.52	3150
884.646	3180
884.772	3131
884.897	3108
885.023	3222
885.148	3340
885.274	3409
885.399	3348
885.524	3268
885.65	3214
885.775	3302
885.9	3256
886.025	3416
886.15	3374
886.275	3317
886.4	3272
886.525	3321
886.65	3264
886.775	3214
886.9	3469
887.025	3603
887.149	3405
887.274	3272
887.399	3195
887.523	3222
887.648	3184
887.773	3165
887.897	3359
888.021	3416
888.146	3287
888.27	3420
888.395	3507
888.519	3439
888.643	3458
888.767	3443
888.891	3287
889.015	3226
889.139	3287
889.263	3249
889.387	3412
889.511	3504
889.635	3443
889.759	3325
889.883	3272
890.006	3370
890.13	3473
890.254	3245
890.377	3336
890.501	3176
890.624	3233
890.748	3275
890.871	3195
890.995	3093
891.118	3039
891.241	3203
891.364	3237
891.488	3306
891.611	3192
891.734	3211
891.857	3253
891.98	3211
892.103	3310
892.226	3260
892.349	3199
892.471	3085
892.594	3237
892.717	3283
892.839	3245
892.962	3268
893.085	3348
893.207	3287
893.33	3097
893.452	3195
893.575	3329
893.697	3249
893.819	3443
893.941	3473
894.064	3450
894.186	3245
894.308	3264
894.43	3416
894.552	3580
894.674	3466
894.796	3279
894.918	3344
895.04	3264
895.161	3405
895.283	3378
895.405	3249
895.526	3378
895.648	3420
895.769	3401
895.891	3473
896.012	3515
896.134	3447
896.255	3412
896.376	3389
896.498	3344
896.619	3389
896.74	3370
896.861	3386
896.982	3675
897.103	3850
897.224	3572
897.345	3526
897.466	3424
897.587	3450
897.708	3618
897.828	3549
897.949	3428
898.07	3332
898.19	3405
898.311	3614
898.431	3435
898.552	3526
898.672	3603
898.792	3530
898.913	3530
899.033	3443
899.153	3253
899.273	3218
899.393	3249
899.513	3321
899.633	3283
899.753	3306
899.873	3363
899.993	3393
900.113	3294
900.232	3344
900.352	3329
900.472	3294
900.591	3218
900.711	3272
900.83	3268
900.95	3416
901.069	3526
901.189	3313
901.308	3165
901.427	3123
901.546	3184
901.665	3298
901.784	3344
901.904	3218
902.023	3150
902.141	3020
902.26	2990
902.379	3123
902.498	3051
902.617	3070
902.735	3184
902.854	3279
902.973	3138
903.091	3062
903.21	3074
903.328	3138
903.446	3085
903.565	3116
903.683	3173
903.801	3142
903.919	3256
904.038	3283
904.156	3154
904.274	3253
904.392	3253
904.51	3245
904.627	3351
904.745	3450
904.863	3458
904.981	3245
905.098	3165
905.216	3226
905.334	3313
905.451	3298
905.569	3329
905.686	3389
905.803	3416
905.921	3275
906.038	3469
906.155	3317
906.272	3313
906.389	3325
906.506	3249
906.623	3222
906.74	3237
906.857	3165
906.974	3233
907.091	3412
907.208	3542
907.324	3454
907.441	3386
907.557	3249
907.674	3253
907.79	3195
907.907	3233
908.023	3370
908.139	3393
908.256	3329
908.372	3359
908.488	3329
908.604	3241
908.72	3249
908.836	3268
908.952	3268
909.068	3344
909.184	3469
909.3	3367
909.415	3526
909.531	3466
909.647	3253
909.762	3310
909.878	3245
909.993	3336
910.108	3340
910.224	3351
910.339	3412
910.454	3279
910.57	3317
910.685	3249
910.8	3584
910.915	3526
911.03	3469
911.145	3275
911.259	3294
911.374	3302
911.489	3272
911.604	3199
911.718	3123
911.833	3131
911.947	3066
912.062	3001
912.176	3173
912.291	3142
912.405	3199
912.519	3428
912.633	3450
912.748	3321
912.862	3279
912.976	3188
913.09	3066
913.204	3146
913.318	3230
913.431	3298
913.545	3351
913.659	3409
913.772	3336
913.886	3203
914	3199
914.113	3340
914.226	3409
914.34	3374
914.453	3226
914.566	3382
914.68	3291
914.793	3329
914.906	3112
915.019	3112
915.132	3055
915.245	3146
915.358	3188
915.47	3195
915.583	3249
915.696	3310
915.809	3409
915.921	3431
916.034	3222
916.146	3256
916.259	3218
916.371	3389
916.483	3386
916.595	3241
916.708	3317
916.82	3359
916.932	3351
917.044	3291
917.156	3302
917.268	3249
917.38	3291
917.491	3302
917.603	3393
917.715	3420
917.826	3462
917.938	3397
918.049	3291
918.161	3409
918.272	3584
918.384	3545
918.495	3477
918.606	3374
918.717	3256
918.828	3386
918.939	3374
919.05	3298
919.161	3374
919.272	3161
919.383	3272
919.494	3504
919.604	3682
919.715	3481
919.826	3401
919.936	3458
920.047	3587
920.157	3534
920.267	3740
920.378	3603
920.488	3538
920.598	3816
920.708	3960
920.818	3835
920.928	3816
921.038	3994
921.148	3941
921.258	3717
921.368	3633
921.477	3587
921.587	3515
921.697	3405
921.806	3603
921.916	3507
922.025	3336
922.134	3370
922.244	3317
922.353	3443
922.462	3272
922.571	3195
922.68	3077
922.789	3081
922.898	3089
923.007	3104
923.116	3199
923.224	3184
923.333	3188
923.442	3085
923.55	3085
923.659	3123
923.767	3203
923.876	3142
923.984	3268
924.092	3131
924.201	3180
924.309	3218
924.417	3256
924.525	3203
924.633	3253
924.741	4150
924.849	3039
924.956	3264
925.064	3066
925.172	3039
925.279	3085
925.387	3199
925.494	3188
925.602	3355
925.709	3321
925.816	3157
925.924	3268
926.031	3348
926.138	3332
926.245	3389
926.352	3272
926.459	3405
926.566	3481
926.673	3321
926.779	3233
926.886	3264
926.993	3146
927.099	3097
927.206	3097
927.312	3131
927.419	3233
927.525	3222
927.631	3226
927.737	3157
927.843	3112
927.95	3070
928.056	3154
928.162	3188
928.267	3218
928.373	3899
928.479	3332
928.585	3051
928.69	3176
928.796	3256
928.901	3165
929.007	3043
929.112	3142
929.218	3188
929.323	3142
929.428	3173
929.533	3298
929.638	3135
929.743	3157
929.848	3287
929.953	3195
930.058	3150
930.163	3013
930.267	3051
930.372	3207
930.477	3051
930.581	3336
930.685	3180
930.79	3039
930.894	3081
930.998	3093
931.103	3294
931.207	2975
931.311	2960
931.415	2956
931.519	2762
931.623	2826
