Data from test_V78500241_562.txt Node
Date: Fri Mar 25 16:19:05 CST 2022
User: usil
Spectrometer: V785-0024
Trigger mode: 0
Integration Time (sec): 4.000000E-1
Scans to average: 1
Nonlinearity correction enabled: false
Boxcar width: 0
Storing dark spectrum: false
XAxis mode: Wavelengths
Number of Pixels in Spectrum: 1024
>>>>>Begin Spectral Data<<<<<
801.071	2891
801.214	2960
801.356	2910
801.499	2899
801.641	2819
801.783	2910
801.926	3043
802.068	2990
802.211	2979
802.353	3028
802.496	2944
802.638	3036
802.78	3058
802.923	3066
803.065	2994
803.208	2910
803.35	2914
803.492	2922
803.635	2914
803.777	2739
803.919	2876
804.061	3184
804.204	2937
804.346	2895
804.488	2823
804.63	2963
804.773	2861
804.915	2922
805.057	3062
805.199	2956
805.341	3013
805.483	3047
805.626	3009
805.768	2982
805.91	3077
806.052	3093
806.194	3047
806.336	3233
806.478	3028
806.62	2910
806.762	2952
806.904	3055
807.046	3142
807.188	2967
807.33	2914
807.472	2986
807.614	2880
807.756	2998
807.898	2895
808.04	2849
808.182	2971
808.324	2960
808.465	2876
808.607	2895
808.749	2769
808.891	2830
809.033	2975
809.174	2948
809.316	2872
809.458	2872
809.6	2785
809.741	2731
809.883	2769
810.025	2883
810.166	2842
810.308	2845
810.45	2842
810.591	2758
810.733	2788
810.875	2800
811.016	2762
811.158	2746
811.299	2785
811.441	2941
811.582	2887
811.724	2834
811.865	2826
812.007	2899
812.148	2830
812.29	2849
812.431	2883
812.573	2929
812.714	2967
812.855	3039
812.997	3051
813.138	3131
813.279	2994
813.421	2967
813.562	2967
813.703	2849
813.845	2925
813.986	2766
814.127	2743
814.268	2834
814.41	2807
814.551	2804
814.692	2853
814.833	2823
814.974	2906
815.115	2929
815.256	2830
815.397	2804
815.539	2842
815.68	2769
815.821	2785
815.962	2944
816.103	2960
816.244	2937
816.385	2887
816.526	2967
816.666	2910
816.807	2746
816.948	2883
817.089	2929
817.23	2861
817.371	2758
817.512	2750
817.653	2823
817.793	2823
817.934	2872
818.075	2960
818.216	2979
818.356	3001
818.497	2883
818.638	2773
818.778	2811
818.919	2804
819.06	2750
819.2	2857
819.341	2785
819.481	2781
819.622	2906
819.762	3066
819.903	3039
820.043	2906
820.184	2918
820.324	2872
820.465	2994
820.605	3036
820.746	2994
820.886	2956
821.026	3074
821.167	3157
821.307	3245
821.447	3253
821.588	3184
821.728	3203
821.868	3218
822.008	3062
822.149	3180
822.289	3214
822.429	3066
822.569	3089
822.709	3188
822.849	3043
822.99	3074
823.13	3135
823.27	3207
823.41	3100
823.55	3150
823.69	3112
823.83	3184
823.97	3085
824.11	3009
824.25	2944
824.389	3055
824.529	3081
824.669	3070
824.809	3188
824.949	3264
825.089	3214
825.228	3127
825.368	3001
825.508	2963
825.648	2990
825.787	3013
825.927	2994
826.067	2956
826.206	2979
826.346	3013
826.485	3066
826.625	3119
826.765	3226
826.904	3222
827.044	3005
827.183	2925
827.323	2857
827.462	2952
827.601	2883
827.741	2944
827.88	2937
828.02	2891
828.159	2998
828.298	3051
828.437	3089
828.577	3043
828.716	3226
828.855	3070
828.994	2956
829.134	2883
829.273	2895
829.412	2861
829.551	2815
829.69	2849
829.829	2990
829.968	3138
830.107	3001
830.246	3017
830.385	2922
830.524	2864
830.663	2758
830.802	2746
830.941	2613
831.08	2640
831.219	2735
831.357	2743
831.496	2960
831.635	2739
831.774	2644
831.913	2651
832.051	2571
832.19	2571
832.329	2689
832.467	2514
832.606	2457
832.744	2606
832.883	2556
833.022	2571
833.16	2636
833.299	2693
833.437	2674
833.576	2689
833.714	2705
833.852	2743
833.991	2754
834.129	2830
834.267	2796
834.406	2807
834.544	2864
834.682	2895
834.821	2853
834.959	3077
835.097	2902
835.235	3066
835.373	3001
835.511	2998
835.65	2963
835.788	2952
835.926	2830
836.064	2834
836.202	2823
836.34	3074
836.478	3146
836.615	3070
836.753	3119
836.891	3176
837.029	3150
837.167	3104
837.305	3089
837.443	3055
837.58	2948
837.718	3135
837.856	3070
837.993	2994
838.131	3085
838.269	3074
838.406	3085
838.544	3104
838.681	2914
838.819	2895
838.956	2826
839.094	2819
839.231	2891
839.369	3020
839.506	3355
839.643	3214
839.781	2982
839.918	2941
840.055	3055
840.193	3024
840.33	3055
840.467	3104
840.604	3138
840.742	3386
840.879	3017
841.016	3036
841.153	3119
841.29	3313
841.427	3264
841.564	3241
841.701	3325
841.838	3253
841.975	3188
842.112	3203
842.249	3055
842.385	3047
842.522	3283
842.659	3077
842.796	3074
842.933	3032
843.069	3032
843.206	3028
843.343	3169
843.479	3104
843.616	3116
843.752	2918
843.889	2864
844.025	3066
844.162	2899
844.298	3062
844.435	2948
844.571	2906
844.708	3055
844.844	3176
844.98	3214
845.117	3203
845.253	3039
845.389	2998
845.525	3062
845.661	3066
845.798	3013
845.934	3138
846.07	3024
846.206	3211
846.342	3332
846.478	3222
846.614	3093
846.75	3020
846.886	3043
847.022	3188
847.158	3085
847.294	3203
847.429	3218
847.565	3211
847.701	3504
847.837	3024
847.972	2994
848.108	3157
848.244	3138
848.379	2994
848.515	2910
848.65	2918
848.786	2925
848.921	3032
849.057	3074
849.192	3112
849.328	3062
849.463	3108
849.598	3051
849.734	3043
849.869	2967
850.004	2925
850.14	2956
850.275	2933
850.41	2800
850.545	2899
850.68	2914
850.815	2944
850.95	2948
851.085	3180
851.22	3119
851.355	3043
851.49	2986
851.625	2963
851.76	2982
851.895	2933
852.03	2891
852.165	3039
852.299	3116
852.434	3199
852.569	3123
852.703	3135
852.838	3241
852.973	3313
853.107	3336
853.242	3161
853.376	3089
853.511	2998
853.645	3028
853.78	3192
853.914	3127
854.048	3097
854.183	3077
854.317	3135
854.451	3253
854.585	3138
854.72	3055
854.854	3199
854.988	3055
855.122	3074
855.256	2998
855.39	3112
855.524	3203
855.658	3180
855.792	3150
855.926	3157
856.06	3207
856.194	3233
856.327	3112
856.461	3081
856.595	3051
856.729	3058
856.862	3184
856.996	3123
857.13	3180
857.263	3203
857.397	3260
857.53	3104
857.664	3207
857.797	3184
857.931	3249
858.064	3176
858.197	3207
858.331	3081
858.464	3036
858.597	3009
858.731	3116
858.864	3127
858.997	3074
859.13	3154
859.263	3173
859.396	3214
859.529	3074
859.662	3047
859.795	3039
859.928	3112
860.061	3256
860.194	3256
860.327	3173
860.46	3097
860.592	3207
860.725	3192
860.858	3291
860.99	3077
861.123	3028
861.256	3055
861.388	3138
861.521	3660
861.653	3043
861.786	2956
861.918	2979
862.05	3043
862.183	3085
862.315	3138
862.447	3176
862.58	3074
862.712	2948
862.844	2880
862.976	2998
863.108	2956
863.24	3389
863.372	2861
863.504	2941
863.636	2952
863.768	3001
863.9	2982
864.032	2914
864.164	2944
864.296	2998
864.428	3047
864.559	3104
864.691	3089
864.823	3081
864.954	3020
865.086	3074
865.217	3017
865.349	2941
865.48	2990
865.612	2982
865.743	3142
865.875	2956
866.006	2944
866.137	2982
866.269	2952
866.4	2944
866.531	2918
866.662	2895
866.793	2868
866.924	2922
867.055	2971
867.186	2941
867.317	2899
867.448	2823
867.579	2838
867.71	2857
867.841	2804
867.972	2880
868.103	2876
868.233	2891
868.364	2872
868.495	2906
868.625	3062
868.756	3150
868.886	2933
869.017	3013
869.147	3131
869.278	3161
869.408	3032
869.539	3009
869.669	3070
869.799	3001
869.929	3119
870.06	3093
870.19	3321
870.32	3283
870.45	3298
870.58	3359
870.71	3416
870.84	3462
870.97	3313
871.1	3230
871.23	3477
871.36	3450
871.489	3378
871.619	3386
871.749	3348
871.879	3431
872.008	3447
872.138	3348
872.267	3275
872.397	3112
872.526	3074
872.656	3001
872.785	3085
872.915	3226
873.044	3310
873.173	3214
873.303	3237
873.432	3230
873.561	3203
873.69	3150
873.819	3127
873.948	3192
874.077	3077
874.206	3058
874.335	3047
874.464	3233
874.593	3329
874.722	3249
874.851	3378
874.979	3344
875.108	3298
875.237	3214
875.365	3173
875.494	3157
875.623	3260
875.751	3066
875.88	3135
876.008	3165
876.136	3233
876.265	3374
876.393	3466
876.521	3412
876.65	3351
876.778	3344
876.906	3256
877.034	3237
877.162	3218
877.29	3184
877.418	3253
877.546	3226
877.674	3199
877.802	3230
877.93	3230
878.058	3150
878.185	3085
878.313	3233
878.441	3199
878.568	3070
878.696	3142
878.824	3275
878.951	3313
879.079	3443
879.206	3587
879.333	3416
879.461	3348
879.588	3351
879.715	3458
879.842	3610
879.97	3412
880.097	3169
880.224	3112
880.351	3211
880.478	3214
880.605	3188
880.732	3173
880.859	3466
880.986	3317
881.112	3332
881.239	3176
881.366	3119
881.493	3028
881.619	3001
881.746	3108
881.872	3081
881.999	3081
882.125	3112
882.252	3253
882.378	3260
882.505	3405
882.631	3256
882.757	3142
882.883	3165
883.01	3230
883.136	3127
883.262	3077
883.388	3100
883.514	3302
883.64	3344
883.766	3302
883.892	3165
884.018	3218
884.143	3424
884.269	3561
884.395	3195
884.52	3169
884.646	3180
884.772	3081
884.897	3093
885.023	3214
885.148	3332
885.274	3374
885.399	3332
885.524	3272
885.65	3253
885.775	3302
885.9	3283
886.025	3393
886.15	3329
886.275	3287
886.4	3218
886.525	3294
886.65	3226
886.775	3275
886.9	3519
887.025	3637
887.149	3374
887.274	3218
887.399	3150
887.523	3218
887.648	3138
887.773	3180
887.897	3389
888.021	3367
888.146	3310
888.27	3405
888.395	3549
888.519	3428
888.643	3420
888.767	3477
888.891	3256
889.015	3222
889.139	3279
889.263	3233
889.387	3370
889.511	3500
889.635	3473
889.759	3310
889.883	3321
890.006	3363
890.13	3454
890.254	3283
890.377	3340
890.501	3241
890.624	3154
890.748	3260
890.871	3192
890.995	3100
891.118	3066
891.241	3165
891.364	3233
891.488	3298
891.611	3195
891.734	3218
891.857	3249
891.98	3264
892.103	3336
892.226	3268
892.349	3184
892.471	3081
892.594	3260
892.717	3272
892.839	3249
892.962	3233
893.085	3363
893.207	3294
893.33	3161
893.452	3176
893.575	3332
893.697	3222
893.819	3435
893.941	3488
894.064	3450
894.186	3253
894.308	3264
894.43	3450
894.552	3481
894.674	3424
894.796	3233
894.918	3302
895.04	3287
895.161	3424
895.283	3359
895.405	3298
895.526	3386
895.648	3462
895.769	3393
895.891	3466
896.012	3488
896.134	3416
896.255	3401
896.376	3401
896.498	3348
896.619	3450
896.74	3329
896.861	3370
896.982	3675
897.103	3812
897.224	3606
897.345	3492
897.466	3435
897.587	3473
897.708	3622
897.828	3557
897.949	3416
898.07	3329
898.19	3409
898.311	3584
898.431	3439
898.552	3519
898.672	3622
898.792	3564
898.913	3519
899.033	3409
899.153	3249
899.273	3176
899.393	3260
899.513	3313
899.633	3310
899.753	3268
899.873	3253
899.993	3321
900.113	3317
900.232	3355
900.352	3302
900.472	3287
900.591	3176
900.711	3283
900.83	3211
900.95	3370
901.069	3458
901.189	3359
901.308	3176
901.427	3085
901.546	3180
901.665	3264
901.784	3310
901.904	3211
902.023	3176
902.141	2986
902.26	2975
902.379	3131
902.498	3062
902.617	3036
902.735	3188
902.854	3188
902.973	3150
903.091	3032
903.21	3077
903.328	3104
903.446	3108
903.565	3093
903.683	3165
903.801	3131
903.919	3268
904.038	3230
904.156	3157
904.274	3279
904.392	3264
904.51	3298
904.627	3291
904.745	3397
904.863	3488
904.981	3268
905.098	3195
905.216	3241
905.334	3313
905.451	3291
905.569	3306
905.686	3424
905.803	3469
905.921	3302
906.038	3439
906.155	3386
906.272	3291
906.389	3348
906.506	3218
906.623	3287
906.74	3302
906.857	3203
906.974	3283
907.091	3443
907.208	3599
907.324	3454
907.441	3420
907.557	3287
907.674	3241
907.79	3253
907.907	3302
908.023	3420
908.139	3386
908.256	3378
908.372	3424
908.488	3351
908.604	3317
908.72	3283
908.836	3298
908.952	3275
909.068	3348
909.184	3500
909.3	3447
909.415	3534
909.531	3515
909.647	3363
909.762	3329
909.878	3294
909.993	3397
910.108	3355
910.224	3355
910.339	3420
910.454	3386
910.57	3363
910.685	3253
910.8	3618
910.915	3584
911.03	3435
911.145	3287
911.259	3310
911.374	3336
911.489	3279
911.604	3294
911.718	3154
911.833	3214
911.947	3039
912.062	3009
912.176	3218
912.291	3230
912.405	3241
912.519	3481
912.633	3496
912.748	3439
912.862	3313
912.976	3226
913.09	3074
913.204	3161
913.318	3310
913.431	3393
913.545	3363
913.659	3469
913.772	3363
913.886	3218
914	3233
914.113	3378
914.226	3447
914.34	3409
914.453	3272
914.566	3412
914.68	3332
914.793	3378
914.906	3176
915.019	3165
915.132	3104
915.245	3230
915.358	3249
915.47	3272
915.583	3294
915.696	3325
915.809	3435
915.921	3447
916.034	3256
916.146	3306
916.259	3249
916.371	3439
916.483	3378
916.595	3287
916.708	3370
916.82	3344
916.932	3389
917.044	3382
917.156	3351
917.268	3302
917.38	3367
917.491	3332
917.603	3378
917.715	3439
917.826	3504
917.938	3382
918.049	3256
918.161	3473
918.272	3587
918.384	3610
918.495	3523
918.606	3336
918.717	3325
918.828	3439
918.939	3435
919.05	3336
919.161	3401
919.272	3222
919.383	3348
919.494	3523
919.604	3713
919.715	3496
919.826	3462
919.936	3507
920.047	3644
920.157	3595
920.267	3793
920.378	3591
920.488	3622
920.598	3778
920.708	3979
920.818	3842
920.928	3857
921.038	4074
921.148	4067
921.258	3713
921.368	3717
921.477	3584
921.587	3584
921.697	3462
921.806	3641
921.916	3572
922.025	3397
922.134	3355
922.244	3336
922.353	3447
922.462	3268
922.571	3268
922.68	3062
922.789	3108
922.898	3135
923.007	3131
923.116	3207
923.224	3188
923.333	3241
923.442	3131
923.55	3161
923.659	3180
923.767	3291
923.876	3154
923.984	3279
924.092	3150
924.201	3253
924.309	3237
924.417	3317
924.525	3214
924.633	3260
924.741	4025
924.849	3108
924.956	3325
925.064	3116
925.172	3066
925.279	3142
925.387	3245
925.494	3226
925.602	3344
925.709	3344
925.816	3192
925.924	3287
926.031	3416
926.138	3378
926.245	3397
926.352	3260
926.459	3420
926.566	3485
926.673	3351
926.779	3302
926.886	3306
926.993	3211
927.099	3150
927.206	3112
927.312	3169
927.419	3253
927.525	3218
927.631	3325
927.737	3180
927.843	3142
927.95	3062
928.056	3192
928.162	3173
928.267	3233
928.373	3819
928.479	3351
928.585	3081
928.69	3211
928.796	3310
928.901	3169
929.007	3036
929.112	3222
929.218	3245
929.323	3188
929.428	3146
929.533	3336
929.638	3135
929.743	3199
929.848	3291
929.953	3218
930.058	3154
930.163	3028
930.267	3089
930.372	3245
930.477	3051
930.581	3306
930.685	3207
930.79	3112
930.894	3142
930.998	3138
931.103	3313
931.207	2994
931.311	2982
931.415	2960
931.519	2811
931.623	2838
