Data from test_V78500241_921.txt Node
Date: Fri Mar 25 16:21:34 CST 2022
User: usil
Spectrometer: V785-0024
Trigger mode: 0
Integration Time (sec): 4.000000E-1
Scans to average: 1
Nonlinearity correction enabled: false
Boxcar width: 0
Storing dark spectrum: false
XAxis mode: Wavelengths
Number of Pixels in Spectrum: 1024
>>>>>Begin Spectral Data<<<<<
801.071	2872
801.214	2948
801.356	2861
801.499	2880
801.641	2880
801.783	2876
801.926	3036
802.068	2967
802.211	3009
802.353	3013
802.496	2960
802.638	3013
802.78	3039
802.923	3055
803.065	3024
803.208	2906
803.35	2937
803.492	2948
803.635	2925
803.777	2739
803.919	2842
804.061	3150
804.204	2937
804.346	2910
804.488	2842
804.63	2979
804.773	2857
804.915	2914
805.057	3062
805.199	2918
805.341	2952
805.483	3020
805.626	2990
805.768	2979
805.91	3074
806.052	3085
806.194	3009
806.336	3226
806.478	2994
806.62	2914
806.762	2994
806.904	3047
807.046	3135
807.188	2979
807.33	2918
807.472	2975
807.614	2910
807.756	2975
807.898	2910
808.04	2906
808.182	2960
808.324	2963
808.465	2872
808.607	2906
808.749	2815
808.891	2830
809.033	2967
809.174	3005
809.316	2895
809.458	2891
809.6	2769
809.741	2766
809.883	2781
810.025	2830
810.166	2807
810.308	2830
810.45	2838
810.591	2769
810.733	2754
810.875	2849
811.016	2777
811.158	2720
811.299	2804
811.441	2910
811.582	2876
811.724	2826
811.865	2853
812.007	2895
812.148	2876
812.29	2864
812.431	2902
812.573	2937
812.714	2971
812.855	3062
812.997	3039
813.138	3112
813.279	2998
813.421	2922
813.562	2963
813.703	2906
813.845	2880
813.986	2788
814.127	2758
814.268	2842
814.41	2826
814.551	2811
814.692	2906
814.833	2804
814.974	2864
815.115	2960
815.256	2868
815.397	2811
815.539	2853
815.68	2750
815.821	2792
815.962	2937
816.103	2937
816.244	2868
816.385	2857
816.526	3013
816.666	2914
816.807	2727
816.948	2842
817.089	2899
817.23	2872
817.371	2773
817.512	2766
817.653	2872
817.793	2830
817.934	2872
818.075	2956
818.216	2979
818.356	3005
818.497	2895
818.638	2792
818.778	2834
818.919	2773
819.06	2750
819.2	2864
819.341	2766
819.481	2811
819.622	2937
819.762	3100
819.903	3028
820.043	2941
820.184	2887
820.324	2883
820.465	3005
820.605	2998
820.746	3001
820.886	2925
821.026	3100
821.167	3192
821.307	3249
821.447	3268
821.588	3226
821.728	3211
821.868	3173
822.008	3074
822.149	3176
822.289	3226
822.429	3093
822.569	3097
822.709	3188
822.849	3017
822.99	3055
823.13	3131
823.27	3203
823.41	3104
823.55	3119
823.69	3119
823.83	3207
823.97	3085
824.11	3024
824.25	2979
824.389	3062
824.529	3108
824.669	3066
824.809	3184
824.949	3218
825.089	3199
825.228	3161
825.368	3005
825.508	2956
825.648	2971
825.787	3001
825.927	3005
826.067	2990
826.206	2967
826.346	3051
826.485	3047
826.625	3104
826.765	3256
826.904	3211
827.044	2979
827.183	2956
827.323	2868
827.462	3017
827.601	2910
827.741	2933
827.88	2975
828.02	2842
828.159	3013
828.298	3055
828.437	3074
828.577	3058
828.716	3233
828.855	3089
828.994	2883
829.134	2849
829.273	2887
829.412	2842
829.551	2864
829.69	2880
829.829	2986
829.968	3123
830.107	2998
830.246	3028
830.385	2910
830.524	2849
830.663	2838
830.802	2724
830.941	2663
831.08	2640
831.219	2739
831.357	2750
831.496	2960
831.635	2720
831.774	2659
831.913	2632
832.051	2552
832.19	2629
832.329	2689
832.467	2495
832.606	2457
832.744	2560
832.883	2568
833.022	2556
833.16	2648
833.299	2701
833.437	2720
833.576	2701
833.714	2724
833.852	2735
833.991	2743
834.129	2849
834.267	2849
834.406	2800
834.544	2868
834.682	2880
834.821	2842
834.959	3066
835.097	2880
835.235	3055
835.373	2982
835.511	2979
835.65	2960
835.788	2944
835.926	2823
836.064	2788
836.202	2834
836.34	3116
836.478	3116
836.615	3043
836.753	3123
836.891	3195
837.029	3142
837.167	3146
837.305	3074
837.443	3024
837.58	2933
837.718	3100
837.856	3070
837.993	3062
838.131	3146
838.269	3112
838.406	3123
838.544	3093
838.681	2952
838.819	2914
838.956	2815
839.094	2796
839.231	2941
839.369	2986
839.506	3332
839.643	3184
839.781	3013
839.918	2982
840.055	3043
840.193	3047
840.33	3032
840.467	3089
840.604	3119
840.742	3424
840.879	3036
841.016	3055
841.153	3093
841.29	3374
841.427	3291
841.564	3275
841.701	3329
841.838	3195
841.975	3135
842.112	3207
842.249	3085
842.385	3077
842.522	3237
842.659	3066
842.796	3070
842.933	3081
843.069	3070
843.206	3032
843.343	3161
843.479	3100
843.616	3127
843.752	2891
843.889	2853
844.025	3085
844.162	2838
844.298	3062
844.435	2960
844.571	2899
844.708	3070
844.844	3207
844.98	3218
845.117	3199
845.253	3032
845.389	3009
845.525	3127
845.661	3104
845.798	2986
845.934	3093
846.07	3062
846.206	3199
846.342	3294
846.478	3203
846.614	3017
846.75	3070
846.886	3032
847.022	3176
847.158	3131
847.294	3173
847.429	3237
847.565	3214
847.701	3488
847.837	3020
847.972	2990
848.108	3157
848.244	3089
848.379	2967
848.515	2948
848.65	2952
848.786	2975
848.921	2998
849.057	3097
849.192	3146
849.328	3097
849.463	3123
849.598	3036
849.734	3032
849.869	2967
850.004	2929
850.14	2960
850.275	2902
850.41	2857
850.545	2887
850.68	2918
850.815	2937
850.95	2956
851.085	3207
851.22	3161
851.355	3043
851.49	2998
851.625	3017
851.76	3017
851.895	2941
852.03	2922
852.165	3039
852.299	3112
852.434	3154
852.569	3154
852.703	3146
852.838	3253
852.973	3272
853.107	3302
853.242	3142
853.376	3089
853.511	2971
853.645	3024
853.78	3230
853.914	3062
854.048	3123
854.183	3089
854.317	3150
854.451	3302
854.585	3127
854.72	3100
854.854	3214
854.988	3081
855.122	3032
855.256	2982
855.39	3138
855.524	3218
855.658	3165
855.792	3138
855.926	3169
856.06	3188
856.194	3245
856.327	3180
856.461	3077
856.595	3100
856.729	3074
856.862	3214
856.996	3173
857.13	3173
857.263	3195
857.397	3237
857.53	3104
857.664	3173
857.797	3222
857.931	3253
858.064	3180
858.197	3241
858.331	3100
858.464	3074
858.597	3013
858.731	3142
858.864	3123
858.997	3112
859.13	3176
859.263	3173
859.396	3214
859.529	3085
859.662	3081
859.795	3032
859.928	3097
860.061	3272
860.194	3279
860.327	3138
860.46	3104
860.592	3237
860.725	3253
860.858	3214
860.99	3135
861.123	3070
861.256	3081
861.388	3123
861.521	3812
861.653	2998
861.786	3009
861.918	2998
862.05	3051
862.183	3077
862.315	3127
862.447	3230
862.58	3081
862.712	2910
862.844	2876
862.976	3039
863.108	2975
863.24	3287
863.372	2868
863.504	2960
863.636	2925
863.768	3036
863.9	2937
864.032	2910
864.164	2910
864.296	3047
864.428	3074
864.559	3074
864.691	3066
864.823	3020
864.954	3005
865.086	3032
865.217	3013
865.349	2948
865.48	2956
865.612	2998
865.743	3127
865.875	2990
866.006	2906
866.137	2967
866.269	2944
866.4	2979
866.531	2895
866.662	2857
866.793	2925
866.924	2880
867.055	2990
867.186	2918
867.317	2842
867.448	2826
867.579	2807
867.71	2807
867.841	2796
867.972	2872
868.103	2910
868.233	2861
868.364	2876
868.495	2880
868.625	3077
868.756	3157
868.886	2944
869.017	3005
869.147	3142
869.278	3184
869.408	3017
869.539	3032
869.669	3058
869.799	3039
869.929	3138
870.06	3062
870.19	3298
870.32	3272
870.45	3287
870.58	3374
870.71	3435
870.84	3409
870.97	3256
871.1	3226
871.23	3519
871.36	3447
871.489	3374
871.619	3447
871.749	3405
871.879	3393
872.008	3507
872.138	3340
872.267	3283
872.397	3180
872.526	3097
872.656	3009
872.785	3089
872.915	3241
873.044	3291
873.173	3226
873.303	3237
873.432	3214
873.561	3264
873.69	3161
873.819	3169
873.948	3157
874.077	3089
874.206	3032
874.335	3093
874.464	3203
874.593	3310
874.722	3233
874.851	3393
874.979	3325
875.108	3321
875.237	3233
875.365	3154
875.494	3169
875.623	3272
875.751	3055
875.88	3100
876.008	3211
876.136	3222
876.265	3351
876.393	3488
876.521	3420
876.65	3401
876.778	3348
876.906	3222
877.034	3226
877.162	3268
877.29	3169
877.418	3222
877.546	3230
877.674	3226
877.802	3233
877.93	3275
878.058	3131
878.185	3108
878.313	3176
878.441	3207
878.568	3062
878.696	3138
878.824	3241
878.951	3325
879.079	3443
879.206	3622
879.333	3450
879.461	3302
879.588	3359
879.715	3496
879.842	3561
879.97	3374
880.097	3176
880.224	3108
880.351	3165
880.478	3218
880.605	3176
880.732	3188
880.859	3450
880.986	3291
881.112	3317
881.239	3207
881.366	3085
881.493	3024
881.619	2998
881.746	3043
881.872	3097
881.999	3085
882.125	3119
882.252	3256
882.378	3291
882.505	3435
882.631	3283
882.757	3150
882.883	3195
883.01	3218
883.136	3165
883.262	3093
883.388	3127
883.514	3329
883.64	3325
883.766	3283
883.892	3173
884.018	3283
884.143	3416
884.269	3526
884.395	3199
884.52	3188
884.646	3157
884.772	3097
884.897	3116
885.023	3233
885.148	3321
885.274	3435
885.399	3370
885.524	3249
885.65	3226
885.775	3268
885.9	3275
886.025	3397
886.15	3382
886.275	3268
886.4	3241
886.525	3306
886.65	3245
886.775	3245
886.9	3492
887.025	3641
887.149	3409
887.274	3245
887.399	3192
887.523	3233
887.648	3165
887.773	3173
887.897	3348
888.021	3378
888.146	3313
888.27	3435
888.395	3504
888.519	3393
888.643	3477
888.767	3428
888.891	3344
889.015	3226
889.139	3272
889.263	3203
889.387	3424
889.511	3526
889.635	3458
889.759	3302
889.883	3279
890.006	3348
890.13	3458
890.254	3287
890.377	3332
890.501	3211
890.624	3203
890.748	3310
890.871	3180
890.995	3070
891.118	3062
891.241	3211
891.364	3203
891.488	3340
891.611	3180
891.734	3203
891.857	3302
891.98	3253
892.103	3332
892.226	3256
892.349	3249
892.471	3138
892.594	3226
892.717	3287
892.839	3291
892.962	3279
893.085	3332
893.207	3279
893.33	3123
893.452	3211
893.575	3389
893.697	3275
893.819	3462
893.941	3504
894.064	3443
894.186	3256
894.308	3256
894.43	3416
894.552	3526
894.674	3447
894.796	3230
894.918	3313
895.04	3287
895.161	3424
895.283	3393
895.405	3294
895.526	3359
895.648	3424
895.769	3424
895.891	3439
896.012	3485
896.134	3477
896.255	3424
896.376	3374
896.498	3378
896.619	3405
896.74	3344
896.861	3397
896.982	3679
897.103	3903
897.224	3614
897.345	3515
897.466	3409
897.587	3519
897.708	3587
897.828	3568
897.949	3412
898.07	3317
898.19	3428
898.311	3587
898.431	3443
898.552	3515
898.672	3644
898.792	3557
898.913	3492
899.033	3382
899.153	3260
899.273	3218
899.393	3317
899.513	3313
899.633	3340
899.753	3325
899.873	3294
899.993	3344
900.113	3378
900.232	3389
900.352	3359
900.472	3317
900.591	3192
900.711	3306
900.83	3230
900.95	3405
901.069	3500
901.189	3344
901.308	3188
901.427	3119
901.546	3207
901.665	3268
901.784	3363
901.904	3188
902.023	3154
902.141	3028
902.26	2994
902.379	3085
902.498	3062
902.617	3047
902.735	3214
902.854	3222
902.973	3180
903.091	3020
903.21	3066
903.328	3123
903.446	3116
903.565	3093
903.683	3207
903.801	3135
903.919	3233
904.038	3275
904.156	3180
904.274	3245
904.392	3214
904.51	3260
904.627	3329
904.745	3504
904.863	3488
904.981	3249
905.098	3207
905.216	3245
905.334	3264
905.451	3279
905.569	3306
905.686	3420
905.803	3450
905.921	3275
906.038	3401
906.155	3389
906.272	3260
906.389	3351
906.506	3256
906.623	3237
906.74	3260
906.857	3192
906.974	3264
907.091	3443
907.208	3572
907.324	3477
907.441	3374
907.557	3233
907.674	3199
907.79	3192
907.907	3272
908.023	3351
908.139	3363
908.256	3321
908.372	3340
908.488	3367
908.604	3230
908.72	3272
908.836	3317
908.952	3245
909.068	3340
909.184	3504
909.3	3389
909.415	3515
909.531	3469
909.647	3279
909.762	3264
909.878	3241
909.993	3321
910.108	3332
910.224	3294
910.339	3382
910.454	3348
910.57	3268
910.685	3253
910.8	3568
910.915	3485
911.03	3458
911.145	3313
911.259	3325
911.374	3310
911.489	3268
911.604	3233
911.718	3127
911.833	3131
911.947	3036
912.062	2975
912.176	3131
912.291	3169
912.405	3188
912.519	3450
912.633	3450
912.748	3336
912.862	3253
912.976	3157
913.09	3051
913.204	3142
913.318	3230
913.431	3348
913.545	3348
913.659	3378
913.772	3344
913.886	3169
914	3192
914.113	3336
914.226	3393
914.34	3378
914.453	3203
914.566	3378
914.68	3294
914.793	3283
914.906	3104
915.019	3093
915.132	3070
915.245	3157
915.358	3180
915.47	3222
915.583	3268
915.696	3294
915.809	3428
915.921	3382
916.034	3256
916.146	3222
916.259	3226
916.371	3355
916.483	3317
916.595	3245
916.708	3317
916.82	3336
916.932	3344
917.044	3378
917.156	3370
917.268	3233
917.38	3283
917.491	3283
917.603	3351
917.715	3485
917.826	3428
917.938	3374
918.049	3279
918.161	3428
918.272	3572
918.384	3534
918.495	3496
918.606	3382
918.717	3245
918.828	3355
918.939	3393
919.05	3340
919.161	3378
919.272	3184
919.383	3272
919.494	3466
919.604	3667
919.715	3500
919.826	3386
919.936	3420
920.047	3549
920.157	3523
920.267	3797
920.378	3584
920.488	3530
920.598	3808
920.708	3956
920.818	3800
920.928	3823
921.038	4036
921.148	4017
921.258	3698
921.368	3633
921.477	3584
921.587	3561
921.697	3443
921.806	3622
921.916	3542
922.025	3351
922.134	3367
922.244	3321
922.353	3439
922.462	3264
922.571	3230
922.68	3093
922.789	3112
922.898	3097
923.007	3077
923.116	3203
923.224	3203
923.333	3154
923.442	3066
923.55	3089
923.659	3146
923.767	3211
923.876	3154
923.984	3253
924.092	3089
924.201	3207
924.309	3203
924.417	3230
924.525	3214
924.633	3218
924.741	4204
924.849	3058
924.956	3279
925.064	3123
925.172	3043
925.279	3074
925.387	3154
925.494	3211
925.602	3367
925.709	3294
925.816	3195
925.924	3283
926.031	3431
926.138	3325
926.245	3336
926.352	3260
926.459	3386
926.566	3443
926.673	3344
926.779	3253
926.886	3233
926.993	3161
927.099	3116
927.206	3146
927.312	3116
927.419	3268
927.525	3241
927.631	3260
927.737	3123
927.843	3157
927.95	2994
928.056	3146
928.162	3176
928.267	3233
928.373	3869
928.479	3294
928.585	3112
928.69	3233
928.796	3264
928.901	3184
929.007	3009
929.112	3211
929.218	3180
929.323	3112
929.428	3146
929.533	3310
929.638	3116
929.743	3192
929.848	3287
929.953	3207
930.058	3127
930.163	3001
930.267	3058
930.372	3173
930.477	3036
930.581	3332
930.685	3180
930.79	3077
930.894	3119
930.998	3097
931.103	3275
931.207	2933
931.311	2960
931.415	2929
931.519	2773
931.623	2769
