Data from test_V78500241_446.txt Node
Date: Fri Mar 25 16:18:17 CST 2022
User: usil
Spectrometer: V785-0024
Trigger mode: 0
Integration Time (sec): 4.000000E-1
Scans to average: 1
Nonlinearity correction enabled: false
Boxcar width: 0
Storing dark spectrum: false
XAxis mode: Wavelengths
Number of Pixels in Spectrum: 1024
>>>>>Begin Spectral Data<<<<<
801.071	2975
801.214	3001
801.356	2868
801.499	2952
801.641	2910
801.783	2960
801.926	3077
802.068	3043
802.211	3070
802.353	3058
802.496	3028
802.638	3066
802.78	3074
802.923	3097
803.065	3043
803.208	2944
803.35	2922
803.492	2982
803.635	2979
803.777	2773
803.919	2887
804.061	3222
804.204	3017
804.346	2910
804.488	2899
804.63	3036
804.773	2922
804.915	2933
805.057	3127
805.199	2979
805.341	2998
805.483	3062
805.626	3020
805.768	2975
805.91	3123
806.052	3112
806.194	3058
806.336	3275
806.478	3017
806.62	2971
806.762	3055
806.904	3085
807.046	3214
807.188	3005
807.33	2944
807.472	3009
807.614	2937
807.756	2979
807.898	2933
808.04	2922
808.182	2982
808.324	3001
808.465	2906
808.607	2876
808.749	2834
808.891	2891
809.033	2998
809.174	2960
809.316	2887
809.458	2925
809.6	2769
809.741	2781
809.883	2781
810.025	2868
810.166	2918
810.308	2842
810.45	2876
810.591	2804
810.733	2792
810.875	2883
811.016	2788
811.158	2773
811.299	2811
811.441	2937
811.582	2937
811.724	2845
811.865	2876
812.007	2944
812.148	2899
812.29	2883
812.431	2963
812.573	2941
812.714	2963
812.855	3070
812.997	3070
813.138	3093
813.279	3020
813.421	2986
813.562	2990
813.703	2899
813.845	2925
813.986	2819
814.127	2769
814.268	2838
814.41	2868
814.551	2857
814.692	2937
814.833	2811
814.974	2910
815.115	2952
815.256	2857
815.397	2815
815.539	2883
815.68	2781
815.821	2857
815.962	2952
816.103	2952
816.244	2868
816.385	2876
816.526	2990
816.666	2956
816.807	2773
816.948	2952
817.089	2902
817.23	2864
817.371	2800
817.512	2834
817.653	2845
817.793	2883
817.934	2876
818.075	2971
818.216	3005
818.356	3043
818.497	2929
818.638	2834
818.778	2857
818.919	2777
819.06	2773
819.2	2906
819.341	2838
819.481	2826
819.622	2937
819.762	3119
819.903	3062
820.043	2895
820.184	2891
820.324	2914
820.465	3013
820.605	3051
820.746	3024
820.886	2948
821.026	3089
821.167	3184
821.307	3294
821.447	3275
821.588	3253
821.728	3226
821.868	3211
822.008	3036
822.149	3207
822.289	3241
822.429	3112
822.569	3097
822.709	3203
822.849	3051
822.99	3081
823.13	3207
823.27	3249
823.41	3123
823.55	3154
823.69	3173
823.83	3195
823.97	3116
824.11	3024
824.25	3005
824.389	3097
824.529	3123
824.669	3043
824.809	3203
824.949	3287
825.089	3268
825.228	3195
825.368	2975
825.508	2990
825.648	2986
825.787	3032
825.927	3051
826.067	2982
826.206	3036
826.346	3085
826.485	3070
826.625	3123
826.765	3321
826.904	3245
827.044	2998
827.183	2941
827.323	2887
827.462	3039
827.601	2929
827.741	2944
827.88	2956
828.02	2887
828.159	3039
828.298	3055
828.437	3165
828.577	3024
828.716	3218
828.855	3058
828.994	2952
829.134	2925
829.273	2967
829.412	2861
829.551	2872
829.69	2906
829.829	3013
829.968	3138
830.107	3043
830.246	3036
830.385	2948
830.524	2922
830.663	2830
830.802	2762
830.941	2625
831.08	2644
831.219	2754
831.357	2750
831.496	2948
831.635	2743
831.774	2689
831.913	2659
832.051	2571
832.19	2579
832.329	2678
832.467	2541
832.606	2503
832.744	2613
832.883	2587
833.022	2617
833.16	2648
833.299	2686
833.437	2716
833.576	2716
833.714	2750
833.852	2743
833.991	2788
834.129	2823
834.267	2830
834.406	2800
834.544	2872
834.682	2868
834.821	2891
834.959	3074
835.097	2937
835.235	3055
835.373	2998
835.511	3047
835.65	3001
835.788	2971
835.926	2823
836.064	2815
836.202	2857
836.34	3138
836.478	3150
836.615	3043
836.753	3123
836.891	3192
837.029	3142
837.167	3112
837.305	3112
837.443	3058
837.58	2975
837.718	3142
837.856	3100
837.993	3028
838.131	3127
838.269	3123
838.406	3112
838.544	3043
838.681	2937
838.819	2963
838.956	2845
839.094	2842
839.231	2929
839.369	3017
839.506	3386
839.643	3207
839.781	3020
839.918	2986
840.055	3081
840.193	3066
840.33	3112
840.467	3108
840.604	3154
840.742	3420
840.879	3093
841.016	3077
841.153	3131
841.29	3351
841.427	3275
841.564	3275
841.701	3310
841.838	3218
841.975	3169
842.112	3218
842.249	3108
842.385	3047
842.522	3298
842.659	3077
842.796	3074
842.933	3127
843.069	3112
843.206	3081
843.343	3173
843.479	3119
843.616	3195
843.752	2929
843.889	2891
844.025	3074
844.162	2887
844.298	3077
844.435	2986
844.571	2960
844.708	3112
844.844	3211
844.98	3264
845.117	3207
845.253	3081
845.389	3001
845.525	3100
845.661	3089
845.798	3005
845.934	3173
846.07	3062
846.206	3237
846.342	3321
846.478	3253
846.614	3070
846.75	3028
846.886	3036
847.022	3237
847.158	3123
847.294	3207
847.429	3237
847.565	3222
847.701	3511
847.837	3032
847.972	3036
848.108	3195
848.244	3184
848.379	2979
848.515	2925
848.65	2929
848.786	2975
848.921	3024
849.057	3081
849.192	3150
849.328	3074
849.463	3127
849.598	3081
849.734	3043
849.869	2979
850.004	2918
850.14	2967
850.275	2937
850.41	2819
850.545	2902
850.68	2922
850.815	2948
850.95	3013
851.085	3176
851.22	3123
851.355	3043
851.49	2979
851.625	3013
851.76	3043
851.895	2948
852.03	2891
852.165	3058
852.299	3104
852.434	3218
852.569	3165
852.703	3176
852.838	3192
852.973	3370
853.107	3317
853.242	3146
853.376	3108
853.511	2941
853.645	3070
853.78	3245
853.914	3123
854.048	3097
854.183	3104
854.317	3165
854.451	3275
854.585	3157
854.72	3089
854.854	3180
854.988	3017
855.122	3093
855.256	2979
855.39	3100
855.524	3260
855.658	3161
855.792	3157
855.926	3184
856.06	3199
856.194	3287
856.327	3154
856.461	3081
856.595	3066
856.729	3062
856.862	3230
856.996	3211
857.13	3203
857.263	3192
857.397	3313
857.53	3116
857.664	3188
857.797	3245
857.931	3268
858.064	3157
858.197	3211
858.331	3119
858.464	3104
858.597	3017
858.731	3119
858.864	3135
858.997	3051
859.13	3146
859.263	3131
859.396	3203
859.529	3070
859.662	3055
859.795	3032
859.928	3123
860.061	3249
860.194	3264
860.327	3112
860.46	3100
860.592	3245
860.725	3264
860.858	3249
860.99	3112
861.123	3028
861.256	3047
861.388	3146
861.521	3930
861.653	3028
861.786	3009
861.918	3009
862.05	3051
862.183	3093
862.315	3154
862.447	3188
862.58	3116
862.712	2963
862.844	2880
862.976	3039
863.108	2986
863.24	3443
863.372	2887
863.504	2982
863.636	2929
863.768	3047
863.9	2963
864.032	2895
864.164	2967
864.296	3020
864.428	3089
864.559	3112
864.691	3085
864.823	3066
864.954	3020
865.086	3043
865.217	3028
865.349	2986
865.48	2998
865.612	3032
865.743	3131
865.875	3020
866.006	2941
866.137	2960
866.269	2967
866.4	2922
866.531	2899
866.662	2883
866.793	2853
866.924	2918
867.055	2975
867.186	2929
867.317	2895
867.448	2876
867.579	2864
867.71	2845
867.841	2792
867.972	2922
868.103	2895
868.233	2864
868.364	2845
868.495	2960
868.625	3036
868.756	3184
868.886	2952
869.017	3032
869.147	3169
869.278	3157
869.408	3085
869.539	3009
869.669	3093
869.799	3043
869.929	3131
870.06	3089
870.19	3298
870.32	3310
870.45	3310
870.58	3389
870.71	3416
870.84	3416
870.97	3294
871.1	3214
871.23	3450
871.36	3477
871.489	3355
871.619	3363
871.749	3405
871.879	3412
872.008	3454
872.138	3355
872.267	3272
872.397	3157
872.526	3135
872.656	2982
872.785	3093
872.915	3241
873.044	3313
873.173	3214
873.303	3237
873.432	3241
873.561	3253
873.69	3150
873.819	3131
873.948	3195
874.077	3100
874.206	3020
874.335	3062
874.464	3199
874.593	3321
874.722	3256
874.851	3389
874.979	3370
875.108	3294
875.237	3226
875.365	3165
875.494	3154
875.623	3241
875.751	3081
875.88	3146
876.008	3207
876.136	3237
876.265	3367
876.393	3526
876.521	3420
876.65	3412
876.778	3348
876.906	3230
877.034	3192
877.162	3233
877.29	3192
877.418	3256
877.546	3260
877.674	3218
877.802	3226
877.93	3249
878.058	3146
878.185	3119
878.313	3192
878.441	3233
878.568	3039
878.696	3207
878.824	3249
878.951	3283
879.079	3469
879.206	3587
879.333	3435
879.461	3294
879.588	3370
879.715	3485
879.842	3618
879.97	3344
880.097	3169
880.224	3135
880.351	3165
880.478	3230
880.605	3157
880.732	3176
880.859	3496
880.986	3332
881.112	3340
881.239	3207
881.366	3104
881.493	3039
881.619	3009
881.746	3055
881.872	3116
881.999	3074
882.125	3142
882.252	3226
882.378	3294
882.505	3428
882.631	3302
882.757	3150
882.883	3195
883.01	3230
883.136	3150
883.262	3085
883.388	3097
883.514	3302
883.64	3382
883.766	3298
883.892	3211
884.018	3214
884.143	3389
884.269	3523
884.395	3188
884.52	3165
884.646	3176
884.772	3138
884.897	3116
885.023	3233
885.148	3321
885.274	3412
885.399	3329
885.524	3298
885.65	3237
885.775	3306
885.9	3287
886.025	3401
886.15	3329
886.275	3306
886.4	3184
886.525	3367
886.65	3211
886.775	3260
886.9	3534
887.025	3648
887.149	3393
887.274	3245
887.399	3157
887.523	3203
887.648	3199
887.773	3241
887.897	3355
888.021	3355
888.146	3233
888.27	3416
888.395	3557
888.519	3469
888.643	3409
888.767	3447
888.891	3294
889.015	3268
889.139	3275
889.263	3256
889.387	3412
889.511	3526
889.635	3458
889.759	3310
889.883	3306
890.006	3393
890.13	3500
890.254	3218
890.377	3348
890.501	3214
890.624	3188
890.748	3298
890.871	3138
890.995	3112
891.118	3024
891.241	3237
891.364	3211
891.488	3359
891.611	3199
891.734	3222
891.857	3340
891.98	3188
892.103	3313
892.226	3260
892.349	3218
892.471	3093
892.594	3253
892.717	3291
892.839	3291
892.962	3291
893.085	3355
893.207	3256
893.33	3176
893.452	3253
893.575	3332
893.697	3226
893.819	3458
893.941	3526
894.064	3435
894.186	3264
894.308	3260
894.43	3431
894.552	3511
894.674	3439
894.796	3294
894.918	3298
895.04	3275
895.161	3435
895.283	3363
895.405	3313
895.526	3370
895.648	3420
895.769	3420
895.891	3443
896.012	3496
896.134	3458
896.255	3412
896.376	3359
896.498	3370
896.619	3443
896.74	3378
896.861	3382
896.982	3694
897.103	3838
897.224	3618
897.345	3496
897.466	3401
897.587	3545
897.708	3644
897.828	3568
897.949	3435
898.07	3317
898.19	3412
898.311	3610
898.431	3412
898.552	3481
898.672	3564
898.792	3584
898.913	3542
899.033	3386
899.153	3268
899.273	3207
899.393	3268
899.513	3321
899.633	3332
899.753	3336
899.873	3329
899.993	3397
900.113	3321
900.232	3378
900.352	3310
900.472	3310
900.591	3176
900.711	3294
900.83	3226
900.95	3435
901.069	3481
901.189	3332
901.308	3180
901.427	3142
901.546	3180
901.665	3264
901.784	3348
901.904	3230
902.023	3157
902.141	3001
902.26	3009
902.379	3116
902.498	3074
902.617	3074
902.735	3207
902.854	3260
902.973	3195
903.091	3036
903.21	3100
903.328	3119
903.446	3089
903.565	3127
903.683	3214
903.801	3112
903.919	3268
904.038	3264
904.156	3146
904.274	3291
904.392	3268
904.51	3245
904.627	3275
904.745	3492
904.863	3477
904.981	3264
905.098	3135
905.216	3241
905.334	3294
905.451	3313
905.569	3313
905.686	3485
905.803	3412
905.921	3291
906.038	3439
906.155	3336
906.272	3245
906.389	3359
906.506	3218
906.623	3233
906.74	3260
906.857	3157
906.974	3222
907.091	3428
907.208	3542
907.324	3469
907.441	3355
907.557	3230
907.674	3256
907.79	3188
907.907	3298
908.023	3355
908.139	3313
908.256	3367
908.372	3424
908.488	3378
908.604	3287
908.72	3207
908.836	3298
908.952	3306
909.068	3325
909.184	3485
909.3	3409
909.415	3557
909.531	3473
909.647	3253
909.762	3294
909.878	3256
909.993	3378
910.108	3363
910.224	3363
910.339	3374
910.454	3351
910.57	3294
910.685	3226
910.8	3637
910.915	3526
911.03	3428
911.145	3233
911.259	3283
911.374	3321
911.489	3268
911.604	3222
911.718	3116
911.833	3161
911.947	3005
912.062	2986
912.176	3199
912.291	3188
912.405	3214
912.519	3431
912.633	3443
912.748	3340
912.862	3283
912.976	3157
913.09	3032
913.204	3165
913.318	3207
913.431	3336
913.545	3374
913.659	3405
913.772	3348
913.886	3211
914	3199
914.113	3363
914.226	3389
914.34	3370
914.453	3249
914.566	3466
914.68	3260
914.793	3302
914.906	3169
915.019	3154
915.132	3066
915.245	3116
915.358	3199
915.47	3207
915.583	3260
915.696	3302
915.809	3428
915.921	3447
916.034	3260
916.146	3268
916.259	3218
916.371	3393
916.483	3374
916.595	3230
916.708	3370
916.82	3332
916.932	3348
917.044	3325
917.156	3287
917.268	3275
917.38	3302
917.491	3294
917.603	3351
917.715	3450
917.826	3454
917.938	3431
918.049	3256
918.161	3409
918.272	3557
918.384	3568
918.495	3511
918.606	3351
918.717	3287
918.828	3416
918.939	3393
919.05	3302
919.161	3363
919.272	3184
919.383	3279
919.494	3481
919.604	3663
919.715	3462
919.826	3416
919.936	3424
920.047	3561
920.157	3561
920.267	3709
920.378	3633
920.488	3530
920.598	3774
920.708	3949
920.818	3835
920.928	3854
921.038	4013
921.148	3975
921.258	3660
921.368	3587
921.477	3568
921.587	3526
921.697	3469
921.806	3641
921.916	3526
922.025	3355
922.134	3378
922.244	3287
922.353	3416
922.462	3253
922.571	3241
922.68	3104
922.789	3085
922.898	3135
923.007	3089
923.116	3173
923.224	3176
923.333	3214
923.442	3104
923.55	3066
923.659	3173
923.767	3237
923.876	3085
923.984	3222
924.092	3077
924.201	3214
924.309	3188
924.417	3249
924.525	3180
924.633	3233
924.741	3979
924.849	3043
924.956	3283
925.064	3081
925.172	3058
925.279	3104
925.387	3207
925.494	3192
925.602	3359
925.709	3332
925.816	3211
925.924	3260
926.031	3382
926.138	3253
926.245	3340
926.352	3241
926.459	3401
926.566	3488
926.673	3275
926.779	3264
926.886	3294
926.993	3135
927.099	3119
927.206	3070
927.312	3123
927.419	3226
927.525	3195
927.631	3253
927.737	3131
927.843	3154
927.95	3032
928.056	3169
928.162	3119
928.267	3245
928.373	3759
928.479	3260
928.585	3028
928.69	3169
928.796	3256
928.901	3165
929.007	3062
929.112	3230
929.218	3150
929.323	3165
929.428	3131
929.533	3272
929.638	3108
929.743	3150
929.848	3237
929.953	3188
930.058	3180
930.163	2990
930.267	3028
930.372	3203
930.477	3043
930.581	3302
930.685	3226
930.79	3013
930.894	3081
930.998	3066
931.103	3268
931.207	2952
931.311	2910
931.415	2925
931.519	2788
931.623	2830
