Data from test_V78500241_1698.txt Node
Date: Fri Mar 25 16:26:57 CST 2022
User: usil
Spectrometer: V785-0024
Trigger mode: 0
Integration Time (sec): 4.000000E-1
Scans to average: 1
Nonlinearity correction enabled: false
Boxcar width: 0
Storing dark spectrum: false
XAxis mode: Wavelengths
Number of Pixels in Spectrum: 1024
>>>>>Begin Spectral Data<<<<<
801.071	2880
801.214	2918
801.356	2845
801.499	2868
801.641	2845
801.783	2925
801.926	3055
802.068	2944
802.211	2982
802.353	3047
802.496	2925
802.638	2990
802.78	3039
802.923	3055
803.065	3009
803.208	2906
803.35	2899
803.492	2933
803.635	2891
803.777	2735
803.919	2883
804.061	3184
804.204	2925
804.346	2906
804.488	2834
804.63	2956
804.773	2861
804.915	2922
805.057	3058
805.199	2925
805.341	2971
805.483	3009
805.626	2990
805.768	2948
805.91	3081
806.052	3131
806.194	2982
806.336	3203
806.478	3005
806.62	2941
806.762	2941
806.904	2998
807.046	3184
807.188	2986
807.33	2876
807.472	3013
807.614	2906
807.756	2979
807.898	2891
808.04	2880
808.182	2963
808.324	2887
808.465	2895
808.607	2861
808.749	2800
808.891	2834
809.033	2937
809.174	2967
809.316	2872
809.458	2876
809.6	2727
809.741	2754
809.883	2758
810.025	2857
810.166	2819
810.308	2804
810.45	2853
810.591	2792
810.733	2743
810.875	2815
811.016	2785
811.158	2746
811.299	2811
811.441	2914
811.582	2887
811.724	2845
811.865	2849
812.007	2922
812.148	2872
812.29	2842
812.431	2891
812.573	2960
812.714	2967
812.855	3051
812.997	3036
813.138	3089
813.279	2971
813.421	2971
813.562	2960
813.703	2880
813.845	2883
813.986	2781
814.127	2731
814.268	2811
814.41	2853
814.551	2754
814.692	2834
814.833	2838
814.974	2906
815.115	2990
815.256	2800
815.397	2792
815.539	2838
815.68	2785
815.821	2792
815.962	2952
816.103	2925
816.244	2872
816.385	2887
816.526	2918
816.666	2941
816.807	2750
816.948	2906
817.089	2906
817.23	2849
817.371	2777
817.512	2826
817.653	2823
817.793	2838
817.934	2876
818.075	2952
818.216	2979
818.356	3024
818.497	2883
818.638	2773
818.778	2838
818.919	2773
819.06	2769
819.2	2861
819.341	2781
819.481	2804
819.622	2941
819.762	3093
819.903	3013
820.043	2883
820.184	2876
820.324	2902
820.465	3032
820.605	3032
820.746	3005
820.886	2929
821.026	3089
821.167	3123
821.307	3249
821.447	3253
821.588	3256
821.728	3222
821.868	3180
822.008	3097
822.149	3218
822.289	3192
822.429	3104
822.569	3047
822.709	3222
822.849	3039
822.99	3055
823.13	3142
823.27	3176
823.41	3066
823.55	3131
823.69	3142
823.83	3165
823.97	3100
824.11	3001
824.25	3009
824.389	3036
824.529	3127
824.669	3062
824.809	3211
824.949	3256
825.089	3199
825.228	3142
825.368	3013
825.508	2956
825.648	2971
825.787	3005
825.927	3017
826.067	2960
826.206	2941
826.346	3036
826.485	3055
826.625	3077
826.765	3253
826.904	3188
827.044	2971
827.183	2944
827.323	2868
827.462	2952
827.601	2910
827.741	2906
827.88	2922
828.02	2842
828.159	2967
828.298	3047
828.437	3119
828.577	3051
828.716	3222
828.855	3047
828.994	2880
829.134	2899
829.273	2910
829.412	2864
829.551	2864
829.69	2887
829.829	2925
829.968	3116
830.107	2990
830.246	2998
830.385	2864
830.524	2853
830.663	2804
830.802	2708
830.941	2606
831.08	2648
831.219	2766
831.357	2720
831.496	2925
831.635	2689
831.774	2648
831.913	2636
832.051	2549
832.19	2590
832.329	2701
832.467	2530
832.606	2484
832.744	2583
832.883	2545
833.022	2556
833.16	2682
833.299	2678
833.437	2678
833.576	2686
833.714	2712
833.852	2712
833.991	2739
834.129	2853
834.267	2864
834.406	2754
834.544	2880
834.682	2853
834.821	2864
834.959	3036
835.097	2864
835.235	3009
835.373	3009
835.511	3032
835.65	2956
835.788	2979
835.926	2800
836.064	2815
836.202	2823
836.34	3135
836.478	3112
836.615	3028
836.753	3074
836.891	3245
837.029	3119
837.167	3058
837.305	3081
837.443	3020
837.58	2933
837.718	3116
837.856	3039
837.993	3005
838.131	3093
838.269	3135
838.406	3104
838.544	3097
838.681	2891
838.819	2899
838.956	2788
839.094	2845
839.231	2857
839.369	2990
839.506	3370
839.643	3207
839.781	3009
839.918	2948
840.055	3017
840.193	3032
840.33	3077
840.467	3058
840.604	3112
840.742	3351
840.879	3009
841.016	3070
841.153	3077
841.29	3298
841.427	3313
841.564	3237
841.701	3294
841.838	3192
841.975	3135
842.112	3184
842.249	3043
842.385	3032
842.522	3233
842.659	3055
842.796	3055
842.933	3097
843.069	3001
843.206	3013
843.343	3157
843.479	3119
843.616	3123
843.752	2868
843.889	2838
844.025	3081
844.162	2864
844.298	3085
844.435	2937
844.571	2876
844.708	3062
844.844	3150
844.98	3226
845.117	3150
845.253	3032
845.389	3024
845.525	3085
845.661	3112
845.798	2956
845.934	3089
846.07	3055
846.206	3230
846.342	3287
846.478	3214
846.614	3077
846.75	3062
846.886	3032
847.022	3245
847.158	3112
847.294	3192
847.429	3222
847.565	3214
847.701	3504
847.837	3009
847.972	3024
848.108	3154
848.244	3180
848.379	2994
848.515	3001
848.65	2948
848.786	2979
848.921	2998
849.057	3131
849.192	3157
849.328	3116
849.463	3157
849.598	3074
849.734	3066
849.869	2990
850.004	2937
850.14	2994
850.275	2941
850.41	2853
850.545	2937
850.68	2937
850.815	3017
850.95	3013
851.085	3165
851.22	3108
851.355	3100
851.49	3039
851.625	3051
851.76	3024
851.895	2963
852.03	2944
852.165	3097
852.299	3173
852.434	3192
852.569	3176
852.703	3222
852.838	3283
852.973	3382
853.107	3370
853.242	3226
853.376	3138
853.511	3024
853.645	3077
853.78	3264
853.914	3161
854.048	3157
854.183	3112
854.317	3165
854.451	3321
854.585	3157
854.72	3112
854.854	3260
854.988	3070
855.122	3112
855.256	3009
855.39	3203
855.524	3294
855.658	3264
855.792	3176
855.926	3233
856.06	3245
856.194	3275
856.327	3184
856.461	3081
856.595	3119
856.729	3100
856.862	3287
856.996	3214
857.13	3176
857.263	3287
857.397	3329
857.53	3142
857.664	3214
857.797	3253
857.931	3279
858.064	3203
858.197	3203
858.331	3119
858.464	3142
858.597	3066
858.731	3146
858.864	3146
858.997	3142
859.13	3184
859.263	3222
859.396	3245
859.529	3097
859.662	3108
859.795	3093
859.928	3161
860.061	3294
860.194	3336
860.327	3138
860.46	3104
860.592	3302
860.725	3226
860.858	3230
860.99	3097
861.123	3085
861.256	3093
861.388	3135
861.521	3854
861.653	3020
861.786	2982
861.918	3001
862.05	3070
862.183	3119
862.315	3184
862.447	3226
862.58	3138
862.712	2971
862.844	2864
862.976	3070
863.108	2994
863.24	3473
863.372	2929
863.504	2990
863.636	2971
863.768	3058
863.9	3028
864.032	2941
864.164	2982
864.296	3043
864.428	3138
864.559	3104
864.691	3089
864.823	3119
864.954	3085
865.086	3081
865.217	3020
865.349	2960
865.48	2990
865.612	3055
865.743	3203
865.875	2979
866.006	2956
866.137	3013
866.269	2975
866.4	2963
866.531	2914
866.662	2918
866.793	2910
866.924	2956
867.055	3009
867.186	2948
867.317	2880
867.448	2868
867.579	2899
867.71	2823
867.841	2842
867.972	2922
868.103	2922
868.233	2925
868.364	2914
868.495	2891
868.625	3089
868.756	3180
868.886	2975
869.017	3039
869.147	3188
869.278	3237
869.408	3089
869.539	3013
869.669	3154
869.799	3043
869.929	3131
870.06	3097
870.19	3378
870.32	3310
870.45	3344
870.58	3458
870.71	3488
870.84	3481
870.97	3329
871.1	3260
871.23	3526
871.36	3504
871.489	3378
871.619	3397
871.749	3469
871.879	3492
872.008	3504
872.138	3420
872.267	3226
872.397	3135
872.526	3119
872.656	3058
872.785	3165
872.915	3222
873.044	3336
873.173	3264
873.303	3260
873.432	3298
873.561	3264
873.69	3176
873.819	3176
873.948	3211
874.077	3123
874.206	3039
874.335	3119
874.464	3249
874.593	3386
874.722	3249
874.851	3378
874.979	3431
875.108	3359
875.237	3233
875.365	3176
875.494	3237
875.623	3268
875.751	3138
875.88	3119
876.008	3169
876.136	3272
876.265	3409
876.393	3545
876.521	3462
876.65	3382
876.778	3344
876.906	3298
877.034	3207
877.162	3275
877.29	3218
877.418	3230
877.546	3256
877.674	3279
877.802	3272
877.93	3275
878.058	3138
878.185	3116
878.313	3188
878.441	3237
878.568	3097
878.696	3165
878.824	3211
878.951	3302
879.079	3485
879.206	3644
879.333	3488
879.461	3348
879.588	3382
879.715	3488
879.842	3648
879.97	3428
880.097	3233
880.224	3142
880.351	3222
880.478	3283
880.605	3245
880.732	3230
880.859	3542
880.986	3329
881.112	3329
881.239	3211
881.366	3165
881.493	3119
881.619	3028
881.746	3077
881.872	3150
881.999	3123
882.125	3161
882.252	3249
882.378	3340
882.505	3412
882.631	3306
882.757	3146
882.883	3237
883.01	3230
883.136	3176
883.262	3093
883.388	3150
883.514	3310
883.64	3401
883.766	3321
883.892	3180
884.018	3325
884.143	3450
884.269	3561
884.395	3214
884.52	3165
884.646	3222
884.772	3180
884.897	3097
885.023	3256
885.148	3348
885.274	3450
885.399	3363
885.524	3306
885.65	3268
885.775	3329
885.9	3332
886.025	3447
886.15	3409
886.275	3317
886.4	3283
886.525	3325
886.65	3291
886.775	3298
886.9	3519
887.025	3694
887.149	3473
887.274	3279
887.399	3188
887.523	3233
887.648	3218
887.773	3214
887.897	3397
888.021	3420
888.146	3367
888.27	3450
888.395	3530
888.519	3424
888.643	3458
888.767	3458
888.891	3321
889.015	3218
889.139	3291
889.263	3245
889.387	3393
889.511	3504
889.635	3519
889.759	3321
889.883	3287
890.006	3397
890.13	3496
890.254	3272
890.377	3363
890.501	3218
890.624	3157
890.748	3336
890.871	3176
890.995	3138
891.118	3062
891.241	3195
891.364	3249
891.488	3363
891.611	3192
891.734	3222
891.857	3294
891.98	3268
892.103	3344
892.226	3313
892.349	3249
892.471	3112
892.594	3272
892.717	3306
892.839	3279
892.962	3313
893.085	3367
893.207	3310
893.33	3165
893.452	3253
893.575	3370
893.697	3241
893.819	3504
893.941	3568
894.064	3447
894.186	3264
894.308	3275
894.43	3473
894.552	3557
894.674	3488
894.796	3306
894.918	3321
895.04	3325
895.161	3466
895.283	3412
895.405	3359
895.526	3351
895.648	3462
895.769	3443
895.891	3477
896.012	3515
896.134	3462
896.255	3454
896.376	3386
896.498	3359
896.619	3424
896.74	3374
896.861	3424
896.982	3709
897.103	3865
897.224	3644
897.345	3595
897.466	3443
897.587	3504
897.708	3648
897.828	3568
897.949	3492
898.07	3336
898.19	3439
898.311	3599
898.431	3443
898.552	3488
898.672	3625
898.792	3603
898.913	3568
899.033	3428
899.153	3275
899.273	3245
899.393	3298
899.513	3355
899.633	3348
899.753	3363
899.873	3325
899.993	3439
900.113	3355
900.232	3416
900.352	3359
900.472	3321
900.591	3226
900.711	3321
900.83	3256
900.95	3443
901.069	3492
901.189	3370
901.308	3188
901.427	3146
901.546	3233
901.665	3336
901.784	3344
901.904	3203
902.023	3142
902.141	2990
902.26	3032
902.379	3131
902.498	3070
902.617	3055
902.735	3241
902.854	3272
902.973	3199
903.091	3039
903.21	3112
903.328	3135
903.446	3123
903.565	3097
903.683	3192
903.801	3180
903.919	3237
904.038	3306
904.156	3214
904.274	3313
904.392	3237
904.51	3317
904.627	3359
904.745	3458
904.863	3515
904.981	3272
905.098	3161
905.216	3256
905.334	3298
905.451	3294
905.569	3291
905.686	3447
905.803	3477
905.921	3287
906.038	3443
906.155	3336
906.272	3348
906.389	3321
906.506	3249
906.623	3321
906.74	3310
906.857	3195
906.974	3294
907.091	3462
907.208	3572
907.324	3523
907.441	3389
907.557	3253
907.674	3226
907.79	3230
907.907	3260
908.023	3340
908.139	3397
908.256	3378
908.372	3382
908.488	3367
908.604	3256
908.72	3253
908.836	3256
908.952	3298
909.068	3317
909.184	3458
909.3	3386
909.415	3557
909.531	3511
909.647	3321
909.762	3313
909.878	3283
909.993	3310
910.108	3310
910.224	3329
910.339	3458
910.454	3374
910.57	3317
910.685	3275
910.8	3610
910.915	3511
911.03	3420
911.145	3310
911.259	3249
911.374	3313
911.489	3241
911.604	3226
911.718	3108
911.833	3154
911.947	3047
912.062	3020
912.176	3199
912.291	3184
912.405	3226
912.519	3447
912.633	3519
912.748	3359
912.862	3272
912.976	3157
913.09	3066
913.204	3161
913.318	3249
913.431	3359
913.545	3367
913.659	3424
913.772	3336
913.886	3241
914	3245
914.113	3401
914.226	3431
914.34	3355
914.453	3203
914.566	3477
914.68	3268
914.793	3340
914.906	3154
915.019	3138
915.132	3077
915.245	3180
915.358	3195
915.47	3226
915.583	3264
915.696	3325
915.809	3409
915.921	3450
916.034	3275
916.146	3241
916.259	3253
916.371	3409
916.483	3382
916.595	3317
916.708	3344
916.82	3348
916.932	3386
917.044	3393
917.156	3382
917.268	3302
917.38	3359
917.491	3325
917.603	3431
917.715	3469
917.826	3542
917.938	3435
918.049	3302
918.161	3454
918.272	3618
918.384	3606
918.495	3553
918.606	3370
918.717	3283
918.828	3416
918.939	3458
919.05	3367
919.161	3431
919.272	3192
919.383	3313
919.494	3553
919.604	3747
919.715	3557
919.826	3473
919.936	3492
920.047	3610
920.157	3599
920.267	3835
920.378	3614
920.488	3591
920.598	3827
920.708	3991
920.818	3873
920.928	3861
921.038	4109
921.148	4044
921.258	3747
921.368	3690
921.477	3614
921.587	3587
921.697	3515
921.806	3698
921.916	3572
922.025	3401
922.134	3412
922.244	3367
922.353	3466
922.462	3336
922.571	3260
922.68	3135
922.789	3127
922.898	3131
923.007	3119
923.116	3253
923.224	3226
923.333	3249
923.442	3161
923.55	3176
923.659	3192
923.767	3226
923.876	3188
923.984	3279
924.092	3127
924.201	3253
924.309	3249
924.417	3283
924.525	3222
924.633	3287
924.741	4078
924.849	3085
924.956	3287
925.064	3150
925.172	3108
925.279	3142
925.387	3249
925.494	3230
925.602	3412
925.709	3378
925.816	3199
925.924	3329
926.031	3481
926.138	3344
926.245	3401
926.352	3256
926.459	3450
926.566	3511
926.673	3363
926.779	3279
926.886	3272
926.993	3165
927.099	3154
927.206	3157
927.312	3199
927.419	3279
927.525	3275
927.631	3329
927.737	3161
927.843	3127
927.95	3077
928.056	3192
928.162	3192
928.267	3279
928.373	3911
928.479	3351
928.585	3112
928.69	3268
928.796	3291
928.901	3222
929.007	3051
929.112	3180
929.218	3237
929.323	3226
929.428	3195
929.533	3393
929.638	3135
929.743	3222
929.848	3279
929.953	3230
930.058	3192
930.163	3024
930.267	3062
930.372	3214
930.477	3070
930.581	3363
930.685	3195
930.79	3089
930.894	3173
930.998	3108
931.103	3332
931.207	3017
931.311	2971
931.415	2960
931.519	2796
931.623	2868
