Data from test_V78500241_1345.txt Node
Date: Fri Mar 25 16:24:31 CST 2022
User: usil
Spectrometer: V785-0024
Trigger mode: 0
Integration Time (sec): 4.000000E-1
Scans to average: 1
Nonlinearity correction enabled: false
Boxcar width: 0
Storing dark spectrum: false
XAxis mode: Wavelengths
Number of Pixels in Spectrum: 1024
>>>>>Begin Spectral Data<<<<<
801.071	2941
801.214	2948
801.356	2849
801.499	2849
801.641	2868
801.783	2933
801.926	3066
802.068	2986
802.211	3001
802.353	3024
802.496	2944
802.638	3032
802.78	3043
802.923	3066
803.065	3017
803.208	2914
803.35	2883
803.492	2933
803.635	2918
803.777	2735
803.919	2861
804.061	3165
804.204	2952
804.346	2952
804.488	2864
804.63	2990
804.773	2853
804.915	2895
805.057	3097
805.199	2906
805.341	2990
805.483	3039
805.626	2982
805.768	2941
805.91	3093
806.052	3093
806.194	3043
806.336	3268
806.478	3001
806.62	2937
806.762	2990
806.904	3066
807.046	3123
807.188	2982
807.33	2887
807.472	3009
807.614	2899
807.756	2982
807.898	2929
808.04	2925
808.182	2952
808.324	2960
808.465	2883
808.607	2864
808.749	2830
808.891	2830
809.033	3001
809.174	2948
809.316	2910
809.458	2876
809.6	2773
809.741	2769
809.883	2762
810.025	2857
810.166	2823
810.308	2857
810.45	2834
810.591	2842
810.733	2777
810.875	2838
811.016	2766
811.158	2800
811.299	2819
811.441	2944
811.582	2918
811.724	2849
811.865	2815
812.007	2891
812.148	2906
812.29	2857
812.431	2918
812.573	2952
812.714	2941
812.855	3074
812.997	3093
813.138	3112
813.279	2960
813.421	2975
813.562	2941
813.703	2880
813.845	2872
813.986	2811
814.127	2743
814.268	2811
814.41	2826
814.551	2826
814.692	2845
814.833	2815
814.974	2891
815.115	2963
815.256	2849
815.397	2842
815.539	2849
815.68	2800
815.821	2777
815.962	2929
816.103	2910
816.244	2876
816.385	2861
816.526	2952
816.666	2895
816.807	2762
816.948	2868
817.089	2937
817.23	2834
817.371	2739
817.512	2800
817.653	2819
817.793	2834
817.934	2906
818.075	2956
818.216	2944
818.356	3036
818.497	2902
818.638	2788
818.778	2819
818.919	2773
819.06	2724
819.2	2861
819.341	2845
819.481	2766
819.622	2933
819.762	3104
819.903	3074
820.043	2906
820.184	2933
820.324	2937
820.465	3017
820.605	3024
820.746	2982
820.886	2914
821.026	3123
821.167	3161
821.307	3253
821.447	3310
821.588	3275
821.728	3230
821.868	3173
822.008	3055
822.149	3184
822.289	3241
822.429	3055
822.569	3074
822.709	3184
822.849	3032
822.99	3066
823.13	3157
823.27	3203
823.41	3081
823.55	3169
823.69	3176
823.83	3203
823.97	3097
824.11	3036
824.25	2990
824.389	3032
824.529	3119
824.669	3077
824.809	3192
824.949	3211
825.089	3207
825.228	3188
825.368	2982
825.508	2944
825.648	2952
825.787	3001
825.927	3036
826.067	2986
826.206	2986
826.346	3028
826.485	3085
826.625	3112
826.765	3294
826.904	3211
827.044	2971
827.183	2948
827.323	2895
827.462	2929
827.601	2925
827.741	2918
827.88	2960
828.02	2826
828.159	2975
828.298	3013
828.437	3123
828.577	3017
828.716	3237
828.855	3100
828.994	2902
829.134	2906
829.273	2933
829.412	2864
829.551	2834
829.69	2944
829.829	2990
829.968	3127
830.107	3001
830.246	3013
830.385	2933
830.524	2861
830.663	2796
830.802	2724
830.941	2670
831.08	2625
831.219	2750
831.357	2743
831.496	2914
831.635	2705
831.774	2670
831.913	2655
832.051	2541
832.19	2598
832.329	2720
832.467	2503
832.606	2473
832.744	2629
832.883	2594
833.022	2575
833.16	2632
833.299	2670
833.437	2663
833.576	2716
833.714	2750
833.852	2743
833.991	2743
834.129	2819
834.267	2819
834.406	2785
834.544	2838
834.682	2861
834.821	2914
834.959	3085
835.097	2922
835.235	3055
835.373	2975
835.511	3017
835.65	2956
835.788	2982
835.926	2804
836.064	2826
836.202	2826
836.34	3066
836.478	3093
836.615	2998
836.753	3138
836.891	3203
837.029	3146
837.167	3108
837.305	3047
837.443	3055
837.58	2990
837.718	3135
837.856	3036
837.993	3036
838.131	3123
838.269	3074
838.406	3077
838.544	3074
838.681	2933
838.819	2883
838.956	2815
839.094	2853
839.231	2933
839.369	3062
839.506	3389
839.643	3230
839.781	3032
839.918	2925
840.055	3017
840.193	3032
840.33	3074
840.467	3089
840.604	3104
840.742	3363
840.879	3028
841.016	3051
841.153	3161
841.29	3329
841.427	3283
841.564	3233
841.701	3332
841.838	3188
841.975	3157
842.112	3199
842.249	3058
842.385	3055
842.522	3256
842.659	3058
842.796	3039
842.933	3093
843.069	3074
843.206	3020
843.343	3169
843.479	3077
843.616	3142
843.752	2883
843.889	2853
844.025	3070
844.162	2902
844.298	3043
844.435	2906
844.571	2876
844.708	3055
844.844	3184
844.98	3222
845.117	3184
845.253	3062
845.389	3009
845.525	3085
845.661	3100
845.798	2998
845.934	3123
846.07	3028
846.206	3222
846.342	3291
846.478	3188
846.614	3093
846.75	3077
846.886	3005
847.022	3218
847.158	3135
847.294	3169
847.429	3279
847.565	3253
847.701	3481
847.837	3047
847.972	3005
848.108	3142
848.244	3161
848.379	2998
848.515	2925
848.65	2922
848.786	2948
848.921	3013
849.057	3066
849.192	3150
849.328	3093
849.463	3085
849.598	3085
849.734	3009
849.869	2956
850.004	2902
850.14	2956
850.275	2880
850.41	2845
850.545	2872
850.68	2918
850.815	2941
850.95	2960
851.085	3173
851.22	3077
851.355	3024
851.49	2967
851.625	2994
851.76	3013
851.895	2937
852.03	2872
852.165	3005
852.299	3127
852.434	3146
852.569	3150
852.703	3173
852.838	3237
852.973	3382
853.107	3351
853.242	3135
853.376	3112
853.511	2967
853.645	3043
853.78	3199
853.914	3116
854.048	3097
854.183	3081
854.317	3150
854.451	3256
854.585	3135
854.72	3051
854.854	3192
854.988	3051
855.122	3108
855.256	2971
855.39	3119
855.524	3226
855.658	3150
855.792	3138
855.926	3192
856.06	3233
856.194	3264
856.327	3180
856.461	3077
856.595	3039
856.729	3100
856.862	3211
856.996	3127
857.13	3180
857.263	3226
857.397	3264
857.53	3123
857.664	3176
857.797	3188
857.931	3264
858.064	3119
858.197	3241
858.331	3138
858.464	3097
858.597	2967
858.731	3093
858.864	3154
858.997	3089
859.13	3131
859.263	3176
859.396	3188
859.529	3108
859.662	3055
859.795	3070
859.928	3108
860.061	3279
860.194	3283
860.327	3127
860.46	3089
860.592	3245
860.725	3268
860.858	3211
860.99	3047
861.123	3062
861.256	3005
861.388	3138
861.521	3709
861.653	3001
861.786	3001
861.918	3017
862.05	3051
862.183	3085
862.315	3100
862.447	3169
862.58	3089
862.712	2937
862.844	2834
862.976	3020
863.108	2990
863.24	3310
863.372	2887
863.504	2937
863.636	2922
863.768	3028
863.9	2937
864.032	2891
864.164	2960
864.296	2998
864.428	3074
864.559	3097
864.691	3077
864.823	3081
864.954	3028
865.086	3001
865.217	2967
865.349	2952
865.48	2971
865.612	3039
865.743	3123
865.875	2967
866.006	2925
866.137	3001
866.269	2933
866.4	2941
866.531	2918
866.662	2891
866.793	2883
866.924	2906
867.055	2975
867.186	2918
867.317	2895
867.448	2830
867.579	2830
867.71	2842
867.841	2811
867.972	2895
868.103	2872
868.233	2899
868.364	2868
868.495	2899
868.625	3077
868.756	3127
868.886	2963
869.017	3017
869.147	3138
869.278	3116
869.408	3024
869.539	3032
869.669	3116
869.799	3051
869.929	3119
870.06	3070
870.19	3287
870.32	3275
870.45	3253
870.58	3363
870.71	3481
870.84	3424
870.97	3272
871.1	3264
871.23	3458
871.36	3405
871.489	3317
871.619	3355
871.749	3386
871.879	3412
872.008	3473
872.138	3367
872.267	3287
872.397	3150
872.526	3085
872.656	3005
872.785	3104
872.915	3222
873.044	3355
873.173	3233
873.303	3218
873.432	3256
873.561	3230
873.69	3146
873.819	3161
873.948	3230
874.077	3104
874.206	3032
874.335	3104
874.464	3222
874.593	3359
874.722	3260
874.851	3393
874.979	3325
875.108	3302
875.237	3195
875.365	3157
875.494	3157
875.623	3222
875.751	3062
875.88	3108
876.008	3169
876.136	3203
876.265	3332
876.393	3496
876.521	3409
876.65	3397
876.778	3321
876.906	3230
877.034	3214
877.162	3195
877.29	3192
877.418	3203
877.546	3241
877.674	3211
877.802	3230
877.93	3222
878.058	3127
878.185	3097
878.313	3165
878.441	3203
878.568	3047
878.696	3157
878.824	3233
878.951	3264
879.079	3462
879.206	3606
879.333	3424
879.461	3332
879.588	3367
879.715	3504
879.842	3561
879.97	3389
880.097	3188
880.224	3131
880.351	3211
880.478	3214
880.605	3184
880.732	3184
880.859	3469
880.986	3279
881.112	3294
881.239	3188
881.366	3043
881.493	3020
881.619	3013
881.746	3047
881.872	3047
881.999	3085
882.125	3131
882.252	3230
882.378	3294
882.505	3386
882.631	3264
882.757	3116
882.883	3226
883.01	3199
883.136	3142
883.262	3066
883.388	3100
883.514	3329
883.64	3389
883.766	3287
883.892	3207
884.018	3233
884.143	3439
884.269	3561
884.395	3203
884.52	3154
884.646	3207
884.772	3104
884.897	3097
885.023	3211
885.148	3291
885.274	3420
885.399	3351
885.524	3260
885.65	3268
885.775	3291
885.9	3275
886.025	3428
886.15	3348
886.275	3287
886.4	3195
886.525	3287
886.65	3268
886.775	3275
886.9	3485
887.025	3663
887.149	3386
887.274	3260
887.399	3169
887.523	3180
887.648	3188
887.773	3165
887.897	3344
888.021	3431
888.146	3317
888.27	3439
888.395	3496
888.519	3416
888.643	3435
888.767	3447
888.891	3302
889.015	3256
889.139	3283
889.263	3230
889.387	3431
889.511	3454
889.635	3435
889.759	3272
889.883	3310
890.006	3378
890.13	3466
890.254	3268
890.377	3348
890.501	3173
890.624	3180
890.748	3329
890.871	3161
890.995	3112
891.118	3047
891.241	3150
891.364	3218
891.488	3294
891.611	3173
891.734	3203
891.857	3253
891.98	3249
892.103	3336
892.226	3264
892.349	3203
892.471	3142
892.594	3253
892.717	3272
892.839	3245
892.962	3302
893.085	3367
893.207	3298
893.33	3138
893.452	3237
893.575	3359
893.697	3233
893.819	3431
893.941	3526
894.064	3466
894.186	3237
894.308	3245
894.43	3466
894.552	3526
894.674	3450
894.796	3302
894.918	3294
895.04	3298
895.161	3378
895.283	3401
895.405	3294
895.526	3378
895.648	3439
895.769	3431
895.891	3401
896.012	3466
896.134	3477
896.255	3412
896.376	3386
896.498	3310
896.619	3469
896.74	3405
896.861	3397
896.982	3663
897.103	3854
897.224	3610
897.345	3496
897.466	3454
897.587	3473
897.708	3572
897.828	3515
897.949	3454
898.07	3355
898.19	3405
898.311	3576
898.431	3462
898.552	3500
898.672	3545
898.792	3564
898.913	3473
899.033	3405
899.153	3279
899.273	3222
899.393	3279
899.513	3336
899.633	3321
899.753	3325
899.873	3306
899.993	3401
900.113	3325
900.232	3401
900.352	3340
900.472	3294
900.591	3207
900.711	3294
900.83	3203
900.95	3431
901.069	3431
901.189	3332
901.308	3150
901.427	3138
901.546	3199
901.665	3272
901.784	3294
901.904	3203
902.023	3138
902.141	3013
902.26	2975
902.379	3169
902.498	3028
902.617	3009
902.735	3211
902.854	3237
902.973	3203
903.091	3024
903.21	3058
903.328	3146
903.446	3074
903.565	3112
903.683	3192
903.801	3116
903.919	3253
904.038	3313
904.156	3180
904.274	3294
904.392	3237
904.51	3253
904.627	3325
904.745	3420
904.863	3515
904.981	3272
905.098	3161
905.216	3207
905.334	3279
905.451	3294
905.569	3329
905.686	3466
905.803	3431
905.921	3275
906.038	3405
906.155	3405
906.272	3272
906.389	3370
906.506	3203
906.623	3241
906.74	3275
906.857	3214
906.974	3256
907.091	3439
907.208	3561
907.324	3469
907.441	3336
907.557	3226
907.674	3233
907.79	3199
907.907	3275
908.023	3355
908.139	3374
908.256	3321
908.372	3393
908.488	3336
908.604	3249
908.72	3226
908.836	3317
908.952	3287
909.068	3348
909.184	3485
909.3	3401
909.415	3500
909.531	3477
909.647	3275
909.762	3260
909.878	3249
909.993	3340
910.108	3367
910.224	3325
910.339	3378
910.454	3325
910.57	3313
910.685	3226
910.8	3595
910.915	3557
911.03	3401
911.145	3310
911.259	3287
911.374	3298
911.489	3245
911.604	3218
911.718	3138
911.833	3161
911.947	3028
912.062	2998
912.176	3173
912.291	3180
912.405	3230
912.519	3454
912.633	3473
912.748	3294
912.862	3249
912.976	3176
913.09	3066
913.204	3150
913.318	3241
913.431	3325
913.545	3329
913.659	3374
913.772	3302
913.886	3226
914	3180
914.113	3336
914.226	3409
914.34	3378
914.453	3256
914.566	3389
914.68	3268
914.793	3321
914.906	3184
915.019	3116
915.132	3047
915.245	3150
915.358	3211
915.47	3233
915.583	3256
915.696	3340
915.809	3367
915.921	3401
916.034	3310
916.146	3306
916.259	3226
916.371	3321
916.483	3363
916.595	3268
916.708	3321
916.82	3317
916.932	3332
917.044	3344
917.156	3321
917.268	3256
917.38	3317
917.491	3298
917.603	3336
917.715	3428
917.826	3412
917.938	3382
918.049	3291
918.161	3435
918.272	3606
918.384	3603
918.495	3496
918.606	3325
918.717	3279
918.828	3329
918.939	3393
919.05	3310
919.161	3359
919.272	3176
919.383	3294
919.494	3458
919.604	3637
919.715	3492
919.826	3454
919.936	3488
920.047	3591
920.157	3553
920.267	3778
920.378	3584
920.488	3580
920.598	3823
920.708	3949
920.818	3793
920.928	3846
921.038	4010
921.148	3998
921.258	3717
921.368	3618
921.477	3561
921.587	3564
921.697	3447
921.806	3576
921.916	3519
922.025	3351
922.134	3351
922.244	3298
922.353	3450
922.462	3268
922.571	3180
922.68	3127
922.789	3066
922.898	3150
923.007	3127
923.116	3245
923.224	3150
923.333	3214
923.442	3100
923.55	3093
923.659	3123
923.767	3233
923.876	3089
923.984	3268
924.092	3081
924.201	3211
924.309	3184
924.417	3253
924.525	3157
924.633	3230
924.741	3994
924.849	3051
924.956	3264
925.064	3070
925.172	3024
925.279	3108
925.387	3188
925.494	3203
925.602	3363
925.709	3336
925.816	3203
925.924	3313
926.031	3367
926.138	3283
926.245	3302
926.352	3253
926.459	3401
926.566	3466
926.673	3287
926.779	3226
926.886	3222
926.993	3146
927.099	3131
927.206	3135
927.312	3100
927.419	3241
927.525	3211
927.631	3294
927.737	3176
927.843	3119
927.95	3001
928.056	3165
928.162	3188
928.267	3245
928.373	3838
928.479	3336
928.585	3058
928.69	3207
928.796	3275
928.901	3165
929.007	2994
929.112	3211
929.218	3157
929.323	3165
929.428	3150
929.533	3268
929.638	3112
929.743	3146
929.848	3279
929.953	3211
930.058	3123
930.163	2998
930.267	3055
930.372	3222
930.477	3024
930.581	3325
930.685	3184
930.79	3055
930.894	3127
930.998	3089
931.103	3302
931.207	2963
931.311	2944
931.415	2906
931.519	2788
931.623	2826
