Data from test_V78500241_244.txt Node
Date: Fri Mar 25 16:16:53 CST 2022
User: usil
Spectrometer: V785-0024
Trigger mode: 0
Integration Time (sec): 4.000000E-1
Scans to average: 1
Nonlinearity correction enabled: false
Boxcar width: 0
Storing dark spectrum: false
XAxis mode: Wavelengths
Number of Pixels in Spectrum: 1024
>>>>>Begin Spectral Data<<<<<
801.071	2914
801.214	2933
801.356	2895
801.499	2914
801.641	2891
801.783	2979
801.926	3051
802.068	2971
802.211	2990
802.353	3020
802.496	2941
802.638	2998
802.78	3066
802.923	3081
803.065	2986
803.208	2948
803.35	2918
803.492	2941
803.635	2952
803.777	2781
803.919	2838
804.061	3188
804.204	2960
804.346	2918
804.488	2815
804.63	2982
804.773	2899
804.915	2899
805.057	3100
805.199	2922
805.341	2986
805.483	3020
805.626	3005
805.768	2956
805.91	3097
806.052	3119
806.194	3036
806.336	3222
806.478	3028
806.62	2944
806.762	2967
806.904	3039
807.046	3157
807.188	2982
807.33	2895
807.472	3024
807.614	2887
807.756	2994
807.898	2937
808.04	2895
808.182	2979
808.324	2975
808.465	2895
808.607	2868
808.749	2785
808.891	2788
809.033	2975
809.174	2963
809.316	2910
809.458	2872
809.6	2788
809.741	2781
809.883	2804
810.025	2853
810.166	2895
810.308	2819
810.45	2845
810.591	2762
810.733	2758
810.875	2838
811.016	2811
811.158	2750
811.299	2838
811.441	2960
811.582	2906
811.724	2811
811.865	2815
812.007	2918
812.148	2891
812.29	2838
812.431	2868
812.573	2952
812.714	2994
812.855	3062
812.997	3077
813.138	3142
813.279	2986
813.421	2990
813.562	2948
813.703	2853
813.845	2876
813.986	2750
814.127	2708
814.268	2834
814.41	2785
814.551	2800
814.692	2853
814.833	2811
814.974	2861
815.115	2952
815.256	2811
815.397	2845
815.539	2899
815.68	2800
815.821	2777
815.962	2956
816.103	2891
816.244	2906
816.385	2906
816.526	2998
816.666	2979
816.807	2788
816.948	2887
817.089	2910
817.23	2853
817.371	2804
817.512	2830
817.653	2838
817.793	2804
817.934	2899
818.075	2967
818.216	2979
818.356	3032
818.497	2910
818.638	2777
818.778	2830
818.919	2807
819.06	2766
819.2	2876
819.341	2823
819.481	2781
819.622	2906
819.762	3119
819.903	3028
820.043	2925
820.184	2948
820.324	2944
820.465	3013
820.605	3039
820.746	3055
820.886	2910
821.026	3119
821.167	3161
821.307	3226
821.447	3291
821.588	3245
821.728	3207
821.868	3154
822.008	3108
822.149	3192
822.289	3241
822.429	3089
822.569	3104
822.709	3199
822.849	3024
822.99	3074
823.13	3176
823.27	3203
823.41	3100
823.55	3161
823.69	3165
823.83	3214
823.97	3119
824.11	2982
824.25	3001
824.389	3081
824.529	3131
824.669	3047
824.809	3157
824.949	3275
825.089	3226
825.228	3154
825.368	3013
825.508	2982
825.648	2994
825.787	3024
825.927	3039
826.067	2971
826.206	2941
826.346	3047
826.485	3070
826.625	3093
826.765	3279
826.904	3249
827.044	2982
827.183	2925
827.323	2876
827.462	2998
827.601	2910
827.741	2941
827.88	2956
828.02	2891
828.159	2982
828.298	3043
828.437	3055
828.577	3047
828.716	3264
828.855	3074
828.994	2906
829.134	2910
829.273	2941
829.412	2918
829.551	2868
829.69	2929
829.829	2975
829.968	3138
830.107	3001
830.246	3036
830.385	2906
830.524	2883
830.663	2807
830.802	2735
830.941	2629
831.08	2648
831.219	2769
831.357	2743
831.496	2960
831.635	2720
831.774	2644
831.913	2670
832.051	2530
832.19	2590
832.329	2689
832.467	2526
832.606	2499
832.744	2564
832.883	2587
833.022	2598
833.16	2667
833.299	2689
833.437	2686
833.576	2689
833.714	2735
833.852	2716
833.991	2731
834.129	2834
834.267	2834
834.406	2792
834.544	2861
834.682	2861
834.821	2876
834.959	3085
835.097	2880
835.235	3058
835.373	3001
835.511	3028
835.65	2967
835.788	2975
835.926	2807
836.064	2807
836.202	2876
836.34	3112
836.478	3176
836.615	3032
836.753	3142
836.891	3230
837.029	3154
837.167	3116
837.305	3039
837.443	3028
837.58	2979
837.718	3176
837.856	3108
837.993	3005
838.131	3123
838.269	3135
838.406	3093
838.544	3066
838.681	2933
838.819	2914
838.956	2762
839.094	2826
839.231	2910
839.369	3024
839.506	3374
839.643	3237
839.781	3020
839.918	2975
840.055	3097
840.193	3062
840.33	3089
840.467	3104
840.604	3150
840.742	3393
840.879	3043
841.016	3066
841.153	3093
841.29	3329
841.427	3298
841.564	3264
841.701	3287
841.838	3218
841.975	3165
842.112	3180
842.249	3089
842.385	3062
842.522	3214
842.659	3135
842.796	3058
842.933	3097
843.069	3039
843.206	3055
843.343	3218
843.479	3093
843.616	3119
843.752	2883
843.889	2895
844.025	3085
844.162	2883
844.298	3089
844.435	2967
844.571	2922
844.708	3070
844.844	3192
844.98	3211
845.117	3192
845.253	3047
845.389	3001
845.525	3108
845.661	3116
845.798	3020
845.934	3146
846.07	3112
846.206	3222
846.342	3344
846.478	3207
846.614	3138
846.75	3051
846.886	3020
847.022	3268
847.158	3154
847.294	3253
847.429	3253
847.565	3233
847.701	3507
847.837	3020
847.972	3028
848.108	3207
848.244	3146
848.379	2982
848.515	2952
848.65	2941
848.786	3001
848.921	3039
849.057	3104
849.192	3161
849.328	3047
849.463	3108
849.598	3036
849.734	3020
849.869	2982
850.004	2941
850.14	2941
850.275	2929
850.41	2872
850.545	2922
850.68	2956
850.815	2956
850.95	2979
851.085	3245
851.22	3108
851.355	3039
851.49	2986
851.625	3013
851.76	3039
851.895	2937
852.03	2902
852.165	3028
852.299	3097
852.434	3169
852.569	3146
852.703	3161
852.838	3256
852.973	3340
853.107	3332
853.242	3161
853.376	3070
853.511	2990
853.645	3058
853.78	3230
853.914	3131
854.048	3116
854.183	3089
854.317	3157
854.451	3291
854.585	3142
854.72	3123
854.854	3211
854.988	3089
855.122	3104
855.256	2986
855.39	3112
855.524	3253
855.658	3173
855.792	3150
855.926	3203
856.06	3214
856.194	3249
856.327	3195
856.461	3089
856.595	3097
856.729	3097
856.862	3226
856.996	3165
857.13	3233
857.263	3211
857.397	3233
857.53	3135
857.664	3188
857.797	3249
857.931	3275
858.064	3184
858.197	3253
858.331	3142
858.464	3085
858.597	2986
858.731	3112
858.864	3131
858.997	3108
859.13	3154
859.263	3180
859.396	3222
859.529	3085
859.662	3062
859.795	3047
859.928	3154
860.061	3256
860.194	3268
860.327	3150
860.46	3093
860.592	3214
860.725	3199
860.858	3256
860.99	3123
861.123	3081
861.256	3047
861.388	3135
861.521	3854
861.653	3036
861.786	3009
861.918	2994
862.05	3062
862.183	3062
862.315	3176
862.447	3214
862.58	3108
862.712	2933
862.844	2868
862.976	3017
863.108	3005
863.24	3294
863.372	2872
863.504	2982
863.636	2910
863.768	3009
863.9	3017
864.032	2902
864.164	2960
864.296	3017
864.428	3062
864.559	3097
864.691	3062
864.823	3055
864.954	2998
865.086	3058
865.217	2979
865.349	2929
865.48	3020
865.612	3020
865.743	3157
865.875	3017
866.006	2956
866.137	3009
866.269	2944
866.4	2929
866.531	2902
866.662	2899
866.793	2941
866.924	2914
867.055	2929
867.186	2918
867.317	2872
867.448	2823
867.579	2826
867.71	2845
867.841	2830
867.972	2902
868.103	2891
868.233	2914
868.364	2910
868.495	2857
868.625	3081
868.756	3176
868.886	2952
869.017	3055
869.147	3195
869.278	3142
869.408	3032
869.539	3043
869.669	3135
869.799	3028
869.929	3123
870.06	3104
870.19	3329
870.32	3287
870.45	3298
870.58	3389
870.71	3481
870.84	3447
870.97	3291
871.1	3207
871.23	3504
871.36	3447
871.489	3363
871.619	3374
871.749	3469
871.879	3393
872.008	3515
872.138	3370
872.267	3268
872.397	3142
872.526	3093
872.656	3017
872.785	3081
872.915	3207
873.044	3264
873.173	3237
873.303	3222
873.432	3188
873.561	3279
873.69	3180
873.819	3131
873.948	3195
874.077	3081
874.206	3043
874.335	3119
874.464	3222
874.593	3351
874.722	3256
874.851	3412
874.979	3389
875.108	3310
875.237	3188
875.365	3173
875.494	3188
875.623	3218
875.751	3100
875.88	3108
876.008	3211
876.136	3203
876.265	3370
876.393	3473
876.521	3389
876.65	3428
876.778	3325
876.906	3256
877.034	3199
877.162	3230
877.29	3180
877.418	3253
877.546	3222
877.674	3233
877.802	3222
877.93	3264
878.058	3154
878.185	3108
878.313	3180
878.441	3199
878.568	3024
878.696	3157
878.824	3230
878.951	3317
879.079	3435
879.206	3618
879.333	3466
879.461	3340
879.588	3336
879.715	3500
879.842	3530
879.97	3378
880.097	3157
880.224	3131
880.351	3169
880.478	3222
880.605	3192
880.732	3188
880.859	3488
880.986	3310
881.112	3340
881.239	3195
881.366	3104
881.493	3024
881.619	3005
881.746	3043
881.872	3074
881.999	3089
882.125	3135
882.252	3237
882.378	3344
882.505	3397
882.631	3313
882.757	3188
882.883	3218
883.01	3192
883.136	3161
883.262	3085
883.388	3116
883.514	3313
883.64	3378
883.766	3325
883.892	3180
884.018	3245
884.143	3393
884.269	3561
884.395	3226
884.52	3169
884.646	3173
884.772	3089
884.897	3138
885.023	3192
885.148	3336
885.274	3405
885.399	3370
885.524	3298
885.65	3245
885.775	3348
885.9	3260
886.025	3405
886.15	3386
886.275	3294
886.4	3230
886.525	3298
886.65	3279
886.775	3256
886.9	3492
887.025	3622
887.149	3397
887.274	3264
887.399	3207
887.523	3211
887.648	3188
887.773	3214
887.897	3367
888.021	3412
888.146	3272
888.27	3424
888.395	3530
888.519	3443
888.643	3439
888.767	3458
888.891	3306
889.015	3241
889.139	3313
889.263	3272
889.387	3416
889.511	3492
889.635	3428
889.759	3310
889.883	3306
890.006	3393
890.13	3473
890.254	3302
890.377	3302
890.501	3226
890.624	3199
890.748	3313
890.871	3184
890.995	3112
891.118	3043
891.241	3195
891.364	3218
891.488	3325
891.611	3161
891.734	3222
891.857	3245
891.98	3230
892.103	3336
892.226	3287
892.349	3222
892.471	3142
892.594	3237
892.717	3298
892.839	3291
892.962	3313
893.085	3363
893.207	3268
893.33	3154
893.452	3214
893.575	3382
893.697	3245
893.819	3466
893.941	3511
894.064	3485
894.186	3260
894.308	3294
894.43	3443
894.552	3549
894.674	3469
894.796	3283
894.918	3329
895.04	3272
895.161	3412
895.283	3386
895.405	3306
895.526	3386
895.648	3405
895.769	3469
895.891	3450
896.012	3500
896.134	3477
896.255	3370
896.376	3351
896.498	3386
896.619	3431
896.74	3393
896.861	3420
896.982	3682
897.103	3876
897.224	3610
897.345	3485
897.466	3428
897.587	3500
897.708	3637
897.828	3523
897.949	3462
898.07	3317
898.19	3405
898.311	3641
898.431	3492
898.552	3542
898.672	3614
898.792	3599
898.913	3496
899.033	3420
899.153	3298
899.273	3192
899.393	3275
899.513	3348
899.633	3321
899.753	3329
899.873	3313
899.993	3370
900.113	3329
900.232	3386
900.352	3374
900.472	3287
900.591	3207
900.711	3287
900.83	3230
900.95	3382
901.069	3450
901.189	3370
901.308	3176
901.427	3138
901.546	3192
901.665	3313
901.784	3313
901.904	3249
902.023	3138
902.141	3024
902.26	3017
902.379	3142
902.498	3089
902.617	3058
902.735	3199
902.854	3298
902.973	3169
903.091	3036
903.21	3070
903.328	3116
903.446	3100
903.565	3077
903.683	3207
903.801	3127
903.919	3237
904.038	3260
904.156	3165
904.274	3241
904.392	3272
904.51	3264
904.627	3313
904.745	3454
904.863	3477
904.981	3272
905.098	3165
905.216	3203
905.334	3302
905.451	3287
905.569	3298
905.686	3447
905.803	3424
905.921	3279
906.038	3382
906.155	3340
906.272	3264
906.389	3329
906.506	3241
906.623	3237
906.74	3256
906.857	3195
906.974	3275
907.091	3443
907.208	3549
907.324	3462
907.441	3401
907.557	3233
907.674	3203
907.79	3207
907.907	3279
908.023	3386
908.139	3405
908.256	3336
908.372	3355
908.488	3329
908.604	3260
908.72	3222
908.836	3283
908.952	3306
909.068	3306
909.184	3473
909.3	3378
909.415	3534
909.531	3477
909.647	3272
909.762	3272
909.878	3237
909.993	3329
910.108	3310
910.224	3344
910.339	3439
910.454	3294
910.57	3302
910.685	3237
910.8	3576
910.915	3553
911.03	3416
911.145	3264
911.259	3287
911.374	3355
911.489	3294
911.604	3249
911.718	3116
911.833	3142
911.947	3028
912.062	2994
912.176	3188
912.291	3127
912.405	3211
912.519	3420
912.633	3473
912.748	3344
912.862	3233
912.976	3142
913.09	3055
913.204	3150
913.318	3199
913.431	3329
913.545	3340
913.659	3386
913.772	3332
913.886	3222
914	3176
914.113	3321
914.226	3424
914.34	3313
914.453	3195
914.566	3374
914.68	3283
914.793	3325
914.906	3131
915.019	3112
915.132	3100
915.245	3203
915.358	3241
915.47	3226
915.583	3245
915.696	3317
915.809	3397
915.921	3420
916.034	3253
916.146	3253
916.259	3199
916.371	3393
916.483	3389
916.595	3283
916.708	3336
916.82	3351
916.932	3367
917.044	3344
917.156	3336
917.268	3272
917.38	3344
917.491	3351
917.603	3386
917.715	3458
917.826	3481
917.938	3393
918.049	3272
918.161	3431
918.272	3618
918.384	3568
918.495	3504
918.606	3344
918.717	3310
918.828	3393
918.939	3462
919.05	3374
919.161	3416
919.272	3199
919.383	3302
919.494	3504
919.604	3717
919.715	3488
919.826	3435
919.936	3462
920.047	3652
920.157	3595
920.267	3778
920.378	3648
920.488	3618
920.598	3835
920.708	4048
920.818	3846
920.928	3869
921.038	4048
921.148	4029
921.258	3778
921.368	3663
921.477	3595
921.587	3587
921.697	3485
921.806	3675
921.916	3538
922.025	3420
922.134	3428
922.244	3374
922.353	3500
922.462	3313
922.571	3272
922.68	3142
922.789	3127
922.898	3199
923.007	3116
923.116	3241
923.224	3218
923.333	3211
923.442	3169
923.55	3150
923.659	3173
923.767	3283
923.876	3188
923.984	3272
924.092	3154
924.201	3249
924.309	3298
924.417	3294
924.525	3268
924.633	3283
924.741	4223
924.849	3077
924.956	3283
925.064	3116
925.172	3062
925.279	3112
925.387	3275
925.494	3245
925.602	3420
925.709	3359
925.816	3245
925.924	3298
926.031	3431
926.138	3378
926.245	3409
926.352	3317
926.459	3431
926.566	3545
926.673	3393
926.779	3291
926.886	3283
926.993	3192
927.099	3112
927.206	3131
927.312	3203
927.419	3272
927.525	3283
927.631	3329
927.737	3214
927.843	3188
927.95	3070
928.056	3161
928.162	3180
928.267	3306
928.373	3911
928.479	3367
928.585	3116
928.69	3279
928.796	3298
928.901	3192
929.007	3089
929.112	3275
929.218	3211
929.323	3203
929.428	3192
929.533	3378
929.638	3157
929.743	3222
929.848	3260
929.953	3272
930.058	3176
930.163	3036
930.267	3097
930.372	3260
930.477	3077
930.581	3348
930.685	3169
930.79	3085
930.894	3138
930.998	3135
931.103	3332
931.207	3028
931.311	2998
931.415	2971
931.519	2838
931.623	2880
