Data from test_V78500241_634.txt Node
Date: Fri Mar 25 16:19:35 CST 2022
User: usil
Spectrometer: V785-0024
Trigger mode: 0
Integration Time (sec): 4.000000E-1
Scans to average: 1
Nonlinearity correction enabled: false
Boxcar width: 0
Storing dark spectrum: false
XAxis mode: Wavelengths
Number of Pixels in Spectrum: 1024
>>>>>Begin Spectral Data<<<<<
801.071	2914
801.214	2963
801.356	2906
801.499	2918
801.641	2914
801.783	2948
801.926	3077
802.068	2986
802.211	3005
802.353	3032
802.496	2967
802.638	3017
802.78	3104
802.923	3066
803.065	3013
803.208	2918
803.35	2937
803.492	2922
803.635	2937
803.777	2773
803.919	2857
804.061	3260
804.204	2960
804.346	2967
804.488	2861
804.63	2990
804.773	2845
804.915	2925
805.057	3070
805.199	2925
805.341	2994
805.483	3051
805.626	3001
805.768	3001
805.91	3104
806.052	3119
806.194	3039
806.336	3233
806.478	3009
806.62	3005
806.762	3013
806.904	3043
807.046	3180
807.188	2990
807.33	2941
807.472	2982
807.614	2922
807.756	2982
807.898	2948
808.04	2895
808.182	3001
808.324	2948
808.465	2895
808.607	2880
808.749	2811
808.891	2891
809.033	3005
809.174	3005
809.316	2864
809.458	2891
809.6	2838
809.741	2819
809.883	2746
810.025	2830
810.166	2906
810.308	2842
810.45	2872
810.591	2769
810.733	2804
810.875	2842
811.016	2819
811.158	2735
811.299	2807
811.441	2933
811.582	2944
811.724	2845
811.865	2857
812.007	2887
812.148	2895
812.29	2845
812.431	2918
812.573	2906
812.714	2982
812.855	3047
812.997	3085
813.138	3138
813.279	3017
813.421	2986
813.562	2979
813.703	2845
813.845	2922
813.986	2758
814.127	2739
814.268	2815
814.41	2864
814.551	2823
814.692	2883
814.833	2834
814.974	2876
815.115	2967
815.256	2872
815.397	2811
815.539	2853
815.68	2792
815.821	2785
815.962	2941
816.103	2899
816.244	2895
816.385	2887
816.526	2982
816.666	2925
816.807	2750
816.948	2883
817.089	2899
817.23	2883
817.371	2796
817.512	2792
817.653	2849
817.793	2861
817.934	2914
818.075	2937
818.216	3009
818.356	3051
818.497	2861
818.638	2811
818.778	2800
818.919	2807
819.06	2777
819.2	2891
819.341	2838
819.481	2842
819.622	2944
819.762	3074
819.903	3055
820.043	2956
820.184	2899
820.324	2864
820.465	3058
820.605	2998
820.746	3043
820.886	2902
821.026	3116
821.167	3161
821.307	3249
821.447	3253
821.588	3283
821.728	3203
821.868	3173
822.008	3104
822.149	3218
822.289	3233
822.429	3085
822.569	3108
822.709	3176
822.849	3047
822.99	3074
823.13	3154
823.27	3199
823.41	3097
823.55	3150
823.69	3173
823.83	3169
823.97	3104
824.11	2994
824.25	3020
824.389	3062
824.529	3131
824.669	3085
824.809	3192
824.949	3287
825.089	3211
825.228	3165
825.368	2986
825.508	2979
825.648	2982
825.787	2998
825.927	3051
826.067	2979
826.206	2960
826.346	3013
826.485	3074
826.625	3070
826.765	3268
826.904	3199
827.044	3017
827.183	2925
827.323	2857
827.462	2990
827.601	2899
827.741	2941
827.88	2994
828.02	2853
828.159	3001
828.298	3043
828.437	3119
828.577	3032
828.716	3241
828.855	3074
828.994	2925
829.134	2925
829.273	2925
829.412	2845
829.551	2842
829.69	2876
829.829	3005
829.968	3135
830.107	2990
830.246	3039
830.385	2910
830.524	2902
830.663	2830
830.802	2724
830.941	2648
831.08	2659
831.219	2758
831.357	2754
831.496	2982
831.635	2705
831.774	2670
831.913	2663
832.051	2556
832.19	2590
832.329	2705
832.467	2530
832.606	2492
832.744	2590
832.883	2575
833.022	2606
833.16	2667
833.299	2678
833.437	2716
833.576	2659
833.714	2716
833.852	2701
833.991	2746
834.129	2845
834.267	2792
834.406	2800
834.544	2857
834.682	2868
834.821	2857
834.959	3074
835.097	2864
835.235	3036
835.373	2952
835.511	3024
835.65	2948
835.788	2948
835.926	2823
836.064	2815
836.202	2849
836.34	3093
836.478	3150
836.615	3093
836.753	3169
836.891	3157
837.029	3157
837.167	3123
837.305	3032
837.443	3097
837.58	2937
837.718	3138
837.856	3062
837.993	3020
838.131	3119
838.269	3097
838.406	3085
838.544	3070
838.681	2948
838.819	2941
838.956	2811
839.094	2830
839.231	2910
839.369	2986
839.506	3382
839.643	3199
839.781	3001
839.918	2960
840.055	3039
840.193	3039
840.33	3032
840.467	3127
840.604	3127
840.742	3416
840.879	3070
841.016	3028
841.153	3108
841.29	3317
841.427	3287
841.564	3249
841.701	3332
841.838	3211
841.975	3184
842.112	3199
842.249	3074
842.385	3058
842.522	3272
842.659	3089
842.796	3093
842.933	3097
843.069	3043
843.206	3051
843.343	3184
843.479	3077
843.616	3169
843.752	2929
843.889	2857
844.025	3039
844.162	2876
844.298	3066
844.435	2963
844.571	2929
844.708	3070
844.844	3161
844.98	3184
845.117	3199
845.253	3070
845.389	2967
845.525	3119
845.661	3116
845.798	3013
845.934	3100
846.07	3039
846.206	3199
846.342	3287
846.478	3233
846.614	3074
846.75	3036
846.886	3039
847.022	3237
847.158	3112
847.294	3222
847.429	3222
847.565	3233
847.701	3523
847.837	3058
847.972	2971
848.108	3119
848.244	3154
848.379	2963
848.515	2948
848.65	2891
848.786	2979
848.921	2982
849.057	3104
849.192	3131
849.328	3085
849.463	3074
849.598	3043
849.734	3043
849.869	2967
850.004	2929
850.14	2971
850.275	2925
850.41	2849
850.545	2895
850.68	2925
850.815	2967
850.95	2948
851.085	3188
851.22	3100
851.355	2994
851.49	2937
851.625	3009
851.76	3017
851.895	2918
852.03	2899
852.165	3051
852.299	3108
852.434	3173
852.569	3119
852.703	3180
852.838	3249
852.973	3321
853.107	3340
853.242	3161
853.376	3074
853.511	2963
853.645	3020
853.78	3237
853.914	3116
854.048	3127
854.183	3085
854.317	3161
854.451	3306
854.585	3123
854.72	3085
854.854	3207
854.988	3062
855.122	3058
855.256	2975
855.39	3097
855.524	3249
855.658	3161
855.792	3157
855.926	3195
856.06	3211
856.194	3233
856.327	3154
856.461	3039
856.595	3074
856.729	3077
856.862	3241
856.996	3135
857.13	3211
857.263	3211
857.397	3241
857.53	3119
857.664	3222
857.797	3249
857.931	3230
858.064	3142
858.197	3249
858.331	3100
858.464	3070
858.597	2986
858.731	3081
858.864	3135
858.997	3074
859.13	3157
859.263	3165
859.396	3203
859.529	3077
859.662	3039
859.795	3005
859.928	3116
860.061	3272
860.194	3253
860.327	3131
860.46	3093
860.592	3233
860.725	3218
860.858	3279
860.99	3108
861.123	3055
861.256	3039
861.388	3154
861.521	3686
861.653	3005
861.786	3009
861.918	2998
862.05	3074
862.183	3085
862.315	3138
862.447	3222
862.58	3070
862.712	2937
862.844	2872
862.976	3039
863.108	3020
863.24	3367
863.372	2880
863.504	2948
863.636	2941
863.768	3055
863.9	2944
864.032	2895
864.164	2937
864.296	3017
864.428	3070
864.559	3127
864.691	3047
864.823	3089
864.954	3020
865.086	3081
865.217	2956
865.349	2967
865.48	2948
865.612	3001
865.743	3192
865.875	3017
866.006	2952
866.137	2990
866.269	2956
866.4	2922
866.531	2922
866.662	2910
866.793	2899
866.924	2895
867.055	2944
867.186	2933
867.317	2883
867.448	2830
867.579	2819
867.71	2861
867.841	2807
867.972	2895
868.103	2887
868.233	2891
868.364	2861
868.495	2876
868.625	3066
868.756	3165
868.886	2960
869.017	3047
869.147	3161
869.278	3154
869.408	3028
869.539	3043
869.669	3097
869.799	3036
869.929	3085
870.06	3108
870.19	3348
870.32	3287
870.45	3287
870.58	3355
870.71	3466
870.84	3424
870.97	3249
871.1	3211
871.23	3447
871.36	3420
871.489	3359
871.619	3401
871.749	3386
871.879	3393
872.008	3530
872.138	3367
872.267	3298
872.397	3135
872.526	3116
872.656	2990
872.785	3074
872.915	3256
873.044	3313
873.173	3199
873.303	3230
873.432	3226
873.561	3226
873.69	3146
873.819	3135
873.948	3214
874.077	3097
874.206	3036
874.335	3093
874.464	3161
874.593	3332
874.722	3272
874.851	3363
874.979	3363
875.108	3302
875.237	3165
875.365	3157
875.494	3176
875.623	3260
875.751	3081
875.88	3123
876.008	3173
876.136	3203
876.265	3317
876.393	3504
876.521	3393
876.65	3336
876.778	3329
876.906	3214
877.034	3207
877.162	3245
877.29	3188
877.418	3249
877.546	3241
877.674	3188
877.802	3237
877.93	3218
878.058	3161
878.185	3112
878.313	3218
878.441	3207
878.568	3081
878.696	3146
878.824	3222
878.951	3302
879.079	3435
879.206	3568
879.333	3435
879.461	3363
879.588	3329
879.715	3443
879.842	3549
879.97	3382
880.097	3176
880.224	3108
880.351	3211
880.478	3260
880.605	3218
880.732	3131
880.859	3454
880.986	3268
881.112	3283
881.239	3165
881.366	3066
881.493	3005
881.619	3013
881.746	3051
881.872	3074
881.999	3097
882.125	3188
882.252	3222
882.378	3283
882.505	3428
882.631	3275
882.757	3157
882.883	3211
883.01	3165
883.136	3176
883.262	3077
883.388	3100
883.514	3321
883.64	3344
883.766	3321
883.892	3169
884.018	3253
884.143	3393
884.269	3500
884.395	3214
884.52	3119
884.646	3188
884.772	3093
884.897	3062
885.023	3161
885.148	3336
885.274	3439
885.399	3363
885.524	3260
885.65	3230
885.775	3291
885.9	3283
886.025	3439
886.15	3348
886.275	3249
886.4	3245
886.525	3291
886.65	3287
886.775	3302
886.9	3485
887.025	3618
887.149	3420
887.274	3230
887.399	3180
887.523	3241
887.648	3192
887.773	3146
887.897	3409
888.021	3389
888.146	3253
888.27	3447
888.395	3542
888.519	3458
888.643	3431
888.767	3454
888.891	3287
889.015	3188
889.139	3291
889.263	3237
889.387	3416
889.511	3500
889.635	3473
889.759	3272
889.883	3302
890.006	3405
890.13	3488
890.254	3233
890.377	3317
890.501	3176
890.624	3184
890.748	3294
890.871	3199
890.995	3085
891.118	3062
891.241	3173
891.364	3233
891.488	3306
891.611	3127
891.734	3230
891.857	3291
891.98	3237
892.103	3344
892.226	3264
892.349	3188
892.471	3100
892.594	3230
892.717	3272
892.839	3275
892.962	3310
893.085	3332
893.207	3253
893.33	3119
893.452	3207
893.575	3336
893.697	3275
893.819	3412
893.941	3496
894.064	3420
894.186	3256
894.308	3279
894.43	3454
894.552	3549
894.674	3477
894.796	3260
894.918	3302
895.04	3233
895.161	3458
895.283	3412
895.405	3298
895.526	3298
895.648	3416
895.769	3370
895.891	3450
896.012	3458
896.134	3443
896.255	3386
896.376	3389
896.498	3340
896.619	3435
896.74	3363
896.861	3389
896.982	3660
897.103	3850
897.224	3576
897.345	3530
897.466	3431
897.587	3507
897.708	3580
897.828	3519
897.949	3443
898.07	3317
898.19	3443
898.311	3557
898.431	3416
898.552	3504
898.672	3591
898.792	3561
898.913	3519
899.033	3397
899.153	3275
899.273	3173
899.393	3268
899.513	3306
899.633	3321
899.753	3317
899.873	3264
899.993	3367
900.113	3355
900.232	3416
900.352	3298
900.472	3306
900.591	3192
900.711	3294
900.83	3211
900.95	3409
901.069	3530
901.189	3325
901.308	3173
901.427	3108
901.546	3169
901.665	3272
901.784	3321
901.904	3188
902.023	3104
902.141	3024
902.26	2986
902.379	3138
902.498	3047
902.617	2998
902.735	3195
902.854	3199
902.973	3188
903.091	3043
903.21	3039
903.328	3131
903.446	3104
903.565	3093
903.683	3180
903.801	3127
903.919	3256
904.038	3275
904.156	3173
904.274	3275
904.392	3272
904.51	3253
904.627	3374
904.745	3458
904.863	3492
904.981	3268
905.098	3180
905.216	3260
905.334	3291
905.451	3294
905.569	3291
905.686	3439
905.803	3412
905.921	3279
906.038	3420
906.155	3363
906.272	3249
906.389	3344
906.506	3226
906.623	3245
906.74	3302
906.857	3199
906.974	3222
907.091	3439
907.208	3595
907.324	3477
907.441	3412
907.557	3233
907.674	3260
907.79	3222
907.907	3241
908.023	3386
908.139	3367
908.256	3294
908.372	3359
908.488	3336
908.604	3253
908.72	3218
908.836	3272
908.952	3279
909.068	3340
909.184	3504
909.3	3409
909.415	3469
909.531	3435
909.647	3291
909.762	3279
909.878	3237
909.993	3374
910.108	3336
910.224	3351
910.339	3397
910.454	3336
910.57	3264
910.685	3211
910.8	3606
910.915	3542
911.03	3424
911.145	3233
911.259	3298
911.374	3283
911.489	3245
911.604	3241
911.718	3093
911.833	3123
911.947	3039
912.062	2975
912.176	3150
912.291	3135
912.405	3211
912.519	3401
912.633	3469
912.748	3344
912.862	3245
912.976	3203
913.09	3047
913.204	3146
913.318	3203
913.431	3321
913.545	3336
913.659	3389
913.772	3310
913.886	3222
914	3199
914.113	3313
914.226	3397
914.34	3313
914.453	3195
914.566	3386
914.68	3287
914.793	3317
914.906	3119
915.019	3108
915.132	3055
915.245	3154
915.358	3199
915.47	3218
915.583	3233
915.696	3230
915.809	3359
915.921	3386
916.034	3218
916.146	3245
916.259	3199
916.371	3340
916.483	3351
916.595	3264
916.708	3340
916.82	3310
916.932	3291
917.044	3313
917.156	3359
917.268	3218
917.38	3310
917.491	3302
917.603	3367
917.715	3428
917.826	3447
917.938	3359
918.049	3249
918.161	3393
918.272	3538
918.384	3561
918.495	3485
918.606	3317
918.717	3294
918.828	3332
918.939	3393
919.05	3306
919.161	3363
919.272	3218
919.383	3291
919.494	3530
919.604	3667
919.715	3477
919.826	3409
919.936	3443
920.047	3587
920.157	3553
920.267	3736
920.378	3587
920.488	3549
920.598	3778
920.708	3945
920.818	3865
920.928	3793
921.038	4040
921.148	4002
921.258	3770
921.368	3648
921.477	3549
921.587	3587
921.697	3469
921.806	3686
921.916	3542
922.025	3344
922.134	3370
922.244	3325
922.353	3439
922.462	3275
922.571	3268
922.68	3138
922.789	3077
922.898	3176
923.007	3116
923.116	3230
923.224	3241
923.333	3195
923.442	3142
923.55	3131
923.659	3150
923.767	3275
923.876	3142
923.984	3283
924.092	3127
924.201	3253
924.309	3237
924.417	3283
924.525	3199
924.633	3241
924.741	4029
924.849	3081
924.956	3275
925.064	3097
925.172	3070
925.279	3157
925.387	3279
925.494	3260
925.602	3367
925.709	3386
925.816	3203
925.924	3329
926.031	3428
926.138	3389
926.245	3374
926.352	3272
926.459	3439
926.566	3473
926.673	3393
926.779	3317
926.886	3272
926.993	3188
927.099	3157
927.206	3119
927.312	3157
927.419	3253
927.525	3241
927.631	3306
927.737	3154
927.843	3150
927.95	3058
928.056	3157
928.162	3207
928.267	3275
928.373	3831
928.479	3329
928.585	3066
928.69	3275
928.796	3313
928.901	3161
929.007	3135
929.112	3256
929.218	3211
929.323	3195
929.428	3207
929.533	3359
929.638	3161
929.743	3211
929.848	3291
929.953	3256
930.058	3146
930.163	3043
930.267	3089
930.372	3272
930.477	3039
930.581	3351
930.685	3233
930.79	3089
930.894	3184
930.998	3135
931.103	3313
931.207	2975
931.311	2933
931.415	2937
931.519	2849
931.623	2857
