Data from test_V78500241_1948.txt Node
Date: Fri Mar 25 16:28:41 CST 2022
User: usil
Spectrometer: V785-0024
Trigger mode: 0
Integration Time (sec): 4.000000E-1
Scans to average: 1
Nonlinearity correction enabled: false
Boxcar width: 0
Storing dark spectrum: false
XAxis mode: Wavelengths
Number of Pixels in Spectrum: 1024
>>>>>Begin Spectral Data<<<<<
801.071	2906
801.214	2971
801.356	2864
801.499	2914
801.641	2887
801.783	2979
801.926	3055
802.068	2975
802.211	3032
802.353	3043
802.496	2971
802.638	3009
802.78	3051
802.923	3066
803.065	2979
803.208	2872
803.35	2910
803.492	2941
803.635	2960
803.777	2800
803.919	2899
804.061	3211
804.204	2971
804.346	2918
804.488	2876
804.63	3028
804.773	2883
804.915	2922
805.057	3081
805.199	2925
805.341	3009
805.483	3024
805.626	3024
805.768	2944
805.91	3131
806.052	3127
806.194	3043
806.336	3233
806.478	3020
806.62	2979
806.762	2998
806.904	3039
807.046	3214
807.188	2986
807.33	2918
807.472	3001
807.614	2941
807.756	2971
807.898	2960
808.04	2937
808.182	2994
808.324	2971
808.465	2929
808.607	2906
808.749	2826
808.891	2845
809.033	3013
809.174	2971
809.316	2883
809.458	2902
809.6	2766
809.741	2777
809.883	2769
810.025	2872
810.166	2861
810.308	2883
810.45	2864
810.591	2800
810.733	2815
810.875	2826
811.016	2777
811.158	2788
811.299	2800
811.441	2933
811.582	2933
811.724	2823
811.865	2853
812.007	2899
812.148	2887
812.29	2864
812.431	2899
812.573	2960
812.714	2941
812.855	3013
812.997	3066
813.138	3142
813.279	3020
813.421	2971
813.562	2956
813.703	2887
813.845	2887
813.986	2773
814.127	2762
814.268	2845
814.41	2849
814.551	2849
814.692	2876
814.833	2857
814.974	2918
815.115	2963
815.256	2823
815.397	2819
815.539	2861
815.68	2807
815.821	2807
815.962	2914
816.103	2941
816.244	2883
816.385	2880
816.526	2918
816.666	2933
816.807	2773
816.948	2910
817.089	2925
817.23	2876
817.371	2792
817.512	2800
817.653	2868
817.793	2842
817.934	2910
818.075	2952
818.216	3009
818.356	3028
818.497	2895
818.638	2781
818.778	2899
818.919	2785
819.06	2792
819.2	2872
819.341	2823
819.481	2819
819.622	2922
819.762	3116
819.903	3074
820.043	2937
820.184	2902
820.324	2910
820.465	2998
820.605	3028
820.746	3024
820.886	2933
821.026	3100
821.167	3173
821.307	3253
821.447	3302
821.588	3222
821.728	3184
821.868	3214
822.008	3077
822.149	3199
822.289	3241
822.429	3093
822.569	3135
822.709	3203
822.849	3017
822.99	3077
823.13	3150
823.27	3176
823.41	3135
823.55	3161
823.69	3138
823.83	3241
823.97	3108
824.11	3013
824.25	3017
824.389	3058
824.529	3119
824.669	3089
824.809	3184
824.949	3230
825.089	3195
825.228	3203
825.368	2990
825.508	2967
825.648	2994
825.787	3047
825.927	3047
826.067	2975
826.206	2967
826.346	3043
826.485	3077
826.625	3116
826.765	3272
826.904	3157
827.044	2982
827.183	2948
827.323	2891
827.462	2998
827.601	2952
827.741	2929
827.88	2967
828.02	2853
828.159	2998
828.298	3024
828.437	3097
828.577	3039
828.716	3268
828.855	3070
828.994	2902
829.134	2902
829.273	2941
829.412	2849
829.551	2857
829.69	2891
829.829	3017
829.968	3135
830.107	2994
830.246	3001
830.385	2891
830.524	2895
830.663	2842
830.802	2708
830.941	2670
831.08	2644
831.219	2773
831.357	2777
831.496	2960
831.635	2720
831.774	2682
831.913	2655
832.051	2533
832.19	2564
832.329	2727
832.467	2549
832.606	2492
832.744	2594
832.883	2583
833.022	2598
833.16	2640
833.299	2697
833.437	2682
833.576	2716
833.714	2731
833.852	2716
833.991	2796
834.129	2830
834.267	2815
834.406	2804
834.544	2918
834.682	2853
834.821	2876
834.959	3043
835.097	2853
835.235	3058
835.373	3001
835.511	3009
835.65	2975
835.788	2948
835.926	2838
836.064	2788
836.202	2826
836.34	3097
836.478	3157
836.615	3066
836.753	3116
836.891	3207
837.029	3154
837.167	3119
837.305	3097
837.443	3043
837.58	2986
837.718	3123
837.856	3089
837.993	3024
838.131	3100
838.269	3138
838.406	3135
838.544	3104
838.681	2967
838.819	2933
838.956	2811
839.094	2849
839.231	2944
839.369	3036
839.506	3397
839.643	3230
839.781	3009
839.918	2956
840.055	3100
840.193	3028
840.33	3097
840.467	3108
840.604	3150
840.742	3367
840.879	3077
841.016	3017
841.153	3077
841.29	3393
841.427	3268
841.564	3241
841.701	3298
841.838	3218
841.975	3176
842.112	3199
842.249	3058
842.385	3093
842.522	3237
842.659	3119
842.796	3066
842.933	3112
843.069	3058
843.206	3058
843.343	3207
843.479	3062
843.616	3161
843.752	2895
843.889	2895
844.025	3085
844.162	2883
844.298	3127
844.435	2937
844.571	2910
844.708	3062
844.844	3184
844.98	3260
845.117	3195
845.253	3020
845.389	3017
845.525	3108
845.661	3100
845.798	3024
845.934	3135
846.07	3074
846.206	3214
846.342	3291
846.478	3233
846.614	3100
846.75	3039
846.886	3051
847.022	3226
847.158	3146
847.294	3195
847.429	3233
847.565	3173
847.701	3454
847.837	3036
847.972	3020
848.108	3150
848.244	3173
848.379	2967
848.515	2998
848.65	2906
848.786	2952
848.921	3017
849.057	3104
849.192	3173
849.328	3062
849.463	3116
849.598	3043
849.734	3051
849.869	2982
850.004	2937
850.14	2952
850.275	2925
850.41	2861
850.545	2861
850.68	2906
850.815	2941
850.95	2979
851.085	3195
851.22	3108
851.355	3051
851.49	2990
851.625	3001
851.76	2994
851.895	2941
852.03	2914
852.165	3043
852.299	3097
852.434	3165
852.569	3184
852.703	3146
852.838	3237
852.973	3348
853.107	3291
853.242	3161
853.376	3089
853.511	2975
853.645	3028
853.78	3207
853.914	3112
854.048	3112
854.183	3062
854.317	3135
854.451	3291
854.585	3127
854.72	3089
854.854	3157
854.988	3020
855.122	3058
855.256	2979
855.39	3062
855.524	3211
855.658	3127
855.792	3150
855.926	3203
856.06	3203
856.194	3237
856.327	3161
856.461	3089
856.595	3055
856.729	3089
856.862	3237
856.996	3169
857.13	3173
857.263	3260
857.397	3283
857.53	3131
857.664	3184
857.797	3249
857.931	3283
858.064	3131
858.197	3199
858.331	3123
858.464	3100
858.597	3005
858.731	3100
858.864	3165
858.997	3089
859.13	3142
859.263	3154
859.396	3199
859.529	3051
859.662	3058
859.795	3047
859.928	3112
860.061	3291
860.194	3310
860.327	3150
860.46	3123
860.592	3245
860.725	3245
860.858	3256
860.99	3097
861.123	3093
861.256	3009
861.388	3188
861.521	3857
861.653	3055
861.786	3009
861.918	2975
862.05	3066
862.183	3104
862.315	3100
862.447	3173
862.58	3089
862.712	2918
862.844	2880
862.976	3009
863.108	2990
863.24	3317
863.372	2876
863.504	2963
863.636	2948
863.768	3028
863.9	3013
864.032	2929
864.164	2948
864.296	2986
864.428	3043
864.559	3055
864.691	3055
864.823	3066
864.954	3036
865.086	3039
865.217	2975
865.349	2956
865.48	2967
865.612	3020
865.743	3165
865.875	2994
866.006	2948
866.137	2982
866.269	2948
866.4	2944
866.531	2883
866.662	2868
866.793	2895
866.924	2876
867.055	2971
867.186	2910
867.317	2864
867.448	2811
867.579	2849
867.71	2845
867.841	2804
867.972	2910
868.103	2902
868.233	2922
868.364	2880
868.495	2868
868.625	3100
868.756	3195
868.886	2944
869.017	3017
869.147	3169
869.278	3184
869.408	3039
869.539	3032
869.669	3104
869.799	3013
869.929	3104
870.06	3097
870.19	3310
870.32	3287
870.45	3321
870.58	3374
870.71	3481
870.84	3420
870.97	3272
871.1	3237
871.23	3488
871.36	3439
871.489	3355
871.619	3412
871.749	3416
871.879	3439
872.008	3473
872.138	3336
872.267	3253
872.397	3157
872.526	3074
872.656	3020
872.785	3077
872.915	3211
873.044	3226
873.173	3230
873.303	3272
873.432	3249
873.561	3233
873.69	3135
873.819	3131
873.948	3226
874.077	3097
874.206	3047
874.335	3051
874.464	3173
874.593	3313
874.722	3207
874.851	3351
874.979	3329
875.108	3306
875.237	3222
875.365	3154
875.494	3127
875.623	3275
875.751	3104
875.88	3104
876.008	3176
876.136	3222
876.265	3336
876.393	3538
876.521	3435
876.65	3382
876.778	3344
876.906	3211
877.034	3199
877.162	3188
877.29	3207
877.418	3218
877.546	3226
877.674	3268
877.802	3226
877.93	3214
878.058	3127
878.185	3097
878.313	3199
878.441	3226
878.568	3051
878.696	3112
878.824	3226
878.951	3272
879.079	3450
879.206	3663
879.333	3424
879.461	3321
879.588	3355
879.715	3507
879.842	3568
879.97	3389
880.097	3180
880.224	3146
880.351	3176
880.478	3245
880.605	3188
880.732	3207
880.859	3492
880.986	3294
881.112	3336
881.239	3230
881.366	3127
881.493	3089
881.619	3005
881.746	3062
881.872	3077
881.999	3070
882.125	3097
882.252	3222
882.378	3272
882.505	3454
882.631	3317
882.757	3104
882.883	3195
883.01	3195
883.136	3142
883.262	3074
883.388	3131
883.514	3317
883.64	3367
883.766	3348
883.892	3176
884.018	3230
884.143	3443
884.269	3492
884.395	3207
884.52	3157
884.646	3138
884.772	3093
884.897	3112
885.023	3184
885.148	3321
885.274	3386
885.399	3370
885.524	3264
885.65	3268
885.775	3291
885.9	3283
886.025	3443
886.15	3325
886.275	3306
886.4	3260
886.525	3332
886.65	3245
886.775	3264
886.9	3507
887.025	3622
887.149	3386
887.274	3253
887.399	3192
887.523	3169
887.648	3123
887.773	3195
887.897	3367
888.021	3378
888.146	3306
888.27	3424
888.395	3545
888.519	3420
888.643	3458
888.767	3428
888.891	3325
889.015	3230
889.139	3275
889.263	3268
889.387	3405
889.511	3519
889.635	3428
889.759	3279
889.883	3298
890.006	3374
890.13	3519
890.254	3245
890.377	3332
890.501	3176
890.624	3192
890.748	3279
890.871	3188
890.995	3116
891.118	3085
891.241	3161
891.364	3203
891.488	3310
891.611	3188
891.734	3207
891.857	3317
891.98	3188
892.103	3325
892.226	3275
892.349	3203
892.471	3089
892.594	3207
892.717	3294
892.839	3275
892.962	3279
893.085	3374
893.207	3313
893.33	3150
893.452	3176
893.575	3329
893.697	3237
893.819	3500
893.941	3481
894.064	3435
894.186	3310
894.308	3291
894.43	3447
894.552	3504
894.674	3488
894.796	3249
894.918	3287
895.04	3275
895.161	3466
895.283	3340
895.405	3287
895.526	3363
895.648	3409
895.769	3424
895.891	3485
896.012	3485
896.134	3481
896.255	3412
896.376	3367
896.498	3397
896.619	3416
896.74	3325
896.861	3355
896.982	3701
897.103	3785
897.224	3603
897.345	3496
897.466	3416
897.587	3515
897.708	3629
897.828	3564
897.949	3420
898.07	3321
898.19	3370
898.311	3580
898.431	3424
898.552	3523
898.672	3553
898.792	3542
898.913	3515
899.033	3405
899.153	3249
899.273	3226
899.393	3268
899.513	3306
899.633	3325
899.753	3313
899.873	3272
899.993	3389
900.113	3363
900.232	3397
900.352	3363
900.472	3306
900.591	3207
900.711	3294
900.83	3256
900.95	3393
901.069	3469
901.189	3310
901.308	3207
901.427	3135
901.546	3203
901.665	3283
901.784	3294
901.904	3237
902.023	3131
902.141	3005
902.26	2979
902.379	3119
902.498	3097
902.617	3070
902.735	3176
902.854	3241
902.973	3180
903.091	3036
903.21	3062
903.328	3123
903.446	3097
903.565	3142
903.683	3199
903.801	3119
903.919	3275
904.038	3283
904.156	3184
904.274	3272
904.392	3294
904.51	3275
904.627	3340
904.745	3439
904.863	3553
904.981	3272
905.098	3165
905.216	3214
905.334	3279
905.451	3287
905.569	3336
905.686	3428
905.803	3428
905.921	3245
906.038	3405
906.155	3317
906.272	3241
906.389	3329
906.506	3241
906.623	3233
906.74	3253
906.857	3180
906.974	3245
907.091	3435
907.208	3580
907.324	3473
907.441	3363
907.557	3230
907.674	3230
907.79	3218
907.907	3294
908.023	3348
908.139	3374
908.256	3325
908.372	3374
908.488	3363
908.604	3268
908.72	3214
908.836	3272
908.952	3294
909.068	3344
909.184	3504
909.3	3382
909.415	3488
909.531	3462
909.647	3283
909.762	3348
909.878	3302
909.993	3382
910.108	3374
910.224	3351
910.339	3405
910.454	3344
910.57	3283
910.685	3233
910.8	3599
910.915	3572
911.03	3363
911.145	3256
911.259	3272
911.374	3348
911.489	3211
911.604	3226
911.718	3142
911.833	3173
911.947	3074
912.062	2967
912.176	3161
912.291	3184
912.405	3199
912.519	3443
912.633	3469
912.748	3336
912.862	3283
912.976	3123
913.09	3058
913.204	3142
913.318	3222
913.431	3367
913.545	3355
913.659	3389
913.772	3329
913.886	3237
914	3192
914.113	3332
914.226	3420
914.34	3336
914.453	3211
914.566	3393
914.68	3283
914.793	3325
914.906	3165
915.019	3104
915.132	3051
915.245	3195
915.358	3176
915.47	3184
915.583	3279
915.696	3298
915.809	3412
915.921	3443
916.034	3264
916.146	3272
916.259	3249
916.371	3405
916.483	3329
916.595	3283
916.708	3302
916.82	3359
916.932	3359
917.044	3370
917.156	3367
917.268	3268
917.38	3291
917.491	3291
917.603	3389
917.715	3431
917.826	3473
917.938	3389
918.049	3249
918.161	3439
918.272	3580
918.384	3568
918.495	3473
918.606	3313
918.717	3287
918.828	3340
918.939	3412
919.05	3306
919.161	3332
919.272	3142
919.383	3279
919.494	3515
919.604	3679
919.715	3511
919.826	3435
919.936	3481
920.047	3584
920.157	3542
920.267	3797
920.378	3599
920.488	3526
920.598	3785
920.708	3945
920.818	3812
920.928	3842
921.038	4044
921.148	3991
921.258	3679
921.368	3625
921.477	3584
921.587	3545
921.697	3462
921.806	3629
921.916	3523
922.025	3306
922.134	3340
922.244	3291
922.353	3401
922.462	3283
922.571	3245
922.68	3131
922.789	3108
922.898	3138
923.007	3112
923.116	3195
923.224	3184
923.333	3188
923.442	3062
923.55	3097
923.659	3112
923.767	3207
923.876	3100
923.984	3253
924.092	3085
924.201	3207
924.309	3199
924.417	3233
924.525	3199
924.633	3233
924.741	4166
924.849	3055
924.956	3264
925.064	3085
925.172	3070
925.279	3123
925.387	3214
925.494	3154
925.602	3325
925.709	3310
925.816	3127
925.924	3275
926.031	3409
926.138	3317
926.245	3370
926.352	3275
926.459	3420
926.566	3477
926.673	3313
926.779	3214
926.886	3264
926.993	3127
927.099	3123
927.206	3131
927.312	3104
927.419	3218
927.525	3233
927.631	3283
927.737	3131
927.843	3131
927.95	3001
928.056	3138
928.162	3173
928.267	3222
928.373	3857
928.479	3283
928.585	3062
928.69	3241
928.796	3256
928.901	3157
929.007	3039
929.112	3165
929.218	3142
929.323	3150
929.428	3119
929.533	3325
929.638	3112
929.743	3157
929.848	3245
929.953	3241
930.058	3135
930.163	3005
930.267	3036
930.372	3237
930.477	3093
930.581	3313
930.685	3192
930.79	3077
930.894	3127
930.998	3108
931.103	3275
931.207	2986
931.311	2944
931.415	2948
931.519	2769
931.623	2785
