Data from test_V78500241_147.txt Node
Date: Fri Mar 25 16:16:13 CST 2022
User: usil
Spectrometer: V785-0024
Trigger mode: 0
Integration Time (sec): 4.000000E-1
Scans to average: 1
Nonlinearity correction enabled: false
Boxcar width: 0
Storing dark spectrum: false
XAxis mode: Wavelengths
Number of Pixels in Spectrum: 1024
>>>>>Begin Spectral Data<<<<<
801.071	2960
801.214	2937
801.356	2906
801.499	2979
801.641	2910
801.783	2975
801.926	3074
802.068	3020
802.211	3089
802.353	3039
802.496	3001
802.638	3062
802.78	3100
802.923	3150
803.065	3032
803.208	2937
803.35	2944
803.492	2967
803.635	2971
803.777	2800
803.919	2891
804.061	3249
804.204	2982
804.346	2963
804.488	2891
804.63	3009
804.773	2861
804.915	2906
805.057	3135
805.199	2990
805.341	3024
805.483	3066
805.626	3062
805.768	3009
805.91	3119
806.052	3150
806.194	3089
806.336	3260
806.478	3074
806.62	3036
806.762	2986
806.904	3085
807.046	3195
807.188	3028
807.33	2971
807.472	3005
807.614	2937
807.756	3017
807.898	2956
808.04	2910
808.182	2998
808.324	2982
808.465	2922
808.607	2910
808.749	2834
808.891	2849
809.033	3024
809.174	3001
809.316	2956
809.458	2925
809.6	2807
809.741	2804
809.883	2800
810.025	2853
810.166	2929
810.308	2883
810.45	2838
810.591	2807
810.733	2796
810.875	2868
811.016	2815
811.158	2766
811.299	2842
811.441	2963
811.582	2925
811.724	2853
811.865	2895
812.007	2941
812.148	2922
812.29	2864
812.431	2899
812.573	2960
812.714	2956
812.855	3066
812.997	3077
813.138	3165
813.279	3039
813.421	3024
813.562	2967
813.703	2895
813.845	2925
813.986	2819
814.127	2792
814.268	2857
814.41	2880
814.551	2823
814.692	2944
814.833	2868
814.974	2937
815.115	2975
815.256	2857
815.397	2842
815.539	2887
815.68	2815
815.821	2845
815.962	2952
816.103	2944
816.244	2899
816.385	2883
816.526	3020
816.666	2925
816.807	2788
816.948	2914
817.089	2952
817.23	2868
817.371	2834
817.512	2830
817.653	2845
817.793	2849
817.934	2922
818.075	2994
818.216	3013
818.356	3024
818.497	2887
818.638	2834
818.778	2842
818.919	2838
819.06	2754
819.2	2849
819.341	2830
819.481	2819
819.622	2975
819.762	3116
819.903	3036
820.043	2941
820.184	2895
820.324	2925
820.465	3028
820.605	3047
820.746	3032
820.886	2944
821.026	3123
821.167	3157
821.307	3291
821.447	3325
821.588	3245
821.728	3230
821.868	3230
822.008	3104
822.149	3165
822.289	3275
822.429	3119
822.569	3116
822.709	3199
822.849	3055
822.99	3116
823.13	3214
823.27	3256
823.41	3142
823.55	3188
823.69	3188
823.83	3287
823.97	3127
824.11	3036
824.25	3039
824.389	3104
824.529	3157
824.669	3097
824.809	3192
824.949	3279
825.089	3253
825.228	3165
825.368	3013
825.508	2963
825.648	3001
825.787	3066
825.927	3043
826.067	2998
826.206	3005
826.346	3100
826.485	3100
826.625	3131
826.765	3302
826.904	3245
827.044	3009
827.183	2986
827.323	2914
827.462	3013
827.601	2914
827.741	2971
827.88	2982
828.02	2845
828.159	3001
828.298	3070
828.437	3123
828.577	3085
828.716	3279
828.855	3081
828.994	2971
829.134	2918
829.273	2922
829.412	2906
829.551	2887
829.69	2910
829.829	2986
829.968	3150
830.107	3047
830.246	3074
830.385	2941
830.524	2864
830.663	2880
830.802	2739
830.941	2674
831.08	2674
831.219	2785
831.357	2769
831.496	2990
831.635	2731
831.774	2693
831.913	2667
832.051	2587
832.19	2610
832.329	2689
832.467	2556
832.606	2522
832.744	2583
832.883	2590
833.022	2621
833.16	2670
833.299	2716
833.437	2712
833.576	2708
833.714	2762
833.852	2750
833.991	2785
834.129	2857
834.267	2868
834.406	2838
834.544	2880
834.682	2922
834.821	2868
834.959	3108
835.097	2895
835.235	3058
835.373	3001
835.511	3039
835.65	3020
835.788	2967
835.926	2861
836.064	2804
836.202	2880
836.34	3104
836.478	3131
836.615	3058
836.753	3154
836.891	3245
837.029	3169
837.167	3142
837.305	3135
837.443	3077
837.58	2975
837.718	3169
837.856	3097
837.993	3058
838.131	3150
838.269	3116
838.406	3142
838.544	3100
838.681	2998
838.819	2960
838.956	2823
839.094	2845
839.231	2941
839.369	3055
839.506	3389
839.643	3268
839.781	2990
839.918	2979
840.055	3066
840.193	3051
840.33	3093
840.467	3077
840.604	3180
840.742	3401
840.879	3093
841.016	3062
841.153	3138
841.29	3317
841.427	3287
841.564	3302
841.701	3325
841.838	3218
841.975	3211
842.112	3264
842.249	3146
842.385	3089
842.522	3253
842.659	3089
842.796	3089
842.933	3119
843.069	3085
843.206	3058
843.343	3226
843.479	3108
843.616	3203
843.752	2956
843.889	2925
844.025	3097
844.162	2914
844.298	3127
844.435	2967
844.571	2948
844.708	3097
844.844	3237
844.98	3226
845.117	3192
845.253	3108
845.389	3055
845.525	3116
845.661	3138
845.798	3009
845.934	3165
846.07	3104
846.206	3256
846.342	3340
846.478	3275
846.614	3123
846.75	3108
846.886	3062
847.022	3233
847.158	3157
847.294	3211
847.429	3218
847.565	3184
847.701	3492
847.837	3074
847.972	3009
848.108	3211
848.244	3165
848.379	2990
848.515	2986
848.65	2956
848.786	3001
848.921	3039
849.057	3154
849.192	3180
849.328	3112
849.463	3142
849.598	3077
849.734	3036
849.869	3024
850.004	2922
850.14	3013
850.275	2933
850.41	2861
850.545	2929
850.68	2918
850.815	2979
850.95	3005
851.085	3192
851.22	3112
851.355	3024
851.49	3013
851.625	3020
851.76	3058
851.895	2994
852.03	2937
852.165	3051
852.299	3135
852.434	3199
852.569	3154
852.703	3176
852.838	3249
852.973	3363
853.107	3355
853.242	3161
853.376	3127
853.511	3009
853.645	3066
853.78	3211
853.914	3154
854.048	3146
854.183	3104
854.317	3173
854.451	3321
854.585	3138
854.72	3116
854.854	3226
854.988	3058
855.122	3097
855.256	3028
855.39	3097
855.524	3237
855.658	3199
855.792	3241
855.926	3180
856.06	3233
856.194	3272
856.327	3142
856.461	3085
856.595	3097
856.729	3100
856.862	3275
856.996	3161
857.13	3241
857.263	3260
857.397	3294
857.53	3146
857.664	3188
857.797	3199
857.931	3253
858.064	3192
858.197	3253
858.331	3142
858.464	3123
858.597	3024
858.731	3123
858.864	3188
858.997	3116
859.13	3161
859.263	3150
859.396	3222
859.529	3119
859.662	3074
859.795	3058
859.928	3146
860.061	3344
860.194	3275
860.327	3169
860.46	3142
860.592	3260
860.725	3283
860.858	3275
860.99	3116
861.123	3077
861.256	3020
861.388	3150
861.521	3717
861.653	3051
861.786	2963
861.918	3032
862.05	3081
862.183	3062
862.315	3146
862.447	3211
862.58	3138
862.712	2990
862.844	2883
862.976	3051
863.108	3024
863.24	3416
863.372	2899
863.504	2990
863.636	2963
863.768	3024
863.9	3009
864.032	2944
864.164	2982
864.296	3028
864.428	3116
864.559	3131
864.691	3093
864.823	3070
864.954	3043
865.086	3085
865.217	3001
865.349	2952
865.48	2982
865.612	3036
865.743	3154
865.875	3013
866.006	2941
866.137	2994
866.269	2975
866.4	2937
866.531	2910
866.662	2941
866.793	2887
866.924	2902
867.055	3001
867.186	2914
867.317	2872
867.448	2883
867.579	2872
867.71	2853
867.841	2857
867.972	2933
868.103	2922
868.233	2914
868.364	2899
868.495	2937
868.625	3104
868.756	3176
868.886	3013
869.017	3047
869.147	3207
869.278	3203
869.408	3112
869.539	3039
869.669	3100
869.799	3032
869.929	3150
870.06	3127
870.19	3287
870.32	3298
870.45	3321
870.58	3363
870.71	3496
870.84	3439
870.97	3321
871.1	3283
871.23	3526
871.36	3469
871.489	3378
871.619	3378
871.749	3431
871.879	3424
872.008	3519
872.138	3428
872.267	3294
872.397	3169
872.526	3123
872.656	3024
872.785	3116
872.915	3222
873.044	3336
873.173	3211
873.303	3256
873.432	3233
873.561	3279
873.69	3203
873.819	3161
873.948	3207
874.077	3108
874.206	3051
874.335	3089
874.464	3233
874.593	3367
874.722	3233
874.851	3401
874.979	3393
875.108	3329
875.237	3207
875.365	3150
875.494	3180
875.623	3272
875.751	3085
875.88	3150
876.008	3211
876.136	3275
876.265	3409
876.393	3507
876.521	3424
876.65	3401
876.778	3378
876.906	3256
877.034	3226
877.162	3245
877.29	3214
877.418	3291
877.546	3294
877.674	3279
877.802	3214
877.93	3226
878.058	3146
878.185	3108
878.313	3218
878.441	3211
878.568	3081
878.696	3150
878.824	3249
878.951	3344
879.079	3443
879.206	3633
879.333	3412
879.461	3374
879.588	3351
879.715	3485
879.842	3572
879.97	3378
880.097	3211
880.224	3157
880.351	3203
880.478	3241
880.605	3241
880.732	3199
880.859	3500
880.986	3325
881.112	3363
881.239	3203
881.366	3100
881.493	3039
881.619	3047
881.746	3135
881.872	3116
881.999	3123
882.125	3195
882.252	3268
882.378	3294
882.505	3488
882.631	3283
882.757	3176
882.883	3211
883.01	3222
883.136	3157
883.262	3089
883.388	3146
883.514	3325
883.64	3397
883.766	3332
883.892	3195
884.018	3272
884.143	3462
884.269	3557
884.395	3226
884.52	3184
884.646	3184
884.772	3150
884.897	3104
885.023	3237
885.148	3340
885.274	3492
885.399	3363
885.524	3287
885.65	3264
885.775	3378
885.9	3302
886.025	3485
886.15	3393
886.275	3321
886.4	3226
886.525	3332
886.65	3317
886.775	3317
886.9	3523
887.025	3671
887.149	3435
887.274	3249
887.399	3218
887.523	3226
887.648	3214
887.773	3192
887.897	3382
888.021	3386
888.146	3340
888.27	3447
888.395	3576
888.519	3439
888.643	3481
888.767	3458
888.891	3329
889.015	3287
889.139	3317
889.263	3279
889.387	3382
889.511	3545
889.635	3473
889.759	3298
889.883	3321
890.006	3424
890.13	3542
890.254	3298
890.377	3321
890.501	3241
890.624	3218
890.748	3351
890.871	3192
890.995	3116
891.118	3097
891.241	3203
891.364	3241
891.488	3367
891.611	3184
891.734	3230
891.857	3310
891.98	3218
892.103	3340
892.226	3275
892.349	3207
892.471	3150
892.594	3291
892.717	3313
892.839	3272
892.962	3291
893.085	3378
893.207	3329
893.33	3180
893.452	3230
893.575	3378
893.697	3283
893.819	3492
893.941	3576
894.064	3466
894.186	3287
894.308	3275
894.43	3462
894.552	3545
894.674	3466
894.796	3294
894.918	3310
895.04	3291
895.161	3458
895.283	3420
895.405	3344
895.526	3382
895.648	3458
895.769	3431
895.891	3462
896.012	3519
896.134	3523
896.255	3447
896.376	3420
896.498	3420
896.619	3439
896.74	3363
896.861	3416
896.982	3694
897.103	3865
897.224	3641
897.345	3485
897.466	3447
897.587	3549
897.708	3663
897.828	3591
897.949	3488
898.07	3386
898.19	3435
898.311	3614
898.431	3435
898.552	3500
898.672	3637
898.792	3622
898.913	3557
899.033	3420
899.153	3329
899.273	3226
899.393	3302
899.513	3344
899.633	3393
899.753	3367
899.873	3378
899.993	3412
900.113	3302
900.232	3412
900.352	3340
900.472	3344
900.591	3222
900.711	3317
900.83	3306
900.95	3420
901.069	3466
901.189	3386
901.308	3222
901.427	3131
901.546	3165
901.665	3313
901.784	3283
901.904	3207
902.023	3203
902.141	3024
902.26	3009
902.379	3176
902.498	3100
902.617	3066
902.735	3214
902.854	3260
902.973	3199
903.091	3051
903.21	3062
903.328	3138
903.446	3157
903.565	3112
903.683	3207
903.801	3146
903.919	3283
904.038	3310
904.156	3180
904.274	3287
904.392	3241
904.51	3302
904.627	3329
904.745	3443
904.863	3500
904.981	3272
905.098	3203
905.216	3241
905.334	3351
905.451	3279
905.569	3321
905.686	3439
905.803	3454
905.921	3340
906.038	3462
906.155	3374
906.272	3317
906.389	3374
906.506	3249
906.623	3245
906.74	3233
906.857	3233
906.974	3283
907.091	3458
907.208	3572
907.324	3477
907.441	3370
907.557	3253
907.674	3237
907.79	3222
907.907	3283
908.023	3412
908.139	3374
908.256	3321
908.372	3409
908.488	3340
908.604	3256
908.72	3226
908.836	3321
908.952	3283
909.068	3329
909.184	3519
909.3	3435
909.415	3507
909.531	3488
909.647	3256
909.762	3283
909.878	3272
909.993	3332
910.108	3351
910.224	3382
910.339	3443
910.454	3351
910.57	3332
910.685	3237
910.8	3644
910.915	3549
911.03	3458
911.145	3291
911.259	3260
911.374	3279
911.489	3241
911.604	3256
911.718	3089
911.833	3142
911.947	3024
912.062	3020
912.176	3226
912.291	3203
912.405	3245
912.519	3435
912.633	3485
912.748	3344
912.862	3287
912.976	3192
913.09	3043
913.204	3142
913.318	3237
913.431	3374
913.545	3344
913.659	3447
913.772	3340
913.886	3218
914	3226
914.113	3370
914.226	3431
914.34	3389
914.453	3218
914.566	3424
914.68	3302
914.793	3287
914.906	3180
915.019	3150
915.132	3070
915.245	3199
915.358	3188
915.47	3275
915.583	3283
915.696	3306
915.809	3401
915.921	3428
916.034	3310
916.146	3287
916.259	3268
916.371	3416
916.483	3378
916.595	3283
916.708	3355
916.82	3397
916.932	3367
917.044	3367
917.156	3382
917.268	3260
917.38	3340
917.491	3313
917.603	3424
917.715	3462
917.826	3519
917.938	3401
918.049	3298
918.161	3450
918.272	3530
918.384	3622
918.495	3530
918.606	3363
918.717	3310
918.828	3412
918.939	3477
919.05	3355
919.161	3382
919.272	3199
919.383	3306
919.494	3507
919.604	3724
919.715	3504
919.826	3424
919.936	3469
920.047	3568
920.157	3622
920.267	3808
920.378	3625
920.488	3584
920.598	3842
920.708	3972
920.818	3823
920.928	3861
921.038	4063
921.148	4013
921.258	3713
921.368	3644
921.477	3614
921.587	3568
921.697	3504
921.806	3675
921.916	3538
922.025	3351
922.134	3367
922.244	3329
922.353	3420
922.462	3298
922.571	3249
922.68	3157
922.789	3093
922.898	3173
923.007	3150
923.116	3173
923.224	3184
923.333	3161
923.442	3089
923.55	3138
923.659	3169
923.767	3241
923.876	3119
923.984	3283
924.092	3116
924.201	3233
924.309	3264
924.417	3222
924.525	3241
924.633	3241
924.741	4207
924.849	3081
924.956	3298
925.064	3138
925.172	3058
925.279	3138
925.387	3237
925.494	3233
925.602	3386
925.709	3355
925.816	3199
925.924	3298
926.031	3397
926.138	3348
926.245	3393
926.352	3211
926.459	3450
926.566	3454
926.673	3317
926.779	3291
926.886	3272
926.993	3146
927.099	3112
927.206	3123
927.312	3131
927.419	3294
927.525	3245
927.631	3310
927.737	3199
927.843	3131
927.95	3032
928.056	3146
928.162	3199
928.267	3253
928.373	3937
928.479	3321
928.585	3097
928.69	3268
928.796	3302
928.901	3157
929.007	3058
929.112	3241
929.218	3241
929.323	3150
929.428	3127
929.533	3310
929.638	3169
929.743	3184
929.848	3226
929.953	3230
930.058	3173
930.163	3028
930.267	3058
930.372	3218
930.477	3039
930.581	3359
930.685	3256
930.79	3097
930.894	3135
930.998	3108
931.103	3317
931.207	2982
931.311	2975
931.415	2937
931.519	2785
931.623	2800
