Data from test_V78500241_476.txt Node
Date: Fri Mar 25 16:18:30 CST 2022
User: usil
Spectrometer: V785-0024
Trigger mode: 0
Integration Time (sec): 4.000000E-1
Scans to average: 1
Nonlinearity correction enabled: false
Boxcar width: 0
Storing dark spectrum: false
XAxis mode: Wavelengths
Number of Pixels in Spectrum: 1024
>>>>>Begin Spectral Data<<<<<
801.071	2929
801.214	2948
801.356	2883
801.499	2891
801.641	2895
801.783	2922
801.926	3032
802.068	2967
802.211	3020
802.353	3013
802.496	2937
802.638	3032
802.78	3032
802.923	3116
803.065	2979
803.208	2868
803.35	2929
803.492	2914
803.635	2902
803.777	2758
803.919	2849
804.061	3173
804.204	2933
804.346	2906
804.488	2811
804.63	3005
804.773	2861
804.915	2902
805.057	3077
805.199	2933
805.341	2975
805.483	3020
805.626	2956
805.768	2971
805.91	3089
806.052	3089
806.194	3051
806.336	3237
806.478	2998
806.62	2948
806.762	2971
806.904	3077
807.046	3157
807.188	2971
807.33	2891
807.472	2960
807.614	2902
807.756	2979
807.898	2910
808.04	2876
808.182	2971
808.324	2963
808.465	2861
808.607	2880
808.749	2804
808.891	2880
809.033	2975
809.174	2982
809.316	2876
809.458	2883
809.6	2758
809.741	2762
809.883	2743
810.025	2815
810.166	2868
810.308	2834
810.45	2845
810.591	2750
810.733	2766
810.875	2826
811.016	2792
811.158	2762
811.299	2781
811.441	2918
811.582	2922
811.724	2811
811.865	2838
812.007	2902
812.148	2868
812.29	2849
812.431	2872
812.573	2941
812.714	2963
812.855	3024
812.997	3081
813.138	3066
813.279	2986
813.421	2979
813.562	2918
813.703	2838
813.845	2891
813.986	2766
814.127	2716
814.268	2781
814.41	2830
814.551	2811
814.692	2872
814.833	2823
814.974	2895
815.115	2990
815.256	2804
815.397	2811
815.539	2845
815.68	2773
815.821	2792
815.962	2952
816.103	2918
816.244	2853
816.385	2872
816.526	2956
816.666	2925
816.807	2754
816.948	2902
817.089	2929
817.23	2826
817.371	2758
817.512	2788
817.653	2777
817.793	2823
817.934	2868
818.075	2918
818.216	2967
818.356	3032
818.497	2887
818.638	2769
818.778	2807
818.919	2811
819.06	2773
819.2	2830
819.341	2830
819.481	2807
819.622	2933
819.762	3077
819.903	3032
820.043	2887
820.184	2899
820.324	2861
820.465	2998
820.605	3024
820.746	3043
820.886	2941
821.026	3077
821.167	3131
821.307	3253
821.447	3287
821.588	3233
821.728	3157
821.868	3180
822.008	3085
822.149	3214
822.289	3237
822.429	3066
822.569	3077
822.709	3161
822.849	3032
822.99	3074
823.13	3173
823.27	3184
823.41	3116
823.55	3146
823.69	3161
823.83	3199
823.97	3077
824.11	2998
824.25	2960
824.389	3013
824.529	3127
824.669	3055
824.809	3207
824.949	3233
825.089	3203
825.228	3165
825.368	3020
825.508	2967
825.648	2998
825.787	2979
825.927	3039
826.067	2967
826.206	2967
826.346	3001
826.485	3062
826.625	3097
826.765	3260
826.904	3249
827.044	2982
827.183	2937
827.323	2872
827.462	2975
827.601	2895
827.741	2941
827.88	2933
828.02	2819
828.159	2967
828.298	3039
828.437	3127
828.577	3036
828.716	3222
828.855	3058
828.994	2906
829.134	2864
829.273	2918
829.412	2864
829.551	2845
829.69	2857
829.829	2994
829.968	3093
830.107	2998
830.246	3013
830.385	2918
830.524	2861
830.663	2853
830.802	2712
830.941	2659
831.08	2640
831.219	2762
831.357	2739
831.496	2922
831.635	2712
831.774	2625
831.913	2651
832.051	2568
832.19	2552
832.329	2697
832.467	2537
832.606	2514
832.744	2606
832.883	2556
833.022	2583
833.16	2644
833.299	2693
833.437	2689
833.576	2674
833.714	2754
833.852	2754
833.991	2773
834.129	2845
834.267	2826
834.406	2796
834.544	2883
834.682	2883
834.821	2834
834.959	3032
835.097	2899
835.235	3062
835.373	3009
835.511	3020
835.65	2937
835.788	2952
835.926	2830
836.064	2815
836.202	2872
836.34	3081
836.478	3112
836.615	3036
836.753	3081
836.891	3230
837.029	3119
837.167	3097
837.305	3062
837.443	3039
837.58	2952
837.718	3108
837.856	3077
837.993	3039
838.131	3123
838.269	3131
838.406	3085
838.544	3051
838.681	2906
838.819	2910
838.956	2823
839.094	2785
839.231	2925
839.369	3024
839.506	3348
839.643	3218
839.781	2986
839.918	2998
840.055	3066
840.193	3047
840.33	3051
840.467	3097
840.604	3138
840.742	3359
840.879	3043
841.016	3001
841.153	3104
841.29	3344
841.427	3291
841.564	3253
841.701	3325
841.838	3226
841.975	3207
842.112	3211
842.249	3089
842.385	3047
842.522	3233
842.659	3108
842.796	3070
842.933	3097
843.069	3062
843.206	3028
843.343	3180
843.479	3104
843.616	3146
843.752	2876
843.889	2861
844.025	3066
844.162	2883
844.298	3074
844.435	2998
844.571	2899
844.708	3077
844.844	3157
844.98	3188
845.117	3188
845.253	3028
845.389	3001
845.525	3093
845.661	3089
845.798	2982
845.934	3142
846.07	3058
846.206	3264
846.342	3313
846.478	3245
846.614	3100
846.75	3062
846.886	3032
847.022	3264
847.158	3131
847.294	3214
847.429	3207
847.565	3173
847.701	3500
847.837	3039
847.972	3005
848.108	3142
848.244	3157
848.379	2960
848.515	2922
848.65	2914
848.786	2975
848.921	2975
849.057	3089
849.192	3161
849.328	3081
849.463	3089
849.598	3024
849.734	3032
849.869	2963
850.004	2914
850.14	2925
850.275	2895
850.41	2876
850.545	2880
850.68	2929
850.815	2948
850.95	2979
851.085	3214
851.22	3127
851.355	3017
851.49	2986
851.625	2960
851.76	2994
851.895	2933
852.03	2902
852.165	3047
852.299	3116
852.434	3135
852.569	3154
852.703	3184
852.838	3230
852.973	3291
853.107	3317
853.242	3150
853.376	3085
853.511	2967
853.645	3024
853.78	3275
853.914	3112
854.048	3077
854.183	3089
854.317	3119
854.451	3275
854.585	3127
854.72	3097
854.854	3165
854.988	3055
855.122	3089
855.256	2982
855.39	3097
855.524	3214
855.658	3233
855.792	3169
855.926	3207
856.06	3233
856.194	3256
856.327	3157
856.461	3100
856.595	3093
856.729	3108
856.862	3237
856.996	3154
857.13	3157
857.263	3214
857.397	3264
857.53	3112
857.664	3165
857.797	3249
857.931	3237
858.064	3146
858.197	3222
858.331	3093
858.464	3081
858.597	3036
858.731	3116
858.864	3127
858.997	3074
859.13	3131
859.263	3176
859.396	3188
859.529	3062
859.662	3119
859.795	3043
859.928	3180
860.061	3298
860.194	3294
860.327	3142
860.46	3077
860.592	3272
860.725	3233
860.858	3264
860.99	3131
861.123	3039
861.256	3020
861.388	3123
861.521	3865
861.653	2979
861.786	2967
861.918	2986
862.05	3074
862.183	3077
862.315	3131
862.447	3214
862.58	3104
862.712	2960
862.844	2853
862.976	2982
863.108	2982
863.24	3317
863.372	2910
863.504	2982
863.636	2963
863.768	3013
863.9	2960
864.032	2880
864.164	2922
864.296	2986
864.428	3089
864.559	3104
864.691	3100
864.823	3032
864.954	3024
865.086	3043
865.217	2986
865.349	2902
865.48	2971
865.612	3032
865.743	3146
865.875	2967
866.006	2941
866.137	2963
866.269	2971
866.4	2944
866.531	2918
866.662	2899
866.793	2891
866.924	2872
867.055	2948
867.186	2941
867.317	2880
867.448	2811
867.579	2845
867.71	2883
867.841	2807
867.972	2883
868.103	2899
868.233	2880
868.364	2887
868.495	2887
868.625	3070
868.756	3112
868.886	2998
869.017	3009
869.147	3195
869.278	3127
869.408	3051
869.539	2994
869.669	3100
869.799	3013
869.929	3154
870.06	3093
870.19	3329
870.32	3279
870.45	3313
870.58	3317
870.71	3469
870.84	3409
870.97	3283
871.1	3233
871.23	3466
871.36	3443
871.489	3363
871.619	3336
871.749	3367
871.879	3424
872.008	3504
872.138	3367
872.267	3268
872.397	3169
872.526	3081
872.656	3009
872.785	3093
872.915	3192
873.044	3321
873.173	3222
873.303	3272
873.432	3226
873.561	3237
873.69	3135
873.819	3161
873.948	3161
874.077	3077
874.206	3017
874.335	3093
874.464	3233
874.593	3313
874.722	3207
874.851	3393
874.979	3317
875.108	3336
875.237	3184
875.365	3150
875.494	3146
875.623	3230
875.751	3093
875.88	3119
876.008	3199
876.136	3222
876.265	3378
876.393	3549
876.521	3431
876.65	3374
876.778	3321
876.906	3241
877.034	3199
877.162	3199
877.29	3157
877.418	3237
877.546	3237
877.674	3226
877.802	3222
877.93	3188
878.058	3169
878.185	3104
878.313	3199
878.441	3192
878.568	3051
878.696	3138
878.824	3279
878.951	3268
879.079	3401
879.206	3614
879.333	3443
879.461	3355
879.588	3378
879.715	3500
879.842	3584
879.97	3378
880.097	3165
880.224	3119
880.351	3222
880.478	3184
880.605	3173
880.732	3211
880.859	3447
880.986	3329
881.112	3317
881.239	3211
881.366	3051
881.493	3024
881.619	3013
881.746	3062
881.872	3077
881.999	3085
882.125	3176
882.252	3275
882.378	3302
882.505	3439
882.631	3268
882.757	3184
882.883	3241
883.01	3192
883.136	3150
883.262	3077
883.388	3074
883.514	3313
883.64	3340
883.766	3302
883.892	3214
884.018	3279
884.143	3405
884.269	3545
884.395	3195
884.52	3135
884.646	3154
884.772	3093
884.897	3097
885.023	3188
885.148	3332
885.274	3393
885.399	3363
885.524	3272
885.65	3237
885.775	3287
885.9	3298
886.025	3458
886.15	3374
886.275	3294
886.4	3268
886.525	3321
886.65	3230
886.775	3283
886.9	3488
887.025	3641
887.149	3355
887.274	3260
887.399	3188
887.523	3192
887.648	3135
887.773	3165
887.897	3344
888.021	3393
888.146	3321
888.27	3447
888.395	3549
888.519	3462
888.643	3401
888.767	3492
888.891	3302
889.015	3272
889.139	3268
889.263	3249
889.387	3393
889.511	3511
889.635	3439
889.759	3275
889.883	3348
890.006	3344
890.13	3492
890.254	3275
890.377	3329
890.501	3207
890.624	3173
890.748	3268
890.871	3173
890.995	3108
891.118	3039
891.241	3169
891.364	3203
891.488	3336
891.611	3203
891.734	3188
891.857	3294
891.98	3211
892.103	3291
892.226	3233
892.349	3195
892.471	3081
892.594	3249
892.717	3264
892.839	3264
892.962	3302
893.085	3340
893.207	3351
893.33	3131
893.452	3184
893.575	3321
893.697	3241
893.819	3466
893.941	3473
894.064	3458
894.186	3279
894.308	3233
894.43	3454
894.552	3534
894.674	3424
894.796	3275
894.918	3340
895.04	3256
895.161	3447
895.283	3397
895.405	3294
895.526	3382
895.648	3397
895.769	3409
895.891	3466
896.012	3458
896.134	3462
896.255	3370
896.376	3370
896.498	3344
896.619	3443
896.74	3355
896.861	3386
896.982	3667
897.103	3850
897.224	3618
897.345	3492
897.466	3397
897.587	3496
897.708	3614
897.828	3523
897.949	3424
898.07	3359
898.19	3386
898.311	3576
898.431	3412
898.552	3454
898.672	3606
898.792	3584
898.913	3526
899.033	3374
899.153	3310
899.273	3173
899.393	3245
899.513	3332
899.633	3291
899.753	3325
899.873	3302
899.993	3363
900.113	3298
900.232	3393
900.352	3329
900.472	3294
900.591	3195
900.711	3287
900.83	3214
900.95	3389
901.069	3492
901.189	3359
901.308	3173
901.427	3127
901.546	3218
901.665	3275
901.784	3332
901.904	3211
902.023	3112
902.141	3028
902.26	2967
902.379	3112
902.498	3058
902.617	3028
902.735	3195
902.854	3249
902.973	3192
903.091	3024
903.21	3074
903.328	3100
903.446	3119
903.565	3112
903.683	3169
903.801	3074
903.919	3222
904.038	3310
904.156	3165
904.274	3256
904.392	3211
904.51	3302
904.627	3283
904.745	3431
904.863	3462
904.981	3237
905.098	3173
905.216	3230
905.334	3329
905.451	3313
905.569	3313
905.686	3367
905.803	3473
905.921	3310
906.038	3393
906.155	3332
906.272	3291
906.389	3291
906.506	3211
906.623	3256
906.74	3222
906.857	3184
906.974	3226
907.091	3450
907.208	3545
907.324	3488
907.441	3389
907.557	3222
907.674	3230
907.79	3180
907.907	3245
908.023	3386
908.139	3370
908.256	3306
908.372	3332
908.488	3389
908.604	3253
908.72	3207
908.836	3268
908.952	3260
909.068	3321
909.184	3447
909.3	3370
909.415	3454
909.531	3466
909.647	3272
909.762	3317
909.878	3268
909.993	3336
910.108	3287
910.224	3340
910.339	3393
910.454	3321
910.57	3310
910.685	3230
910.8	3561
910.915	3507
911.03	3466
911.145	3245
911.259	3294
911.374	3272
911.489	3230
911.604	3199
911.718	3112
911.833	3127
911.947	3066
912.062	2956
912.176	3157
912.291	3188
912.405	3211
912.519	3447
912.633	3439
912.748	3310
912.862	3272
912.976	3112
913.09	3055
913.204	3135
913.318	3218
913.431	3340
913.545	3302
913.659	3382
913.772	3325
913.886	3207
914	3207
914.113	3348
914.226	3370
914.34	3359
914.453	3180
914.566	3409
914.68	3260
914.793	3291
914.906	3093
915.019	3100
915.132	3036
915.245	3150
915.358	3195
915.47	3207
915.583	3230
915.696	3310
915.809	3397
915.921	3412
916.034	3218
916.146	3245
916.259	3218
916.371	3374
916.483	3389
916.595	3253
916.708	3302
916.82	3351
916.932	3317
917.044	3344
917.156	3344
917.268	3268
917.38	3306
917.491	3306
917.603	3348
917.715	3412
917.826	3447
917.938	3420
918.049	3294
918.161	3447
918.272	3576
918.384	3584
918.495	3500
918.606	3321
918.717	3287
918.828	3397
918.939	3397
919.05	3291
919.161	3363
919.272	3173
919.383	3313
919.494	3515
919.604	3717
919.715	3488
919.826	3435
919.936	3488
920.047	3595
920.157	3549
920.267	3797
920.378	3637
920.488	3587
920.598	3819
920.708	3945
920.818	3884
920.928	3846
921.038	4051
921.148	4040
921.258	3728
921.368	3667
921.477	3584
921.587	3553
921.697	3504
921.806	3663
921.916	3564
922.025	3374
922.134	3386
922.244	3359
922.353	3443
922.462	3287
922.571	3264
922.68	3135
922.789	3104
922.898	3192
923.007	3150
923.116	3272
923.224	3169
923.333	3245
923.442	3119
923.55	3116
923.659	3138
923.767	3291
923.876	3161
923.984	3294
924.092	3104
924.201	3222
924.309	3214
924.417	3325
924.525	3222
924.633	3272
924.741	4074
924.849	3097
924.956	3313
925.064	3123
925.172	3100
925.279	3169
925.387	3249
925.494	3233
925.602	3382
925.709	3397
925.816	3241
925.924	3325
926.031	3397
926.138	3386
926.245	3405
926.352	3310
926.459	3454
926.566	3488
926.673	3370
926.779	3287
926.886	3283
926.993	3207
927.099	3157
927.206	3188
927.312	3176
927.419	3291
927.525	3180
927.631	3302
927.737	3180
927.843	3180
927.95	3013
928.056	3161
928.162	3218
928.267	3256
928.373	3816
928.479	3302
928.585	3085
928.69	3241
928.796	3287
928.901	3237
929.007	3066
929.112	3253
929.218	3176
929.323	3188
929.428	3138
929.533	3329
929.638	3157
929.743	3199
929.848	3233
929.953	3260
930.058	3188
930.163	3028
930.267	3074
930.372	3249
930.477	3036
930.581	3348
930.685	3203
930.79	3077
930.894	3154
930.998	3123
931.103	3317
931.207	2994
931.311	2986
931.415	2982
931.519	2804
931.623	2845
