Data from test_V78500241_889.txt Node
Date: Fri Mar 25 16:21:21 CST 2022
User: usil
Spectrometer: V785-0024
Trigger mode: 0
Integration Time (sec): 4.000000E-1
Scans to average: 1
Nonlinearity correction enabled: false
Boxcar width: 0
Storing dark spectrum: false
XAxis mode: Wavelengths
Number of Pixels in Spectrum: 1024
>>>>>Begin Spectral Data<<<<<
801.071	2902
801.214	2982
801.356	2887
801.499	2922
801.641	2861
801.783	2960
801.926	3112
802.068	2982
802.211	2979
802.353	3062
802.496	3001
802.638	3001
802.78	3051
802.923	3081
803.065	3036
803.208	2902
803.35	2906
803.492	2967
803.635	2937
803.777	2750
803.919	2887
804.061	3218
804.204	2963
804.346	2861
804.488	2861
804.63	2979
804.773	2906
804.915	2944
805.057	3074
805.199	2922
805.341	3009
805.483	3020
805.626	3028
805.768	2975
805.91	3097
806.052	3108
806.194	3077
806.336	3230
806.478	3032
806.62	2990
806.762	2975
806.904	3093
807.046	3131
807.188	2986
807.33	2967
807.472	2994
807.614	2937
807.756	2967
807.898	2937
808.04	2918
808.182	2941
808.324	2933
808.465	2861
808.607	2895
808.749	2826
808.891	2842
809.033	2994
809.174	2967
809.316	2891
809.458	2880
809.6	2766
809.741	2796
809.883	2769
810.025	2887
810.166	2891
810.308	2857
810.45	2834
810.591	2773
810.733	2785
810.875	2857
811.016	2804
811.158	2758
811.299	2849
811.441	2944
811.582	2937
811.724	2819
811.865	2868
812.007	2906
812.148	2842
812.29	2853
812.431	2895
812.573	2883
812.714	2933
812.855	3058
812.997	3055
813.138	3131
813.279	2994
813.421	2971
813.562	2967
813.703	2891
813.845	2895
813.986	2800
814.127	2758
814.268	2796
814.41	2834
814.551	2826
814.692	2887
814.833	2834
814.974	2918
815.115	2963
815.256	2853
815.397	2815
815.539	2899
815.68	2785
815.821	2819
815.962	2933
816.103	2948
816.244	2906
816.385	2845
816.526	2982
816.666	2941
816.807	2735
816.948	2902
817.089	2952
817.23	2899
817.371	2804
817.512	2762
817.653	2826
817.793	2811
817.934	2864
818.075	2975
818.216	3017
818.356	3028
818.497	2887
818.638	2785
818.778	2823
818.919	2800
819.06	2708
819.2	2906
819.341	2807
819.481	2811
819.622	2941
819.762	3104
819.903	3005
820.043	2906
820.184	2876
820.324	2864
820.465	3017
820.605	2990
820.746	2982
820.886	2944
821.026	3097
821.167	3150
821.307	3275
821.447	3268
821.588	3241
821.728	3199
821.868	3222
822.008	3074
822.149	3180
822.289	3218
822.429	3100
822.569	3104
822.709	3176
822.849	2986
822.99	3062
823.13	3154
823.27	3207
823.41	3123
823.55	3157
823.69	3131
823.83	3169
823.97	3066
824.11	3032
824.25	2994
824.389	3077
824.529	3119
824.669	3074
824.809	3192
824.949	3218
825.089	3199
825.228	3131
825.368	2982
825.508	2967
825.648	2994
825.787	3020
825.927	3032
826.067	2952
826.206	2956
826.346	3024
826.485	3077
826.625	3127
826.765	3260
826.904	3241
827.044	3009
827.183	2956
827.323	2891
827.462	3001
827.601	2887
827.741	2887
827.88	2956
828.02	2857
828.159	2975
828.298	3024
828.437	3116
828.577	3020
828.716	3207
828.855	3055
828.994	2948
829.134	2883
829.273	2933
829.412	2838
829.551	2857
829.69	2868
829.829	2975
829.968	3104
830.107	3051
830.246	2971
830.385	2937
830.524	2880
830.663	2834
830.802	2739
830.941	2644
831.08	2663
831.219	2758
831.357	2785
831.496	2944
831.635	2720
831.774	2663
831.913	2644
832.051	2526
832.19	2575
832.329	2663
832.467	2552
832.606	2473
832.744	2613
832.883	2590
833.022	2583
833.16	2625
833.299	2705
833.437	2716
833.576	2670
833.714	2739
833.852	2735
833.991	2746
834.129	2819
834.267	2838
834.406	2781
834.544	2861
834.682	2864
834.821	2872
834.959	3051
835.097	2876
835.235	3055
835.373	3020
835.511	2967
835.65	2956
835.788	2925
835.926	2830
836.064	2777
836.202	2842
836.34	3104
836.478	3157
836.615	2994
836.753	3154
836.891	3195
837.029	3173
837.167	3074
837.305	3074
837.443	3066
837.58	2952
837.718	3097
837.856	3062
837.993	3020
838.131	3112
838.269	3070
838.406	3104
838.544	3108
838.681	2914
838.819	2925
838.956	2807
839.094	2819
839.231	2925
839.369	3009
839.506	3363
839.643	3192
839.781	3009
839.918	2944
840.055	3024
840.193	3020
840.33	3070
840.467	3127
840.604	3150
840.742	3397
840.879	3032
841.016	3058
841.153	3093
841.29	3351
841.427	3283
841.564	3272
841.701	3332
841.838	3264
841.975	3195
842.112	3192
842.249	3066
842.385	3062
842.522	3226
842.659	3062
842.796	3028
842.933	3127
843.069	3024
843.206	3055
843.343	3188
843.479	3066
843.616	3154
843.752	2883
843.889	2853
844.025	3085
844.162	2891
844.298	3055
844.435	2937
844.571	2925
844.708	3089
844.844	3203
844.98	3233
845.117	3188
845.253	3032
845.389	3009
845.525	3093
845.661	3104
845.798	3009
845.934	3093
846.07	3028
846.206	3245
846.342	3275
846.478	3222
846.614	3081
846.75	3066
846.886	3028
847.022	3253
847.158	3150
847.294	3173
847.429	3222
847.565	3184
847.701	3473
847.837	3024
847.972	3051
848.108	3222
848.244	3150
848.379	3009
848.515	2960
848.65	2891
848.786	2933
848.921	3013
849.057	3074
849.192	3119
849.328	3066
849.463	3108
849.598	3047
849.734	3036
849.869	2975
850.004	2925
850.14	2971
850.275	2918
850.41	2834
850.545	2876
850.68	2937
850.815	2975
850.95	2925
851.085	3176
851.22	3112
851.355	3036
851.49	2963
851.625	3005
851.76	2994
851.895	2933
852.03	2872
852.165	3032
852.299	3108
852.434	3176
852.569	3123
852.703	3161
852.838	3245
852.973	3374
853.107	3294
853.242	3154
853.376	3039
853.511	2963
853.645	3032
853.78	3226
853.914	3150
854.048	3093
854.183	3047
854.317	3119
854.451	3283
854.585	3123
854.72	3058
854.854	3245
854.988	3039
855.122	3066
855.256	2967
855.39	3180
855.524	3272
855.658	3184
855.792	3146
855.926	3173
856.06	3207
856.194	3291
856.327	3192
856.461	3039
856.595	3036
856.729	3097
856.862	3237
856.996	3180
857.13	3188
857.263	3218
857.397	3260
857.53	3085
857.664	3165
857.797	3222
857.931	3272
858.064	3104
858.197	3211
858.331	3138
858.464	3070
858.597	2986
858.731	3074
858.864	3135
858.997	3051
859.13	3157
859.263	3150
859.396	3169
859.529	3097
859.662	3074
859.795	3032
859.928	3108
860.061	3272
860.194	3287
860.327	3146
860.46	3085
860.592	3226
860.725	3222
860.858	3279
860.99	3085
861.123	3051
861.256	3024
861.388	3146
861.521	3831
861.653	3024
861.786	2986
861.918	2986
862.05	3047
862.183	3089
862.315	3173
862.447	3180
862.58	3097
862.712	2971
862.844	2857
862.976	3009
863.108	2979
863.24	3294
863.372	2876
863.504	2960
863.636	2918
863.768	3017
863.9	3028
864.032	2876
864.164	2944
864.296	3009
864.428	3093
864.559	3089
864.691	3066
864.823	3055
864.954	3017
865.086	3001
865.217	3005
865.349	2960
865.48	2975
865.612	3024
865.743	3100
865.875	2998
866.006	2944
866.137	2967
866.269	2929
866.4	2918
866.531	2899
866.662	2922
866.793	2883
866.924	2891
867.055	2952
867.186	2929
867.317	2872
867.448	2834
867.579	2845
867.71	2815
867.841	2788
867.972	2895
868.103	2914
868.233	2857
868.364	2864
868.495	2872
868.625	3074
868.756	3131
868.886	2956
869.017	3001
869.147	3154
869.278	3173
869.408	3020
869.539	3009
869.669	3058
869.799	3024
869.929	3161
870.06	3077
870.19	3294
870.32	3279
870.45	3298
870.58	3389
870.71	3462
870.84	3435
870.97	3291
871.1	3203
871.23	3488
871.36	3447
871.489	3332
871.619	3401
871.749	3389
871.879	3420
872.008	3473
872.138	3306
872.267	3260
872.397	3142
872.526	3127
872.656	2963
872.785	3093
872.915	3230
873.044	3306
873.173	3211
873.303	3211
873.432	3214
873.561	3211
873.69	3150
873.819	3146
873.948	3218
874.077	3104
874.206	3051
874.335	3043
874.464	3214
874.593	3348
874.722	3222
874.851	3405
874.979	3329
875.108	3329
875.237	3161
875.365	3161
875.494	3169
875.623	3218
875.751	3127
875.88	3108
876.008	3173
876.136	3214
876.265	3389
876.393	3519
876.521	3458
876.65	3412
876.778	3310
876.906	3249
877.034	3199
877.162	3237
877.29	3188
877.418	3260
877.546	3230
877.674	3245
877.802	3180
877.93	3218
878.058	3142
878.185	3089
878.313	3184
878.441	3203
878.568	3062
878.696	3154
878.824	3260
878.951	3313
879.079	3439
879.206	3606
879.333	3469
879.461	3302
879.588	3382
879.715	3526
879.842	3603
879.97	3389
880.097	3195
880.224	3108
880.351	3188
880.478	3214
880.605	3195
880.732	3203
880.859	3507
880.986	3329
881.112	3325
881.239	3203
881.366	3104
881.493	2990
881.619	3028
881.746	3047
881.872	3104
881.999	3089
882.125	3161
882.252	3237
882.378	3264
882.505	3458
882.631	3287
882.757	3157
882.883	3211
883.01	3241
883.136	3161
883.262	3123
883.388	3104
883.514	3344
883.64	3367
883.766	3313
883.892	3188
884.018	3230
884.143	3435
884.269	3523
884.395	3211
884.52	3161
884.646	3237
884.772	3119
884.897	3123
885.023	3173
885.148	3332
885.274	3431
885.399	3370
885.524	3294
885.65	3241
885.775	3340
885.9	3268
886.025	3431
886.15	3340
886.275	3325
886.4	3222
886.525	3233
886.65	3264
886.775	3264
886.9	3477
887.025	3625
887.149	3409
887.274	3249
887.399	3195
887.523	3222
887.648	3211
887.773	3203
887.897	3351
888.021	3405
888.146	3294
888.27	3431
888.395	3553
888.519	3405
888.643	3435
888.767	3477
888.891	3283
889.015	3218
889.139	3272
889.263	3230
889.387	3420
889.511	3485
889.635	3477
889.759	3291
889.883	3298
890.006	3386
890.13	3492
890.254	3275
890.377	3329
890.501	3230
890.624	3157
890.748	3275
890.871	3154
890.995	3085
891.118	3055
891.241	3169
891.364	3256
891.488	3291
891.611	3195
891.734	3218
891.857	3306
891.98	3260
892.103	3321
892.226	3245
892.349	3184
892.471	3131
892.594	3283
892.717	3317
892.839	3226
892.962	3279
893.085	3348
893.207	3294
893.33	3154
893.452	3176
893.575	3317
893.697	3264
893.819	3488
893.941	3477
894.064	3458
894.186	3291
894.308	3260
894.43	3443
894.552	3511
894.674	3469
894.796	3245
894.918	3355
895.04	3313
895.161	3431
895.283	3378
895.405	3294
895.526	3348
895.648	3473
895.769	3424
895.891	3450
896.012	3447
896.134	3443
896.255	3401
896.376	3367
896.498	3374
896.619	3409
896.74	3340
896.861	3340
896.982	3728
897.103	3869
897.224	3587
897.345	3526
897.466	3431
897.587	3496
897.708	3637
897.828	3549
897.949	3401
898.07	3332
898.19	3420
898.311	3599
898.431	3389
898.552	3507
898.672	3584
898.792	3557
898.913	3504
899.033	3420
899.153	3344
899.273	3169
899.393	3279
899.513	3348
899.633	3313
899.753	3386
899.873	3306
899.993	3397
900.113	3298
900.232	3363
900.352	3363
900.472	3291
900.591	3195
900.711	3287
900.83	3222
900.95	3397
901.069	3500
901.189	3329
901.308	3169
901.427	3100
901.546	3184
901.665	3272
901.784	3348
901.904	3180
902.023	3097
902.141	3055
902.26	2963
902.379	3131
902.498	3051
902.617	3020
902.735	3211
902.854	3226
902.973	3211
903.091	3058
903.21	3070
903.328	3154
903.446	3112
903.565	3081
903.683	3203
903.801	3112
903.919	3253
904.038	3302
904.156	3192
904.274	3283
904.392	3245
904.51	3245
904.627	3351
904.745	3428
904.863	3477
904.981	3283
905.098	3195
905.216	3268
905.334	3272
905.451	3279
905.569	3298
905.686	3454
905.803	3439
905.921	3268
906.038	3428
906.155	3329
906.272	3249
906.389	3351
906.506	3241
906.623	3253
906.74	3237
906.857	3173
906.974	3279
907.091	3454
907.208	3553
907.324	3481
907.441	3370
907.557	3237
907.674	3230
907.79	3211
907.907	3260
908.023	3382
908.139	3374
908.256	3363
908.372	3348
908.488	3340
908.604	3260
908.72	3226
908.836	3279
908.952	3298
909.068	3321
909.184	3504
909.3	3367
909.415	3534
909.531	3443
909.647	3306
909.762	3294
909.878	3237
909.993	3363
910.108	3291
910.224	3317
910.339	3412
910.454	3321
910.57	3317
910.685	3230
910.8	3599
910.915	3542
911.03	3439
911.145	3256
911.259	3279
911.374	3325
911.489	3283
911.604	3218
911.718	3154
911.833	3142
911.947	3028
912.062	2967
912.176	3150
912.291	3207
912.405	3184
912.519	3420
912.633	3466
912.748	3298
912.862	3275
912.976	3154
913.09	3036
913.204	3142
913.318	3256
913.431	3351
913.545	3317
913.659	3355
913.772	3317
913.886	3245
914	3211
914.113	3374
914.226	3370
914.34	3359
914.453	3253
914.566	3416
914.68	3264
914.793	3287
914.906	3135
915.019	3127
915.132	3062
915.245	3207
915.358	3199
915.47	3214
915.583	3233
915.696	3264
915.809	3424
915.921	3393
916.034	3264
916.146	3195
916.259	3230
916.371	3363
916.483	3363
916.595	3233
916.708	3348
916.82	3283
916.932	3321
917.044	3367
917.156	3329
917.268	3222
917.38	3291
917.491	3264
917.603	3382
917.715	3405
917.826	3481
917.938	3348
918.049	3264
918.161	3420
918.272	3526
918.384	3576
918.495	3450
918.606	3321
918.717	3294
918.828	3405
918.939	3397
919.05	3306
919.161	3355
919.272	3161
919.383	3268
919.494	3519
919.604	3675
919.715	3511
919.826	3447
919.936	3477
920.047	3622
920.157	3523
920.267	3755
920.378	3622
920.488	3572
920.598	3785
920.708	3968
920.818	3854
920.928	3812
921.038	4006
921.148	3983
921.258	3682
921.368	3641
921.477	3576
921.587	3530
921.697	3466
921.806	3629
921.916	3542
922.025	3367
922.134	3363
922.244	3317
922.353	3420
922.462	3253
922.571	3214
922.68	3119
922.789	3077
922.898	3150
923.007	3089
923.116	3176
923.224	3161
923.333	3180
923.442	3081
923.55	3097
923.659	3135
923.767	3245
923.876	3135
923.984	3214
924.092	3104
924.201	3214
924.309	3195
924.417	3272
924.525	3218
924.633	3253
924.741	4124
924.849	3036
924.956	3291
925.064	3104
925.172	3058
925.279	3097
925.387	3203
925.494	3173
925.602	3344
925.709	3321
925.816	3203
925.924	3272
926.031	3370
926.138	3325
926.245	3340
926.352	3253
926.459	3378
926.566	3458
926.673	3291
926.779	3226
926.886	3218
926.993	3154
927.099	3146
927.206	3108
927.312	3093
927.419	3256
927.525	3222
927.631	3256
927.737	3116
927.843	3161
927.95	3036
928.056	3127
928.162	3199
928.267	3237
928.373	3842
928.479	3313
928.585	3074
928.69	3173
928.796	3294
928.901	3161
929.007	3036
929.112	3180
929.218	3199
929.323	3142
929.428	3157
929.533	3348
929.638	3127
929.743	3150
929.848	3317
929.953	3218
930.058	3116
930.163	2994
930.267	3066
930.372	3230
930.477	3062
930.581	3329
930.685	3226
930.79	3055
930.894	3127
930.998	3112
931.103	3291
931.207	2971
931.311	2937
931.415	2922
931.519	2762
931.623	2800
