Data from test_V78500241_233.txt Node
Date: Fri Mar 25 16:16:49 CST 2022
User: usil
Spectrometer: V785-0024
Trigger mode: 0
Integration Time (sec): 4.000000E-1
Scans to average: 1
Nonlinearity correction enabled: false
Boxcar width: 0
Storing dark spectrum: false
XAxis mode: Wavelengths
Number of Pixels in Spectrum: 1024
>>>>>Begin Spectral Data<<<<<
801.071	2910
801.214	3024
801.356	2914
801.499	2914
801.641	2872
801.783	2960
801.926	3093
802.068	3013
802.211	3005
802.353	3066
802.496	3009
802.638	3074
802.78	3085
802.923	3104
803.065	3058
803.208	2910
803.35	2948
803.492	2937
803.635	2990
803.777	2811
803.919	2887
804.061	3245
804.204	2994
804.346	2910
804.488	2872
804.63	2998
804.773	2872
804.915	2967
805.057	3116
805.199	2937
805.341	3001
805.483	3058
805.626	3036
805.768	3024
805.91	3112
806.052	3135
806.194	3036
806.336	3241
806.478	3039
806.62	2979
806.762	3001
806.904	3077
807.046	3203
807.188	3043
807.33	2952
807.472	3017
807.614	2956
807.756	2971
807.898	2979
808.04	2929
808.182	3009
808.324	2960
808.465	2883
808.607	2914
808.749	2845
808.891	2853
809.033	3020
809.174	2971
809.316	2891
809.458	2922
809.6	2785
809.741	2830
809.883	2815
810.025	2872
810.166	2895
810.308	2872
810.45	2891
810.591	2819
810.733	2766
810.875	2834
811.016	2773
811.158	2807
811.299	2842
811.441	2933
811.582	2918
811.724	2807
811.865	2880
812.007	2963
812.148	2883
812.29	2891
812.431	2891
812.573	2960
812.714	2986
812.855	3093
812.997	3036
813.138	3131
813.279	3036
813.421	2975
813.562	2982
813.703	2891
813.845	2914
813.986	2796
814.127	2754
814.268	2868
814.41	2872
814.551	2861
814.692	2910
814.833	2857
814.974	2902
815.115	2971
815.256	2868
815.397	2849
815.539	2883
815.68	2804
815.821	2830
815.962	2971
816.103	2925
816.244	2902
816.385	2906
816.526	2963
816.666	2910
816.807	2766
816.948	2899
817.089	2937
817.23	2937
817.371	2804
817.512	2807
817.653	2849
817.793	2864
817.934	2891
818.075	2994
818.216	3028
818.356	3032
818.497	2880
818.638	2781
818.778	2853
818.919	2819
819.06	2773
819.2	2941
819.341	2796
819.481	2853
819.622	2906
819.762	3146
819.903	3036
820.043	2963
820.184	2910
820.324	2941
820.465	3062
820.605	3070
820.746	3039
820.886	2956
821.026	3097
821.167	3207
821.307	3294
821.447	3256
821.588	3230
821.728	3230
821.868	3211
822.008	3081
822.149	3253
822.289	3268
822.429	3093
822.569	3131
822.709	3180
822.849	3047
822.99	3077
823.13	3173
823.27	3192
823.41	3157
823.55	3161
823.69	3173
823.83	3237
823.97	3089
824.11	3055
824.25	2982
824.389	3074
824.529	3142
824.669	3093
824.809	3222
824.949	3294
825.089	3275
825.228	3214
825.368	3051
825.508	3001
825.648	3013
825.787	3036
825.927	3047
826.067	2975
826.206	2979
826.346	3085
826.485	3097
826.625	3131
826.765	3279
826.904	3226
827.044	2998
827.183	2948
827.323	2895
827.462	3017
827.601	2914
827.741	2967
827.88	2975
828.02	2849
828.159	3009
828.298	3005
828.437	3142
828.577	3066
828.716	3256
828.855	3100
828.994	2929
829.134	2929
829.273	2914
829.412	2902
829.551	2891
829.69	2918
829.829	3028
829.968	3154
830.107	3055
830.246	3047
830.385	2929
830.524	2883
830.663	2815
830.802	2743
830.941	2682
831.08	2689
831.219	2792
831.357	2781
831.496	2960
831.635	2769
831.774	2663
831.913	2663
832.051	2590
832.19	2594
832.329	2689
832.467	2552
832.606	2488
832.744	2571
832.883	2606
833.022	2651
833.16	2663
833.299	2708
833.437	2731
833.576	2735
833.714	2754
833.852	2750
833.991	2766
834.129	2849
834.267	2834
834.406	2811
834.544	2864
834.682	2902
834.821	2887
834.959	3116
835.097	2887
835.235	3077
835.373	3024
835.511	3028
835.65	2979
835.788	3017
835.926	2834
836.064	2819
836.202	2849
836.34	3108
836.478	3173
836.615	3070
836.753	3173
836.891	3230
837.029	3173
837.167	3127
837.305	3032
837.443	3043
837.58	2990
837.718	3119
837.856	3077
837.993	3051
838.131	3104
838.269	3112
838.406	3100
838.544	3097
838.681	2933
838.819	2929
838.956	2823
839.094	2880
839.231	2937
839.369	3036
839.506	3367
839.643	3249
839.781	3039
839.918	2952
840.055	3051
840.193	3043
840.33	3066
840.467	3131
840.604	3135
840.742	3382
840.879	3085
841.016	3055
841.153	3157
841.29	3348
841.427	3294
841.564	3279
841.701	3294
841.838	3237
841.975	3184
842.112	3245
842.249	3116
842.385	3058
842.522	3264
842.659	3081
842.796	3055
842.933	3127
843.069	3036
843.206	3039
843.343	3211
843.479	3112
843.616	3180
843.752	2914
843.889	2895
844.025	3070
844.162	2868
844.298	3089
844.435	2948
844.571	2963
844.708	3119
844.844	3241
844.98	3260
845.117	3199
845.253	3081
845.389	3017
845.525	3127
845.661	3146
845.798	3024
845.934	3131
846.07	3043
846.206	3245
846.342	3317
846.478	3268
846.614	3123
846.75	3062
846.886	3024
847.022	3218
847.158	3154
847.294	3237
847.429	3253
847.565	3207
847.701	3469
847.837	3066
847.972	3020
848.108	3218
848.244	3173
848.379	2971
848.515	2944
848.65	2937
848.786	2948
848.921	3009
849.057	3135
849.192	3150
849.328	3097
849.463	3112
849.598	3089
849.734	3085
849.869	2956
850.004	2956
850.14	3017
850.275	2937
850.41	2868
850.545	2910
850.68	2952
850.815	2963
850.95	2986
851.085	3192
851.22	3165
851.355	3024
851.49	3017
851.625	2982
851.76	3017
851.895	2960
852.03	2925
852.165	3020
852.299	3169
852.434	3211
852.569	3157
852.703	3211
852.838	3245
852.973	3359
853.107	3355
853.242	3157
853.376	3100
853.511	3020
853.645	3036
853.78	3237
853.914	3135
854.048	3104
854.183	3062
854.317	3169
854.451	3272
854.585	3104
854.72	3081
854.854	3218
854.988	3013
855.122	3135
855.256	2963
855.39	3135
855.524	3245
855.658	3199
855.792	3188
855.926	3176
856.06	3222
856.194	3245
856.327	3131
856.461	3104
856.595	3100
856.729	3127
856.862	3264
856.996	3192
857.13	3268
857.263	3226
857.397	3245
857.53	3138
857.664	3192
857.797	3245
857.931	3268
858.064	3142
858.197	3249
858.331	3146
858.464	3119
858.597	3020
858.731	3123
858.864	3112
858.997	3104
859.13	3142
859.263	3188
859.396	3154
859.529	3123
859.662	3097
859.795	3043
859.928	3157
860.061	3291
860.194	3287
860.327	3146
860.46	3142
860.592	3241
860.725	3256
860.858	3226
860.99	3097
861.123	3066
861.256	3089
861.388	3138
861.521	3899
861.653	3005
861.786	2982
861.918	3005
862.05	3089
862.183	3077
862.315	3184
862.447	3211
862.58	3093
862.712	2914
862.844	2880
862.976	3058
863.108	3009
863.24	3310
863.372	2842
863.504	2994
863.636	2944
863.768	3047
863.9	2963
864.032	2918
864.164	2952
864.296	3028
864.428	3077
864.559	3093
864.691	3131
864.823	3036
864.954	3028
865.086	3055
865.217	3017
865.349	2944
865.48	2979
865.612	3036
865.743	3169
865.875	3009
866.006	2937
866.137	2994
866.269	2975
866.4	2960
866.531	2925
866.662	2880
866.793	2902
866.924	2910
867.055	3005
867.186	2914
867.317	2910
867.448	2853
867.579	2842
867.71	2891
867.841	2842
867.972	2944
868.103	2899
868.233	2883
868.364	2868
868.495	2895
868.625	3093
868.756	3192
868.886	2971
869.017	3005
869.147	3184
869.278	3188
869.408	3051
869.539	2998
869.669	3093
869.799	3055
869.929	3108
870.06	3135
870.19	3340
870.32	3291
870.45	3310
870.58	3424
870.71	3439
870.84	3450
870.97	3317
871.1	3260
871.23	3481
871.36	3447
871.489	3359
871.619	3389
871.749	3401
871.879	3454
872.008	3488
872.138	3367
872.267	3279
872.397	3142
872.526	3116
872.656	3062
872.785	3104
872.915	3253
873.044	3279
873.173	3207
873.303	3241
873.432	3241
873.561	3230
873.69	3142
873.819	3169
873.948	3214
874.077	3097
874.206	3036
874.335	3112
874.464	3180
874.593	3332
874.722	3226
874.851	3420
874.979	3325
875.108	3336
875.237	3211
875.365	3169
875.494	3203
875.623	3298
875.751	3066
875.88	3097
876.008	3161
876.136	3241
876.265	3389
876.393	3496
876.521	3428
876.65	3359
876.778	3367
876.906	3268
877.034	3222
877.162	3260
877.29	3222
877.418	3260
877.546	3260
877.674	3245
877.802	3283
877.93	3214
878.058	3195
878.185	3112
878.313	3211
878.441	3203
878.568	3093
878.696	3138
878.824	3214
878.951	3272
879.079	3439
879.206	3663
879.333	3439
879.461	3332
879.588	3348
879.715	3507
879.842	3587
879.97	3431
880.097	3176
880.224	3135
880.351	3184
880.478	3214
880.605	3207
880.732	3199
880.859	3496
880.986	3291
881.112	3351
881.239	3192
881.366	3081
881.493	3017
881.619	3047
881.746	3070
881.872	3135
881.999	3123
882.125	3154
882.252	3249
882.378	3317
882.505	3481
882.631	3302
882.757	3131
882.883	3214
883.01	3214
883.136	3165
883.262	3104
883.388	3119
883.514	3344
883.64	3367
883.766	3310
883.892	3184
884.018	3218
884.143	3431
884.269	3507
884.395	3180
884.52	3154
884.646	3173
884.772	3119
884.897	3112
885.023	3199
885.148	3329
885.274	3420
885.399	3370
885.524	3264
885.65	3268
885.775	3348
885.9	3302
886.025	3439
886.15	3363
886.275	3294
886.4	3253
886.525	3294
886.65	3245
886.775	3302
886.9	3530
887.025	3660
887.149	3393
887.274	3268
887.399	3199
887.523	3241
887.648	3214
887.773	3211
887.897	3409
888.021	3378
888.146	3325
888.27	3409
888.395	3534
888.519	3469
888.643	3458
888.767	3477
888.891	3317
889.015	3268
889.139	3298
889.263	3264
889.387	3397
889.511	3530
889.635	3450
889.759	3294
889.883	3310
890.006	3424
890.13	3511
890.254	3275
890.377	3310
890.501	3176
890.624	3180
890.748	3310
890.871	3173
890.995	3112
891.118	3070
891.241	3192
891.364	3245
891.488	3302
891.611	3188
891.734	3214
891.857	3321
891.98	3237
892.103	3348
892.226	3279
892.349	3233
892.471	3070
892.594	3279
892.717	3287
892.839	3332
892.962	3272
893.085	3336
893.207	3294
893.33	3180
893.452	3233
893.575	3393
893.697	3260
893.819	3496
893.941	3500
894.064	3428
894.186	3275
894.308	3321
894.43	3443
894.552	3519
894.674	3496
894.796	3283
894.918	3321
895.04	3302
895.161	3500
895.283	3416
895.405	3306
895.526	3359
895.648	3428
895.769	3435
895.891	3469
896.012	3504
896.134	3523
896.255	3397
896.376	3397
896.498	3382
896.619	3420
896.74	3401
896.861	3409
896.982	3671
897.103	3861
897.224	3584
897.345	3538
897.466	3393
897.587	3530
897.708	3606
897.828	3564
897.949	3439
898.07	3344
898.19	3450
898.311	3618
898.431	3485
898.552	3507
898.672	3618
898.792	3625
898.913	3553
899.033	3401
899.153	3272
899.273	3218
899.393	3298
899.513	3302
899.633	3321
899.753	3351
899.873	3313
899.993	3374
900.113	3363
900.232	3412
900.352	3359
900.472	3268
900.591	3226
900.711	3313
900.83	3298
900.95	3450
901.069	3492
901.189	3370
901.308	3222
901.427	3146
901.546	3211
901.665	3298
901.784	3325
901.904	3222
902.023	3180
902.141	3036
902.26	3001
902.379	3131
902.498	3100
902.617	3112
902.735	3211
902.854	3256
902.973	3192
903.091	3047
903.21	3043
903.328	3173
903.446	3112
903.565	3116
903.683	3184
903.801	3123
903.919	3256
904.038	3317
904.156	3146
904.274	3291
904.392	3245
904.51	3283
904.627	3367
904.745	3431
904.863	3500
904.981	3272
905.098	3165
905.216	3211
905.334	3306
905.451	3329
905.569	3294
905.686	3458
905.803	3424
905.921	3291
906.038	3412
906.155	3374
906.272	3260
906.389	3340
906.506	3272
906.623	3279
906.74	3245
906.857	3192
906.974	3302
907.091	3416
907.208	3584
907.324	3496
907.441	3359
907.557	3260
907.674	3264
907.79	3192
907.907	3313
908.023	3386
908.139	3355
908.256	3336
908.372	3397
908.488	3340
908.604	3264
908.72	3226
908.836	3294
908.952	3291
909.068	3317
909.184	3435
909.3	3393
909.415	3485
909.531	3504
909.647	3294
909.762	3348
909.878	3245
909.993	3370
910.108	3321
910.224	3367
910.339	3386
910.454	3287
910.57	3329
910.685	3230
910.8	3606
910.915	3526
911.03	3485
911.145	3260
911.259	3272
911.374	3302
911.489	3249
911.604	3249
911.718	3097
911.833	3173
911.947	3081
912.062	2994
912.176	3207
912.291	3211
912.405	3214
912.519	3412
912.633	3481
912.748	3351
912.862	3310
912.976	3150
913.09	3055
913.204	3188
913.318	3214
913.431	3340
913.545	3351
913.659	3435
913.772	3340
913.886	3233
914	3211
914.113	3348
914.226	3420
914.34	3363
914.453	3203
914.566	3431
914.68	3302
914.793	3321
914.906	3123
915.019	3146
915.132	3085
915.245	3180
915.358	3192
915.47	3203
915.583	3310
915.696	3336
915.809	3420
915.921	3454
916.034	3291
916.146	3253
916.259	3207
916.371	3409
916.483	3351
916.595	3260
916.708	3393
916.82	3325
916.932	3340
917.044	3313
917.156	3382
917.268	3272
917.38	3325
917.491	3302
917.603	3325
917.715	3473
917.826	3473
917.938	3386
918.049	3287
918.161	3401
918.272	3587
918.384	3572
918.495	3466
918.606	3317
918.717	3279
918.828	3367
918.939	3393
919.05	3340
919.161	3401
919.272	3161
919.383	3260
919.494	3492
919.604	3663
919.715	3450
919.826	3374
919.936	3450
920.047	3564
920.157	3561
920.267	3774
920.378	3618
920.488	3591
920.598	3743
920.708	3983
920.818	3842
920.928	3850
921.038	4002
921.148	3991
921.258	3720
921.368	3656
921.477	3557
921.587	3530
921.697	3507
921.806	3675
921.916	3523
922.025	3389
922.134	3378
922.244	3355
922.353	3420
922.462	3275
922.571	3241
922.68	3104
922.789	3097
922.898	3180
923.007	3085
923.116	3226
923.224	3203
923.333	3218
923.442	3116
923.55	3108
923.659	3123
923.767	3237
923.876	3135
923.984	3249
924.092	3112
924.201	3211
924.309	3214
924.417	3279
924.525	3195
924.633	3264
924.741	4185
924.849	3077
924.956	3306
925.064	3085
925.172	3081
925.279	3104
925.387	3203
925.494	3199
925.602	3344
925.709	3306
925.816	3195
925.924	3275
926.031	3420
926.138	3344
926.245	3336
926.352	3268
926.459	3435
926.566	3519
926.673	3317
926.779	3245
926.886	3275
926.993	3180
927.099	3123
927.206	3157
927.312	3138
927.419	3230
927.525	3218
927.631	3291
927.737	3142
927.843	3138
927.95	3055
928.056	3154
928.162	3192
928.267	3264
928.373	3888
928.479	3313
928.585	3070
928.69	3283
928.796	3253
928.901	3214
929.007	3074
929.112	3207
929.218	3207
929.323	3207
929.428	3165
929.533	3317
929.638	3135
929.743	3199
929.848	3275
929.953	3241
930.058	3154
930.163	3017
930.267	3032
930.372	3207
930.477	3005
930.581	3317
930.685	3195
930.79	3062
930.894	3154
930.998	3089
931.103	3313
931.207	2963
931.311	2990
931.415	2933
931.519	2811
931.623	2804
