Data from test_V78500241_1219.txt Node
Date: Fri Mar 25 16:23:38 CST 2022
User: usil
Spectrometer: V785-0024
Trigger mode: 0
Integration Time (sec): 4.000000E-1
Scans to average: 1
Nonlinearity correction enabled: false
Boxcar width: 0
Storing dark spectrum: false
XAxis mode: Wavelengths
Number of Pixels in Spectrum: 1024
>>>>>Begin Spectral Data<<<<<
801.071	2899
801.214	2971
801.356	2902
801.499	2910
801.641	2887
801.783	2922
801.926	3066
802.068	3013
802.211	2944
802.353	3013
802.496	2948
802.638	3013
802.78	3039
802.923	3074
803.065	2998
803.208	2868
803.35	2910
803.492	2929
803.635	2929
803.777	2708
803.919	2826
804.061	3203
804.204	2933
804.346	2895
804.488	2857
804.63	2986
804.773	2876
804.915	2925
805.057	3051
805.199	2933
805.341	2952
805.483	3058
805.626	2971
805.768	2975
805.91	3127
806.052	3142
806.194	3051
806.336	3237
806.478	2982
806.62	2933
806.762	2971
806.904	3047
807.046	3157
807.188	3009
807.33	2902
807.472	2952
807.614	2891
807.756	3009
807.898	2929
808.04	2872
808.182	3005
808.324	2948
808.465	2895
808.607	2876
808.749	2777
808.891	2876
809.033	2960
809.174	2948
809.316	2887
809.458	2887
809.6	2804
809.741	2777
809.883	2754
810.025	2838
810.166	2868
810.308	2823
810.45	2864
810.591	2762
810.733	2769
810.875	2830
811.016	2773
811.158	2739
811.299	2792
811.441	2960
811.582	2902
811.724	2830
811.865	2823
812.007	2933
812.148	2891
812.29	2842
812.431	2861
812.573	2967
812.714	2971
812.855	3036
812.997	3017
813.138	3123
813.279	2994
813.421	3013
813.562	2937
813.703	2887
813.845	2899
813.986	2754
814.127	2739
814.268	2819
814.41	2842
814.551	2834
814.692	2868
814.833	2830
814.974	2887
815.115	2979
815.256	2842
815.397	2861
815.539	2868
815.68	2807
815.821	2804
815.962	2952
816.103	2918
816.244	2887
816.385	2857
816.526	2975
816.666	2883
816.807	2750
816.948	2883
817.089	2922
817.23	2872
817.371	2785
817.512	2746
817.653	2823
817.793	2819
817.934	2853
818.075	2929
818.216	2975
818.356	3032
818.497	2864
818.638	2826
818.778	2834
818.919	2777
819.06	2724
819.2	2864
819.341	2796
819.481	2792
819.622	2910
819.762	3089
819.903	3058
820.043	2918
820.184	2906
820.324	2883
820.465	3009
820.605	2998
820.746	3013
820.886	2918
821.026	3116
821.167	3123
821.307	3241
821.447	3233
821.588	3192
821.728	3222
821.868	3184
822.008	3062
822.149	3199
822.289	3253
822.429	3116
822.569	3077
822.709	3192
822.849	3024
822.99	3070
823.13	3173
823.27	3188
823.41	3108
823.55	3131
823.69	3165
823.83	3199
823.97	3104
824.11	2979
824.25	2998
824.389	3077
824.529	3104
824.669	3066
824.809	3195
824.949	3245
825.089	3195
825.228	3180
825.368	2986
825.508	2990
825.648	2937
825.787	3009
825.927	3005
826.067	2971
826.206	2982
826.346	3077
826.485	3055
826.625	3108
826.765	3237
826.904	3230
827.044	2971
827.183	2925
827.323	2834
827.462	2956
827.601	2883
827.741	2899
827.88	2944
828.02	2868
828.159	2982
828.298	3047
828.437	3150
828.577	3043
828.716	3253
828.855	3077
828.994	2937
829.134	2910
829.273	2864
829.412	2880
829.551	2830
829.69	2883
829.829	2982
829.968	3085
830.107	3020
830.246	3066
830.385	2922
830.524	2887
830.663	2792
830.802	2743
830.941	2667
831.08	2682
831.219	2758
831.357	2750
831.496	2960
831.635	2708
831.774	2651
831.913	2670
832.051	2564
832.19	2579
832.329	2663
832.467	2533
832.606	2484
832.744	2571
832.883	2541
833.022	2583
833.16	2644
833.299	2697
833.437	2693
833.576	2670
833.714	2727
833.852	2735
833.991	2758
834.129	2815
834.267	2823
834.406	2800
834.544	2823
834.682	2868
834.821	2895
834.959	3043
835.097	2910
835.235	3062
835.373	3001
835.511	3017
835.65	2922
835.788	2975
835.926	2815
836.064	2788
836.202	2807
836.34	3097
836.478	3146
836.615	3039
836.753	3142
836.891	3199
837.029	3135
837.167	3123
837.305	3024
837.443	3036
837.58	2922
837.718	3131
837.856	3077
837.993	3009
838.131	3108
838.269	3116
838.406	3047
838.544	3089
838.681	2956
838.819	2922
838.956	2811
839.094	2792
839.231	2899
839.369	3020
839.506	3367
839.643	3207
839.781	2990
839.918	2979
840.055	3028
840.193	3043
840.33	3074
840.467	3127
840.604	3135
840.742	3393
840.879	3043
841.016	3036
841.153	3142
841.29	3336
841.427	3306
841.564	3264
841.701	3287
841.838	3222
841.975	3176
842.112	3207
842.249	3070
842.385	3097
842.522	3253
842.659	3077
842.796	3055
842.933	3081
843.069	3005
843.206	3047
843.343	3161
843.479	3112
843.616	3108
843.752	2899
843.889	2887
844.025	3074
844.162	2899
844.298	3081
844.435	2960
844.571	2876
844.708	3066
844.844	3188
844.98	3226
845.117	3222
845.253	3043
845.389	3058
845.525	3100
845.661	3081
845.798	3020
845.934	3085
846.07	3032
846.206	3245
846.342	3291
846.478	3222
846.614	3093
846.75	3058
846.886	3039
847.022	3237
847.158	3123
847.294	3161
847.429	3226
847.565	3214
847.701	3488
847.837	3039
847.972	2990
848.108	3176
848.244	3142
848.379	3009
848.515	2918
848.65	2910
848.786	2971
848.921	3009
849.057	3127
849.192	3146
849.328	3062
849.463	3135
849.598	3077
849.734	3028
849.869	2960
850.004	2925
850.14	2960
850.275	2937
850.41	2796
850.545	2891
850.68	2922
850.815	2952
850.95	2982
851.085	3180
851.22	3093
851.355	3039
851.49	2963
851.625	3005
851.76	2982
851.895	2918
852.03	2891
852.165	3062
852.299	3055
852.434	3176
852.569	3127
852.703	3173
852.838	3230
852.973	3298
853.107	3332
853.242	3097
853.376	3146
853.511	2944
853.645	3009
853.78	3226
853.914	3112
854.048	3100
854.183	3058
854.317	3150
854.451	3291
854.585	3123
854.72	3062
854.854	3165
854.988	3043
855.122	3047
855.256	2994
855.39	3081
855.524	3233
855.658	3119
855.792	3161
855.926	3169
856.06	3203
856.194	3249
856.327	3173
856.461	3032
856.595	3066
856.729	3055
856.862	3173
856.996	3123
857.13	3188
857.263	3214
857.397	3264
857.53	3112
857.664	3222
857.797	3264
857.931	3249
858.064	3157
858.197	3180
858.331	3131
858.464	3089
858.597	3005
858.731	3123
858.864	3165
858.997	3081
859.13	3135
859.263	3192
859.396	3199
859.529	3081
859.662	3081
859.795	3039
859.928	3119
860.061	3211
860.194	3287
860.327	3142
860.46	3104
860.592	3226
860.725	3214
860.858	3233
860.99	3097
861.123	3036
861.256	3066
861.388	3169
861.521	3724
861.653	3017
861.786	2994
861.918	2998
862.05	3028
862.183	3074
862.315	3131
862.447	3173
862.58	3085
862.712	2902
862.844	2883
862.976	2982
863.108	3032
863.24	3431
863.372	2895
863.504	2960
863.636	2963
863.768	3005
863.9	2948
864.032	2910
864.164	2960
864.296	2979
864.428	3119
864.559	3100
864.691	3051
864.823	3036
864.954	3066
865.086	3036
865.217	2998
865.349	2956
865.48	2982
865.612	3036
865.743	3123
865.875	2967
866.006	2952
866.137	2971
866.269	2967
866.4	2937
866.531	2872
866.662	2876
866.793	2891
866.924	2895
867.055	2941
867.186	2914
867.317	2883
867.448	2826
867.579	2857
867.71	2842
867.841	2834
867.972	2891
868.103	2895
868.233	2864
868.364	2853
868.495	2868
868.625	3085
868.756	3157
868.886	2975
869.017	3005
869.147	3138
869.278	3150
869.408	3032
869.539	3032
869.669	3074
869.799	3005
869.929	3119
870.06	3077
870.19	3283
870.32	3233
870.45	3272
870.58	3348
870.71	3454
870.84	3462
870.97	3279
871.1	3211
871.23	3473
871.36	3458
871.489	3363
871.619	3370
871.749	3397
871.879	3447
872.008	3466
872.138	3313
872.267	3260
872.397	3154
872.526	3081
872.656	3009
872.785	3081
872.915	3222
873.044	3317
873.173	3184
873.303	3245
873.432	3256
873.561	3195
873.69	3138
873.819	3142
873.948	3176
874.077	3097
874.206	2994
874.335	3085
874.464	3184
874.593	3306
874.722	3207
874.851	3393
874.979	3332
875.108	3348
875.237	3184
875.365	3188
875.494	3116
875.623	3241
875.751	3051
875.88	3135
876.008	3188
876.136	3222
876.265	3359
876.393	3500
876.521	3393
876.65	3412
876.778	3351
876.906	3241
877.034	3192
877.162	3241
877.29	3195
877.418	3302
877.546	3264
877.674	3218
877.802	3241
877.93	3203
878.058	3157
878.185	3100
878.313	3169
878.441	3211
878.568	3077
878.696	3154
878.824	3230
878.951	3279
879.079	3409
879.206	3614
879.333	3454
879.461	3279
879.588	3325
879.715	3511
879.842	3591
879.97	3355
880.097	3154
880.224	3123
880.351	3176
880.478	3222
880.605	3169
880.732	3184
880.859	3431
880.986	3253
881.112	3298
881.239	3199
881.366	3055
881.493	3017
881.619	3009
881.746	3089
881.872	3036
881.999	3081
882.125	3146
882.252	3241
882.378	3249
882.505	3401
882.631	3287
882.757	3180
882.883	3199
883.01	3184
883.136	3154
883.262	3070
883.388	3085
883.514	3283
883.64	3344
883.766	3222
883.892	3150
884.018	3287
884.143	3428
884.269	3507
884.395	3199
884.52	3150
884.646	3173
884.772	3127
884.897	3093
885.023	3226
885.148	3332
885.274	3428
885.399	3389
885.524	3268
885.65	3268
885.775	3325
885.9	3260
886.025	3424
886.15	3359
886.275	3294
886.4	3264
886.525	3291
886.65	3283
886.775	3268
886.9	3454
887.025	3641
887.149	3401
887.274	3245
887.399	3188
887.523	3173
887.648	3176
887.773	3180
887.897	3405
888.021	3386
888.146	3321
888.27	3431
888.395	3523
888.519	3450
888.643	3386
888.767	3424
888.891	3294
889.015	3230
889.139	3332
889.263	3253
889.387	3416
889.511	3557
889.635	3469
889.759	3237
889.883	3287
890.006	3340
890.13	3511
890.254	3260
890.377	3294
890.501	3211
890.624	3184
890.748	3279
890.871	3192
890.995	3089
891.118	3055
891.241	3165
891.364	3214
891.488	3355
891.611	3218
891.734	3207
891.857	3287
891.98	3241
892.103	3306
892.226	3249
892.349	3207
892.471	3112
892.594	3214
892.717	3287
892.839	3310
892.962	3302
893.085	3306
893.207	3287
893.33	3150
893.452	3169
893.575	3302
893.697	3298
893.819	3424
893.941	3492
894.064	3469
894.186	3279
894.308	3279
894.43	3435
894.552	3507
894.674	3450
894.796	3249
894.918	3317
895.04	3260
895.161	3409
895.283	3351
895.405	3306
895.526	3382
895.648	3405
895.769	3409
895.891	3447
896.012	3447
896.134	3469
896.255	3363
896.376	3355
896.498	3329
896.619	3416
896.74	3340
896.861	3378
896.982	3637
897.103	3808
897.224	3568
897.345	3473
897.466	3431
897.587	3511
897.708	3625
897.828	3542
897.949	3431
898.07	3382
898.19	3416
898.311	3572
898.431	3492
898.552	3477
898.672	3561
898.792	3572
898.913	3530
899.033	3382
899.153	3325
899.273	3203
899.393	3241
899.513	3302
899.633	3283
899.753	3348
899.873	3317
899.993	3351
900.113	3310
900.232	3397
900.352	3332
900.472	3302
900.591	3199
900.711	3306
900.83	3211
900.95	3428
901.069	3458
901.189	3313
901.308	3199
901.427	3108
901.546	3207
901.665	3302
901.784	3321
901.904	3199
902.023	3112
902.141	3024
902.26	3013
902.379	3123
902.498	3070
902.617	3039
902.735	3195
902.854	3218
902.973	3192
903.091	3047
903.21	3062
903.328	3154
903.446	3135
903.565	3112
903.683	3180
903.801	3108
903.919	3249
904.038	3291
904.156	3150
904.274	3268
904.392	3222
904.51	3302
904.627	3313
904.745	3435
904.863	3485
904.981	3283
905.098	3173
905.216	3207
905.334	3302
905.451	3340
905.569	3256
905.686	3420
905.803	3458
905.921	3268
906.038	3412
906.155	3351
906.272	3317
906.389	3279
906.506	3256
906.623	3245
906.74	3233
906.857	3180
906.974	3253
907.091	3416
907.208	3545
907.324	3469
907.441	3359
907.557	3195
907.674	3222
907.79	3226
907.907	3275
908.023	3389
908.139	3340
908.256	3332
908.372	3363
908.488	3351
908.604	3283
908.72	3256
908.836	3302
908.952	3317
909.068	3348
909.184	3462
909.3	3374
909.415	3443
909.531	3447
909.647	3249
909.762	3294
909.878	3260
909.993	3374
910.108	3329
910.224	3370
910.339	3389
910.454	3310
910.57	3275
910.685	3188
910.8	3595
910.915	3542
911.03	3397
911.145	3256
911.259	3291
911.374	3321
911.489	3218
911.604	3249
911.718	3119
911.833	3142
911.947	3036
912.062	2948
912.176	3142
912.291	3203
912.405	3226
912.519	3428
912.633	3454
912.748	3283
912.862	3249
912.976	3188
913.09	3070
913.204	3123
913.318	3249
913.431	3306
913.545	3298
913.659	3439
913.772	3351
913.886	3211
914	3199
914.113	3321
914.226	3393
914.34	3348
914.453	3214
914.566	3412
914.68	3249
914.793	3336
914.906	3119
915.019	3055
915.132	3055
915.245	3176
915.358	3192
915.47	3249
915.583	3253
915.696	3260
915.809	3412
915.921	3401
916.034	3241
916.146	3230
916.259	3188
916.371	3359
916.483	3367
916.595	3211
916.708	3302
916.82	3332
916.932	3336
917.044	3310
917.156	3367
917.268	3241
917.38	3287
917.491	3321
917.603	3348
917.715	3450
917.826	3454
917.938	3359
918.049	3218
918.161	3435
918.272	3545
918.384	3557
918.495	3447
918.606	3275
918.717	3268
918.828	3344
918.939	3416
919.05	3291
919.161	3313
919.272	3157
919.383	3260
919.494	3511
919.604	3663
919.715	3466
919.826	3424
919.936	3462
920.047	3591
920.157	3561
920.267	3762
920.378	3652
920.488	3572
920.598	3751
920.708	3956
920.818	3800
920.928	3808
921.038	4002
921.148	3994
921.258	3694
921.368	3656
921.477	3591
921.587	3557
921.697	3405
921.806	3618
921.916	3530
922.025	3412
922.134	3382
922.244	3306
922.353	3393
922.462	3268
922.571	3203
922.68	3138
922.789	3085
922.898	3104
923.007	3097
923.116	3188
923.224	3165
923.333	3154
923.442	3108
923.55	3074
923.659	3123
923.767	3218
923.876	3112
923.984	3260
924.092	3112
924.201	3188
924.309	3230
924.417	3230
924.525	3214
924.633	3241
924.741	3983
924.849	3036
924.956	3283
925.064	3089
925.172	3032
925.279	3097
925.387	3176
925.494	3195
925.602	3336
925.709	3302
925.816	3138
925.924	3283
926.031	3367
926.138	3344
926.245	3389
926.352	3233
926.459	3424
926.566	3454
926.673	3351
926.779	3268
926.886	3249
926.993	3108
927.099	3131
927.206	3077
927.312	3135
927.419	3268
927.525	3207
927.631	3279
927.737	3161
927.843	3116
927.95	3013
928.056	3142
928.162	3157
928.267	3237
928.373	3876
928.479	3321
928.585	3062
928.69	3226
928.796	3264
928.901	3154
929.007	2994
929.112	3211
929.218	3180
929.323	3138
929.428	3154
929.533	3363
929.638	3077
929.743	3169
929.848	3264
929.953	3180
930.058	3119
930.163	2990
930.267	3051
930.372	3195
930.477	2990
930.581	3264
930.685	3180
930.79	3055
930.894	3112
930.998	3081
931.103	3249
931.207	2967
931.311	2937
931.415	2906
931.519	2766
931.623	2826
