Data from test_V78500241_1253.txt Node
Date: Fri Mar 25 16:23:53 CST 2022
User: usil
Spectrometer: V785-0024
Trigger mode: 0
Integration Time (sec): 4.000000E-1
Scans to average: 1
Nonlinearity correction enabled: false
Boxcar width: 0
Storing dark spectrum: false
XAxis mode: Wavelengths
Number of Pixels in Spectrum: 1024
>>>>>Begin Spectral Data<<<<<
801.071	2902
801.214	2956
801.356	2872
801.499	2902
801.641	2861
801.783	2948
801.926	3039
802.068	2979
802.211	3005
802.353	3009
802.496	2952
802.638	2979
802.78	3047
802.923	3043
803.065	2979
803.208	2876
803.35	2876
803.492	2887
803.635	2933
803.777	2750
803.919	2807
804.061	3169
804.204	2906
804.346	2895
804.488	2804
804.63	2948
804.773	2842
804.915	2925
805.057	3043
805.199	2918
805.341	2986
805.483	3032
805.626	2956
805.768	2944
805.91	3047
806.052	3089
806.194	3013
806.336	3199
806.478	3005
806.62	2922
806.762	2967
806.904	3047
807.046	3173
807.188	2990
807.33	2922
807.472	2963
807.614	2857
807.756	2956
807.898	2925
808.04	2883
808.182	2941
808.324	2925
808.465	2864
808.607	2887
808.749	2785
808.891	2826
809.033	2937
809.174	2944
809.316	2872
809.458	2861
809.6	2743
809.741	2758
809.883	2750
810.025	2815
810.166	2819
810.308	2834
810.45	2834
810.591	2766
810.733	2746
810.875	2819
811.016	2766
811.158	2769
811.299	2796
811.441	2883
811.582	2861
811.724	2781
811.865	2800
812.007	2918
812.148	2880
812.29	2826
812.431	2899
812.573	2906
812.714	2929
812.855	3009
812.997	3039
813.138	3104
813.279	3017
813.421	2941
813.562	2990
813.703	2883
813.845	2891
813.986	2746
814.127	2750
814.268	2792
814.41	2815
814.551	2800
814.692	2864
814.833	2815
814.974	2925
815.115	2963
815.256	2819
815.397	2823
815.539	2834
815.68	2758
815.821	2792
815.962	2918
816.103	2887
816.244	2853
816.385	2872
816.526	2960
816.666	2922
816.807	2762
816.948	2910
817.089	2891
817.23	2864
817.371	2731
817.512	2769
817.653	2838
817.793	2815
817.934	2876
818.075	2922
818.216	2948
818.356	3017
818.497	2887
818.638	2746
818.778	2842
818.919	2796
819.06	2758
819.2	2880
819.341	2788
819.481	2777
819.622	2925
819.762	3089
819.903	3036
820.043	2895
820.184	2861
820.324	2910
820.465	2994
820.605	3017
820.746	3005
820.886	2948
821.026	3119
821.167	3150
821.307	3260
821.447	3317
821.588	3214
821.728	3211
821.868	3214
822.008	3062
822.149	3157
822.289	3233
822.429	3074
822.569	3097
822.709	3142
822.849	3013
822.99	3074
823.13	3116
823.27	3176
823.41	3085
823.55	3192
823.69	3127
823.83	3173
823.97	3108
824.11	2975
824.25	2952
824.389	3036
824.529	3085
824.669	3028
824.809	3214
824.949	3230
825.089	3192
825.228	3150
825.368	2982
825.508	2929
825.648	2941
825.787	2994
825.927	3020
826.067	2982
826.206	2967
826.346	2998
826.485	3043
826.625	3093
826.765	3287
826.904	3199
827.044	2975
827.183	2967
827.323	2849
827.462	2956
827.601	2899
827.741	2914
827.88	2937
828.02	2849
828.159	2956
828.298	3001
828.437	3058
828.577	3017
828.716	3211
828.855	3062
828.994	2914
829.134	2857
829.273	2895
829.412	2845
829.551	2823
829.69	2857
829.829	2952
829.968	3123
830.107	2979
830.246	2998
830.385	2902
830.524	2819
830.663	2834
830.802	2746
830.941	2640
831.08	2644
831.219	2743
831.357	2758
831.496	2944
831.635	2716
831.774	2686
831.913	2663
832.051	2575
832.19	2583
832.329	2674
832.467	2541
832.606	2499
832.744	2602
832.883	2617
833.022	2587
833.16	2663
833.299	2697
833.437	2712
833.576	2724
833.714	2750
833.852	2739
833.991	2773
834.129	2823
834.267	2819
834.406	2864
834.544	2914
834.682	2876
834.821	2906
834.959	3093
835.097	2914
835.235	3089
835.373	3013
835.511	3020
835.65	3009
835.788	2975
835.926	2891
836.064	2842
836.202	2834
836.34	3127
836.478	3176
836.615	3043
836.753	3161
836.891	3241
837.029	3222
837.167	3161
837.305	3066
837.443	3066
837.58	2967
837.718	3142
837.856	3093
837.993	3085
838.131	3142
838.269	3100
838.406	3100
838.544	3108
838.681	2967
838.819	2982
838.956	2838
839.094	2868
839.231	2933
839.369	3058
839.506	3389
839.643	3275
839.781	3047
839.918	3001
840.055	3062
840.193	3077
840.33	3085
840.467	3138
840.604	3165
840.742	3439
840.879	3077
841.016	3070
841.153	3127
841.29	3386
841.427	3325
841.564	3279
841.701	3317
841.838	3256
841.975	3199
842.112	3249
842.249	3142
842.385	3062
842.522	3260
842.659	3108
842.796	3108
842.933	3127
843.069	3093
843.206	3032
843.343	3176
843.479	3112
843.616	3173
843.752	2914
843.889	2910
844.025	3119
844.162	2895
844.298	3108
844.435	3024
844.571	2960
844.708	3119
844.844	3233
844.98	3294
845.117	3203
845.253	3066
845.389	3039
845.525	3127
845.661	3142
845.798	3017
845.934	3131
846.07	3100
846.206	3264
846.342	3351
846.478	3241
846.614	3142
846.75	3081
846.886	3074
847.022	3272
847.158	3199
847.294	3226
847.429	3272
847.565	3230
847.701	3545
847.837	3039
847.972	3055
848.108	3180
848.244	3173
848.379	3028
848.515	2944
848.65	2948
848.786	2979
848.921	3043
849.057	3127
849.192	3188
849.328	3100
849.463	3142
849.598	3089
849.734	3085
849.869	3074
850.004	2925
850.14	2975
850.275	2922
850.41	2838
850.545	2933
850.68	2948
850.815	2998
850.95	2986
851.085	3192
851.22	3116
851.355	3043
851.49	2960
851.625	3020
851.76	3036
851.895	2944
852.03	2933
852.165	3047
852.299	3119
852.434	3188
852.569	3180
852.703	3214
852.838	3298
852.973	3363
853.107	3336
853.242	3154
853.376	3138
853.511	3028
853.645	3085
853.78	3192
853.914	3135
854.048	3108
854.183	3100
854.317	3184
854.451	3287
854.585	3169
854.72	3119
854.854	3203
854.988	3089
855.122	3123
855.256	2990
855.39	3135
855.524	3268
855.658	3207
855.792	3188
855.926	3256
856.06	3253
856.194	3279
856.327	3192
856.461	3077
856.595	3070
856.729	3135
856.862	3253
856.996	3214
857.13	3241
857.263	3264
857.397	3298
857.53	3165
857.664	3222
857.797	3272
857.931	3256
858.064	3176
858.197	3272
858.331	3157
858.464	3093
858.597	3039
858.731	3142
858.864	3176
858.997	3119
859.13	3203
859.263	3214
859.396	3260
859.529	3112
859.662	3135
859.795	3066
859.928	3157
860.061	3294
860.194	3348
860.327	3184
860.46	3089
860.592	3264
860.725	3302
860.858	3272
860.99	3093
861.123	3074
861.256	3066
861.388	3157
861.521	3759
861.653	3009
861.786	3013
861.918	3017
862.05	3070
862.183	3138
862.315	3184
862.447	3207
862.58	3074
862.712	2982
862.844	2895
862.976	3036
863.108	3024
863.24	3329
863.372	2941
863.504	2982
863.636	2933
863.768	3039
863.9	2998
864.032	2948
864.164	2982
864.296	3013
864.428	3112
864.559	3093
864.691	3093
864.823	3093
864.954	3036
865.086	3047
865.217	3024
865.349	2967
865.48	3036
865.612	3047
865.743	3188
865.875	2990
866.006	2960
866.137	2998
866.269	2960
866.4	2925
866.531	2982
866.662	2899
866.793	2906
866.924	2929
867.055	3005
867.186	2982
867.317	2861
867.448	2902
867.579	2876
867.71	2853
867.841	2823
867.972	2922
868.103	2910
868.233	2937
868.364	2941
868.495	2952
868.625	3089
868.756	3222
868.886	3020
869.017	3070
869.147	3203
869.278	3199
869.408	3055
869.539	3024
869.669	3100
869.799	3085
869.929	3142
870.06	3161
870.19	3329
870.32	3329
870.45	3332
870.58	3344
870.71	3439
870.84	3439
870.97	3325
871.1	3272
871.23	3500
871.36	3458
871.489	3374
871.619	3412
871.749	3469
871.879	3473
872.008	3496
872.138	3348
872.267	3268
872.397	3188
872.526	3138
872.656	2990
872.785	3119
872.915	3272
873.044	3332
873.173	3275
873.303	3272
873.432	3264
873.561	3287
873.69	3165
873.819	3173
873.948	3249
874.077	3119
874.206	3074
874.335	3135
874.464	3249
874.593	3367
874.722	3249
874.851	3386
874.979	3336
875.108	3370
875.237	3211
875.365	3218
875.494	3180
875.623	3272
875.751	3112
875.88	3131
876.008	3199
876.136	3256
876.265	3378
876.393	3504
876.521	3428
876.65	3409
876.778	3332
876.906	3272
877.034	3195
877.162	3253
877.29	3184
877.418	3272
877.546	3264
877.674	3260
877.802	3226
877.93	3260
878.058	3154
878.185	3131
878.313	3173
878.441	3214
878.568	3070
878.696	3176
878.824	3287
878.951	3306
879.079	3473
879.206	3644
879.333	3428
879.461	3329
879.588	3367
879.715	3523
879.842	3622
879.97	3401
880.097	3176
880.224	3135
880.351	3169
880.478	3275
880.605	3237
880.732	3199
880.859	3564
880.986	3313
881.112	3370
881.239	3195
881.366	3108
881.493	3047
881.619	3028
881.746	3081
881.872	3085
881.999	3093
882.125	3138
882.252	3253
882.378	3310
882.505	3458
882.631	3272
882.757	3176
882.883	3218
883.01	3268
883.136	3199
883.262	3146
883.388	3154
883.514	3344
883.64	3351
883.766	3344
883.892	3230
884.018	3253
884.143	3435
884.269	3576
884.395	3195
884.52	3169
884.646	3173
884.772	3138
884.897	3119
885.023	3218
885.148	3329
885.274	3416
885.399	3378
885.524	3291
885.65	3264
885.775	3329
885.9	3268
886.025	3431
886.15	3389
886.275	3321
886.4	3241
886.525	3336
886.65	3279
886.775	3264
886.9	3511
887.025	3679
887.149	3397
887.274	3275
887.399	3218
887.523	3222
887.648	3211
887.773	3195
887.897	3370
888.021	3397
888.146	3344
888.27	3466
888.395	3530
888.519	3401
888.643	3477
888.767	3469
888.891	3321
889.015	3222
889.139	3294
889.263	3245
889.387	3416
889.511	3530
889.635	3428
889.759	3332
889.883	3302
890.006	3412
890.13	3492
890.254	3275
890.377	3351
890.501	3184
890.624	3211
890.748	3294
890.871	3199
890.995	3100
891.118	3074
891.241	3195
891.364	3253
891.488	3344
891.611	3157
891.734	3233
891.857	3268
891.98	3264
892.103	3351
892.226	3272
892.349	3203
892.471	3123
892.594	3253
892.717	3306
892.839	3302
892.962	3260
893.085	3374
893.207	3351
893.33	3169
893.452	3226
893.575	3344
893.697	3256
893.819	3450
893.941	3523
894.064	3458
894.186	3298
894.308	3291
894.43	3466
894.552	3534
894.674	3507
894.796	3287
894.918	3355
895.04	3306
895.161	3420
895.283	3424
895.405	3325
895.526	3367
895.648	3481
895.769	3443
895.891	3454
896.012	3458
896.134	3477
896.255	3409
896.376	3412
896.498	3355
896.619	3420
896.74	3382
896.861	3401
896.982	3720
897.103	3850
897.224	3572
897.345	3511
897.466	3454
897.587	3477
897.708	3641
897.828	3595
897.949	3473
898.07	3321
898.19	3431
898.311	3629
898.431	3466
898.552	3523
898.672	3599
898.792	3595
898.913	3557
899.033	3435
899.153	3325
899.273	3237
899.393	3317
899.513	3256
899.633	3348
899.753	3351
899.873	3336
899.993	3370
900.113	3321
900.232	3378
900.352	3355
900.472	3340
900.591	3176
900.711	3291
900.83	3214
900.95	3389
901.069	3496
901.189	3370
901.308	3173
901.427	3108
901.546	3192
901.665	3306
901.784	3306
901.904	3176
902.023	3180
902.141	3028
902.26	2982
902.379	3150
902.498	3112
902.617	3039
902.735	3199
902.854	3211
902.973	3176
903.091	3047
903.21	3032
903.328	3150
903.446	3100
903.565	3127
903.683	3203
903.801	3135
903.919	3237
904.038	3302
904.156	3173
904.274	3287
904.392	3260
904.51	3245
904.627	3374
904.745	3393
904.863	3504
904.981	3268
905.098	3180
905.216	3249
905.334	3302
905.451	3291
905.569	3291
905.686	3401
905.803	3443
905.921	3241
906.038	3382
906.155	3397
906.272	3268
906.389	3336
906.506	3233
906.623	3249
906.74	3279
906.857	3180
906.974	3264
907.091	3473
907.208	3591
907.324	3504
907.441	3416
907.557	3260
907.674	3249
907.79	3249
907.907	3313
908.023	3397
908.139	3386
908.256	3382
908.372	3412
908.488	3351
908.604	3294
908.72	3245
908.836	3321
908.952	3302
909.068	3325
909.184	3507
909.3	3439
909.415	3523
909.531	3526
909.647	3291
909.762	3336
909.878	3321
909.993	3405
910.108	3393
910.224	3336
910.339	3458
910.454	3389
910.57	3321
910.685	3291
910.8	3610
910.915	3591
911.03	3488
911.145	3313
911.259	3294
911.374	3367
911.489	3268
911.604	3283
911.718	3146
911.833	3184
911.947	3051
912.062	3009
912.176	3211
912.291	3218
912.405	3214
912.519	3462
912.633	3538
912.748	3409
912.862	3325
912.976	3199
913.09	3058
913.204	3173
913.318	3260
913.431	3416
913.545	3393
913.659	3412
913.772	3397
913.886	3264
914	3230
914.113	3370
914.226	3466
914.34	3431
914.453	3241
914.566	3435
914.68	3348
914.793	3359
914.906	3180
915.019	3173
915.132	3093
915.245	3237
915.358	3207
915.47	3264
915.583	3279
915.696	3340
915.809	3443
915.921	3454
916.034	3275
916.146	3298
916.259	3291
916.371	3412
916.483	3340
916.595	3329
916.708	3348
916.82	3420
916.932	3401
917.044	3393
917.156	3416
917.268	3291
917.38	3317
917.491	3306
917.603	3439
917.715	3523
917.826	3519
917.938	3405
918.049	3298
918.161	3454
918.272	3622
918.384	3580
918.495	3580
918.606	3386
918.717	3279
918.828	3469
918.939	3462
919.05	3340
919.161	3374
919.272	3192
919.383	3325
919.494	3515
919.604	3720
919.715	3511
919.826	3458
919.936	3515
920.047	3606
920.157	3595
920.267	3823
920.378	3637
920.488	3606
920.598	3812
920.708	3964
920.818	3827
920.928	3876
921.038	4063
921.148	4071
921.258	3682
921.368	3660
921.477	3622
921.587	3595
921.697	3500
921.806	3663
921.916	3603
922.025	3405
922.134	3389
922.244	3378
922.353	3485
922.462	3359
922.571	3256
922.68	3138
922.789	3119
922.898	3165
923.007	3138
923.116	3260
923.224	3195
923.333	3199
923.442	3150
923.55	3165
923.659	3173
923.767	3279
923.876	3131
923.984	3321
924.092	3119
924.201	3233
924.309	3268
924.417	3291
924.525	3214
924.633	3272
924.741	4032
924.849	3077
924.956	3336
925.064	3157
925.172	3055
925.279	3119
925.387	3237
925.494	3279
925.602	3409
925.709	3393
925.816	3233
925.924	3283
926.031	3428
926.138	3351
926.245	3363
926.352	3279
926.459	3424
926.566	3515
926.673	3351
926.779	3287
926.886	3249
926.993	3192
927.099	3165
927.206	3146
927.312	3146
927.419	3291
927.525	3214
927.631	3340
927.737	3173
927.843	3150
927.95	3062
928.056	3157
928.162	3199
928.267	3291
928.373	3930
928.479	3348
928.585	3119
928.69	3264
928.796	3317
928.901	3173
929.007	3093
929.112	3264
929.218	3226
929.323	3161
929.428	3188
929.533	3317
929.638	3188
929.743	3203
929.848	3287
929.953	3256
930.058	3192
930.163	3024
930.267	3097
930.372	3264
930.477	3074
930.581	3340
930.685	3230
930.79	3085
930.894	3142
930.998	3112
931.103	3306
931.207	2998
931.311	2963
931.415	2979
931.519	2853
931.623	2823
