Data from test_V78500241_1593.txt Node
Date: Fri Mar 25 16:26:14 CST 2022
User: usil
Spectrometer: V785-0024
Trigger mode: 0
Integration Time (sec): 4.000000E-1
Scans to average: 1
Nonlinearity correction enabled: false
Boxcar width: 0
Storing dark spectrum: false
XAxis mode: Wavelengths
Number of Pixels in Spectrum: 1024
>>>>>Begin Spectral Data<<<<<
801.071	2883
801.214	2922
801.356	2887
801.499	2906
801.641	2868
801.783	2914
801.926	3070
802.068	2941
802.211	3009
802.353	3017
802.496	2956
802.638	3013
802.78	3055
802.923	3039
803.065	2986
803.208	2929
803.35	2880
803.492	2910
803.635	2914
803.777	2773
803.919	2883
804.061	3203
804.204	2918
804.346	2853
804.488	2842
804.63	2986
804.773	2868
804.915	2918
805.057	3077
805.199	2914
805.341	2944
805.483	3032
805.626	3047
805.768	2956
805.91	3097
806.052	3127
806.194	3036
806.336	3214
806.478	3005
806.62	2902
806.762	2952
806.904	3039
807.046	3108
807.188	2994
807.33	2895
807.472	2982
807.614	2914
807.756	3005
807.898	2914
808.04	2887
808.182	2929
808.324	2952
808.465	2887
808.607	2864
808.749	2800
808.891	2864
809.033	2967
809.174	3005
809.316	2868
809.458	2902
809.6	2777
809.741	2754
809.883	2777
810.025	2830
810.166	2857
810.308	2845
810.45	2830
810.591	2758
810.733	2746
810.875	2842
811.016	2792
811.158	2743
811.299	2834
811.441	2933
811.582	2910
811.724	2811
811.865	2811
812.007	2899
812.148	2861
812.29	2902
812.431	2872
812.573	2887
812.714	2963
812.855	3032
812.997	3051
813.138	3123
813.279	3017
813.421	2952
813.562	2963
813.703	2895
813.845	2861
813.986	2743
814.127	2743
814.268	2830
814.41	2826
814.551	2777
814.692	2864
814.833	2815
814.974	2880
815.115	2937
815.256	2849
815.397	2807
815.539	2887
815.68	2750
815.821	2785
815.962	2952
816.103	2922
816.244	2853
816.385	2834
816.526	2960
816.666	2914
816.807	2731
816.948	2891
817.089	2941
817.23	2864
817.371	2785
817.512	2807
817.653	2842
817.793	2819
817.934	2883
818.075	2967
818.216	2982
818.356	3013
818.497	2895
818.638	2796
818.778	2826
818.919	2792
819.06	2762
819.2	2861
819.341	2811
819.481	2834
819.622	2937
819.762	3100
819.903	3047
820.043	2922
820.184	2857
820.324	2906
820.465	3013
820.605	3051
820.746	3028
820.886	2922
821.026	3077
821.167	3138
821.307	3279
821.447	3287
821.588	3233
821.728	3214
821.868	3195
822.008	3085
822.149	3192
822.289	3222
822.429	3062
822.569	3097
822.709	3138
822.849	3047
822.99	3028
823.13	3188
823.27	3188
823.41	3100
823.55	3154
823.69	3112
823.83	3176
823.97	3146
824.11	2975
824.25	2979
824.389	3104
824.529	3062
824.669	3100
824.809	3192
824.949	3233
825.089	3192
825.228	3142
825.368	3009
825.508	2918
825.648	2952
825.787	3020
825.927	2986
826.067	3017
826.206	2960
826.346	3028
826.485	3051
826.625	3104
826.765	3253
826.904	3214
827.044	2994
827.183	2937
827.323	2864
827.462	2982
827.601	2906
827.741	2887
827.88	2914
828.02	2807
828.159	2971
828.298	3024
828.437	3123
828.577	3051
828.716	3237
828.855	3017
828.994	2899
829.134	2880
829.273	2918
829.412	2864
829.551	2872
829.69	2883
829.829	2971
829.968	3142
830.107	3005
830.246	3039
830.385	2941
830.524	2857
830.663	2842
830.802	2724
830.941	2636
831.08	2663
831.219	2758
831.357	2724
831.496	2941
831.635	2708
831.774	2663
831.913	2644
832.051	2530
832.19	2579
832.329	2682
832.467	2537
832.606	2480
832.744	2556
832.883	2564
833.022	2537
833.16	2670
833.299	2663
833.437	2667
833.576	2674
833.714	2731
833.852	2705
833.991	2766
834.129	2849
834.267	2834
834.406	2781
834.544	2849
834.682	2864
834.821	2830
834.959	3074
835.097	2906
835.235	3089
835.373	3009
835.511	3009
835.65	2937
835.788	2956
835.926	2815
836.064	2785
836.202	2868
836.34	3032
836.478	3119
836.615	3066
836.753	3127
836.891	3264
837.029	3138
837.167	3142
837.305	3066
837.443	3066
837.58	2956
837.718	3116
837.856	3097
837.993	3020
838.131	3127
838.269	3108
838.406	3066
838.544	3085
838.681	2910
838.819	2925
838.956	2800
839.094	2823
839.231	2895
839.369	2998
839.506	3344
839.643	3203
839.781	3001
839.918	2994
840.055	3024
840.193	3024
840.33	3062
840.467	3077
840.604	3142
840.742	3351
840.879	3051
841.016	3047
841.153	3081
841.29	3302
841.427	3294
841.564	3321
841.701	3298
841.838	3207
841.975	3165
842.112	3237
842.249	3085
842.385	3051
842.522	3230
842.659	3058
842.796	3066
842.933	3112
843.069	3032
843.206	3017
843.343	3161
843.479	3077
843.616	3116
843.752	2891
843.889	2853
844.025	3100
844.162	2853
844.298	3074
844.435	2910
844.571	2891
844.708	3047
844.844	3165
844.98	3260
845.117	3184
845.253	3039
845.389	3009
845.525	3112
845.661	3119
845.798	2982
845.934	3135
846.07	3070
846.206	3211
846.342	3313
846.478	3245
846.614	3127
846.75	3043
846.886	3013
847.022	3237
847.158	3135
847.294	3230
847.429	3203
847.565	3184
847.701	3507
847.837	2982
847.972	2971
848.108	3157
848.244	3154
848.379	2982
848.515	2925
848.65	2929
848.786	2979
848.921	2948
849.057	3104
849.192	3119
849.328	3062
849.463	3081
849.598	3051
849.734	3009
849.869	2975
850.004	2925
850.14	2971
850.275	2914
850.41	2830
850.545	2895
850.68	2914
850.815	2937
850.95	2998
851.085	3192
851.22	3039
851.355	3036
851.49	3005
851.625	2979
851.76	2994
851.895	2929
852.03	2906
852.165	3028
852.299	3104
852.434	3161
852.569	3157
852.703	3123
852.838	3203
852.973	3344
853.107	3313
853.242	3119
853.376	3085
853.511	2929
853.645	3028
853.78	3233
853.914	3093
854.048	3093
854.183	3081
854.317	3154
854.451	3298
854.585	3112
854.72	3081
854.854	3169
854.988	3036
855.122	3070
855.256	2967
855.39	3112
855.524	3207
855.658	3146
855.792	3123
855.926	3157
856.06	3195
856.194	3237
856.327	3123
856.461	3100
856.595	3055
856.729	3089
856.862	3218
856.996	3150
857.13	3203
857.263	3195
857.397	3275
857.53	3104
857.664	3173
857.797	3237
857.931	3283
858.064	3138
858.197	3180
858.331	3119
858.464	3097
858.597	3009
858.731	3146
858.864	3150
858.997	3051
859.13	3119
859.263	3123
859.396	3203
859.529	3077
859.662	3081
859.795	3032
859.928	3131
860.061	3222
860.194	3279
860.327	3161
860.46	3081
860.592	3241
860.725	3256
860.858	3298
860.99	3097
861.123	3055
861.256	3043
861.388	3127
861.521	3865
861.653	2994
861.786	2967
861.918	2952
862.05	3039
862.183	3081
862.315	3123
862.447	3195
862.58	3104
862.712	2937
862.844	2887
862.976	3013
863.108	3036
863.24	3298
863.372	2857
863.504	2975
863.636	2944
863.768	2998
863.9	2937
864.032	2891
864.164	2933
864.296	2982
864.428	3051
864.559	3108
864.691	3093
864.823	3074
864.954	3028
865.086	3024
865.217	2998
865.349	2979
865.48	2982
865.612	3043
865.743	3127
865.875	2948
866.006	2948
866.137	3001
866.269	2929
866.4	2933
866.531	2883
866.662	2891
866.793	2857
866.924	2895
867.055	2971
867.186	2902
867.317	2872
867.448	2804
867.579	2834
867.71	2838
867.841	2811
867.972	2918
868.103	2883
868.233	2895
868.364	2830
868.495	2937
868.625	3081
868.756	3142
868.886	2948
869.017	3055
869.147	3161
869.278	3150
869.408	3039
869.539	2982
869.669	3119
869.799	3024
869.929	3116
870.06	3104
870.19	3325
870.32	3279
870.45	3272
870.58	3351
870.71	3447
870.84	3447
870.97	3291
871.1	3233
871.23	3485
871.36	3454
871.489	3348
871.619	3416
871.749	3397
871.879	3420
872.008	3447
872.138	3351
872.267	3218
872.397	3123
872.526	3131
872.656	3032
872.785	3100
872.915	3241
873.044	3374
873.173	3237
873.303	3230
873.432	3253
873.561	3249
873.69	3131
873.819	3161
873.948	3203
874.077	3100
874.206	3036
874.335	3081
874.464	3211
874.593	3332
874.722	3241
874.851	3374
874.979	3317
875.108	3287
875.237	3154
875.365	3176
875.494	3192
875.623	3226
875.751	3077
875.88	3108
876.008	3176
876.136	3218
876.265	3386
876.393	3526
876.521	3397
876.65	3386
876.778	3325
876.906	3230
877.034	3188
877.162	3207
877.29	3150
877.418	3275
877.546	3233
877.674	3233
877.802	3211
877.93	3241
878.058	3100
878.185	3127
878.313	3184
878.441	3207
878.568	3055
878.696	3138
878.824	3241
878.951	3272
879.079	3420
879.206	3652
879.333	3405
879.461	3283
879.588	3332
879.715	3485
879.842	3595
879.97	3336
880.097	3097
880.224	3100
880.351	3176
880.478	3173
880.605	3207
880.732	3211
880.859	3466
880.986	3272
881.112	3325
881.239	3211
881.366	3055
881.493	3051
881.619	3017
881.746	3020
881.872	3070
881.999	3108
882.125	3119
882.252	3272
882.378	3260
882.505	3424
882.631	3294
882.757	3112
882.883	3199
883.01	3226
883.136	3161
883.262	3093
883.388	3142
883.514	3313
883.64	3348
883.766	3317
883.892	3184
884.018	3211
884.143	3389
884.269	3519
884.395	3207
884.52	3081
884.646	3195
884.772	3062
884.897	3081
885.023	3199
885.148	3287
885.274	3405
885.399	3389
885.524	3275
885.65	3279
885.775	3310
885.9	3313
886.025	3416
886.15	3374
886.275	3268
886.4	3207
886.525	3306
886.65	3237
886.775	3306
886.9	3485
887.025	3625
887.149	3428
887.274	3237
887.399	3161
887.523	3195
887.648	3157
887.773	3207
887.897	3363
888.021	3416
888.146	3283
888.27	3477
888.395	3526
888.519	3447
888.643	3424
888.767	3447
888.891	3294
889.015	3237
889.139	3256
889.263	3233
889.387	3412
889.511	3507
889.635	3443
889.759	3260
889.883	3279
890.006	3386
890.13	3469
890.254	3272
890.377	3336
890.501	3199
890.624	3195
890.748	3336
890.871	3157
890.995	3100
891.118	3047
891.241	3207
891.364	3199
891.488	3298
891.611	3165
891.734	3184
891.857	3294
891.98	3188
892.103	3302
892.226	3256
892.349	3218
892.471	3123
892.594	3233
892.717	3302
892.839	3237
892.962	3287
893.085	3378
893.207	3272
893.33	3173
893.452	3222
893.575	3310
893.697	3249
893.819	3443
893.941	3450
894.064	3458
894.186	3241
894.308	3249
894.43	3431
894.552	3538
894.674	3439
894.796	3264
894.918	3310
895.04	3291
895.161	3420
895.283	3367
895.405	3279
895.526	3332
895.648	3401
895.769	3382
895.891	3431
896.012	3450
896.134	3412
896.255	3405
896.376	3363
896.498	3367
896.619	3370
896.74	3359
896.861	3382
896.982	3644
897.103	3827
897.224	3606
897.345	3507
897.466	3450
897.587	3466
897.708	3610
897.828	3553
897.949	3416
898.07	3310
898.19	3397
898.311	3641
898.431	3412
898.552	3500
898.672	3606
898.792	3507
898.913	3534
899.033	3393
899.153	3241
899.273	3226
899.393	3253
899.513	3310
899.633	3279
899.753	3363
899.873	3272
899.993	3409
900.113	3291
900.232	3336
900.352	3336
900.472	3260
900.591	3237
900.711	3237
900.83	3226
900.95	3450
901.069	3500
901.189	3367
901.308	3150
901.427	3135
901.546	3173
901.665	3283
901.784	3329
901.904	3222
902.023	3161
902.141	3032
902.26	2998
902.379	3161
902.498	3085
902.617	3032
902.735	3230
902.854	3279
902.973	3207
903.091	3058
903.21	3112
903.328	3165
903.446	3161
903.565	3138
903.683	3203
903.801	3142
903.919	3275
904.038	3313
904.156	3207
904.274	3291
904.392	3321
904.51	3340
904.627	3355
904.745	3450
904.863	3511
904.981	3287
905.098	3218
905.216	3237
905.334	3321
905.451	3329
905.569	3355
905.686	3477
905.803	3496
905.921	3317
906.038	3469
906.155	3405
906.272	3294
906.389	3344
906.506	3310
906.623	3294
906.74	3321
906.857	3233
906.974	3344
907.091	3462
907.208	3580
907.324	3496
907.441	3466
907.557	3298
907.674	3237
907.79	3241
907.907	3336
908.023	3428
908.139	3420
908.256	3370
908.372	3405
908.488	3359
908.604	3275
908.72	3310
908.836	3317
908.952	3348
909.068	3359
909.184	3504
909.3	3443
909.415	3523
909.531	3500
909.647	3268
909.762	3348
909.878	3306
909.993	3378
910.108	3393
910.224	3435
910.339	3431
910.454	3393
910.57	3336
910.685	3264
910.8	3614
910.915	3549
911.03	3473
911.145	3283
911.259	3313
911.374	3382
911.489	3279
911.604	3241
911.718	3222
911.833	3169
911.947	3089
912.062	3017
912.176	3199
912.291	3287
912.405	3233
912.519	3416
912.633	3469
912.748	3348
912.862	3291
912.976	3211
913.09	3119
913.204	3169
913.318	3268
913.431	3325
913.545	3370
913.659	3443
913.772	3329
913.886	3253
914	3260
914.113	3382
914.226	3481
914.34	3393
914.453	3226
914.566	3431
914.68	3336
914.793	3317
914.906	3218
915.019	3135
915.132	3089
915.245	3188
915.358	3237
915.47	3306
915.583	3283
915.696	3355
915.809	3447
915.921	3466
916.034	3283
916.146	3253
916.259	3230
916.371	3424
916.483	3397
916.595	3283
916.708	3405
916.82	3329
916.932	3355
917.044	3378
917.156	3393
917.268	3306
917.38	3306
917.491	3321
917.603	3409
917.715	3447
917.826	3469
917.938	3393
918.049	3279
918.161	3458
918.272	3618
918.384	3603
918.495	3500
918.606	3348
918.717	3260
918.828	3378
918.939	3473
919.05	3298
919.161	3420
919.272	3245
919.383	3302
919.494	3526
919.604	3694
919.715	3515
919.826	3443
919.936	3473
920.047	3587
920.157	3561
920.267	3793
920.378	3599
920.488	3599
920.598	3793
920.708	3991
920.818	3838
920.928	3854
921.038	4059
921.148	4040
921.258	3709
921.368	3618
921.477	3599
921.587	3572
921.697	3500
921.806	3648
921.916	3561
922.025	3374
922.134	3412
922.244	3374
922.353	3439
922.462	3291
922.571	3245
922.68	3157
922.789	3108
922.898	3161
923.007	3135
923.116	3222
923.224	3211
923.333	3199
923.442	3138
923.55	3135
923.659	3169
923.767	3199
923.876	3119
923.984	3218
924.092	3093
924.201	3222
924.309	3237
924.417	3272
924.525	3237
924.633	3268
924.741	4211
924.849	3062
924.956	3283
925.064	3116
925.172	3093
925.279	3116
925.387	3230
925.494	3203
925.602	3405
925.709	3336
925.816	3264
925.924	3294
926.031	3412
926.138	3359
926.245	3393
926.352	3253
926.459	3409
926.566	3488
926.673	3348
926.779	3275
926.886	3264
926.993	3192
927.099	3180
927.206	3127
927.312	3138
927.419	3268
927.525	3218
927.631	3306
927.737	3146
927.843	3150
927.95	3066
928.056	3173
928.162	3203
928.267	3298
928.373	3892
928.479	3313
928.585	3093
928.69	3272
928.796	3298
928.901	3176
929.007	3055
929.112	3207
929.218	3192
929.323	3169
929.428	3169
929.533	3325
929.638	3157
929.743	3203
929.848	3306
929.953	3207
930.058	3230
930.163	3032
930.267	3058
930.372	3275
930.477	3074
930.581	3306
930.685	3195
930.79	3077
930.894	3157
930.998	3108
931.103	3313
931.207	2960
931.311	2960
931.415	2956
931.519	2788
931.623	2830
