Data from test_V78500241_929.txt Node
Date: Fri Mar 25 16:21:38 CST 2022
User: usil
Spectrometer: V785-0024
Trigger mode: 0
Integration Time (sec): 4.000000E-1
Scans to average: 1
Nonlinearity correction enabled: false
Boxcar width: 0
Storing dark spectrum: false
XAxis mode: Wavelengths
Number of Pixels in Spectrum: 1024
>>>>>Begin Spectral Data<<<<<
801.071	2891
801.214	2975
801.356	2834
801.499	2902
801.641	2876
801.783	2952
801.926	3001
802.068	2971
802.211	2994
802.353	3039
802.496	2971
802.638	2990
802.78	3032
802.923	3058
803.065	3024
803.208	2880
803.35	2918
803.492	2922
803.635	2906
803.777	2777
803.919	2853
804.061	3199
804.204	2914
804.346	2902
804.488	2845
804.63	2979
804.773	2868
804.915	2899
805.057	3074
805.199	2895
805.341	2971
805.483	3047
805.626	3036
805.768	2994
805.91	3085
806.052	3108
806.194	3020
806.336	3233
806.478	3013
806.62	2948
806.762	2941
806.904	3062
807.046	3173
807.188	2986
807.33	2880
807.472	2933
807.614	2899
807.756	2986
807.898	2880
808.04	2918
808.182	2967
808.324	2933
808.465	2861
808.607	2902
808.749	2788
808.891	2845
809.033	3001
809.174	2971
809.316	2876
809.458	2872
809.6	2777
809.741	2762
809.883	2766
810.025	2857
810.166	2849
810.308	2819
810.45	2845
810.591	2758
810.733	2758
810.875	2838
811.016	2796
811.158	2796
811.299	2823
811.441	2925
811.582	2899
811.724	2838
811.865	2830
812.007	2906
812.148	2895
812.29	2868
812.431	2838
812.573	2910
812.714	2986
812.855	2998
812.997	3017
813.138	3131
813.279	2994
813.421	2963
813.562	2956
813.703	2864
813.845	2906
813.986	2781
814.127	2731
814.268	2842
814.41	2815
814.551	2811
814.692	2914
814.833	2800
814.974	2941
815.115	2967
815.256	2849
815.397	2857
815.539	2872
815.68	2788
815.821	2781
815.962	2933
816.103	2922
816.244	2868
816.385	2883
816.526	2967
816.666	2906
816.807	2743
816.948	2868
817.089	2914
817.23	2872
817.371	2762
817.512	2807
817.653	2857
817.793	2819
817.934	2944
818.075	2952
818.216	2998
818.356	3032
818.497	2887
818.638	2769
818.778	2823
818.919	2766
819.06	2739
819.2	2872
819.341	2792
819.481	2796
819.622	2914
819.762	3055
819.903	3066
820.043	2918
820.184	2861
820.324	2887
820.465	3047
820.605	3013
820.746	2979
820.886	2948
821.026	3116
821.167	3165
821.307	3268
821.447	3287
821.588	3218
821.728	3214
821.868	3184
822.008	3077
822.149	3207
822.289	3241
822.429	3142
822.569	3070
822.709	3161
822.849	3020
822.99	3070
823.13	3138
823.27	3192
823.41	3085
823.55	3165
823.69	3169
823.83	3157
823.97	3074
824.11	3020
824.25	2986
824.389	3043
824.529	3108
824.669	3074
824.809	3207
824.949	3245
825.089	3245
825.228	3142
825.368	2990
825.508	2952
825.648	2975
825.787	3043
825.927	3005
826.067	2971
826.206	2979
826.346	3013
826.485	3066
826.625	3108
826.765	3275
826.904	3233
827.044	3028
827.183	2914
827.323	2857
827.462	2975
827.601	2944
827.741	2910
827.88	2948
828.02	2842
828.159	2963
828.298	3058
828.437	3089
828.577	3020
828.716	3253
828.855	3077
828.994	2902
829.134	2918
829.273	2891
829.412	2830
829.551	2868
829.69	2895
829.829	2941
829.968	3108
830.107	2975
830.246	3032
830.385	2948
830.524	2891
830.663	2804
830.802	2720
830.941	2644
831.08	2651
831.219	2727
831.357	2735
831.496	2922
831.635	2689
831.774	2651
831.913	2670
832.051	2552
832.19	2571
832.329	2689
832.467	2514
832.606	2495
832.744	2556
832.883	2587
833.022	2590
833.16	2629
833.299	2678
833.437	2708
833.576	2716
833.714	2701
833.852	2701
833.991	2716
834.129	2815
834.267	2792
834.406	2811
834.544	2861
834.682	2861
834.821	2845
834.959	3058
835.097	2910
835.235	3062
835.373	3024
835.511	2990
835.65	2963
835.788	2963
835.926	2826
836.064	2796
836.202	2830
836.34	3131
836.478	3123
836.615	3055
836.753	3104
836.891	3195
837.029	3169
837.167	3127
837.305	3055
837.443	3017
837.58	2975
837.718	3142
837.856	3070
837.993	3028
838.131	3100
838.269	3081
838.406	3062
838.544	3047
838.681	2918
838.819	2937
838.956	2804
839.094	2815
839.231	2899
839.369	3032
839.506	3370
839.643	3233
839.781	2994
839.918	2963
840.055	3062
840.193	3055
840.33	3013
840.467	3116
840.604	3169
840.742	3370
840.879	3055
841.016	3081
841.153	3104
841.29	3336
841.427	3279
841.564	3279
841.701	3283
841.838	3230
841.975	3195
842.112	3146
842.249	3066
842.385	3020
842.522	3253
842.659	3108
842.796	3070
842.933	3104
843.069	3047
843.206	3051
843.343	3180
843.479	3085
843.616	3138
843.752	2876
843.889	2861
844.025	3085
844.162	2826
844.298	3077
844.435	2956
844.571	2925
844.708	3089
844.844	3180
844.98	3218
845.117	3203
845.253	3032
845.389	2979
845.525	3085
845.661	3081
845.798	2998
845.934	3154
846.07	3081
846.206	3184
846.342	3329
846.478	3211
846.614	3116
846.75	3062
846.886	2990
847.022	3241
847.158	3138
847.294	3199
847.429	3237
847.565	3195
847.701	3462
847.837	2990
847.972	3024
848.108	3188
848.244	3142
848.379	2990
848.515	2941
848.65	2910
848.786	2922
848.921	3036
849.057	3081
849.192	3157
849.328	3104
849.463	3104
849.598	3089
849.734	3017
849.869	2994
850.004	2899
850.14	2956
850.275	2918
850.41	2861
850.545	2845
850.68	2902
850.815	2914
850.95	2948
851.085	3154
851.22	3081
851.355	3017
851.49	2975
851.625	3020
851.76	2994
851.895	2914
852.03	2887
852.165	3039
852.299	3116
852.434	3180
852.569	3184
852.703	3146
852.838	3245
852.973	3313
853.107	3336
853.242	3131
853.376	3089
853.511	2986
853.645	3043
853.78	3241
853.914	3135
854.048	3123
854.183	3062
854.317	3138
854.451	3268
854.585	3146
854.72	3074
854.854	3199
854.988	3093
855.122	3058
855.256	2979
855.39	3123
855.524	3203
855.658	3150
855.792	3146
855.926	3157
856.06	3188
856.194	3241
856.327	3138
856.461	3093
856.595	3097
856.729	3070
856.862	3226
856.996	3161
857.13	3188
857.263	3226
857.397	3268
857.53	3131
857.664	3176
857.797	3264
857.931	3241
858.064	3165
858.197	3188
858.331	3131
858.464	3116
858.597	2975
858.731	3093
858.864	3108
858.997	3085
859.13	3135
859.263	3142
859.396	3180
859.529	3097
859.662	3055
859.795	3024
859.928	3135
860.061	3241
860.194	3287
860.327	3085
860.46	3047
860.592	3195
860.725	3226
860.858	3253
860.99	3108
861.123	3036
861.256	3028
861.388	3169
861.521	3812
861.653	3001
861.786	3005
861.918	2986
862.05	3032
862.183	3097
862.315	3157
862.447	3165
862.58	3085
862.712	2948
862.844	2861
862.976	3017
863.108	2990
863.24	3401
863.372	2883
863.504	2979
863.636	2929
863.768	3013
863.9	2967
864.032	2872
864.164	2941
864.296	2998
864.428	3085
864.559	3108
864.691	3032
864.823	3058
864.954	2986
865.086	3055
865.217	2982
865.349	2952
865.48	2960
865.612	2948
865.743	3142
865.875	2948
866.006	2960
866.137	2971
866.269	2956
866.4	2941
866.531	2941
866.662	2880
866.793	2868
866.924	2902
867.055	2975
867.186	2922
867.317	2849
867.448	2868
867.579	2849
867.71	2838
867.841	2830
867.972	2918
868.103	2914
868.233	2857
868.364	2845
868.495	2906
868.625	3066
868.756	3116
868.886	2963
869.017	3020
869.147	3146
869.278	3169
869.408	3043
869.539	3032
869.669	3108
869.799	3020
869.929	3131
870.06	3074
870.19	3317
870.32	3287
870.45	3291
870.58	3340
870.71	3458
870.84	3439
870.97	3302
871.1	3241
871.23	3485
871.36	3420
871.489	3313
871.619	3389
871.749	3374
871.879	3424
872.008	3488
872.138	3344
872.267	3283
872.397	3127
872.526	3112
872.656	3013
872.785	3116
872.915	3256
873.044	3310
873.173	3199
873.303	3233
873.432	3260
873.561	3253
873.69	3146
873.819	3157
873.948	3180
874.077	3093
874.206	3009
874.335	3089
874.464	3214
874.593	3351
874.722	3245
874.851	3401
874.979	3340
875.108	3313
875.237	3207
875.365	3192
875.494	3157
875.623	3241
875.751	3100
875.88	3093
876.008	3176
876.136	3230
876.265	3367
876.393	3481
876.521	3397
876.65	3397
876.778	3332
876.906	3218
877.034	3165
877.162	3241
877.29	3176
877.418	3260
877.546	3260
877.674	3264
877.802	3222
877.93	3233
878.058	3176
878.185	3116
878.313	3211
878.441	3188
878.568	3085
878.696	3123
878.824	3237
878.951	3291
879.079	3424
879.206	3595
879.333	3409
879.461	3344
879.588	3374
879.715	3485
879.842	3576
879.97	3367
880.097	3150
880.224	3169
880.351	3165
880.478	3207
880.605	3203
880.732	3169
880.859	3515
880.986	3310
881.112	3336
881.239	3157
881.366	3116
881.493	3062
881.619	3013
881.746	3104
881.872	3074
881.999	3119
882.125	3093
882.252	3241
882.378	3294
882.505	3439
882.631	3256
882.757	3135
882.883	3207
883.01	3207
883.136	3203
883.262	3093
883.388	3081
883.514	3321
883.64	3351
883.766	3264
883.892	3211
884.018	3264
884.143	3389
884.269	3538
884.395	3214
884.52	3195
884.646	3207
884.772	3119
884.897	3104
885.023	3207
885.148	3275
885.274	3405
885.399	3363
885.524	3218
885.65	3233
885.775	3332
885.9	3256
886.025	3454
886.15	3374
886.275	3310
886.4	3222
886.525	3275
886.65	3294
886.775	3283
886.9	3469
887.025	3637
887.149	3431
887.274	3237
887.399	3157
887.523	3161
887.648	3135
887.773	3169
887.897	3378
888.021	3405
888.146	3310
888.27	3416
888.395	3526
888.519	3386
888.643	3435
888.767	3458
888.891	3317
889.015	3233
889.139	3283
889.263	3253
889.387	3397
889.511	3496
889.635	3435
889.759	3294
889.883	3306
890.006	3393
890.13	3466
890.254	3249
890.377	3367
890.501	3188
890.624	3218
890.748	3272
890.871	3192
890.995	3051
891.118	3047
891.241	3233
891.364	3203
891.488	3253
891.611	3165
891.734	3230
891.857	3340
891.98	3188
892.103	3329
892.226	3260
892.349	3192
892.471	3097
892.594	3272
892.717	3275
892.839	3279
892.962	3291
893.085	3332
893.207	3287
893.33	3127
893.452	3184
893.575	3370
893.697	3226
893.819	3454
893.941	3504
894.064	3412
894.186	3264
894.308	3253
894.43	3416
894.552	3504
894.674	3466
894.796	3218
894.918	3306
895.04	3279
895.161	3450
895.283	3409
895.405	3294
895.526	3340
895.648	3469
895.769	3435
895.891	3435
896.012	3450
896.134	3488
896.255	3389
896.376	3355
896.498	3382
896.619	3412
896.74	3336
896.861	3389
896.982	3690
897.103	3835
897.224	3584
897.345	3496
897.466	3420
897.587	3526
897.708	3618
897.828	3557
897.949	3469
898.07	3348
898.19	3389
898.311	3584
898.431	3447
898.552	3515
898.672	3599
898.792	3568
898.913	3488
899.033	3424
899.153	3287
899.273	3233
899.393	3321
899.513	3294
899.633	3317
899.753	3313
899.873	3294
899.993	3336
900.113	3340
900.232	3378
900.352	3302
900.472	3253
900.591	3180
900.711	3264
900.83	3260
900.95	3409
901.069	3469
901.189	3382
901.308	3176
901.427	3119
901.546	3188
901.665	3310
901.784	3313
901.904	3192
902.023	3154
902.141	2998
902.26	3009
902.379	3150
902.498	3066
902.617	3028
902.735	3195
902.854	3256
902.973	3192
903.091	3066
903.21	3058
903.328	3169
903.446	3085
903.565	3093
903.683	3195
903.801	3138
903.919	3237
904.038	3291
904.156	3211
904.274	3264
904.392	3230
904.51	3310
904.627	3359
904.745	3439
904.863	3500
904.981	3260
905.098	3169
905.216	3203
905.334	3260
905.451	3287
905.569	3321
905.686	3370
905.803	3450
905.921	3245
906.038	3428
906.155	3367
906.272	3275
906.389	3329
906.506	3195
906.623	3260
906.74	3226
906.857	3203
906.974	3226
907.091	3458
907.208	3587
907.324	3458
907.441	3348
907.557	3211
907.674	3230
907.79	3165
907.907	3264
908.023	3405
908.139	3359
908.256	3310
908.372	3382
908.488	3363
908.604	3241
908.72	3165
908.836	3298
908.952	3332
909.068	3325
909.184	3485
909.3	3412
909.415	3492
909.531	3469
909.647	3264
909.762	3302
909.878	3268
909.993	3363
910.108	3351
910.224	3325
910.339	3397
910.454	3310
910.57	3310
910.685	3245
910.8	3580
910.915	3530
911.03	3420
911.145	3256
911.259	3222
911.374	3287
911.489	3264
911.604	3184
911.718	3138
911.833	3138
911.947	3020
912.062	2986
912.176	3173
912.291	3207
912.405	3218
912.519	3454
912.633	3477
912.748	3374
912.862	3272
912.976	3138
913.09	3055
913.204	3138
913.318	3188
913.431	3351
913.545	3336
913.659	3420
913.772	3340
913.886	3249
914	3203
914.113	3359
914.226	3389
914.34	3351
914.453	3184
914.566	3412
914.68	3306
914.793	3287
914.906	3161
915.019	3100
915.132	3097
915.245	3146
915.358	3184
915.47	3230
915.583	3264
915.696	3310
915.809	3386
915.921	3424
916.034	3272
916.146	3226
916.259	3188
916.371	3405
916.483	3370
916.595	3283
916.708	3317
916.82	3336
916.932	3294
917.044	3321
917.156	3348
917.268	3241
917.38	3260
917.491	3260
917.603	3401
917.715	3454
917.826	3496
917.938	3370
918.049	3291
918.161	3435
918.272	3549
918.384	3584
918.495	3473
918.606	3344
918.717	3279
918.828	3397
918.939	3393
919.05	3310
919.161	3389
919.272	3180
919.383	3302
919.494	3477
919.604	3667
919.715	3515
919.826	3401
919.936	3447
920.047	3629
920.157	3557
920.267	3720
920.378	3641
920.488	3576
920.598	3785
920.708	3915
920.818	3808
920.928	3816
921.038	3991
921.148	3983
921.258	3705
921.368	3633
921.477	3599
921.587	3549
921.697	3435
921.806	3625
921.916	3534
922.025	3378
922.134	3344
922.244	3332
922.353	3420
922.462	3249
922.571	3256
922.68	3085
922.789	3070
922.898	3135
923.007	3131
923.116	3222
923.224	3165
923.333	3195
923.442	3100
923.55	3081
923.659	3131
923.767	3161
923.876	3097
923.984	3268
924.092	3131
924.201	3180
924.309	3218
924.417	3226
924.525	3150
924.633	3241
924.741	4154
924.849	3089
924.956	3256
925.064	3116
925.172	3055
925.279	3108
925.387	3180
925.494	3226
925.602	3382
925.709	3336
925.816	3203
925.924	3268
926.031	3329
926.138	3313
926.245	3382
926.352	3253
926.459	3431
926.566	3439
926.673	3332
926.779	3237
926.886	3203
926.993	3142
927.099	3097
927.206	3097
927.312	3093
927.419	3192
927.525	3211
927.631	3256
927.737	3154
927.843	3081
927.95	3028
928.056	3138
928.162	3157
928.267	3233
928.373	3846
928.479	3321
928.585	3051
928.69	3184
928.796	3256
928.901	3188
929.007	3047
929.112	3226
929.218	3176
929.323	3150
929.428	3097
929.533	3340
929.638	3104
929.743	3184
929.848	3272
929.953	3249
930.058	3138
930.163	3017
930.267	3058
930.372	3184
930.477	3058
930.581	3340
930.685	3169
930.79	3058
930.894	3138
930.998	3066
931.103	3264
931.207	2979
931.311	2952
931.415	2922
931.519	2766
931.623	2826
