Data from test_V78500241_335.txt Node
Date: Fri Mar 25 16:17:31 CST 2022
User: usil
Spectrometer: V785-0024
Trigger mode: 0
Integration Time (sec): 4.000000E-1
Scans to average: 1
Nonlinearity correction enabled: false
Boxcar width: 0
Storing dark spectrum: false
XAxis mode: Wavelengths
Number of Pixels in Spectrum: 1024
>>>>>Begin Spectral Data<<<<<
801.071	2895
801.214	2979
801.356	2880
801.499	2914
801.641	2887
801.783	2956
801.926	3116
802.068	2986
802.211	3024
802.353	3036
802.496	2967
802.638	2982
802.78	3047
802.923	3104
803.065	3070
803.208	2910
803.35	2918
803.492	2982
803.635	2941
803.777	2830
803.919	2876
804.061	3222
804.204	2929
804.346	2952
804.488	2895
804.63	3028
804.773	2872
804.915	2925
805.057	3089
805.199	2960
805.341	3009
805.483	3062
805.626	3047
805.768	2982
805.91	3150
806.052	3077
806.194	3058
806.336	3279
806.478	3013
806.62	2963
806.762	2979
806.904	3093
807.046	3192
807.188	3013
807.33	2937
807.472	2986
807.614	2910
807.756	3005
807.898	2929
808.04	2883
808.182	3001
808.324	2956
808.465	2925
808.607	2891
808.749	2819
808.891	2872
809.033	2963
809.174	2967
809.316	2914
809.458	2929
809.6	2781
809.741	2739
809.883	2781
810.025	2864
810.166	2876
810.308	2864
810.45	2880
810.591	2792
810.733	2788
810.875	2853
811.016	2819
811.158	2785
811.299	2830
811.441	2963
811.582	2895
811.724	2830
811.865	2834
812.007	2922
812.148	2872
812.29	2861
812.431	2941
812.573	2952
812.714	2960
812.855	3058
812.997	3074
813.138	3138
813.279	3051
813.421	2944
813.562	2990
813.703	2906
813.845	2891
813.986	2785
814.127	2735
814.268	2872
814.41	2872
814.551	2853
814.692	2902
814.833	2826
814.974	2925
815.115	2979
815.256	2838
815.397	2823
815.539	2864
815.68	2804
815.821	2811
815.962	2971
816.103	2986
816.244	2864
816.385	2887
816.526	2994
816.666	2910
816.807	2754
816.948	2902
817.089	2952
817.23	2899
817.371	2834
817.512	2834
817.653	2815
817.793	2823
817.934	2887
818.075	2986
818.216	3077
818.356	3039
818.497	2906
818.638	2823
818.778	2819
818.919	2811
819.06	2777
819.2	2895
819.341	2857
819.481	2857
819.622	2948
819.762	3116
819.903	3051
820.043	2979
820.184	2906
820.324	2963
820.465	3039
820.605	3058
820.746	3062
820.886	2956
821.026	3119
821.167	3157
821.307	3310
821.447	3313
821.588	3268
821.728	3237
821.868	3226
822.008	3058
822.149	3233
822.289	3245
822.429	3081
822.569	3112
822.709	3165
822.849	3013
822.99	3112
823.13	3195
823.27	3230
823.41	3150
823.55	3169
823.69	3176
823.83	3192
823.97	3097
824.11	3020
824.25	2990
824.389	3097
824.529	3127
824.669	3104
824.809	3222
824.949	3279
825.089	3226
825.228	3176
825.368	3032
825.508	2929
825.648	2990
825.787	3001
825.927	3055
826.067	2925
826.206	2982
826.346	3055
826.485	3070
826.625	3081
826.765	3253
826.904	3211
827.044	3013
827.183	2975
827.323	2876
827.462	3009
827.601	2941
827.741	2952
827.88	2982
828.02	2819
828.159	2990
828.298	3058
828.437	3138
828.577	3024
828.716	3283
828.855	3127
828.994	2967
829.134	2910
829.273	2906
829.412	2883
829.551	2899
829.69	2883
829.829	3013
829.968	3119
830.107	3020
830.246	3043
830.385	2929
830.524	2887
830.663	2842
830.802	2743
830.941	2667
831.08	2648
831.219	2792
831.357	2800
831.496	2952
831.635	2754
831.774	2659
831.913	2689
832.051	2583
832.19	2617
832.329	2705
832.467	2549
832.606	2499
832.744	2583
832.883	2571
833.022	2617
833.16	2655
833.299	2678
833.437	2731
833.576	2701
833.714	2720
833.852	2758
833.991	2754
834.129	2876
834.267	2842
834.406	2815
834.544	2914
834.682	2876
834.821	2861
834.959	3055
835.097	2910
835.235	3093
835.373	3001
835.511	3074
835.65	2963
835.788	2979
835.926	2826
836.064	2857
836.202	2861
836.34	3100
836.478	3154
836.615	3108
836.753	3154
836.891	3214
837.029	3203
837.167	3142
837.305	3043
837.443	3051
837.58	2986
837.718	3131
837.856	3051
837.993	3085
838.131	3154
838.269	3093
838.406	3116
838.544	3093
838.681	2902
838.819	2902
838.956	2826
839.094	2834
839.231	2944
839.369	3032
839.506	3367
839.643	3245
839.781	3043
839.918	2982
840.055	3051
840.193	3081
840.33	3104
840.467	3112
840.604	3214
840.742	3405
840.879	3051
841.016	3066
841.153	3108
841.29	3313
841.427	3306
841.564	3275
841.701	3298
841.838	3222
841.975	3180
842.112	3222
842.249	3074
842.385	3058
842.522	3222
842.659	3070
842.796	3074
842.933	3108
843.069	3097
843.206	3051
843.343	3207
843.479	3112
843.616	3150
843.752	2929
843.889	2857
844.025	3112
844.162	2883
844.298	3055
844.435	2941
844.571	2922
844.708	3085
844.844	3180
844.98	3253
845.117	3211
845.253	3097
845.389	3032
845.525	3089
845.661	3119
845.798	3028
845.934	3108
846.07	3070
846.206	3211
846.342	3321
846.478	3237
846.614	3097
846.75	3074
846.886	3028
847.022	3249
847.158	3161
847.294	3218
847.429	3253
847.565	3211
847.701	3507
847.837	3032
847.972	3005
848.108	3142
848.244	3184
848.379	2986
848.515	2952
848.65	2914
848.786	2979
848.921	3039
849.057	3074
849.192	3142
849.328	3135
849.463	3108
849.598	3047
849.734	3024
849.869	3020
850.004	2971
850.14	2998
850.275	2982
850.41	2815
850.545	2864
850.68	2960
850.815	2960
850.95	2998
851.085	3184
851.22	3100
851.355	3055
851.49	3017
851.625	3001
851.76	3032
851.895	2876
852.03	2933
852.165	3047
852.299	3108
852.434	3188
852.569	3150
852.703	3180
852.838	3253
852.973	3348
853.107	3336
853.242	3135
853.376	3104
853.511	2979
853.645	3081
853.78	3218
853.914	3119
854.048	3127
854.183	3062
854.317	3146
854.451	3279
854.585	3097
854.72	3108
854.854	3245
854.988	3097
855.122	3093
855.256	2975
855.39	3138
855.524	3256
855.658	3192
855.792	3161
855.926	3214
856.06	3199
856.194	3245
856.327	3161
856.461	3062
856.595	3097
856.729	3097
856.862	3218
856.996	3173
857.13	3233
857.263	3237
857.397	3283
857.53	3169
857.664	3207
857.797	3226
857.931	3249
858.064	3154
858.197	3253
858.331	3146
858.464	3116
858.597	3032
858.731	3142
858.864	3150
858.997	3112
859.13	3138
859.263	3173
859.396	3176
859.529	3135
859.662	3074
859.795	3058
859.928	3104
860.061	3287
860.194	3306
860.327	3112
860.46	3146
860.592	3222
860.725	3222
860.858	3211
860.99	3138
861.123	3081
861.256	3001
861.388	3161
861.521	3880
861.653	3001
861.786	2975
861.918	2998
862.05	3089
862.183	3097
862.315	3169
862.447	3233
862.58	3081
862.712	2956
862.844	2880
862.976	3028
863.108	3009
863.24	3340
863.372	2899
863.504	2986
863.636	2956
863.768	3039
863.9	3009
864.032	2895
864.164	2929
864.296	2979
864.428	3112
864.559	3116
864.691	3066
864.823	3093
864.954	3024
865.086	3077
865.217	2990
865.349	2967
865.48	3013
865.612	3039
865.743	3165
865.875	3001
866.006	2944
866.137	2982
866.269	2956
866.4	2906
866.531	2944
866.662	2899
866.793	2887
866.924	2899
867.055	2944
867.186	2963
867.317	2906
867.448	2849
867.579	2845
867.71	2891
867.841	2804
867.972	2910
868.103	2906
868.233	2887
868.364	2853
868.495	2891
868.625	3070
868.756	3146
868.886	2975
869.017	3001
869.147	3169
869.278	3184
869.408	3043
869.539	3017
869.669	3127
869.799	3028
869.929	3138
870.06	3093
870.19	3321
870.32	3253
870.45	3268
870.58	3363
870.71	3466
870.84	3496
870.97	3294
871.1	3253
871.23	3488
871.36	3477
871.489	3359
871.619	3386
871.749	3439
871.879	3443
872.008	3477
872.138	3378
872.267	3275
872.397	3157
872.526	3070
872.656	3028
872.785	3127
872.915	3253
873.044	3321
873.173	3249
873.303	3256
873.432	3264
873.561	3214
873.69	3169
873.819	3127
873.948	3199
874.077	3127
874.206	3066
874.335	3077
874.464	3195
874.593	3378
874.722	3249
874.851	3416
874.979	3374
875.108	3355
875.237	3195
875.365	3169
875.494	3146
875.623	3249
875.751	3085
875.88	3146
876.008	3184
876.136	3207
876.265	3344
876.393	3530
876.521	3393
876.65	3393
876.778	3332
876.906	3233
877.034	3218
877.162	3199
877.29	3131
877.418	3241
877.546	3195
877.674	3230
877.802	3203
877.93	3230
878.058	3127
878.185	3100
878.313	3253
878.441	3222
878.568	3074
878.696	3119
878.824	3218
878.951	3321
879.079	3420
879.206	3606
879.333	3458
879.461	3283
879.588	3336
879.715	3492
879.842	3584
879.97	3378
880.097	3165
880.224	3135
880.351	3226
880.478	3237
880.605	3211
880.732	3192
880.859	3462
880.986	3340
881.112	3336
881.239	3188
881.366	3070
881.493	3013
881.619	3028
881.746	3055
881.872	3085
881.999	3116
882.125	3184
882.252	3272
882.378	3253
882.505	3428
882.631	3283
882.757	3154
882.883	3230
883.01	3260
883.136	3165
883.262	3104
883.388	3138
883.514	3351
883.64	3367
883.766	3306
883.892	3184
884.018	3253
884.143	3367
884.269	3561
884.395	3218
884.52	3184
884.646	3135
884.772	3123
884.897	3127
885.023	3188
885.148	3329
885.274	3424
885.399	3363
885.524	3302
885.65	3268
885.775	3329
885.9	3275
886.025	3412
886.15	3405
886.275	3294
886.4	3214
886.525	3291
886.65	3230
886.775	3272
886.9	3469
887.025	3591
887.149	3416
887.274	3279
887.399	3207
887.523	3180
887.648	3195
887.773	3199
887.897	3370
888.021	3374
888.146	3313
888.27	3435
888.395	3515
888.519	3412
888.643	3466
888.767	3488
888.891	3317
889.015	3279
889.139	3321
889.263	3241
889.387	3378
889.511	3526
889.635	3428
889.759	3291
889.883	3291
890.006	3378
890.13	3519
890.254	3268
890.377	3329
890.501	3226
890.624	3176
890.748	3294
890.871	3199
890.995	3100
891.118	3085
891.241	3188
891.364	3222
891.488	3302
891.611	3207
891.734	3241
891.857	3287
891.98	3249
892.103	3351
892.226	3302
892.349	3211
892.471	3108
892.594	3264
892.717	3310
892.839	3256
892.962	3310
893.085	3332
893.207	3298
893.33	3138
893.452	3211
893.575	3359
893.697	3268
893.819	3477
893.941	3557
894.064	3389
894.186	3283
894.308	3253
894.43	3462
894.552	3500
894.674	3504
894.796	3279
894.918	3310
895.04	3291
895.161	3454
895.283	3378
895.405	3306
895.526	3401
895.648	3443
895.769	3439
895.891	3443
896.012	3458
896.134	3473
896.255	3431
896.376	3386
896.498	3367
896.619	3424
896.74	3363
896.861	3409
896.982	3667
897.103	3819
897.224	3553
897.345	3545
897.466	3447
897.587	3492
897.708	3622
897.828	3542
897.949	3420
898.07	3340
898.19	3431
898.311	3580
898.431	3409
898.552	3519
898.672	3553
898.792	3591
898.913	3542
899.033	3420
899.153	3294
899.273	3237
899.393	3302
899.513	3336
899.633	3294
899.753	3340
899.873	3302
899.993	3374
900.113	3329
900.232	3420
900.352	3268
900.472	3313
900.591	3218
900.711	3272
900.83	3260
900.95	3397
901.069	3519
901.189	3321
901.308	3176
901.427	3135
901.546	3203
901.665	3268
901.784	3359
901.904	3161
902.023	3154
902.141	2975
902.26	2986
902.379	3146
902.498	3085
902.617	3039
902.735	3214
902.854	3230
902.973	3150
903.091	3074
903.21	3074
903.328	3154
903.446	3104
903.565	3100
903.683	3188
903.801	3123
903.919	3245
904.038	3264
904.156	3142
904.274	3298
904.392	3268
904.51	3283
904.627	3351
904.745	3454
904.863	3511
904.981	3249
905.098	3169
905.216	3241
905.334	3306
905.451	3317
905.569	3329
905.686	3428
905.803	3424
905.921	3287
906.038	3431
906.155	3336
906.272	3298
906.389	3370
906.506	3237
906.623	3253
906.74	3264
906.857	3180
906.974	3241
907.091	3439
907.208	3561
907.324	3458
907.441	3374
907.557	3268
907.674	3214
907.79	3180
907.907	3283
908.023	3355
908.139	3389
908.256	3336
908.372	3367
908.488	3359
908.604	3253
908.72	3237
908.836	3268
908.952	3268
909.068	3340
909.184	3492
909.3	3386
909.415	3492
909.531	3496
909.647	3253
909.762	3317
909.878	3272
909.993	3386
910.108	3344
910.224	3370
910.339	3431
910.454	3340
910.57	3272
910.685	3241
910.8	3584
910.915	3545
911.03	3454
911.145	3241
911.259	3298
911.374	3317
911.489	3260
911.604	3233
911.718	3097
911.833	3150
911.947	3024
912.062	3020
912.176	3188
912.291	3195
912.405	3199
912.519	3454
912.633	3447
912.748	3348
912.862	3275
912.976	3169
913.09	3032
913.204	3142
913.318	3195
913.431	3325
913.545	3340
913.659	3439
913.772	3325
913.886	3207
914	3230
914.113	3348
914.226	3424
914.34	3397
914.453	3218
914.566	3416
914.68	3306
914.793	3321
914.906	3146
915.019	3116
915.132	3047
915.245	3176
915.358	3226
915.47	3192
915.583	3253
915.696	3287
915.809	3420
915.921	3450
916.034	3256
916.146	3256
916.259	3233
916.371	3367
916.483	3378
916.595	3260
916.708	3348
916.82	3291
916.932	3344
917.044	3332
917.156	3336
917.268	3260
917.38	3325
917.491	3313
917.603	3374
917.715	3435
917.826	3496
917.938	3374
918.049	3279
918.161	3447
918.272	3576
918.384	3584
918.495	3496
918.606	3344
918.717	3283
918.828	3355
918.939	3431
919.05	3310
919.161	3367
919.272	3230
919.383	3294
919.494	3500
919.604	3656
919.715	3454
919.826	3389
919.936	3462
920.047	3599
920.157	3561
920.267	3755
920.378	3641
920.488	3584
920.598	3766
920.708	3979
920.818	3827
920.928	3846
921.038	4059
921.148	4071
921.258	3679
921.368	3625
921.477	3587
921.587	3545
921.697	3488
921.806	3671
921.916	3515
922.025	3386
922.134	3348
922.244	3321
922.353	3420
922.462	3245
922.571	3211
922.68	3093
922.789	3070
922.898	3138
923.007	3119
923.116	3222
923.224	3154
923.333	3184
923.442	3093
923.55	3108
923.659	3150
923.767	3192
923.876	3123
923.984	3222
924.092	3100
924.201	3233
924.309	3283
924.417	3302
924.525	3203
924.633	3207
924.741	4238
924.849	3043
924.956	3275
925.064	3112
925.172	3070
925.279	3108
925.387	3195
925.494	3211
925.602	3367
925.709	3310
925.816	3173
925.924	3279
926.031	3386
926.138	3313
926.245	3344
926.352	3275
926.459	3393
926.566	3488
926.673	3344
926.779	3222
926.886	3256
926.993	3150
927.099	3154
927.206	3146
927.312	3127
927.419	3222
927.525	3184
927.631	3313
927.737	3154
927.843	3135
927.95	3020
928.056	3150
928.162	3199
928.267	3237
928.373	3892
928.479	3321
928.585	3077
928.69	3218
928.796	3275
928.901	3154
929.007	3036
929.112	3230
929.218	3214
929.323	3165
929.428	3150
929.533	3298
929.638	3138
929.743	3165
929.848	3264
929.953	3211
930.058	3165
930.163	3005
930.267	3066
930.372	3207
930.477	3032
930.581	3302
930.685	3146
930.79	3036
930.894	3161
930.998	3093
931.103	3283
931.207	2990
931.311	2944
931.415	2918
931.519	2766
931.623	2819
