Data from test_V78500241_558.txt Node
Date: Fri Mar 25 16:19:04 CST 2022
User: usil
Spectrometer: V785-0024
Trigger mode: 0
Integration Time (sec): 4.000000E-1
Scans to average: 1
Nonlinearity correction enabled: false
Boxcar width: 0
Storing dark spectrum: false
XAxis mode: Wavelengths
Number of Pixels in Spectrum: 1024
>>>>>Begin Spectral Data<<<<<
801.071	2902
801.214	2929
801.356	2868
801.499	2864
801.641	2861
801.783	2910
801.926	3074
802.068	2967
802.211	3001
802.353	3032
802.496	2944
802.638	3028
802.78	3043
802.923	3085
803.065	2944
803.208	2887
803.35	2895
803.492	2933
803.635	2902
803.777	2727
803.919	2826
804.061	3218
804.204	2941
804.346	2891
804.488	2861
804.63	2982
804.773	2861
804.915	2914
805.057	3062
805.199	2906
805.341	2944
805.483	3036
805.626	3001
805.768	2971
805.91	3112
806.052	3104
806.194	3009
806.336	3245
806.478	3020
806.62	2933
806.762	2971
806.904	3043
807.046	3138
807.188	2925
807.33	2910
807.472	2948
807.614	2876
807.756	3020
807.898	2914
808.04	2883
808.182	2979
808.324	2944
808.465	2872
808.607	2880
808.749	2762
808.891	2861
809.033	2971
809.174	2960
809.316	2857
809.458	2895
809.6	2766
809.741	2800
809.883	2781
810.025	2842
810.166	2838
810.308	2853
810.45	2838
810.591	2773
810.733	2766
810.875	2853
811.016	2777
811.158	2754
811.299	2811
811.441	2902
811.582	2922
811.724	2804
811.865	2826
812.007	2922
812.148	2895
812.29	2845
812.431	2868
812.573	2941
812.714	2952
812.855	3028
812.997	3055
813.138	3135
813.279	2982
813.421	2990
813.562	2914
813.703	2845
813.845	2906
813.986	2769
814.127	2735
814.268	2788
814.41	2834
814.551	2823
814.692	2853
814.833	2811
814.974	2899
815.115	2967
815.256	2853
815.397	2823
815.539	2895
815.68	2769
815.821	2807
815.962	2952
816.103	2929
816.244	2883
816.385	2853
816.526	2952
816.666	2906
816.807	2743
816.948	2941
817.089	2914
817.23	2872
817.371	2796
817.512	2796
817.653	2826
817.793	2819
817.934	2891
818.075	2941
818.216	2990
818.356	3001
818.497	2876
818.638	2788
818.778	2819
818.919	2804
819.06	2746
819.2	2876
819.341	2815
819.481	2792
819.622	2925
819.762	3097
819.903	3077
820.043	2918
820.184	2880
820.324	2891
820.465	3020
820.605	3005
820.746	3005
820.886	2906
821.026	3093
821.167	3142
821.307	3283
821.447	3256
821.588	3203
821.728	3207
821.868	3203
822.008	3058
822.149	3184
822.289	3222
822.429	3097
822.569	3097
822.709	3161
822.849	3001
822.99	3100
823.13	3123
823.27	3195
823.41	3169
823.55	3150
823.69	3138
823.83	3218
823.97	3055
824.11	3017
824.25	2998
824.389	3070
824.529	3127
824.669	3055
824.809	3184
824.949	3253
825.089	3249
825.228	3184
825.368	3032
825.508	2952
825.648	2986
825.787	3005
825.927	3024
826.067	2971
826.206	2963
826.346	2998
826.485	3085
826.625	3089
826.765	3279
826.904	3207
827.044	3001
827.183	2941
827.323	2872
827.462	3009
827.601	2941
827.741	2902
827.88	2944
828.02	2845
828.159	2956
828.298	3047
828.437	3100
828.577	3032
828.716	3214
828.855	3108
828.994	2895
829.134	2906
829.273	2918
829.412	2872
829.551	2842
829.69	2891
829.829	2937
829.968	3089
830.107	3005
830.246	3013
830.385	2929
830.524	2891
830.663	2815
830.802	2731
830.941	2625
831.08	2621
831.219	2788
831.357	2724
831.496	2941
831.635	2708
831.774	2640
831.913	2636
832.051	2530
832.19	2594
832.329	2663
832.467	2514
832.606	2492
832.744	2564
832.883	2606
833.022	2560
833.16	2644
833.299	2697
833.437	2670
833.576	2686
833.714	2701
833.852	2769
833.991	2754
834.129	2826
834.267	2861
834.406	2758
834.544	2834
834.682	2857
834.821	2849
834.959	3047
835.097	2902
835.235	3051
835.373	3013
835.511	3028
835.65	2925
835.788	2925
835.926	2826
836.064	2804
836.202	2834
836.34	3093
836.478	3146
836.615	3055
836.753	3161
836.891	3226
837.029	3161
837.167	3093
837.305	3009
837.443	3013
837.58	2933
837.718	3112
837.856	3077
837.993	3043
838.131	3093
838.269	3123
838.406	3116
838.544	3043
838.681	2922
838.819	2902
838.956	2804
839.094	2823
839.231	2891
839.369	2990
839.506	3355
839.643	3188
839.781	3005
839.918	2944
840.055	3043
840.193	3039
840.33	3024
840.467	3108
840.604	3116
840.742	3405
840.879	3036
841.016	3039
841.153	3077
841.29	3310
841.427	3298
841.564	3279
841.701	3310
841.838	3214
841.975	3165
842.112	3214
842.249	3077
842.385	3001
842.522	3260
842.659	3108
842.796	3074
842.933	3135
843.069	3047
843.206	3047
843.343	3184
843.479	3119
843.616	3123
843.752	2910
843.889	2895
844.025	3089
844.162	2887
844.298	3066
844.435	2933
844.571	2944
844.708	3055
844.844	3135
844.98	3211
845.117	3192
845.253	3051
845.389	2990
845.525	3108
845.661	3089
845.798	2998
845.934	3146
846.07	3017
846.206	3188
846.342	3279
846.478	3233
846.614	3085
846.75	3055
846.886	3001
847.022	3237
847.158	3127
847.294	3165
847.429	3256
847.565	3211
847.701	3454
847.837	3024
847.972	3001
848.108	3161
848.244	3123
848.379	2960
848.515	2952
848.65	2914
848.786	2967
848.921	2975
849.057	3089
849.192	3192
849.328	3070
849.463	3081
849.598	3077
849.734	3028
849.869	3001
850.004	2910
850.14	2948
850.275	2914
850.41	2823
850.545	2891
850.68	2922
850.815	2944
850.95	2944
851.085	3207
851.22	3097
851.355	3009
851.49	2971
851.625	3009
851.76	3009
851.895	2956
852.03	2918
852.165	3036
852.299	3055
852.434	3180
852.569	3135
852.703	3184
852.838	3253
852.973	3294
853.107	3302
853.242	3165
853.376	3093
853.511	3001
853.645	3001
853.78	3226
853.914	3131
854.048	3104
854.183	3089
854.317	3146
854.451	3287
854.585	3119
854.72	3097
854.854	3199
854.988	3051
855.122	3112
855.256	2990
855.39	3104
855.524	3260
855.658	3138
855.792	3112
855.926	3180
856.06	3203
856.194	3241
856.327	3165
856.461	3051
856.595	3062
856.729	3074
856.862	3180
856.996	3192
857.13	3188
857.263	3226
857.397	3260
857.53	3112
857.664	3192
857.797	3260
857.931	3249
858.064	3157
858.197	3192
858.331	3131
858.464	3066
858.597	2971
858.731	3161
858.864	3097
858.997	3066
859.13	3161
859.263	3100
859.396	3176
859.529	3081
859.662	3062
859.795	3066
859.928	3154
860.061	3291
860.194	3253
860.327	3119
860.46	3093
860.592	3226
860.725	3256
860.858	3279
860.99	3116
861.123	3043
861.256	3017
861.388	3138
861.521	3667
861.653	2994
861.786	2975
861.918	3001
862.05	3028
862.183	3070
862.315	3157
862.447	3173
862.58	3051
862.712	2960
862.844	2880
862.976	3001
863.108	2994
863.24	3412
863.372	2902
863.504	2956
863.636	2944
863.768	3020
863.9	2948
864.032	2887
864.164	2925
864.296	2982
864.428	3058
864.559	3085
864.691	3066
864.823	3062
864.954	3058
865.086	3047
865.217	2994
865.349	2948
865.48	3013
865.612	3055
865.743	3127
865.875	2990
866.006	2952
866.137	2925
866.269	2952
866.4	2902
866.531	2956
866.662	2899
866.793	2906
866.924	2925
867.055	2975
867.186	2914
867.317	2845
867.448	2834
867.579	2838
867.71	2834
867.841	2819
867.972	2872
868.103	2868
868.233	2906
868.364	2857
868.495	2864
868.625	3093
868.756	3154
868.886	2929
869.017	3005
869.147	3180
869.278	3150
869.408	3039
869.539	3009
869.669	3066
869.799	3036
869.929	3104
870.06	3127
870.19	3302
870.32	3279
870.45	3291
870.58	3370
870.71	3458
870.84	3424
870.97	3283
871.1	3241
871.23	3530
871.36	3458
871.489	3370
871.619	3378
871.749	3435
871.879	3424
872.008	3519
872.138	3359
872.267	3291
872.397	3150
872.526	3097
872.656	3047
872.785	3077
872.915	3211
873.044	3298
873.173	3180
873.303	3241
873.432	3237
873.561	3214
873.69	3176
873.819	3116
873.948	3173
874.077	3100
874.206	3028
874.335	3066
874.464	3241
874.593	3386
874.722	3237
874.851	3359
874.979	3332
875.108	3294
875.237	3188
875.365	3207
875.494	3161
875.623	3195
875.751	3100
875.88	3097
876.008	3176
876.136	3211
876.265	3363
876.393	3500
876.521	3454
876.65	3386
876.778	3332
876.906	3233
877.034	3195
877.162	3249
877.29	3188
877.418	3222
877.546	3214
877.674	3226
877.802	3245
877.93	3211
878.058	3127
878.185	3089
878.313	3207
878.441	3214
878.568	3085
878.696	3142
878.824	3226
878.951	3256
879.079	3420
879.206	3603
879.333	3424
879.461	3321
879.588	3340
879.715	3485
879.842	3603
879.97	3382
880.097	3150
880.224	3123
880.351	3173
880.478	3207
880.605	3211
880.732	3169
880.859	3435
880.986	3329
881.112	3306
881.239	3211
881.366	3066
881.493	3032
881.619	3017
881.746	3093
881.872	3070
881.999	3089
882.125	3146
882.252	3226
882.378	3230
882.505	3439
882.631	3253
882.757	3188
882.883	3188
883.01	3180
883.136	3108
883.262	3070
883.388	3097
883.514	3287
883.64	3332
883.766	3325
883.892	3123
884.018	3211
884.143	3409
884.269	3515
884.395	3218
884.52	3123
884.646	3146
884.772	3112
884.897	3089
885.023	3199
885.148	3325
885.274	3351
885.399	3378
885.524	3294
885.65	3260
885.775	3291
885.9	3291
886.025	3409
886.15	3340
886.275	3283
886.4	3211
886.525	3272
886.65	3241
886.775	3268
886.9	3496
887.025	3591
887.149	3393
887.274	3249
887.399	3188
887.523	3195
887.648	3157
887.773	3203
887.897	3378
888.021	3355
888.146	3325
888.27	3416
888.395	3485
888.519	3367
888.643	3431
888.767	3416
888.891	3310
889.015	3260
889.139	3279
889.263	3195
889.387	3378
889.511	3526
889.635	3420
889.759	3287
889.883	3264
890.006	3355
890.13	3466
890.254	3245
890.377	3321
890.501	3184
890.624	3176
890.748	3241
890.871	3173
890.995	3119
891.118	3070
891.241	3157
891.364	3203
891.488	3317
891.611	3169
891.734	3207
891.857	3264
891.98	3241
892.103	3329
892.226	3241
892.349	3214
892.471	3131
892.594	3253
892.717	3287
892.839	3294
892.962	3313
893.085	3336
893.207	3321
893.33	3138
893.452	3203
893.575	3329
893.697	3253
893.819	3473
893.941	3496
894.064	3428
894.186	3272
894.308	3211
894.43	3454
894.552	3545
894.674	3443
894.796	3253
894.918	3317
895.04	3272
895.161	3431
895.283	3435
895.405	3325
895.526	3405
895.648	3424
895.769	3469
895.891	3485
896.012	3492
896.134	3530
896.255	3450
896.376	3431
896.498	3389
896.619	3454
896.74	3412
896.861	3420
896.982	3705
897.103	3880
897.224	3584
897.345	3523
897.466	3458
897.587	3542
897.708	3641
897.828	3599
897.949	3500
898.07	3378
898.19	3466
898.311	3618
898.431	3473
898.552	3553
898.672	3648
898.792	3587
898.913	3561
899.033	3428
899.153	3332
899.273	3245
899.393	3344
899.513	3367
899.633	3344
899.753	3355
899.873	3344
899.993	3374
900.113	3386
900.232	3409
900.352	3344
900.472	3306
900.591	3260
900.711	3355
900.83	3264
900.95	3477
901.069	3519
901.189	3393
901.308	3230
901.427	3180
901.546	3176
901.665	3321
901.784	3389
901.904	3218
902.023	3192
902.141	3062
902.26	3032
902.379	3123
902.498	3127
902.617	3131
902.735	3260
902.854	3291
902.973	3230
903.091	3077
903.21	3081
903.328	3161
903.446	3154
903.565	3135
903.683	3233
903.801	3176
903.919	3272
904.038	3313
904.156	3211
904.274	3329
904.392	3275
904.51	3321
904.627	3374
904.745	3466
904.863	3519
904.981	3321
905.098	3226
905.216	3275
905.334	3317
905.451	3317
905.569	3367
905.686	3435
905.803	3469
905.921	3321
906.038	3439
906.155	3367
906.272	3291
906.389	3344
906.506	3279
906.623	3294
906.74	3279
906.857	3222
906.974	3260
907.091	3462
907.208	3595
907.324	3485
907.441	3401
907.557	3268
907.674	3230
907.79	3241
907.907	3287
908.023	3393
908.139	3401
908.256	3401
908.372	3416
908.488	3386
908.604	3310
908.72	3283
908.836	3306
908.952	3321
909.068	3374
909.184	3492
909.3	3462
909.415	3538
909.531	3519
909.647	3268
909.762	3291
909.878	3264
909.993	3382
910.108	3359
910.224	3355
910.339	3386
910.454	3351
910.57	3313
910.685	3275
910.8	3595
910.915	3606
911.03	3469
911.145	3321
911.259	3298
911.374	3363
911.489	3237
911.604	3237
911.718	3157
911.833	3157
911.947	3047
912.062	3013
912.176	3192
912.291	3214
912.405	3226
912.519	3431
912.633	3534
912.748	3302
912.862	3298
912.976	3237
913.09	3085
913.204	3142
913.318	3260
913.431	3359
913.545	3405
913.659	3435
913.772	3386
913.886	3279
914	3249
914.113	3393
914.226	3454
914.34	3363
914.453	3249
914.566	3416
914.68	3313
914.793	3321
914.906	3184
915.019	3131
915.132	3131
915.245	3211
915.358	3306
915.47	3268
915.583	3291
915.696	3336
915.809	3420
915.921	3435
916.034	3275
916.146	3306
916.259	3245
916.371	3405
916.483	3416
916.595	3294
916.708	3367
916.82	3363
916.932	3351
917.044	3374
917.156	3367
917.268	3272
917.38	3344
917.491	3344
917.603	3420
917.715	3526
917.826	3466
917.938	3412
918.049	3287
918.161	3469
918.272	3622
918.384	3610
918.495	3549
918.606	3405
918.717	3298
918.828	3424
918.939	3466
919.05	3378
919.161	3374
919.272	3211
919.383	3306
919.494	3504
919.604	3679
919.715	3477
919.826	3416
919.936	3504
920.047	3629
920.157	3580
920.267	3785
920.378	3622
920.488	3603
920.598	3819
920.708	3968
920.818	3838
920.928	3838
921.038	4044
921.148	4040
921.258	3720
921.368	3663
921.477	3625
921.587	3576
921.697	3435
921.806	3663
921.916	3576
922.025	3370
922.134	3393
922.244	3325
922.353	3447
922.462	3264
922.571	3272
922.68	3119
922.789	3116
922.898	3161
923.007	3127
923.116	3226
923.224	3222
923.333	3214
923.442	3116
923.55	3135
923.659	3207
923.767	3287
923.876	3100
923.984	3283
924.092	3154
924.201	3260
924.309	3230
924.417	3275
924.525	3192
924.633	3268
924.741	4059
924.849	3074
924.956	3294
925.064	3154
925.172	3055
925.279	3131
925.387	3199
925.494	3203
925.602	3370
925.709	3378
925.816	3214
925.924	3310
926.031	3397
926.138	3374
926.245	3370
926.352	3272
926.459	3473
926.566	3466
926.673	3374
926.779	3272
926.886	3264
926.993	3138
927.099	3188
927.206	3131
927.312	3165
927.419	3237
927.525	3264
927.631	3283
927.737	3188
927.843	3142
927.95	3036
928.056	3184
928.162	3184
928.267	3272
928.373	3804
928.479	3291
928.585	3093
928.69	3260
928.796	3302
928.901	3180
929.007	3089
929.112	3264
929.218	3180
929.323	3214
929.428	3199
929.533	3310
929.638	3104
929.743	3199
929.848	3298
929.953	3249
930.058	3146
930.163	3028
930.267	3093
930.372	3199
930.477	3089
930.581	3348
930.685	3165
930.79	3093
930.894	3142
930.998	3116
931.103	3325
931.207	3001
931.311	2994
931.415	2922
931.519	2834
931.623	2826
