Data from test_V78500241_751.txt Node
Date: Fri Mar 25 16:20:24 CST 2022
User: usil
Spectrometer: V785-0024
Trigger mode: 0
Integration Time (sec): 4.000000E-1
Scans to average: 1
Nonlinearity correction enabled: false
Boxcar width: 0
Storing dark spectrum: false
XAxis mode: Wavelengths
Number of Pixels in Spectrum: 1024
>>>>>Begin Spectral Data<<<<<
801.071	2910
801.214	2941
801.356	2845
801.499	2880
801.641	2834
801.783	2929
801.926	3005
802.068	2944
802.211	2963
802.353	3039
802.496	2918
802.638	3020
802.78	3024
802.923	3085
803.065	2982
803.208	2883
803.35	2857
803.492	2933
803.635	2906
803.777	2746
803.919	2849
804.061	3176
804.204	2922
804.346	2906
804.488	2845
804.63	2948
804.773	2864
804.915	2910
805.057	3093
805.199	2941
805.341	2975
805.483	3009
805.626	3013
805.768	2944
805.91	3093
806.052	3089
806.194	3028
806.336	3199
806.478	2986
806.62	2933
806.762	2960
806.904	3013
807.046	3184
807.188	2971
807.33	2914
807.472	2994
807.614	2941
807.756	2944
807.898	2925
808.04	2880
808.182	2975
808.324	2967
808.465	2880
808.607	2895
808.749	2739
808.891	2845
809.033	3001
809.174	2952
809.316	2868
809.458	2895
809.6	2743
809.741	2727
809.883	2758
810.025	2845
810.166	2861
810.308	2823
810.45	2861
810.591	2754
810.733	2762
810.875	2826
811.016	2746
811.158	2792
811.299	2781
811.441	2941
811.582	2895
811.724	2823
811.865	2826
812.007	2887
812.148	2899
812.29	2842
812.431	2876
812.573	2922
812.714	2994
812.855	3028
812.997	2998
813.138	3104
813.279	3009
813.421	2979
813.562	2948
813.703	2868
813.845	2864
813.986	2796
814.127	2720
814.268	2853
814.41	2857
814.551	2800
814.692	2838
814.833	2804
814.974	2868
815.115	2967
815.256	2838
815.397	2800
815.539	2872
815.68	2773
815.821	2781
815.962	2918
816.103	2929
816.244	2857
816.385	2849
816.526	2929
816.666	2944
816.807	2724
816.948	2910
817.089	2914
817.23	2834
817.371	2758
817.512	2800
817.653	2834
817.793	2838
817.934	2857
818.075	2956
818.216	2960
818.356	3028
818.497	2872
818.638	2788
818.778	2796
818.919	2804
819.06	2762
819.2	2880
819.341	2769
819.481	2788
819.622	2891
819.762	3097
819.903	3017
820.043	2906
820.184	2895
820.324	2902
820.465	3028
820.605	3017
820.746	3009
820.886	2937
821.026	3097
821.167	3165
821.307	3256
821.447	3275
821.588	3195
821.728	3211
821.868	3188
822.008	3089
822.149	3154
822.289	3211
822.429	3077
822.569	3123
822.709	3184
822.849	3017
822.99	3028
823.13	3116
823.27	3253
823.41	3097
823.55	3157
823.69	3135
823.83	3176
823.97	3108
824.11	2998
824.25	3005
824.389	3013
824.529	3100
824.669	3089
824.809	3275
824.949	3256
825.089	3169
825.228	3104
825.368	2990
825.508	2979
825.648	2944
825.787	3039
825.927	3020
826.067	2933
826.206	2937
826.346	3058
826.485	3070
826.625	3089
826.765	3260
826.904	3226
827.044	2979
827.183	2902
827.323	2902
827.462	3005
827.601	2895
827.741	2918
827.88	2944
828.02	2857
828.159	2963
828.298	3020
828.437	3138
828.577	3039
828.716	3260
828.855	3081
828.994	2929
829.134	2872
829.273	2853
829.412	2868
829.551	2849
829.69	2891
829.829	2960
829.968	3119
830.107	2994
830.246	3020
830.385	2902
830.524	2864
830.663	2796
830.802	2735
830.941	2667
831.08	2651
831.219	2777
831.357	2735
831.496	2952
831.635	2716
831.774	2629
831.913	2636
832.051	2533
832.19	2564
832.329	2663
832.467	2545
832.606	2518
832.744	2598
832.883	2575
833.022	2568
833.16	2693
833.299	2724
833.437	2701
833.576	2667
833.714	2708
833.852	2727
833.991	2758
834.129	2804
834.267	2834
834.406	2750
834.544	2876
834.682	2868
834.821	2872
834.959	3093
835.097	2895
835.235	3032
835.373	3020
835.511	2994
835.65	2902
835.788	2982
835.926	2826
836.064	2815
836.202	2815
836.34	3032
836.478	3157
836.615	3005
836.753	3108
836.891	3169
837.029	3176
837.167	3058
837.305	3074
837.443	3047
837.58	2941
837.718	3123
837.856	3081
837.993	3024
838.131	3131
838.269	3116
838.406	3058
838.544	3077
838.681	2971
838.819	2906
838.956	2781
839.094	2826
839.231	2933
839.369	3005
839.506	3389
839.643	3214
839.781	3013
839.918	2979
840.055	2998
840.193	3020
840.33	3081
840.467	3085
840.604	3138
840.742	3416
840.879	3017
841.016	3089
841.153	3165
841.29	3329
841.427	3294
841.564	3256
841.701	3310
841.838	3237
841.975	3176
842.112	3192
842.249	3085
842.385	3058
842.522	3272
842.659	3097
842.796	3062
842.933	3131
843.069	3047
843.206	3020
843.343	3188
843.479	3089
843.616	3142
843.752	2891
843.889	2872
844.025	3062
844.162	2906
844.298	3043
844.435	2971
844.571	2906
844.708	3085
844.844	3188
844.98	3199
845.117	3199
845.253	3039
845.389	3013
845.525	3077
845.661	3112
845.798	2986
845.934	3074
846.07	3055
846.206	3195
846.342	3253
846.478	3218
846.614	3089
846.75	3032
846.886	3005
847.022	3211
847.158	3138
847.294	3173
847.429	3226
847.565	3218
847.701	3492
847.837	3024
847.972	2986
848.108	3154
848.244	3157
848.379	2975
848.515	2952
848.65	2956
848.786	2975
848.921	3024
849.057	3100
849.192	3131
849.328	3062
849.463	3104
849.598	3032
849.734	3017
849.869	2975
850.004	2910
850.14	2944
850.275	2902
850.41	2800
850.545	2895
850.68	2948
850.815	2948
850.95	2979
851.085	3176
851.22	3047
851.355	2994
851.49	2963
851.625	2982
851.76	2986
851.895	2922
852.03	2910
852.165	3017
852.299	3074
852.434	3180
852.569	3165
852.703	3180
852.838	3241
852.973	3348
853.107	3283
853.242	3135
853.376	3104
853.511	2963
853.645	2994
853.78	3211
853.914	3146
854.048	3074
854.183	3062
854.317	3089
854.451	3275
854.585	3123
854.72	3085
854.854	3230
854.988	3028
855.122	3070
855.256	2982
855.39	3116
855.524	3207
855.658	3165
855.792	3138
855.926	3176
856.06	3199
856.194	3249
856.327	3127
856.461	3058
856.595	3081
856.729	3089
856.862	3154
856.996	3150
857.13	3214
857.263	3211
857.397	3241
857.53	3112
857.664	3173
857.797	3222
857.931	3268
858.064	3142
858.197	3207
858.331	3142
858.464	3074
858.597	2990
858.731	3081
858.864	3138
858.997	3097
859.13	3150
859.263	3176
859.396	3188
859.529	3104
859.662	3039
859.795	3051
859.928	3100
860.061	3275
860.194	3268
860.327	3119
860.46	3070
860.592	3203
860.725	3245
860.858	3253
860.99	3100
861.123	3020
861.256	3047
861.388	3112
861.521	3926
861.653	3043
861.786	2990
861.918	3005
862.05	3062
862.183	3085
862.315	3169
862.447	3195
862.58	3051
862.712	2960
862.844	2853
862.976	3070
863.108	3024
863.24	3428
863.372	2876
863.504	2979
863.636	2922
863.768	3009
863.9	2990
864.032	2952
864.164	2956
864.296	3017
864.428	3097
864.559	3104
864.691	3020
864.823	3013
864.954	3036
865.086	3051
865.217	2994
865.349	2952
865.48	3017
865.612	3051
865.743	3116
865.875	2986
866.006	2948
866.137	2956
866.269	2941
866.4	2922
866.531	2906
866.662	2883
866.793	2902
866.924	2876
867.055	2944
867.186	2906
867.317	2895
867.448	2842
867.579	2849
867.71	2826
867.841	2826
867.972	2902
868.103	2902
868.233	2868
868.364	2864
868.495	2880
868.625	3093
868.756	3150
868.886	2952
869.017	3024
869.147	3161
869.278	3195
869.408	3070
869.539	3009
869.669	3077
869.799	3039
869.929	3138
870.06	3108
870.19	3298
870.32	3264
870.45	3279
870.58	3359
870.71	3447
870.84	3466
870.97	3279
871.1	3233
871.23	3473
871.36	3443
871.489	3359
871.619	3340
871.749	3443
871.879	3481
872.008	3481
872.138	3329
872.267	3275
872.397	3138
872.526	3108
872.656	3055
872.785	3100
872.915	3233
873.044	3367
873.173	3211
873.303	3222
873.432	3211
873.561	3230
873.69	3142
873.819	3123
873.948	3233
874.077	3074
874.206	3039
874.335	3081
874.464	3192
874.593	3325
874.722	3226
874.851	3351
874.979	3329
875.108	3325
875.237	3188
875.365	3131
875.494	3116
875.623	3241
875.751	3108
875.88	3123
876.008	3184
876.136	3218
876.265	3348
876.393	3488
876.521	3447
876.65	3386
876.778	3306
876.906	3260
877.034	3226
877.162	3214
877.29	3214
877.418	3237
877.546	3214
877.674	3237
877.802	3226
877.93	3214
878.058	3123
878.185	3131
878.313	3222
878.441	3184
878.568	3089
878.696	3150
878.824	3249
878.951	3291
879.079	3447
879.206	3572
879.333	3431
879.461	3332
879.588	3310
879.715	3492
879.842	3595
879.97	3340
880.097	3161
880.224	3119
880.351	3161
880.478	3192
880.605	3222
880.732	3176
880.859	3485
880.986	3302
881.112	3302
881.239	3222
881.366	3100
881.493	3020
881.619	3009
881.746	3085
881.872	3093
881.999	3108
882.125	3119
882.252	3268
882.378	3283
882.505	3454
882.631	3268
882.757	3157
882.883	3199
883.01	3173
883.136	3154
883.262	3104
883.388	3119
883.514	3344
883.64	3386
883.766	3306
883.892	3169
884.018	3241
884.143	3389
884.269	3545
884.395	3195
884.52	3142
884.646	3195
884.772	3119
884.897	3077
885.023	3199
885.148	3275
885.274	3420
885.399	3382
885.524	3291
885.65	3249
885.775	3348
885.9	3272
886.025	3439
886.15	3355
886.275	3310
886.4	3237
886.525	3291
886.65	3272
886.775	3253
886.9	3439
887.025	3614
887.149	3382
887.274	3218
887.399	3176
887.523	3237
887.648	3192
887.773	3207
887.897	3325
888.021	3374
888.146	3306
888.27	3397
888.395	3519
888.519	3439
888.643	3431
888.767	3450
888.891	3275
889.015	3195
889.139	3249
889.263	3253
889.387	3416
889.511	3519
889.635	3466
889.759	3291
889.883	3325
890.006	3416
890.13	3454
890.254	3291
890.377	3340
890.501	3195
890.624	3173
890.748	3302
890.871	3188
890.995	3058
891.118	3066
891.241	3192
891.364	3233
891.488	3298
891.611	3154
891.734	3203
891.857	3264
891.98	3218
892.103	3344
892.226	3249
892.349	3203
892.471	3108
892.594	3245
892.717	3306
892.839	3291
892.962	3249
893.085	3359
893.207	3310
893.33	3157
893.452	3195
893.575	3367
893.697	3256
893.819	3397
893.941	3507
894.064	3454
894.186	3272
894.308	3268
894.43	3450
894.552	3519
894.674	3477
894.796	3264
894.918	3321
895.04	3291
895.161	3443
895.283	3355
895.405	3260
895.526	3424
895.648	3420
895.769	3435
895.891	3443
896.012	3477
896.134	3454
896.255	3416
896.376	3382
896.498	3370
896.619	3420
896.74	3336
896.861	3420
896.982	3663
897.103	3804
897.224	3584
897.345	3511
897.466	3409
897.587	3511
897.708	3599
897.828	3526
897.949	3397
898.07	3329
898.19	3416
898.311	3610
898.431	3431
898.552	3485
898.672	3606
898.792	3507
898.913	3542
899.033	3420
899.153	3298
899.273	3226
899.393	3268
899.513	3332
899.633	3313
899.753	3313
899.873	3313
899.993	3367
900.113	3325
900.232	3378
900.352	3355
900.472	3325
900.591	3203
900.711	3287
900.83	3256
900.95	3409
901.069	3416
901.189	3317
901.308	3188
901.427	3097
901.546	3169
901.665	3291
901.784	3348
901.904	3218
902.023	3142
902.141	3005
902.26	2967
902.379	3127
902.498	3104
902.617	3020
902.735	3211
902.854	3241
902.973	3192
903.091	3036
903.21	3047
903.328	3154
903.446	3138
903.565	3062
903.683	3161
903.801	3135
903.919	3226
904.038	3313
904.156	3150
904.274	3332
904.392	3245
904.51	3260
904.627	3348
904.745	3462
904.863	3481
904.981	3287
905.098	3188
905.216	3199
905.334	3283
905.451	3332
905.569	3287
905.686	3397
905.803	3412
905.921	3310
906.038	3382
906.155	3363
906.272	3287
906.389	3336
906.506	3203
906.623	3256
906.74	3253
906.857	3180
906.974	3256
907.091	3420
907.208	3542
907.324	3507
907.441	3386
907.557	3260
907.674	3188
907.79	3207
907.907	3275
908.023	3374
908.139	3382
908.256	3291
908.372	3355
908.488	3344
908.604	3233
908.72	3298
908.836	3253
908.952	3279
909.068	3336
909.184	3488
909.3	3412
909.415	3469
909.531	3488
909.647	3291
909.762	3294
909.878	3249
909.993	3367
910.108	3348
910.224	3355
910.339	3386
910.454	3294
910.57	3348
910.685	3245
910.8	3572
910.915	3519
911.03	3439
911.145	3241
911.259	3279
911.374	3329
911.489	3245
911.604	3192
911.718	3108
911.833	3157
911.947	3024
912.062	2967
912.176	3161
912.291	3165
912.405	3195
912.519	3420
912.633	3458
912.748	3340
912.862	3256
912.976	3192
913.09	3081
913.204	3146
913.318	3218
913.431	3317
913.545	3306
913.659	3393
913.772	3355
913.886	3195
914	3233
914.113	3351
914.226	3378
914.34	3405
914.453	3176
914.566	3351
914.68	3298
914.793	3302
914.906	3154
915.019	3097
915.132	3066
915.245	3157
915.358	3199
915.47	3241
915.583	3268
915.696	3287
915.809	3416
915.921	3447
916.034	3260
916.146	3214
916.259	3218
916.371	3355
916.483	3344
916.595	3268
916.708	3313
916.82	3367
916.932	3344
917.044	3367
917.156	3348
917.268	3249
917.38	3287
917.491	3313
917.603	3340
917.715	3439
917.826	3481
917.938	3332
918.049	3275
918.161	3389
918.272	3553
918.384	3534
918.495	3507
918.606	3340
918.717	3275
918.828	3389
918.939	3439
919.05	3283
919.161	3344
919.272	3165
919.383	3275
919.494	3477
919.604	3652
919.715	3469
919.826	3431
919.936	3466
920.047	3595
920.157	3542
920.267	3778
920.378	3629
920.488	3576
920.598	3816
920.708	3975
920.818	3804
920.928	3854
921.038	4021
921.148	3998
921.258	3709
921.368	3603
921.477	3549
921.587	3561
921.697	3431
921.806	3591
921.916	3534
922.025	3321
922.134	3332
922.244	3336
922.353	3431
922.462	3283
922.571	3226
922.68	3089
922.789	3097
922.898	3127
923.007	3077
923.116	3176
923.224	3150
923.333	3173
923.442	3077
923.55	3062
923.659	3135
923.767	3199
923.876	3150
923.984	3241
924.092	3116
924.201	3180
924.309	3188
924.417	3218
924.525	3180
924.633	3203
924.741	4215
924.849	3032
924.956	3249
925.064	3119
925.172	3013
925.279	3081
925.387	3203
925.494	3161
925.602	3325
925.709	3359
925.816	3192
925.924	3268
926.031	3389
926.138	3321
926.245	3340
926.352	3245
926.459	3393
926.566	3454
926.673	3313
926.779	3249
926.886	3245
926.993	3077
927.099	3135
927.206	3089
927.312	3119
927.419	3218
927.525	3203
927.631	3275
927.737	3184
927.843	3131
927.95	3036
928.056	3157
928.162	3154
928.267	3268
928.373	3865
928.479	3306
928.585	3009
928.69	3203
928.796	3241
928.901	3176
929.007	3024
929.112	3214
929.218	3176
929.323	3135
929.428	3127
929.533	3291
929.638	3123
929.743	3173
929.848	3279
929.953	3226
930.058	3157
930.163	3017
930.267	3024
930.372	3184
930.477	3047
930.581	3291
930.685	3199
930.79	3036
930.894	3138
930.998	3108
931.103	3279
931.207	2944
931.311	2979
931.415	2918
931.519	2777
931.623	2819
