Data from test_V78500241_108.txt Node
Date: Fri Mar 25 16:15:57 CST 2022
User: usil
Spectrometer: V785-0024
Trigger mode: 0
Integration Time (sec): 4.000000E-1
Scans to average: 1
Nonlinearity correction enabled: false
Boxcar width: 0
Storing dark spectrum: false
XAxis mode: Wavelengths
Number of Pixels in Spectrum: 1024
>>>>>Begin Spectral Data<<<<<
801.071	2956
801.214	2967
801.356	2899
801.499	2922
801.641	2891
801.783	3009
801.926	3089
802.068	3020
802.211	3013
802.353	3112
802.496	2990
802.638	3043
802.78	3058
802.923	3116
803.065	3005
803.208	2929
803.35	2941
803.492	2982
803.635	2975
803.777	2823
803.919	2891
804.061	3275
804.204	3036
804.346	2952
804.488	2887
804.63	3017
804.773	2910
804.915	2922
805.057	3123
805.199	2956
805.341	3017
805.483	3070
805.626	3047
805.768	2990
805.91	3146
806.052	3127
806.194	3058
806.336	3275
806.478	3062
806.62	2986
806.762	3009
806.904	3074
807.046	3203
807.188	2990
807.33	2918
807.472	2982
807.614	2929
807.756	2986
807.898	2948
808.04	2899
808.182	2982
808.324	2990
808.465	2937
808.607	2902
808.749	2834
808.891	2876
809.033	2967
809.174	2994
809.316	2918
809.458	2899
809.6	2766
809.741	2800
809.883	2815
810.025	2906
810.166	2880
810.308	2891
810.45	2880
810.591	2807
810.733	2777
810.875	2868
811.016	2800
811.158	2781
811.299	2864
811.441	2963
811.582	2891
811.724	2857
811.865	2853
812.007	2948
812.148	2876
812.29	2864
812.431	2918
812.573	2948
812.714	2971
812.855	3093
812.997	3077
813.138	3150
813.279	3047
813.421	3028
813.562	2998
813.703	2906
813.845	2902
813.986	2796
814.127	2773
814.268	2887
814.41	2868
814.551	2838
814.692	2941
814.833	2845
814.974	2944
815.115	2979
815.256	2845
815.397	2849
815.539	2883
815.68	2804
815.821	2807
815.962	2963
816.103	2922
816.244	2902
816.385	2922
816.526	3020
816.666	2906
816.807	2781
816.948	2914
817.089	2925
817.23	2895
817.371	2807
817.512	2826
817.653	2853
817.793	2826
817.934	2910
818.075	2990
818.216	2979
818.356	3043
818.497	2902
818.638	2823
818.778	2834
818.919	2766
819.06	2800
819.2	2880
819.341	2815
819.481	2842
819.622	2971
819.762	3154
819.903	3089
820.043	2933
820.184	2895
820.324	2910
820.465	3058
820.605	3047
820.746	3058
820.886	2929
821.026	3093
821.167	3203
821.307	3253
821.447	3275
821.588	3253
821.728	3226
821.868	3214
822.008	3093
822.149	3195
822.289	3218
822.429	3135
822.569	3093
822.709	3218
822.849	3024
822.99	3100
823.13	3173
823.27	3230
823.41	3142
823.55	3203
823.69	3173
823.83	3180
823.97	3066
824.11	3039
824.25	3013
824.389	3097
824.529	3161
824.669	3081
824.809	3230
824.949	3260
825.089	3249
825.228	3207
825.368	3001
825.508	2963
825.648	3013
825.787	3055
825.927	3058
826.067	3024
826.206	2998
826.346	3100
826.485	3104
826.625	3154
826.765	3317
826.904	3260
827.044	3051
827.183	2982
827.323	2918
827.462	3028
827.601	2967
827.741	2979
827.88	3032
828.02	2929
828.159	3024
828.298	3081
828.437	3203
828.577	3093
828.716	3310
828.855	3131
828.994	2975
829.134	2925
829.273	2982
829.412	2925
829.551	2918
829.69	2979
829.829	3001
829.968	3176
830.107	3058
830.246	3093
830.385	2975
830.524	2986
830.663	2849
830.802	2773
830.941	2712
831.08	2750
831.219	2792
831.357	2811
831.496	2990
831.635	2819
831.774	2712
831.913	2705
832.051	2583
832.19	2648
832.329	2743
832.467	2541
832.606	2533
832.744	2640
832.883	2636
833.022	2651
833.16	2724
833.299	2762
833.437	2777
833.576	2724
833.714	2781
833.852	2785
833.991	2849
834.129	2918
834.267	2895
834.406	2838
834.544	2956
834.682	2952
834.821	2899
834.959	3116
835.097	2948
835.235	3097
835.373	3089
835.511	3097
835.65	3032
835.788	3055
835.926	2887
836.064	2868
836.202	2918
836.34	3169
836.478	3214
836.615	3081
836.753	3230
836.891	3279
837.029	3214
837.167	3169
837.305	3142
837.443	3116
837.58	3020
837.718	3176
837.856	3157
837.993	3077
838.131	3176
838.269	3173
838.406	3157
838.544	3157
838.681	2986
838.819	2971
838.956	2868
839.094	2849
839.231	2979
839.369	3077
839.506	3431
839.643	3264
839.781	3070
839.918	3028
840.055	3077
840.193	3154
840.33	3146
840.467	3165
840.604	3214
840.742	3458
840.879	3108
841.016	3085
841.153	3150
841.29	3409
841.427	3370
841.564	3348
841.701	3363
841.838	3287
841.975	3226
842.112	3283
842.249	3131
842.385	3104
842.522	3317
842.659	3131
842.796	3097
842.933	3180
843.069	3074
843.206	3077
843.343	3222
843.479	3188
843.616	3150
843.752	2941
843.889	2918
844.025	3161
844.162	2979
844.298	3089
844.435	3009
844.571	2971
844.708	3100
844.844	3249
844.98	3264
845.117	3253
845.253	3066
845.389	3070
845.525	3165
845.661	3146
845.798	3081
845.934	3188
846.07	3131
846.206	3253
846.342	3393
846.478	3294
846.614	3123
846.75	3112
846.886	3081
847.022	3313
847.158	3192
847.294	3241
847.429	3287
847.565	3268
847.701	3572
847.837	3058
847.972	3058
848.108	3184
848.244	3192
848.379	3024
848.515	2975
848.65	3005
848.786	3032
848.921	3058
849.057	3150
849.192	3226
849.328	3127
849.463	3176
849.598	3104
849.734	3104
849.869	3051
850.004	2948
850.14	3017
850.275	2979
850.41	2914
850.545	2929
850.68	2986
850.815	2994
850.95	3051
851.085	3268
851.22	3131
851.355	3066
851.49	3058
851.625	3051
851.76	3077
851.895	2975
852.03	2967
852.165	3074
852.299	3165
852.434	3218
852.569	3180
852.703	3241
852.838	3336
852.973	3382
853.107	3393
853.242	3199
853.376	3157
853.511	3051
853.645	3138
853.78	3275
853.914	3180
854.048	3176
854.183	3142
854.317	3173
854.451	3355
854.585	3207
854.72	3119
854.854	3268
854.988	3131
855.122	3180
855.256	2994
855.39	3157
855.524	3291
855.658	3245
855.792	3230
855.926	3253
856.06	3245
856.194	3279
856.327	3245
856.461	3116
856.595	3131
856.729	3180
856.862	3329
856.996	3233
857.13	3256
857.263	3264
857.397	3336
857.53	3222
857.664	3230
857.797	3298
857.931	3332
858.064	3249
858.197	3260
858.331	3199
858.464	3199
858.597	3074
858.731	3150
858.864	3230
858.997	3157
859.13	3218
859.263	3245
859.396	3279
859.529	3161
859.662	3135
859.795	3104
859.928	3173
860.061	3310
860.194	3340
860.327	3184
860.46	3138
860.592	3291
860.725	3287
860.858	3287
860.99	3169
861.123	3112
861.256	3127
861.388	3226
861.521	3740
861.653	3093
861.786	3020
861.918	3070
862.05	3081
862.183	3154
862.315	3226
862.447	3245
862.58	3138
862.712	3013
862.844	2937
862.976	3062
863.108	3074
863.24	3477
863.372	2948
863.504	3005
863.636	3013
863.768	3089
863.9	3032
864.032	2956
864.164	3032
864.296	3062
864.428	3077
864.559	3161
864.691	3104
864.823	3116
864.954	3127
865.086	3081
865.217	3032
865.349	3005
865.48	3070
865.612	3077
865.743	3188
865.875	3051
866.006	2967
866.137	3051
866.269	3020
866.4	2998
866.531	2998
866.662	2941
866.793	2952
866.924	2960
867.055	3051
867.186	3017
867.317	2933
867.448	2868
867.579	2906
867.71	2891
867.841	2891
867.972	2956
868.103	2956
868.233	2941
868.364	2902
868.495	2963
868.625	3123
868.756	3214
868.886	3036
869.017	3070
869.147	3214
869.278	3176
869.408	3085
869.539	3085
869.669	3157
869.799	3104
869.929	3192
870.06	3165
870.19	3340
870.32	3351
870.45	3340
870.58	3409
870.71	3492
870.84	3500
870.97	3348
871.1	3294
871.23	3545
871.36	3504
871.489	3412
871.619	3462
871.749	3469
871.879	3500
872.008	3545
872.138	3405
872.267	3336
872.397	3203
872.526	3150
872.656	3051
872.785	3131
872.915	3302
873.044	3363
873.173	3268
873.303	3264
873.432	3241
873.561	3268
873.69	3207
873.819	3154
873.948	3260
874.077	3138
874.206	3108
874.335	3127
874.464	3241
874.593	3363
874.722	3298
874.851	3431
874.979	3370
875.108	3348
875.237	3272
875.365	3211
875.494	3233
875.623	3291
875.751	3131
875.88	3176
876.008	3211
876.136	3283
876.265	3416
876.393	3553
876.521	3477
876.65	3412
876.778	3401
876.906	3317
877.034	3218
877.162	3264
877.29	3268
877.418	3332
877.546	3287
877.674	3302
877.802	3272
877.93	3272
878.058	3180
878.185	3138
878.313	3272
878.441	3256
878.568	3112
878.696	3226
878.824	3298
878.951	3332
879.079	3519
879.206	3663
879.333	3481
879.461	3370
879.588	3424
879.715	3511
879.842	3625
879.97	3431
880.097	3199
880.224	3184
880.351	3275
880.478	3241
880.605	3207
880.732	3241
880.859	3576
880.986	3348
881.112	3363
881.239	3222
881.366	3150
881.493	3089
881.619	3051
881.746	3116
881.872	3119
881.999	3150
882.125	3173
882.252	3306
882.378	3336
882.505	3481
882.631	3359
882.757	3199
882.883	3256
883.01	3279
883.136	3237
883.262	3138
883.388	3173
883.514	3325
883.64	3405
883.766	3378
883.892	3268
884.018	3291
884.143	3466
884.269	3576
884.395	3249
884.52	3195
884.646	3249
884.772	3169
884.897	3150
885.023	3260
885.148	3393
885.274	3500
885.399	3439
885.524	3298
885.65	3298
885.775	3340
885.9	3351
886.025	3458
886.15	3397
886.275	3348
886.4	3260
886.525	3340
886.65	3332
886.775	3329
886.9	3511
887.025	3660
887.149	3469
887.274	3313
887.399	3218
887.523	3268
887.648	3211
887.773	3260
887.897	3447
888.021	3450
888.146	3329
888.27	3435
888.395	3576
888.519	3496
888.643	3477
888.767	3488
888.891	3344
889.015	3283
889.139	3340
889.263	3249
889.387	3473
889.511	3561
889.635	3507
889.759	3344
889.883	3393
890.006	3401
890.13	3526
890.254	3329
890.377	3359
890.501	3233
890.624	3230
890.748	3359
890.871	3218
890.995	3138
891.118	3123
891.241	3294
891.364	3230
891.488	3351
891.611	3195
891.734	3256
891.857	3332
891.98	3268
892.103	3405
892.226	3340
892.349	3226
892.471	3138
892.594	3279
892.717	3355
892.839	3321
892.962	3363
893.085	3374
893.207	3344
893.33	3199
893.452	3310
893.575	3401
893.697	3279
893.819	3534
893.941	3564
894.064	3481
894.186	3317
894.308	3310
894.43	3530
894.552	3576
894.674	3458
894.796	3306
894.918	3340
895.04	3291
895.161	3492
895.283	3450
895.405	3344
895.526	3393
895.648	3466
895.769	3473
895.891	3526
896.012	3500
896.134	3523
896.255	3447
896.376	3443
896.498	3374
896.619	3496
896.74	3428
896.861	3439
896.982	3701
897.103	3854
897.224	3629
897.345	3564
897.466	3481
897.587	3568
897.708	3644
897.828	3618
897.949	3496
898.07	3359
898.19	3454
898.311	3686
898.431	3523
898.552	3530
898.672	3595
898.792	3637
898.913	3587
899.033	3458
899.153	3359
899.273	3237
899.393	3298
899.513	3340
899.633	3355
899.753	3351
899.873	3386
899.993	3416
900.113	3351
900.232	3447
900.352	3389
900.472	3325
900.591	3245
900.711	3363
900.83	3283
900.95	3485
901.069	3515
901.189	3420
901.308	3222
901.427	3135
901.546	3230
901.665	3351
901.784	3409
901.904	3211
902.023	3180
902.141	3070
902.26	3043
902.379	3150
902.498	3135
902.617	3093
902.735	3226
902.854	3245
902.973	3310
903.091	3074
903.21	3119
903.328	3169
903.446	3150
903.565	3116
903.683	3237
903.801	3188
903.919	3310
904.038	3321
904.156	3165
904.274	3348
904.392	3317
904.51	3329
904.627	3401
904.745	3450
904.863	3507
904.981	3359
905.098	3203
905.216	3291
905.334	3317
905.451	3355
905.569	3382
905.686	3477
905.803	3469
905.921	3306
906.038	3481
906.155	3386
906.272	3279
906.389	3405
906.506	3249
906.623	3310
906.74	3325
906.857	3214
906.974	3279
907.091	3481
907.208	3610
907.324	3534
907.441	3409
907.557	3245
907.674	3313
907.79	3264
907.907	3336
908.023	3382
908.139	3412
908.256	3359
908.372	3412
908.488	3401
908.604	3275
908.72	3264
908.836	3348
908.952	3367
909.068	3378
909.184	3488
909.3	3443
909.415	3504
909.531	3507
909.647	3302
909.762	3321
909.878	3287
909.993	3416
910.108	3367
910.224	3355
910.339	3477
910.454	3386
910.57	3317
910.685	3268
910.8	3606
910.915	3568
911.03	3477
911.145	3279
911.259	3351
911.374	3367
911.489	3268
911.604	3260
911.718	3142
911.833	3222
911.947	3058
912.062	2982
912.176	3192
912.291	3218
912.405	3268
912.519	3462
912.633	3496
912.748	3355
912.862	3313
912.976	3211
913.09	3108
913.204	3184
913.318	3249
913.431	3405
913.545	3355
913.659	3473
913.772	3382
913.886	3268
914	3233
914.113	3397
914.226	3450
914.34	3386
914.453	3245
914.566	3454
914.68	3332
914.793	3329
914.906	3180
915.019	3146
915.132	3097
915.245	3218
915.358	3249
915.47	3256
915.583	3268
915.696	3329
915.809	3462
915.921	3485
916.034	3275
916.146	3291
916.259	3268
916.371	3412
916.483	3393
916.595	3317
916.708	3405
916.82	3367
916.932	3389
917.044	3397
917.156	3389
917.268	3272
917.38	3298
917.491	3313
917.603	3409
917.715	3477
917.826	3511
917.938	3405
918.049	3336
918.161	3431
918.272	3614
918.384	3591
918.495	3542
918.606	3344
918.717	3279
918.828	3428
918.939	3462
919.05	3367
919.161	3382
919.272	3188
919.383	3291
919.494	3530
919.604	3713
919.715	3542
919.826	3458
919.936	3481
920.047	3648
920.157	3603
920.267	3823
920.378	3625
920.488	3549
920.598	3808
920.708	4029
920.818	3831
920.928	3880
921.038	4051
921.148	4021
921.258	3774
921.368	3641
921.477	3629
921.587	3580
921.697	3477
921.806	3675
921.916	3549
922.025	3412
922.134	3386
922.244	3386
922.353	3458
922.462	3279
922.571	3279
922.68	3176
922.789	3150
922.898	3180
923.007	3142
923.116	3237
923.224	3214
923.333	3207
923.442	3116
923.55	3119
923.659	3180
923.767	3241
923.876	3165
923.984	3279
924.092	3138
924.201	3214
924.309	3245
924.417	3306
924.525	3230
924.633	3222
924.741	4238
924.849	3085
924.956	3283
925.064	3116
925.172	3085
925.279	3135
925.387	3222
925.494	3230
925.602	3424
925.709	3348
925.816	3199
925.924	3291
926.031	3424
926.138	3363
926.245	3397
926.352	3313
926.459	3466
926.566	3481
926.673	3393
926.779	3279
926.886	3241
926.993	3192
927.099	3176
927.206	3119
927.312	3161
927.419	3218
927.525	3260
927.631	3298
927.737	3176
927.843	3150
927.95	3039
928.056	3169
928.162	3180
928.267	3272
928.373	3797
928.479	3325
928.585	3074
928.69	3241
928.796	3306
928.901	3237
929.007	3062
929.112	3233
929.218	3207
929.323	3188
929.428	3161
929.533	3351
929.638	3173
929.743	3184
929.848	3294
929.953	3180
930.058	3173
930.163	2998
930.267	3085
930.372	3173
930.477	3058
930.581	3344
930.685	3241
930.79	3055
930.894	3157
930.998	3146
931.103	3336
931.207	2986
931.311	2979
931.415	2941
931.519	2777
931.623	2811
