Data from test_V78500241_523.txt Node
Date: Fri Mar 25 16:18:49 CST 2022
User: usil
Spectrometer: V785-0024
Trigger mode: 0
Integration Time (sec): 4.000000E-1
Scans to average: 1
Nonlinearity correction enabled: false
Boxcar width: 0
Storing dark spectrum: false
XAxis mode: Wavelengths
Number of Pixels in Spectrum: 1024
>>>>>Begin Spectral Data<<<<<
801.071	2937
801.214	2960
801.356	2906
801.499	2914
801.641	2857
801.783	2952
801.926	3055
802.068	3009
802.211	3009
802.353	3051
802.496	2990
802.638	3024
802.78	3062
802.923	3085
803.065	2998
803.208	2929
803.35	2963
803.492	2941
803.635	2944
803.777	2800
803.919	2876
804.061	3195
804.204	2933
804.346	2944
804.488	2849
804.63	3001
804.773	2929
804.915	2925
805.057	3093
805.199	2929
805.341	3001
805.483	3043
805.626	3017
805.768	3032
805.91	3116
806.052	3116
806.194	3062
806.336	3237
806.478	3001
806.62	2979
806.762	2994
806.904	3024
807.046	3199
807.188	3058
807.33	2937
807.472	3024
807.614	2910
807.756	3024
807.898	2944
808.04	2906
808.182	3013
808.324	2982
808.465	2880
808.607	2906
808.749	2781
808.891	2880
809.033	2967
809.174	2986
809.316	2902
809.458	2952
809.6	2811
809.741	2769
809.883	2773
810.025	2872
810.166	2922
810.308	2826
810.45	2887
810.591	2823
810.733	2811
810.875	2830
811.016	2796
811.158	2800
811.299	2796
811.441	2937
811.582	2876
811.724	2861
811.865	2849
812.007	2944
812.148	2899
812.29	2876
812.431	2891
812.573	2979
812.714	2967
812.855	3062
812.997	3062
813.138	3146
813.279	3013
813.421	2994
813.562	2990
813.703	2883
813.845	2895
813.986	2804
814.127	2766
814.268	2788
814.41	2864
814.551	2845
814.692	2910
814.833	2830
814.974	2899
815.115	2941
815.256	2823
815.397	2845
815.539	2826
815.68	2785
815.821	2834
815.962	2975
816.103	2937
816.244	2922
816.385	2883
816.526	3001
816.666	2895
816.807	2766
816.948	2883
817.089	2910
817.23	2883
817.371	2800
817.512	2849
817.653	2864
817.793	2857
817.934	2876
818.075	2975
818.216	3009
818.356	3013
818.497	2914
818.638	2792
818.778	2842
818.919	2754
819.06	2785
819.2	2880
819.341	2834
819.481	2838
819.622	2906
819.762	3089
819.903	3047
820.043	2906
820.184	2902
820.324	2922
820.465	3017
820.605	3005
820.746	3032
820.886	2952
821.026	3077
821.167	3154
821.307	3272
821.447	3291
821.588	3241
821.728	3207
821.868	3207
822.008	3097
822.149	3218
822.289	3188
822.429	3131
822.569	3093
822.709	3203
822.849	2990
822.99	3112
823.13	3176
823.27	3184
823.41	3131
823.55	3142
823.69	3180
823.83	3222
823.97	3070
824.11	2994
824.25	3028
824.389	3081
824.529	3119
824.669	3070
824.809	3249
824.949	3275
825.089	3275
825.228	3207
825.368	3013
825.508	2960
825.648	2979
825.787	3024
825.927	3009
826.067	2971
826.206	2990
826.346	3058
826.485	3108
826.625	3131
826.765	3329
826.904	3188
827.044	2986
827.183	2986
827.323	2868
827.462	2979
827.601	2925
827.741	2956
827.88	2937
828.02	2838
828.159	2986
828.298	3093
828.437	3104
828.577	3074
828.716	3218
828.855	3116
828.994	2948
829.134	2922
829.273	2971
829.412	2887
829.551	2876
829.69	2899
829.829	3013
829.968	3169
830.107	3013
830.246	3013
830.385	2944
830.524	2891
830.663	2849
830.802	2712
830.941	2667
831.08	2636
831.219	2785
831.357	2777
831.496	2967
831.635	2743
831.774	2689
831.913	2663
832.051	2556
832.19	2590
832.329	2693
832.467	2530
832.606	2492
832.744	2590
832.883	2560
833.022	2613
833.16	2651
833.299	2693
833.437	2731
833.576	2727
833.714	2724
833.852	2750
833.991	2777
834.129	2845
834.267	2811
834.406	2796
834.544	2838
834.682	2876
834.821	2872
834.959	3039
835.097	2929
835.235	3081
835.373	2990
835.511	3001
835.65	2944
835.788	2937
835.926	2823
836.064	2773
836.202	2842
836.34	3108
836.478	3138
836.615	3043
836.753	3142
836.891	3222
837.029	3176
837.167	3055
837.305	3074
837.443	3089
837.58	2994
837.718	3142
837.856	3043
837.993	3062
838.131	3142
838.269	3112
838.406	3077
838.544	3058
838.681	2929
838.819	2944
838.956	2853
839.094	2838
839.231	2918
839.369	3036
839.506	3389
839.643	3207
839.781	3028
839.918	2967
840.055	3066
840.193	3089
840.33	3028
840.467	3112
840.604	3135
840.742	3420
840.879	3020
841.016	3062
841.153	3138
841.29	3344
841.427	3321
841.564	3260
841.701	3279
841.838	3233
841.975	3138
842.112	3226
842.249	3070
842.385	3039
842.522	3260
842.659	3081
842.796	3058
842.933	3138
843.069	3070
843.206	3062
843.343	3135
843.479	3100
843.616	3142
843.752	2864
843.889	2883
844.025	3024
844.162	2883
844.298	3039
844.435	2967
844.571	2914
844.708	3047
844.844	3195
844.98	3272
845.117	3253
845.253	3081
845.389	3055
845.525	3100
845.661	3077
845.798	3009
845.934	3146
846.07	3066
846.206	3226
846.342	3325
846.478	3211
846.614	3093
846.75	3055
846.886	3032
847.022	3249
847.158	3192
847.294	3230
847.429	3241
847.565	3230
847.701	3462
847.837	3047
847.972	3020
848.108	3165
848.244	3150
848.379	3017
848.515	2960
848.65	2910
848.786	2941
848.921	3032
849.057	3112
849.192	3150
849.328	3077
849.463	3104
849.598	3055
849.734	3051
849.869	2960
850.004	2944
850.14	2982
850.275	2914
850.41	2838
850.545	2899
850.68	2948
850.815	2952
850.95	2963
851.085	3203
851.22	3039
851.355	3047
851.49	3009
851.625	2975
851.76	3036
851.895	2918
852.03	2925
852.165	3013
852.299	3081
852.434	3207
852.569	3123
852.703	3188
852.838	3256
852.973	3351
853.107	3329
853.242	3161
853.376	3062
853.511	2948
853.645	3039
853.78	3218
853.914	3112
854.048	3127
854.183	3100
854.317	3150
854.451	3321
854.585	3180
854.72	3077
854.854	3214
854.988	3089
855.122	3100
855.256	2963
855.39	3097
855.524	3211
855.658	3138
855.792	3138
855.926	3203
856.06	3195
856.194	3272
856.327	3142
856.461	3085
856.595	3085
856.729	3097
856.862	3241
856.996	3161
857.13	3165
857.263	3230
857.397	3268
857.53	3119
857.664	3165
857.797	3226
857.931	3226
858.064	3150
858.197	3203
858.331	3154
858.464	3085
858.597	3024
858.731	3104
858.864	3116
858.997	3100
859.13	3161
859.263	3218
859.396	3222
859.529	3077
859.662	3074
859.795	3017
859.928	3108
860.061	3256
860.194	3283
860.327	3119
860.46	3081
860.592	3222
860.725	3294
860.858	3249
860.99	3108
861.123	3097
861.256	3043
861.388	3138
861.521	3903
861.653	3028
861.786	2990
861.918	2960
862.05	3051
862.183	3097
862.315	3146
862.447	3203
862.58	3043
862.712	2963
862.844	2861
862.976	3005
863.108	2986
863.24	3397
863.372	2899
863.504	2967
863.636	2933
863.768	3005
863.9	2975
864.032	2906
864.164	2944
864.296	3017
864.428	3047
864.559	3104
864.691	3074
864.823	3077
864.954	3047
865.086	3039
865.217	2982
865.349	2956
865.48	2967
865.612	3032
865.743	3138
865.875	2990
866.006	2956
866.137	2971
866.269	2914
866.4	2929
866.531	2906
866.662	2883
866.793	2887
866.924	2914
867.055	2998
867.186	2929
867.317	2883
867.448	2857
867.579	2883
867.71	2838
867.841	2800
867.972	2868
868.103	2902
868.233	2895
868.364	2864
868.495	2895
868.625	3085
868.756	3154
868.886	2982
869.017	2998
869.147	3146
869.278	3176
869.408	3039
869.539	3017
869.669	3085
869.799	3032
869.929	3108
870.06	3047
870.19	3329
870.32	3268
870.45	3340
870.58	3351
870.71	3431
870.84	3431
870.97	3310
871.1	3287
871.23	3485
871.36	3447
871.489	3306
871.619	3401
871.749	3401
871.879	3431
872.008	3469
872.138	3397
872.267	3272
872.397	3173
872.526	3085
872.656	3009
872.785	3070
872.915	3249
873.044	3313
873.173	3214
873.303	3241
873.432	3203
873.561	3211
873.69	3180
873.819	3138
873.948	3192
874.077	3100
874.206	3070
874.335	3081
874.464	3256
874.593	3348
874.722	3237
874.851	3393
874.979	3306
875.108	3321
875.237	3195
875.365	3150
875.494	3157
875.623	3222
875.751	3024
875.88	3131
876.008	3180
876.136	3230
876.265	3348
876.393	3504
876.521	3389
876.65	3416
876.778	3329
876.906	3272
877.034	3211
877.162	3214
877.29	3157
877.418	3230
877.546	3222
877.674	3230
877.802	3241
877.93	3207
878.058	3123
878.185	3104
878.313	3176
878.441	3161
878.568	3020
878.696	3173
878.824	3203
878.951	3298
879.079	3420
879.206	3606
879.333	3428
879.461	3351
879.588	3370
879.715	3481
879.842	3599
879.97	3370
880.097	3184
880.224	3138
880.351	3214
880.478	3230
880.605	3157
880.732	3195
880.859	3504
880.986	3332
881.112	3329
881.239	3207
881.366	3058
881.493	2994
881.619	3036
881.746	3066
881.872	3104
881.999	3081
882.125	3161
882.252	3237
882.378	3279
882.505	3420
882.631	3260
882.757	3157
882.883	3207
883.01	3253
883.136	3131
883.262	3085
883.388	3097
883.514	3325
883.64	3367
883.766	3302
883.892	3192
884.018	3203
884.143	3397
884.269	3542
884.395	3218
884.52	3131
884.646	3184
884.772	3066
884.897	3047
885.023	3176
885.148	3317
885.274	3397
885.399	3393
885.524	3253
885.65	3249
885.775	3283
885.9	3275
886.025	3447
886.15	3325
886.275	3306
886.4	3211
886.525	3310
886.65	3253
886.775	3264
886.9	3507
887.025	3614
887.149	3435
887.274	3264
887.399	3169
887.523	3165
887.648	3188
887.773	3138
887.897	3405
888.021	3367
888.146	3313
888.27	3477
888.395	3557
888.519	3443
888.643	3389
888.767	3466
888.891	3317
889.015	3218
889.139	3325
889.263	3249
889.387	3401
889.511	3492
889.635	3435
889.759	3275
889.883	3287
890.006	3416
890.13	3492
890.254	3298
890.377	3325
890.501	3211
890.624	3154
890.748	3264
890.871	3211
890.995	3104
891.118	3077
891.241	3199
891.364	3207
891.488	3306
891.611	3176
891.734	3226
891.857	3256
891.98	3211
892.103	3325
892.226	3275
892.349	3203
892.471	3089
892.594	3230
892.717	3313
892.839	3233
892.962	3256
893.085	3374
893.207	3275
893.33	3089
893.452	3218
893.575	3340
893.697	3226
893.819	3420
893.941	3500
894.064	3458
894.186	3283
894.308	3241
894.43	3431
894.552	3568
894.674	3443
894.796	3287
894.918	3313
895.04	3268
895.161	3416
895.283	3386
895.405	3287
895.526	3344
895.648	3416
895.769	3435
895.891	3424
896.012	3485
896.134	3462
896.255	3424
896.376	3401
896.498	3336
896.619	3454
896.74	3367
896.861	3409
896.982	3698
897.103	3865
897.224	3595
897.345	3504
897.466	3458
897.587	3496
897.708	3587
897.828	3557
897.949	3424
898.07	3332
898.19	3416
898.311	3595
898.431	3443
898.552	3507
898.672	3553
898.792	3572
898.913	3557
899.033	3397
899.153	3291
899.273	3226
899.393	3260
899.513	3329
899.633	3317
899.753	3363
899.873	3302
899.993	3389
900.113	3351
900.232	3378
900.352	3329
900.472	3268
900.591	3157
900.711	3283
900.83	3260
900.95	3389
901.069	3526
901.189	3340
901.308	3142
901.427	3176
901.546	3203
901.665	3294
901.784	3348
901.904	3195
902.023	3146
902.141	3013
902.26	3009
902.379	3135
902.498	3097
902.617	3051
902.735	3211
902.854	3233
902.973	3192
903.091	3070
903.21	3047
903.328	3131
903.446	3127
903.565	3051
903.683	3192
903.801	3146
903.919	3230
904.038	3294
904.156	3150
904.274	3275
904.392	3245
904.51	3279
904.627	3329
904.745	3435
904.863	3511
904.981	3249
905.098	3176
905.216	3199
905.334	3275
905.451	3298
905.569	3306
905.686	3439
905.803	3454
905.921	3260
906.038	3405
906.155	3359
906.272	3275
906.389	3302
906.506	3214
906.623	3241
906.74	3283
906.857	3169
906.974	3253
907.091	3462
907.208	3584
907.324	3458
907.441	3389
907.557	3230
907.674	3260
907.79	3226
907.907	3287
908.023	3389
908.139	3359
908.256	3332
908.372	3351
908.488	3351
908.604	3233
908.72	3237
908.836	3268
908.952	3275
909.068	3351
909.184	3481
909.3	3374
909.415	3538
909.531	3500
909.647	3260
909.762	3313
909.878	3268
909.993	3310
910.108	3355
910.224	3378
910.339	3409
910.454	3325
910.57	3302
910.685	3245
910.8	3606
910.915	3561
911.03	3370
911.145	3275
911.259	3294
911.374	3298
911.489	3241
911.604	3214
911.718	3108
911.833	3150
911.947	3036
912.062	3009
912.176	3150
912.291	3203
912.405	3253
912.519	3420
912.633	3481
912.748	3321
912.862	3275
912.976	3157
913.09	3070
913.204	3123
913.318	3214
913.431	3336
913.545	3332
913.659	3401
913.772	3321
913.886	3230
914	3241
914.113	3355
914.226	3389
914.34	3344
914.453	3233
914.566	3401
914.68	3294
914.793	3329
914.906	3116
915.019	3104
915.132	3093
915.245	3157
915.358	3180
915.47	3207
915.583	3325
915.696	3287
915.809	3409
915.921	3412
916.034	3275
916.146	3218
916.259	3237
916.371	3382
916.483	3363
916.595	3256
916.708	3317
916.82	3321
916.932	3340
917.044	3348
917.156	3310
917.268	3260
917.38	3325
917.491	3279
917.603	3378
917.715	3454
917.826	3447
917.938	3340
918.049	3260
918.161	3420
918.272	3576
918.384	3561
918.495	3511
918.606	3317
918.717	3321
918.828	3370
918.939	3420
919.05	3268
919.161	3401
919.272	3192
919.383	3329
919.494	3454
919.604	3679
919.715	3450
919.826	3370
919.936	3428
920.047	3572
920.157	3542
920.267	3762
920.378	3584
920.488	3526
920.598	3778
920.708	3937
920.818	3789
920.928	3899
921.038	4051
921.148	3983
921.258	3682
921.368	3614
921.477	3572
921.587	3507
921.697	3477
921.806	3633
921.916	3504
922.025	3336
922.134	3397
922.244	3321
922.353	3397
922.462	3237
922.571	3207
922.68	3119
922.789	3013
922.898	3150
923.007	3081
923.116	3195
923.224	3142
923.333	3192
923.442	3089
923.55	3112
923.659	3119
923.767	3192
923.876	3093
923.984	3245
924.092	3108
924.201	3165
924.309	3233
924.417	3272
924.525	3203
924.633	3233
924.741	4185
924.849	3047
924.956	3279
925.064	3100
925.172	3047
925.279	3100
925.387	3195
925.494	3226
925.602	3348
925.709	3306
925.816	3214
925.924	3241
926.031	3359
926.138	3332
926.245	3351
926.352	3245
926.459	3370
926.566	3454
926.673	3332
926.779	3253
926.886	3264
926.993	3150
927.099	3138
927.206	3081
927.312	3108
927.419	3230
927.525	3218
927.631	3253
927.737	3116
927.843	3093
927.95	3039
928.056	3112
928.162	3199
928.267	3211
928.373	3759
928.479	3302
928.585	3074
928.69	3207
928.796	3249
928.901	3195
929.007	3108
929.112	3249
929.218	3211
929.323	3146
929.428	3131
929.533	3268
929.638	3119
929.743	3157
929.848	3264
929.953	3203
930.058	3131
930.163	2986
930.267	3055
930.372	3203
930.477	3043
930.581	3306
930.685	3169
930.79	3055
930.894	3142
930.998	3097
931.103	3260
931.207	2982
931.311	2937
931.415	2963
931.519	2773
931.623	2804
