Data from test_V78500241_1842.txt Node
Date: Fri Mar 25 16:27:57 CST 2022
User: usil
Spectrometer: V785-0024
Trigger mode: 0
Integration Time (sec): 4.000000E-1
Scans to average: 1
Nonlinearity correction enabled: false
Boxcar width: 0
Storing dark spectrum: false
XAxis mode: Wavelengths
Number of Pixels in Spectrum: 1024
>>>>>Begin Spectral Data<<<<<
801.071	2906
801.214	2933
801.356	2834
801.499	2876
801.641	2864
801.783	2906
801.926	3028
802.068	2960
802.211	3005
802.353	3066
802.496	2982
802.638	3017
802.78	3020
802.923	3097
803.065	2979
803.208	2952
803.35	2922
803.492	2902
803.635	2925
803.777	2773
803.919	2861
804.061	3173
804.204	2944
804.346	2891
804.488	2883
804.63	2963
804.773	2872
804.915	2872
805.057	3043
805.199	2914
805.341	2948
805.483	3024
805.626	2986
805.768	2933
805.91	3089
806.052	3116
806.194	3047
806.336	3218
806.478	3013
806.62	2960
806.762	2986
806.904	3013
807.046	3135
807.188	2982
807.33	2922
807.472	2971
807.614	2876
807.756	2979
807.898	2937
808.04	2918
808.182	2967
808.324	2975
808.465	2868
808.607	2857
808.749	2781
808.891	2864
809.033	2990
809.174	2910
809.316	2857
809.458	2861
809.6	2769
809.741	2750
809.883	2792
810.025	2819
810.166	2857
810.308	2830
810.45	2861
810.591	2766
810.733	2758
810.875	2811
811.016	2762
811.158	2750
811.299	2807
811.441	2929
811.582	2845
811.724	2826
811.865	2807
812.007	2906
812.148	2880
812.29	2826
812.431	2861
812.573	2933
812.714	2922
812.855	3043
812.997	3108
813.138	3100
813.279	2994
813.421	2963
813.562	2956
813.703	2868
813.845	2849
813.986	2796
814.127	2716
814.268	2796
814.41	2838
814.551	2796
814.692	2902
814.833	2807
814.974	2857
815.115	2948
815.256	2823
815.397	2796
815.539	2883
815.68	2792
815.821	2807
815.962	2895
816.103	2929
816.244	2899
816.385	2891
816.526	2952
816.666	2929
816.807	2712
816.948	2845
817.089	2925
817.23	2853
817.371	2758
817.512	2796
817.653	2853
817.793	2796
817.934	2895
818.075	2960
818.216	2986
818.356	3001
818.497	2895
818.638	2785
818.778	2800
818.919	2781
819.06	2750
819.2	2853
819.341	2804
819.481	2819
819.622	2922
819.762	3127
819.903	3051
820.043	2933
820.184	2883
820.324	2887
820.465	3001
820.605	3009
820.746	3020
820.886	2906
821.026	3093
821.167	3123
821.307	3245
821.447	3279
821.588	3226
821.728	3192
821.868	3165
822.008	3066
822.149	3195
822.289	3245
822.429	3070
822.569	3119
822.709	3169
822.849	3024
822.99	3039
823.13	3127
823.27	3195
823.41	3085
823.55	3119
823.69	3104
823.83	3188
823.97	3108
824.11	2967
824.25	3009
824.389	3081
824.529	3104
824.669	3032
824.809	3203
824.949	3203
825.089	3218
825.228	3138
825.368	2994
825.508	2967
825.648	2937
825.787	3024
825.927	3020
826.067	2967
826.206	2948
826.346	3005
826.485	3074
826.625	3123
826.765	3283
826.904	3199
827.044	3005
827.183	2975
827.323	2826
827.462	2979
827.601	2910
827.741	2918
827.88	2956
828.02	2842
828.159	2948
828.298	3074
828.437	3085
828.577	3032
828.716	3211
828.855	3051
828.994	2937
829.134	2902
829.273	2895
829.412	2876
829.551	2899
829.69	2918
829.829	2982
829.968	3093
830.107	2952
830.246	3017
830.385	2880
830.524	2872
830.663	2819
830.802	2701
830.941	2674
831.08	2667
831.219	2773
831.357	2743
831.496	2933
831.635	2689
831.774	2644
831.913	2632
832.051	2549
832.19	2579
832.329	2686
832.467	2492
832.606	2476
832.744	2571
832.883	2590
833.022	2552
833.16	2617
833.299	2655
833.437	2686
833.576	2701
833.714	2678
833.852	2746
833.991	2735
834.129	2804
834.267	2807
834.406	2785
834.544	2861
834.682	2838
834.821	2838
834.959	3077
835.097	2887
835.235	3036
835.373	2990
835.511	3020
835.65	2937
835.788	2944
835.926	2838
836.064	2819
836.202	2845
836.34	3089
836.478	3123
836.615	3043
836.753	3116
836.891	3176
837.029	3161
837.167	3127
837.305	3062
837.443	3051
837.58	2929
837.718	3112
837.856	3043
837.993	3013
838.131	3112
838.269	3119
838.406	3108
838.544	3062
838.681	2960
838.819	2922
838.956	2804
839.094	2823
839.231	2895
839.369	2998
839.506	3340
839.643	3203
839.781	3009
839.918	2952
840.055	3020
840.193	3017
840.33	3051
840.467	3074
840.604	3142
840.742	3397
840.879	3062
841.016	3062
841.153	3085
841.29	3325
841.427	3287
841.564	3260
841.701	3272
841.838	3233
841.975	3161
842.112	3195
842.249	3077
842.385	3043
842.522	3237
842.659	3077
842.796	3028
842.933	3127
843.069	3009
843.206	3020
843.343	3165
843.479	3085
843.616	3112
843.752	2853
843.889	2838
844.025	3066
844.162	2861
844.298	3089
844.435	2925
844.571	2872
844.708	2998
844.844	3199
844.98	3214
845.117	3203
845.253	2990
845.389	2960
845.525	3093
845.661	3081
845.798	2998
845.934	3150
846.07	3039
846.206	3173
846.342	3283
846.478	3214
846.614	3097
846.75	3017
846.886	3036
847.022	3245
847.158	3135
847.294	3184
847.429	3214
847.565	3230
847.701	3458
847.837	3032
847.972	3005
848.108	3123
848.244	3127
848.379	3009
848.515	2933
848.65	2933
848.786	2975
848.921	2998
849.057	3112
849.192	3116
849.328	3047
849.463	3108
849.598	3074
849.734	3020
849.869	2971
850.004	2952
850.14	2944
850.275	2914
850.41	2819
850.545	2842
850.68	2902
850.815	2914
850.95	2967
851.085	3119
851.22	3108
851.355	3020
851.49	2944
851.625	3013
851.76	3020
851.895	2918
852.03	2929
852.165	2994
852.299	3093
852.434	3165
852.569	3127
852.703	3135
852.838	3226
852.973	3351
853.107	3382
853.242	3119
853.376	3062
853.511	2971
853.645	3024
853.78	3207
853.914	3108
854.048	3039
854.183	3062
854.317	3161
854.451	3298
854.585	3116
854.72	3104
854.854	3176
854.988	3020
855.122	3070
855.256	2971
855.39	3089
855.524	3245
855.658	3169
855.792	3142
855.926	3192
856.06	3188
856.194	3253
856.327	3127
856.461	3001
856.595	3081
856.729	3051
856.862	3180
856.996	3150
857.13	3165
857.263	3184
857.397	3226
857.53	3074
857.664	3176
857.797	3237
857.931	3211
858.064	3161
858.197	3218
858.331	3119
858.464	3077
858.597	3020
858.731	3093
858.864	3085
858.997	3074
859.13	3173
859.263	3176
859.396	3184
859.529	3077
859.662	3077
859.795	3009
859.928	3104
860.061	3253
860.194	3245
860.327	3131
860.46	3108
860.592	3207
860.725	3245
860.858	3226
860.99	3108
861.123	2998
861.256	3051
861.388	3112
861.521	3823
861.653	3017
861.786	2994
861.918	2994
862.05	3051
862.183	3047
862.315	3100
862.447	3173
862.58	3131
862.712	2960
862.844	2834
862.976	2994
863.108	2982
863.24	3397
863.372	2864
863.504	2922
863.636	2933
863.768	2994
863.9	2956
864.032	2891
864.164	2929
864.296	2979
864.428	3074
864.559	3100
864.691	3070
864.823	3043
864.954	3032
865.086	3001
865.217	2952
865.349	2914
865.48	2979
865.612	2986
865.743	3116
865.875	2967
866.006	2922
866.137	2922
866.269	2925
866.4	2929
866.531	2899
866.662	2887
866.793	2887
866.924	2906
867.055	2937
867.186	2887
867.317	2861
867.448	2845
867.579	2804
867.71	2807
867.841	2845
867.972	2880
868.103	2876
868.233	2891
868.364	2853
868.495	2872
868.625	3070
868.756	3146
868.886	2952
869.017	3039
869.147	3157
869.278	3142
869.408	3036
869.539	3017
869.669	3104
869.799	3036
869.929	3085
870.06	3127
870.19	3355
870.32	3268
870.45	3291
870.58	3389
870.71	3443
870.84	3424
870.97	3294
871.1	3241
871.23	3511
871.36	3469
871.489	3367
871.619	3378
871.749	3428
871.879	3401
872.008	3530
872.138	3401
872.267	3283
872.397	3154
872.526	3142
872.656	3047
872.785	3123
872.915	3272
873.044	3317
873.173	3249
873.303	3275
873.432	3272
873.561	3294
873.69	3180
873.819	3161
873.948	3230
874.077	3097
874.206	3043
874.335	3097
874.464	3199
874.593	3370
874.722	3279
874.851	3458
874.979	3378
875.108	3355
875.237	3264
875.365	3199
875.494	3199
875.623	3332
875.751	3100
875.88	3150
876.008	3184
876.136	3279
876.265	3409
876.393	3584
876.521	3485
876.65	3439
876.778	3367
876.906	3329
877.034	3264
877.162	3275
877.29	3195
877.418	3291
877.546	3245
877.674	3264
877.802	3264
877.93	3291
878.058	3176
878.185	3180
878.313	3245
878.441	3264
878.568	3108
878.696	3180
878.824	3332
878.951	3348
879.079	3477
879.206	3652
879.333	3504
879.461	3351
879.588	3367
879.715	3485
879.842	3595
879.97	3405
880.097	3184
880.224	3165
880.351	3264
880.478	3264
880.605	3226
880.732	3233
880.859	3523
880.986	3336
881.112	3359
881.239	3226
881.366	3116
881.493	3066
881.619	3070
881.746	3074
881.872	3112
881.999	3119
882.125	3180
882.252	3245
882.378	3317
882.505	3466
882.631	3298
882.757	3188
882.883	3237
883.01	3249
883.136	3161
883.262	3108
883.388	3138
883.514	3355
883.64	3393
883.766	3336
883.892	3192
884.018	3287
884.143	3469
884.269	3591
884.395	3256
884.52	3203
884.646	3218
884.772	3127
884.897	3135
885.023	3233
885.148	3306
885.274	3481
885.399	3389
885.524	3340
885.65	3253
885.775	3321
885.9	3294
886.025	3473
886.15	3397
886.275	3317
886.4	3306
886.525	3317
886.65	3298
886.775	3302
886.9	3526
887.025	3614
887.149	3416
887.274	3325
887.399	3211
887.523	3253
887.648	3203
887.773	3195
887.897	3389
888.021	3439
888.146	3332
888.27	3454
888.395	3606
888.519	3412
888.643	3492
888.767	3477
888.891	3386
889.015	3245
889.139	3336
889.263	3291
889.387	3439
889.511	3511
889.635	3485
889.759	3344
889.883	3344
890.006	3401
890.13	3481
890.254	3340
890.377	3363
890.501	3222
890.624	3214
890.748	3325
890.871	3169
890.995	3123
891.118	3123
891.241	3268
891.364	3249
891.488	3332
891.611	3184
891.734	3245
891.857	3321
891.98	3249
892.103	3378
892.226	3279
892.349	3245
892.471	3138
892.594	3291
892.717	3321
892.839	3302
892.962	3329
893.085	3367
893.207	3291
893.33	3203
893.452	3268
893.575	3374
893.697	3268
893.819	3530
893.941	3530
894.064	3458
894.186	3317
894.308	3291
894.43	3431
894.552	3557
894.674	3504
894.796	3321
894.918	3359
895.04	3310
895.161	3458
895.283	3428
895.405	3310
895.526	3416
895.648	3469
895.769	3473
895.891	3447
896.012	3488
896.134	3492
896.255	3393
896.376	3420
896.498	3374
896.619	3473
896.74	3393
896.861	3439
896.982	3713
897.103	3812
897.224	3648
897.345	3572
897.466	3409
897.587	3519
897.708	3675
897.828	3584
897.949	3477
898.07	3374
898.19	3454
898.311	3618
898.431	3473
898.552	3507
898.672	3614
898.792	3614
898.913	3530
899.033	3431
899.153	3317
899.273	3260
899.393	3260
899.513	3348
899.633	3321
899.753	3374
899.873	3310
899.993	3393
900.113	3374
900.232	3378
900.352	3351
900.472	3336
900.591	3230
900.711	3344
900.83	3283
900.95	3424
901.069	3511
901.189	3370
901.308	3214
901.427	3184
901.546	3195
901.665	3325
901.784	3386
901.904	3287
902.023	3161
902.141	3028
902.26	3020
902.379	3173
902.498	3089
902.617	3081
902.735	3233
902.854	3264
902.973	3241
903.091	3070
903.21	3070
903.328	3161
903.446	3131
903.565	3135
903.683	3230
903.801	3173
903.919	3291
904.038	3329
904.156	3207
904.274	3332
904.392	3287
904.51	3332
904.627	3340
904.745	3405
904.863	3538
904.981	3275
905.098	3184
905.216	3249
905.334	3306
905.451	3348
905.569	3321
905.686	3477
905.803	3500
905.921	3321
906.038	3443
906.155	3367
906.272	3306
906.389	3329
906.506	3199
906.623	3283
906.74	3294
906.857	3211
906.974	3260
907.091	3481
907.208	3618
907.324	3523
907.441	3435
907.557	3279
907.674	3256
907.79	3199
907.907	3298
908.023	3401
908.139	3389
908.256	3317
908.372	3397
908.488	3405
908.604	3294
908.72	3253
908.836	3298
908.952	3279
909.068	3344
909.184	3481
909.3	3382
909.415	3492
909.531	3511
909.647	3302
909.762	3332
909.878	3233
909.993	3378
910.108	3378
910.224	3370
910.339	3431
910.454	3370
910.57	3310
910.685	3321
910.8	3614
910.915	3530
911.03	3450
911.145	3268
911.259	3298
911.374	3370
911.489	3195
911.604	3249
911.718	3104
911.833	3195
911.947	3055
912.062	3028
912.176	3157
912.291	3207
912.405	3211
912.519	3454
912.633	3447
912.748	3332
912.862	3279
912.976	3226
913.09	3085
913.204	3157
913.318	3253
913.431	3355
913.545	3336
913.659	3424
913.772	3370
913.886	3222
914	3218
914.113	3367
914.226	3428
914.34	3412
914.453	3275
914.566	3393
914.68	3260
914.793	3348
914.906	3169
915.019	3123
915.132	3051
915.245	3214
915.358	3233
915.47	3226
915.583	3283
915.696	3302
915.809	3405
915.921	3431
916.034	3249
916.146	3287
916.259	3272
916.371	3401
916.483	3382
916.595	3268
916.708	3329
916.82	3332
916.932	3332
917.044	3332
917.156	3397
917.268	3264
917.38	3336
917.491	3294
917.603	3363
917.715	3477
917.826	3454
917.938	3370
918.049	3283
918.161	3454
918.272	3587
918.384	3568
918.495	3485
918.606	3344
918.717	3313
918.828	3386
918.939	3416
919.05	3302
919.161	3374
919.272	3154
919.383	3336
919.494	3515
919.604	3705
919.715	3523
919.826	3443
919.936	3481
920.047	3610
920.157	3576
920.267	3736
920.378	3606
920.488	3557
920.598	3797
920.708	4021
920.818	3876
920.928	3831
921.038	4040
921.148	4013
921.258	3705
921.368	3599
921.477	3572
921.587	3587
921.697	3488
921.806	3671
921.916	3538
922.025	3386
922.134	3336
922.244	3344
922.353	3439
922.462	3264
922.571	3245
922.68	3127
922.789	3089
922.898	3165
923.007	3131
923.116	3237
923.224	3211
923.333	3218
923.442	3119
923.55	3089
923.659	3169
923.767	3226
923.876	3138
923.984	3237
924.092	3146
924.201	3211
924.309	3245
924.417	3279
924.525	3230
924.633	3264
924.741	4177
924.849	3066
924.956	3291
925.064	3093
925.172	3074
925.279	3131
925.387	3222
925.494	3237
925.602	3431
925.709	3363
925.816	3230
925.924	3317
926.031	3405
926.138	3298
926.245	3374
926.352	3230
926.459	3428
926.566	3492
926.673	3359
926.779	3237
926.886	3249
926.993	3154
927.099	3119
927.206	3123
927.312	3135
927.419	3237
927.525	3226
927.631	3218
927.737	3150
927.843	3108
927.95	3020
928.056	3146
928.162	3184
928.267	3291
928.373	3804
928.479	3317
928.585	3093
928.69	3264
928.796	3218
928.901	3207
929.007	3062
929.112	3233
929.218	3218
929.323	3161
929.428	3154
929.533	3325
929.638	3135
929.743	3165
929.848	3245
929.953	3249
930.058	3169
930.163	3009
930.267	3058
930.372	3199
930.477	3066
930.581	3340
930.685	3211
930.79	3062
930.894	3093
930.998	3104
931.103	3294
931.207	2929
931.311	2956
931.415	2902
931.519	2796
931.623	2823
