Data from test_V78500241_1091.txt Node
Date: Fri Mar 25 16:22:45 CST 2022
User: usil
Spectrometer: V785-0024
Trigger mode: 0
Integration Time (sec): 4.000000E-1
Scans to average: 1
Nonlinearity correction enabled: false
Boxcar width: 0
Storing dark spectrum: false
XAxis mode: Wavelengths
Number of Pixels in Spectrum: 1024
>>>>>Begin Spectral Data<<<<<
801.071	2876
801.214	2941
801.356	2861
801.499	2872
801.641	2857
801.783	2906
801.926	3039
802.068	2967
802.211	2941
802.353	3009
802.496	2971
802.638	3001
802.78	3047
802.923	3062
803.065	3013
803.208	2887
803.35	2918
803.492	2929
803.635	2910
803.777	2731
803.919	2887
804.061	3188
804.204	2952
804.346	2895
804.488	2815
804.63	2929
804.773	2868
804.915	2967
805.057	3074
805.199	2929
805.341	2960
805.483	3032
805.626	3058
805.768	2941
805.91	3089
806.052	3081
806.194	3036
806.336	3226
806.478	3036
806.62	2948
806.762	2929
806.904	3032
807.046	3180
807.188	2933
807.33	2902
807.472	2971
807.614	2929
807.756	2948
807.898	2902
808.04	2880
808.182	2937
808.324	2960
808.465	2872
808.607	2853
808.749	2777
808.891	2838
809.033	3020
809.174	2994
809.316	2902
809.458	2918
809.6	2773
809.741	2773
809.883	2785
810.025	2830
810.166	2864
810.308	2826
810.45	2838
810.591	2754
810.733	2746
810.875	2849
811.016	2766
811.158	2777
811.299	2834
811.441	2891
811.582	2925
811.724	2807
811.865	2796
812.007	2883
812.148	2868
812.29	2834
812.431	2895
812.573	2922
812.714	2944
812.855	3013
812.997	3043
813.138	3093
813.279	2994
813.421	2975
813.562	2918
813.703	2842
813.845	2834
813.986	2773
814.127	2716
814.268	2758
814.41	2834
814.551	2788
814.692	2880
814.833	2781
814.974	2883
815.115	2918
815.256	2823
815.397	2788
815.539	2845
815.68	2727
815.821	2796
815.962	2925
816.103	2963
816.244	2899
816.385	2838
816.526	2933
816.666	2914
816.807	2724
816.948	2872
817.089	2899
817.23	2823
817.371	2750
817.512	2788
817.653	2849
817.793	2819
817.934	2834
818.075	2933
818.216	2979
818.356	3028
818.497	2887
818.638	2811
818.778	2788
818.919	2804
819.06	2727
819.2	2910
819.341	2811
819.481	2785
819.622	2891
819.762	3108
819.903	3036
820.043	2933
820.184	2952
820.324	2883
820.465	3085
820.605	3020
820.746	3024
820.886	2918
821.026	3116
821.167	3169
821.307	3253
821.447	3321
821.588	3226
821.728	3218
821.868	3237
822.008	3108
822.149	3230
822.289	3218
822.429	3116
822.569	3119
822.709	3195
822.849	3039
822.99	3085
823.13	3165
823.27	3214
823.41	3135
823.55	3195
823.69	3195
823.83	3199
823.97	3131
824.11	3047
824.25	3020
824.389	3058
824.529	3127
824.669	3119
824.809	3233
824.949	3306
825.089	3249
825.228	3211
825.368	3070
825.508	2994
825.648	2998
825.787	3066
825.927	3062
826.067	3017
826.206	3005
826.346	3093
826.485	3154
826.625	3161
826.765	3256
826.904	3230
827.044	3020
827.183	2975
827.323	2899
827.462	3017
827.601	2944
827.741	2963
827.88	3028
828.02	2880
828.159	3017
828.298	3051
828.437	3157
828.577	3085
828.716	3272
828.855	3097
828.994	2982
829.134	2895
829.273	2979
829.412	2895
829.551	2899
829.69	2925
829.829	3039
829.968	3165
830.107	3066
830.246	3077
830.385	2982
830.524	2918
830.663	2853
830.802	2754
830.941	2724
831.08	2663
831.219	2777
831.357	2819
831.496	2998
831.635	2754
831.774	2712
831.913	2686
832.051	2621
832.19	2625
832.329	2735
832.467	2556
832.606	2522
832.744	2602
832.883	2598
833.022	2625
833.16	2674
833.299	2708
833.437	2701
833.576	2754
833.714	2762
833.852	2758
833.991	2788
834.129	2861
834.267	2868
834.406	2826
834.544	2899
834.682	2929
834.821	2906
834.959	3116
835.097	2933
835.235	3108
835.373	3028
835.511	3066
835.65	2956
835.788	3005
835.926	2838
836.064	2838
836.202	2861
836.34	3138
836.478	3169
836.615	3097
836.753	3180
836.891	3233
837.029	3195
837.167	3135
837.305	3112
837.443	3089
837.58	3020
837.718	3161
837.856	3127
837.993	3058
838.131	3161
838.269	3138
838.406	3135
838.544	3085
838.681	2975
838.819	2937
838.956	2861
839.094	2845
839.231	2956
839.369	3089
839.506	3336
839.643	3245
839.781	3074
839.918	2998
840.055	3036
840.193	3051
840.33	3123
840.467	3116
840.604	3184
840.742	3393
840.879	3055
841.016	3074
841.153	3154
841.29	3359
841.427	3325
841.564	3264
841.701	3313
841.838	3222
841.975	3222
842.112	3226
842.249	3100
842.385	3066
842.522	3294
842.659	3093
842.796	3089
842.933	3165
843.069	3062
843.206	3093
843.343	3211
843.479	3135
843.616	3173
843.752	2906
843.889	2902
844.025	3100
844.162	2902
844.298	3112
844.435	2975
844.571	2952
844.708	3100
844.844	3211
844.98	3283
845.117	3233
845.253	3062
845.389	3024
845.525	3116
845.661	3108
845.798	3058
845.934	3142
846.07	3070
846.206	3211
846.342	3340
846.478	3245
846.614	3142
846.75	3093
846.886	3043
847.022	3203
847.158	3169
847.294	3222
847.429	3249
847.565	3245
847.701	3526
847.837	3070
847.972	3028
848.108	3222
848.244	3184
848.379	2986
848.515	2975
848.65	2986
848.786	2990
848.921	3051
849.057	3173
849.192	3207
849.328	3123
849.463	3119
849.598	3081
849.734	3039
849.869	3017
850.004	2979
850.14	2998
850.275	2922
850.41	2838
850.545	2941
850.68	2956
850.815	2948
850.95	2963
851.085	3226
851.22	3154
851.355	3074
851.49	2971
851.625	3024
851.76	3055
851.895	2994
852.03	2956
852.165	3043
852.299	3119
852.434	3199
852.569	3157
852.703	3195
852.838	3310
852.973	3382
853.107	3348
853.242	3184
853.376	3119
853.511	3024
853.645	3085
853.78	3279
853.914	3089
854.048	3131
854.183	3127
854.317	3176
854.451	3329
854.585	3142
854.72	3108
854.854	3188
854.988	3085
855.122	3138
855.256	2986
855.39	3142
855.524	3268
855.658	3188
855.792	3180
855.926	3203
856.06	3272
856.194	3294
856.327	3188
856.461	3127
856.595	3142
856.729	3108
856.862	3222
856.996	3165
857.13	3226
857.263	3256
857.397	3298
857.53	3104
857.664	3256
857.797	3279
857.931	3283
858.064	3199
858.197	3268
858.331	3165
858.464	3108
858.597	3017
858.731	3135
858.864	3154
858.997	3085
859.13	3161
859.263	3188
859.396	3226
859.529	3089
859.662	3085
859.795	3112
859.928	3154
860.061	3279
860.194	3260
860.327	3188
860.46	3089
860.592	3256
860.725	3245
860.858	3287
860.99	3150
861.123	3055
861.256	3032
861.388	3184
861.521	3732
861.653	3009
861.786	3013
861.918	2998
862.05	3051
862.183	3097
862.315	3199
862.447	3203
862.58	3119
862.712	2963
862.844	2891
862.976	3032
863.108	3036
863.24	3435
863.372	2891
863.504	3020
863.636	2944
863.768	3047
863.9	3005
864.032	2937
864.164	2956
864.296	3032
864.428	3112
864.559	3127
864.691	3081
864.823	3066
864.954	3032
865.086	3074
865.217	3009
865.349	2963
865.48	2982
865.612	3100
865.743	3184
865.875	3020
866.006	2971
866.137	2998
866.269	2975
866.4	2925
866.531	2944
866.662	2861
866.793	2880
866.924	2914
867.055	3005
867.186	2944
867.317	2902
867.448	2864
867.579	2826
867.71	2876
867.841	2868
867.972	2925
868.103	2906
868.233	2891
868.364	2872
868.495	2952
868.625	3131
868.756	3199
868.886	2963
869.017	3013
869.147	3226
869.278	3192
869.408	3093
869.539	3055
869.669	3104
869.799	3051
869.929	3127
870.06	3081
870.19	3344
870.32	3317
870.45	3336
870.58	3374
870.71	3439
870.84	3473
870.97	3294
871.1	3230
871.23	3507
871.36	3481
871.489	3370
871.619	3447
871.749	3393
871.879	3462
872.008	3481
872.138	3313
872.267	3321
872.397	3173
872.526	3116
872.656	3020
872.785	3138
872.915	3275
873.044	3298
873.173	3249
873.303	3313
873.432	3256
873.561	3272
873.69	3184
873.819	3161
873.948	3218
874.077	3138
874.206	3058
874.335	3089
874.464	3230
874.593	3397
874.722	3249
874.851	3405
874.979	3367
875.108	3325
875.237	3222
875.365	3199
875.494	3214
875.623	3256
875.751	3062
875.88	3169
876.008	3188
876.136	3237
876.265	3363
876.393	3511
876.521	3435
876.65	3386
876.778	3355
876.906	3321
877.034	3222
877.162	3218
877.29	3176
877.418	3249
877.546	3260
877.674	3233
877.802	3222
877.93	3249
878.058	3173
878.185	3081
878.313	3233
878.441	3233
878.568	3097
878.696	3211
878.824	3272
878.951	3348
879.079	3443
879.206	3633
879.333	3469
879.461	3359
879.588	3340
879.715	3500
879.842	3629
879.97	3386
880.097	3184
880.224	3127
880.351	3188
880.478	3237
880.605	3192
880.732	3180
880.859	3500
880.986	3363
881.112	3355
881.239	3230
881.366	3085
881.493	3039
881.619	3062
881.746	3093
881.872	3100
881.999	3066
882.125	3123
882.252	3264
882.378	3306
882.505	3439
882.631	3264
882.757	3165
882.883	3237
883.01	3256
883.136	3165
883.262	3116
883.388	3135
883.514	3313
883.64	3393
883.766	3291
883.892	3211
884.018	3287
884.143	3416
884.269	3511
884.395	3222
884.52	3135
884.646	3184
884.772	3165
884.897	3135
885.023	3230
885.148	3313
885.274	3420
885.399	3401
885.524	3298
885.65	3264
885.775	3283
885.9	3321
886.025	3447
886.15	3374
886.275	3268
886.4	3207
886.525	3298
886.65	3245
886.775	3302
886.9	3500
887.025	3644
887.149	3393
887.274	3264
887.399	3195
887.523	3203
887.648	3173
887.773	3222
887.897	3370
888.021	3397
888.146	3302
888.27	3450
888.395	3564
888.519	3424
888.643	3473
888.767	3485
888.891	3329
889.015	3230
889.139	3279
889.263	3249
889.387	3389
889.511	3523
889.635	3424
889.759	3272
889.883	3283
890.006	3401
890.13	3523
890.254	3249
890.377	3351
890.501	3192
890.624	3241
890.748	3344
890.871	3195
890.995	3131
891.118	3089
891.241	3180
891.364	3199
891.488	3359
891.611	3157
891.734	3264
891.857	3287
891.98	3268
892.103	3329
892.226	3275
892.349	3199
892.471	3116
892.594	3249
892.717	3336
892.839	3245
892.962	3302
893.085	3363
893.207	3294
893.33	3180
893.452	3199
893.575	3332
893.697	3237
893.819	3507
893.941	3515
894.064	3466
894.186	3283
894.308	3287
894.43	3454
894.552	3553
894.674	3473
894.796	3264
894.918	3253
895.04	3287
895.161	3447
895.283	3351
895.405	3306
895.526	3389
895.648	3454
895.769	3447
895.891	3462
896.012	3466
896.134	3477
896.255	3412
896.376	3374
896.498	3370
896.619	3431
896.74	3397
896.861	3424
896.982	3660
897.103	3865
897.224	3576
897.345	3507
897.466	3405
897.587	3492
897.708	3629
897.828	3564
897.949	3428
898.07	3332
898.19	3409
898.311	3591
898.431	3450
898.552	3553
898.672	3603
898.792	3568
898.913	3500
899.033	3424
899.153	3264
899.273	3199
899.393	3336
899.513	3321
899.633	3294
899.753	3355
899.873	3336
899.993	3344
900.113	3340
900.232	3386
900.352	3348
900.472	3279
900.591	3226
900.711	3313
900.83	3230
900.95	3397
901.069	3523
901.189	3348
901.308	3176
901.427	3154
901.546	3207
901.665	3329
901.784	3370
901.904	3199
902.023	3138
902.141	3009
902.26	2990
902.379	3161
902.498	3077
902.617	3055
902.735	3211
902.854	3245
902.973	3207
903.091	3077
903.21	3093
903.328	3116
903.446	3127
903.565	3100
903.683	3211
903.801	3116
903.919	3245
904.038	3264
904.156	3142
904.274	3298
904.392	3264
904.51	3351
904.627	3340
904.745	3405
904.863	3504
904.981	3245
905.098	3207
905.216	3260
905.334	3283
905.451	3241
905.569	3298
905.686	3443
905.803	3473
905.921	3321
906.038	3450
906.155	3428
906.272	3283
906.389	3332
906.506	3226
906.623	3302
906.74	3279
906.857	3226
906.974	3199
907.091	3481
907.208	3549
907.324	3477
907.441	3386
907.557	3256
907.674	3256
907.79	3207
907.907	3298
908.023	3393
908.139	3401
908.256	3332
908.372	3405
908.488	3393
908.604	3272
908.72	3211
908.836	3310
908.952	3298
909.068	3370
909.184	3481
909.3	3367
909.415	3500
909.531	3458
909.647	3313
909.762	3313
909.878	3260
909.993	3386
910.108	3329
910.224	3348
910.339	3389
910.454	3279
910.57	3264
910.685	3291
910.8	3599
910.915	3519
911.03	3439
911.145	3245
911.259	3279
911.374	3279
911.489	3260
911.604	3218
911.718	3135
911.833	3127
911.947	3028
912.062	3001
912.176	3211
912.291	3226
912.405	3233
912.519	3401
912.633	3481
912.748	3348
912.862	3291
912.976	3195
913.09	3085
913.204	3165
913.318	3207
913.431	3332
913.545	3340
913.659	3393
913.772	3389
913.886	3184
914	3207
914.113	3340
914.226	3439
914.34	3351
914.453	3188
914.566	3405
914.68	3291
914.793	3336
914.906	3097
915.019	3135
915.132	3074
915.245	3169
915.358	3214
915.47	3176
915.583	3222
915.696	3268
915.809	3386
915.921	3386
916.034	3279
916.146	3237
916.259	3233
916.371	3386
916.483	3374
916.595	3260
916.708	3321
916.82	3355
916.932	3401
917.044	3351
917.156	3348
917.268	3253
917.38	3306
917.491	3321
917.603	3367
917.715	3488
917.826	3458
917.938	3386
918.049	3275
918.161	3450
918.272	3606
918.384	3584
918.495	3500
918.606	3310
918.717	3272
918.828	3382
918.939	3431
919.05	3336
919.161	3374
919.272	3176
919.383	3253
919.494	3496
919.604	3694
919.715	3496
919.826	3386
919.936	3473
920.047	3606
920.157	3526
920.267	3770
920.378	3614
920.488	3561
920.598	3759
920.708	3937
920.818	3781
920.928	3804
921.038	4032
921.148	3991
921.258	3743
921.368	3637
921.477	3603
921.587	3549
921.697	3496
921.806	3648
921.916	3534
922.025	3359
922.134	3348
922.244	3275
922.353	3416
922.462	3272
922.571	3207
922.68	3093
922.789	3074
922.898	3146
923.007	3055
923.116	3237
923.224	3161
923.333	3218
923.442	3070
923.55	3112
923.659	3146
923.767	3192
923.876	3142
923.984	3268
924.092	3119
924.201	3237
924.309	3211
924.417	3291
924.525	3195
924.633	3226
924.741	4010
924.849	3047
924.956	3268
925.064	3089
925.172	3020
925.279	3131
925.387	3165
925.494	3214
925.602	3336
925.709	3336
925.816	3188
925.924	3291
926.031	3382
926.138	3336
926.245	3351
926.352	3237
926.459	3428
926.566	3485
926.673	3283
926.779	3233
926.886	3256
926.993	3146
927.099	3154
927.206	3081
927.312	3135
927.419	3230
927.525	3249
927.631	3245
927.737	3123
927.843	3157
927.95	3051
928.056	3108
928.162	3211
928.267	3306
928.373	3865
928.479	3313
928.585	3070
928.69	3211
928.796	3275
928.901	3169
929.007	3024
929.112	3195
929.218	3188
929.323	3142
929.428	3161
929.533	3317
929.638	3085
929.743	3176
929.848	3268
929.953	3188
930.058	3176
930.163	3001
930.267	3024
930.372	3199
930.477	3043
930.581	3336
930.685	3180
930.79	3074
930.894	3146
930.998	3123
931.103	3317
931.207	2956
931.311	2971
931.415	2895
931.519	2777
931.623	2800
