Data from test_V78500241_995.txt Node
Date: Fri Mar 25 16:22:05 CST 2022
User: usil
Spectrometer: V785-0024
Trigger mode: 0
Integration Time (sec): 4.000000E-1
Scans to average: 1
Nonlinearity correction enabled: false
Boxcar width: 0
Storing dark spectrum: false
XAxis mode: Wavelengths
Number of Pixels in Spectrum: 1024
>>>>>Begin Spectral Data<<<<<
801.071	2899
801.214	2944
801.356	2876
801.499	2891
801.641	2868
801.783	2933
801.926	3032
802.068	2941
802.211	2994
802.353	3020
802.496	2948
802.638	2986
802.78	3066
802.923	3058
803.065	2982
803.208	2864
803.35	2956
803.492	2929
803.635	2952
803.777	2743
803.919	2853
804.061	3203
804.204	2906
804.346	2899
804.488	2845
804.63	2979
804.773	2883
804.915	2899
805.057	3100
805.199	2902
805.341	2963
805.483	3039
805.626	2990
805.768	2975
805.91	3081
806.052	3112
806.194	3028
806.336	3176
806.478	3009
806.62	2956
806.762	2967
806.904	3070
807.046	3127
807.188	2956
807.33	2925
807.472	2967
807.614	2902
807.756	2967
807.898	2937
808.04	2838
808.182	2982
808.324	2941
808.465	2868
808.607	2876
808.749	2792
808.891	2857
809.033	2982
809.174	2952
809.316	2895
809.458	2922
809.6	2762
809.741	2754
809.883	2766
810.025	2849
810.166	2849
810.308	2830
810.45	2899
810.591	2781
810.733	2766
810.875	2826
811.016	2777
811.158	2773
811.299	2826
811.441	2910
811.582	2918
811.724	2811
811.865	2823
812.007	2876
812.148	2861
812.29	2842
812.431	2883
812.573	2929
812.714	2963
812.855	3028
812.997	3055
813.138	3116
813.279	3001
813.421	2948
813.562	2975
813.703	2868
813.845	2883
813.986	2746
814.127	2754
814.268	2785
814.41	2819
814.551	2807
814.692	2842
814.833	2769
814.974	2880
815.115	2963
815.256	2823
815.397	2826
815.539	2864
815.68	2788
815.821	2796
815.962	2910
816.103	2902
816.244	2887
816.385	2838
816.526	2967
816.666	2910
816.807	2739
816.948	2902
817.089	2883
817.23	2883
817.371	2773
817.512	2815
817.653	2857
817.793	2777
817.934	2872
818.075	2956
818.216	2998
818.356	3024
818.497	2883
818.638	2781
818.778	2849
818.919	2811
819.06	2750
819.2	2845
819.341	2769
819.481	2792
819.622	2906
819.762	3104
819.903	3047
820.043	2918
820.184	2887
820.324	2887
820.465	2990
820.605	3009
820.746	2986
820.886	2929
821.026	3062
821.167	3142
821.307	3275
821.447	3306
821.588	3230
821.728	3214
821.868	3195
822.008	3077
822.149	3180
822.289	3237
822.429	3089
822.569	3089
822.709	3184
822.849	3036
822.99	3093
823.13	3184
823.27	3199
823.41	3116
823.55	3116
823.69	3146
823.83	3165
823.97	3070
824.11	3005
824.25	3009
824.389	3051
824.529	3013
824.669	3081
824.809	3226
824.949	3241
825.089	3233
825.228	3127
825.368	3013
825.508	2937
825.648	2956
825.787	3009
825.927	3032
826.067	2941
826.206	2956
826.346	3001
826.485	3058
826.625	3108
826.765	3230
826.904	3176
827.044	2990
827.183	2899
827.323	2861
827.462	2971
827.601	2937
827.741	2929
827.88	2933
828.02	2842
828.159	2990
828.298	3036
828.437	3116
828.577	3024
828.716	3180
828.855	3089
828.994	2910
829.134	2834
829.273	2895
829.412	2853
829.551	2849
829.69	2906
829.829	3001
829.968	3150
830.107	3009
830.246	3020
830.385	2941
830.524	2838
830.663	2800
830.802	2735
830.941	2644
831.08	2686
831.219	2766
831.357	2731
831.496	2948
831.635	2716
831.774	2640
831.913	2667
832.051	2560
832.19	2564
832.329	2682
832.467	2488
832.606	2484
832.744	2530
832.883	2579
833.022	2583
833.16	2640
833.299	2651
833.437	2686
833.576	2697
833.714	2697
833.852	2708
833.991	2746
834.129	2830
834.267	2819
834.406	2792
834.544	2849
834.682	2868
834.821	2868
834.959	3066
835.097	2880
835.235	3032
835.373	2979
835.511	2982
835.65	2952
835.788	2925
835.926	2834
836.064	2804
836.202	2823
836.34	3100
836.478	3180
836.615	3081
836.753	3150
836.891	3188
837.029	3138
837.167	3097
837.305	3047
837.443	3017
837.58	2948
837.718	3150
837.856	3039
837.993	3028
838.131	3131
838.269	3108
838.406	3074
838.544	3055
838.681	2967
838.819	2918
838.956	2826
839.094	2872
839.231	2906
839.369	2971
839.506	3370
839.643	3214
839.781	3024
839.918	2963
840.055	3066
840.193	3020
840.33	3074
840.467	3104
840.604	3150
840.742	3367
840.879	3043
841.016	3047
841.153	3123
841.29	3340
841.427	3294
841.564	3268
841.701	3245
841.838	3192
841.975	3173
842.112	3195
842.249	3055
842.385	3009
842.522	3253
842.659	3085
842.796	3081
842.933	3081
843.069	3043
843.206	3070
843.343	3180
843.479	3104
843.616	3123
843.752	2944
843.889	2861
844.025	3104
844.162	2887
844.298	3077
844.435	2944
844.571	2861
844.708	3070
844.844	3157
844.98	3230
845.117	3135
845.253	3062
845.389	2963
845.525	3097
845.661	3112
845.798	3020
845.934	3100
846.07	3020
846.206	3195
846.342	3264
846.478	3222
846.614	3055
846.75	3039
846.886	3051
847.022	3256
847.158	3127
847.294	3184
847.429	3211
847.565	3222
847.701	3523
847.837	3024
847.972	2956
848.108	3173
848.244	3173
848.379	2998
848.515	2967
848.65	2914
848.786	2944
848.921	3009
849.057	3085
849.192	3127
849.328	3013
849.463	3108
849.598	3051
849.734	3020
849.869	2963
850.004	2902
850.14	2979
850.275	2891
850.41	2834
850.545	2895
850.68	2941
850.815	2956
850.95	2956
851.085	3188
851.22	3081
851.355	2982
851.49	2918
851.625	2982
851.76	3032
851.895	2925
852.03	2902
852.165	3039
852.299	3112
852.434	3161
852.569	3138
852.703	3161
852.838	3260
852.973	3367
853.107	3298
853.242	3119
853.376	3085
853.511	2986
853.645	3024
853.78	3218
853.914	3100
854.048	3104
854.183	3051
854.317	3119
854.451	3287
854.585	3104
854.72	3081
854.854	3173
854.988	2990
855.122	3089
855.256	2941
855.39	3093
855.524	3233
855.658	3142
855.792	3108
855.926	3154
856.06	3214
856.194	3249
856.327	3138
856.461	3024
856.595	3097
856.729	3097
856.862	3233
856.996	3131
857.13	3195
857.263	3188
857.397	3256
857.53	3104
857.664	3135
857.797	3272
857.931	3233
858.064	3184
858.197	3165
858.331	3104
858.464	3058
858.597	2963
858.731	3097
858.864	3138
858.997	3062
859.13	3165
859.263	3188
859.396	3214
859.529	3089
859.662	3074
859.795	3047
859.928	3154
860.061	3237
860.194	3272
860.327	3165
860.46	3066
860.592	3207
860.725	3264
860.858	3214
860.99	3108
861.123	3047
861.256	3047
861.388	3127
861.521	3819
861.653	3001
861.786	2967
861.918	2998
862.05	3055
862.183	3077
862.315	3116
862.447	3199
862.58	3085
862.712	2933
862.844	2853
862.976	3036
863.108	3036
863.24	3412
863.372	2880
863.504	2948
863.636	2929
863.768	3036
863.9	2948
864.032	2925
864.164	2918
864.296	3024
864.428	3081
864.559	3116
864.691	3043
864.823	3036
864.954	3032
865.086	3047
865.217	2963
865.349	2929
865.48	2986
865.612	3043
865.743	3146
865.875	2986
866.006	2937
866.137	2982
866.269	2895
866.4	2902
866.531	2948
866.662	2883
866.793	2872
866.924	2891
867.055	3013
867.186	2956
867.317	2861
867.448	2853
867.579	2815
867.71	2838
867.841	2811
867.972	2895
868.103	2933
868.233	2883
868.364	2891
868.495	2868
868.625	3047
868.756	3131
868.886	2986
869.017	2982
869.147	3146
869.278	3131
869.408	3058
869.539	3013
869.669	3112
869.799	3043
869.929	3135
870.06	3089
870.19	3332
870.32	3245
870.45	3279
870.58	3344
870.71	3462
870.84	3393
870.97	3283
871.1	3218
871.23	3473
871.36	3462
871.489	3351
871.619	3401
871.749	3367
871.879	3393
872.008	3481
872.138	3355
872.267	3245
872.397	3127
872.526	3112
872.656	2971
872.785	3051
872.915	3241
873.044	3279
873.173	3207
873.303	3245
873.432	3188
873.561	3226
873.69	3154
873.819	3142
873.948	3203
874.077	3081
874.206	3036
874.335	3104
874.464	3180
874.593	3348
874.722	3268
874.851	3382
874.979	3370
875.108	3302
875.237	3192
875.365	3142
875.494	3176
875.623	3249
875.751	3074
875.88	3097
876.008	3165
876.136	3195
876.265	3370
876.393	3473
876.521	3409
876.65	3382
876.778	3332
876.906	3222
877.034	3192
877.162	3211
877.29	3165
877.418	3249
877.546	3256
877.674	3207
877.802	3211
877.93	3222
878.058	3157
878.185	3097
878.313	3218
878.441	3199
878.568	3093
878.696	3146
878.824	3272
878.951	3291
879.079	3439
879.206	3618
879.333	3393
879.461	3237
879.588	3367
879.715	3466
879.842	3584
879.97	3378
880.097	3161
880.224	3173
880.351	3184
880.478	3199
880.605	3142
880.732	3169
880.859	3477
880.986	3279
881.112	3302
881.239	3188
881.366	3097
881.493	3001
881.619	3051
881.746	3081
881.872	3043
881.999	3093
882.125	3142
882.252	3203
882.378	3321
882.505	3458
882.631	3272
882.757	3104
882.883	3169
883.01	3180
883.136	3150
883.262	3085
883.388	3131
883.514	3351
883.64	3351
883.766	3306
883.892	3176
884.018	3207
884.143	3435
884.269	3534
884.395	3211
884.52	3150
884.646	3218
884.772	3119
884.897	3055
885.023	3195
885.148	3279
885.274	3424
885.399	3344
885.524	3283
885.65	3226
885.775	3294
885.9	3283
886.025	3412
886.15	3355
886.275	3283
886.4	3222
886.525	3287
886.65	3260
886.775	3249
886.9	3454
887.025	3618
887.149	3359
887.274	3233
887.399	3180
887.523	3184
887.648	3188
887.773	3176
887.897	3351
888.021	3401
888.146	3298
888.27	3397
888.395	3526
888.519	3424
888.643	3450
888.767	3435
888.891	3291
889.015	3226
889.139	3279
889.263	3241
889.387	3435
889.511	3530
889.635	3450
889.759	3310
889.883	3321
890.006	3340
890.13	3458
890.254	3260
890.377	3317
890.501	3214
890.624	3207
890.748	3233
890.871	3142
890.995	3081
891.118	3032
891.241	3165
891.364	3230
891.488	3302
891.611	3146
891.734	3214
891.857	3279
891.98	3211
892.103	3348
892.226	3279
892.349	3218
892.471	3161
892.594	3237
892.717	3275
892.839	3237
892.962	3306
893.085	3363
893.207	3275
893.33	3116
893.452	3184
893.575	3351
893.697	3256
893.819	3443
893.941	3500
894.064	3458
894.186	3249
894.308	3245
894.43	3393
894.552	3511
894.674	3428
894.796	3226
894.918	3294
895.04	3298
895.161	3412
895.283	3378
895.405	3291
895.526	3340
895.648	3389
895.769	3412
895.891	3435
896.012	3428
896.134	3428
896.255	3424
896.376	3389
896.498	3405
896.619	3420
896.74	3340
896.861	3405
896.982	3694
897.103	3800
897.224	3580
897.345	3507
897.466	3424
897.587	3515
897.708	3584
897.828	3504
897.949	3458
898.07	3325
898.19	3405
898.311	3564
898.431	3443
898.552	3488
898.672	3542
898.792	3584
898.913	3488
899.033	3389
899.153	3268
899.273	3203
899.393	3298
899.513	3313
899.633	3268
899.753	3325
899.873	3332
899.993	3359
900.113	3355
900.232	3378
900.352	3310
900.472	3287
900.591	3207
900.711	3287
900.83	3275
900.95	3405
901.069	3492
901.189	3348
901.308	3188
901.427	3116
901.546	3222
901.665	3294
901.784	3351
901.904	3207
902.023	3135
902.141	3036
902.26	3020
902.379	3123
902.498	3085
902.617	3036
902.735	3237
902.854	3302
902.973	3203
903.091	3066
903.21	3058
903.328	3142
903.446	3192
903.565	3127
903.683	3253
903.801	3176
903.919	3268
904.038	3302
904.156	3203
904.274	3317
904.392	3306
904.51	3283
904.627	3348
904.745	3481
904.863	3545
904.981	3279
905.098	3199
905.216	3298
905.334	3313
905.451	3363
905.569	3351
905.686	3431
905.803	3443
905.921	3340
906.038	3462
906.155	3397
906.272	3298
906.389	3401
906.506	3279
906.623	3317
906.74	3306
906.857	3245
906.974	3329
907.091	3507
907.208	3633
907.324	3496
907.441	3409
907.557	3264
907.674	3294
907.79	3233
907.907	3310
908.023	3386
908.139	3424
908.256	3344
908.372	3363
908.488	3401
908.604	3329
908.72	3272
908.836	3287
908.952	3336
909.068	3401
909.184	3424
909.3	3397
909.415	3553
909.531	3538
909.647	3329
909.762	3370
909.878	3298
909.993	3450
910.108	3389
910.224	3344
910.339	3439
910.454	3370
910.57	3363
910.685	3287
910.8	3625
910.915	3576
911.03	3462
911.145	3313
911.259	3291
911.374	3332
911.489	3268
911.604	3268
911.718	3135
911.833	3184
911.947	3112
912.062	3043
912.176	3207
912.291	3184
912.405	3230
912.519	3443
912.633	3504
912.748	3336
912.862	3313
912.976	3188
913.09	3123
913.204	3165
913.318	3230
913.431	3321
913.545	3367
913.659	3424
913.772	3386
913.886	3249
914	3226
914.113	3340
914.226	3439
914.34	3359
914.453	3245
914.566	3439
914.68	3344
914.793	3344
914.906	3157
915.019	3123
915.132	3104
915.245	3192
915.358	3214
915.47	3241
915.583	3272
915.696	3310
915.809	3450
915.921	3462
916.034	3317
916.146	3253
916.259	3264
916.371	3431
916.483	3382
916.595	3275
916.708	3397
916.82	3374
916.932	3310
917.044	3363
917.156	3386
917.268	3294
917.38	3310
917.491	3294
917.603	3389
917.715	3485
917.826	3485
917.938	3424
918.049	3291
918.161	3481
918.272	3610
918.384	3622
918.495	3500
918.606	3367
918.717	3321
918.828	3386
918.939	3435
919.05	3325
919.161	3370
919.272	3203
919.383	3302
919.494	3557
919.604	3701
919.715	3488
919.826	3462
919.936	3485
920.047	3629
920.157	3633
920.267	3781
920.378	3622
920.488	3591
920.598	3827
920.708	3949
920.818	3850
920.928	3865
921.038	4112
921.148	4025
921.258	3774
921.368	3690
921.477	3599
921.587	3587
921.697	3523
921.806	3663
921.916	3542
922.025	3393
922.134	3393
922.244	3367
922.353	3458
922.462	3313
922.571	3291
922.68	3165
922.789	3093
922.898	3127
923.007	3146
923.116	3222
923.224	3195
923.333	3230
923.442	3138
923.55	3138
923.659	3161
923.767	3260
923.876	3154
923.984	3253
924.092	3123
924.201	3195
924.309	3294
924.417	3264
924.525	3211
924.633	3283
924.741	4230
924.849	3051
924.956	3275
925.064	3104
925.172	3017
925.279	3104
925.387	3256
925.494	3199
925.602	3428
925.709	3374
925.816	3222
925.924	3321
926.031	3397
926.138	3359
926.245	3393
926.352	3268
926.459	3469
926.566	3500
926.673	3370
926.779	3264
926.886	3291
926.993	3173
927.099	3123
927.206	3176
927.312	3154
927.419	3241
927.525	3222
927.631	3275
927.737	3157
927.843	3173
927.95	3070
928.056	3165
928.162	3199
928.267	3283
928.373	3884
928.479	3321
928.585	3077
928.69	3233
928.796	3245
928.901	3161
929.007	3077
929.112	3214
929.218	3214
929.323	3176
929.428	3180
929.533	3317
929.638	3135
929.743	3176
929.848	3268
929.953	3233
930.058	3180
930.163	3066
930.267	3039
930.372	3211
930.477	3089
930.581	3325
930.685	3226
930.79	3100
930.894	3146
930.998	3112
931.103	3306
931.207	3001
931.311	2941
931.415	2982
931.519	2800
931.623	2823
