Data from test_V78500241_1526.txt Node
Date: Fri Mar 25 16:25:46 CST 2022
User: usil
Spectrometer: V785-0024
Trigger mode: 0
Integration Time (sec): 4.000000E-1
Scans to average: 1
Nonlinearity correction enabled: false
Boxcar width: 0
Storing dark spectrum: false
XAxis mode: Wavelengths
Number of Pixels in Spectrum: 1024
>>>>>Begin Spectral Data<<<<<
801.071	2925
801.214	2994
801.356	2895
801.499	2918
801.641	2887
801.783	2944
801.926	3062
802.068	2994
802.211	3047
802.353	3112
802.496	2986
802.638	3047
802.78	3085
802.923	3081
803.065	3039
803.208	2914
803.35	2967
803.492	2986
803.635	2944
803.777	2807
803.919	2895
804.061	3211
804.204	2986
804.346	2922
804.488	2868
804.63	3005
804.773	2883
804.915	2994
805.057	3104
805.199	2979
805.341	2967
805.483	3066
805.626	3043
805.768	2971
805.91	3108
806.052	3104
806.194	3062
806.336	3268
806.478	3039
806.62	3005
806.762	2948
806.904	3081
807.046	3199
807.188	2994
807.33	2910
807.472	2975
807.614	2941
807.756	3001
807.898	2933
808.04	2899
808.182	2956
808.324	2994
808.465	2910
808.607	2899
808.749	2849
808.891	2830
809.033	2994
809.174	3024
809.316	2883
809.458	2906
809.6	2807
809.741	2811
809.883	2777
810.025	2876
810.166	2861
810.308	2887
810.45	2853
810.591	2777
810.733	2754
810.875	2868
811.016	2788
811.158	2773
811.299	2830
811.441	2944
811.582	2918
811.724	2845
811.865	2857
812.007	2952
812.148	2891
812.29	2876
812.431	2914
812.573	2963
812.714	2941
812.855	3070
812.997	3055
813.138	3146
813.279	3028
813.421	2986
813.562	2975
813.703	2899
813.845	2929
813.986	2777
814.127	2724
814.268	2845
814.41	2857
814.551	2857
814.692	2849
814.833	2830
814.974	2925
815.115	3001
815.256	2838
815.397	2826
815.539	2845
815.68	2823
815.821	2785
815.962	2998
816.103	2967
816.244	2864
816.385	2872
816.526	2948
816.666	2956
816.807	2766
816.948	2887
817.089	2906
817.23	2864
817.371	2807
817.512	2804
817.653	2864
817.793	2861
817.934	2925
818.075	2986
818.216	3009
818.356	3047
818.497	2902
818.638	2826
818.778	2823
818.919	2823
819.06	2766
819.2	2883
819.341	2842
819.481	2796
819.622	2914
819.762	3123
819.903	3043
820.043	2906
820.184	2952
820.324	2944
820.465	3013
820.605	3017
820.746	3051
820.886	2944
821.026	3081
821.167	3176
821.307	3294
821.447	3317
821.588	3199
821.728	3211
821.868	3211
822.008	3077
822.149	3184
822.289	3279
822.429	3097
822.569	3112
822.709	3195
822.849	3051
822.99	3104
823.13	3165
823.27	3272
823.41	3142
823.55	3173
823.69	3165
823.83	3245
823.97	3089
824.11	3036
824.25	3036
824.389	3028
824.529	3146
824.669	3066
824.809	3233
824.949	3275
825.089	3264
825.228	3192
825.368	3013
825.508	2944
825.648	3005
825.787	3028
825.927	3043
826.067	2990
826.206	2975
826.346	3077
826.485	3055
826.625	3104
826.765	3264
826.904	3207
827.044	2994
827.183	2975
827.323	2876
827.462	2982
827.601	2941
827.741	2944
827.88	2986
828.02	2868
828.159	2975
828.298	3039
828.437	3123
828.577	3047
828.716	3237
828.855	3108
828.994	2941
829.134	2872
829.273	2929
829.412	2922
829.551	2861
829.69	2918
829.829	2998
829.968	3146
830.107	3032
830.246	3066
830.385	2948
830.524	2899
830.663	2819
830.802	2758
830.941	2674
831.08	2648
831.219	2777
831.357	2746
831.496	2960
831.635	2693
831.774	2648
831.913	2648
832.051	2556
832.19	2590
832.329	2705
832.467	2594
832.606	2473
832.744	2606
832.883	2632
833.022	2617
833.16	2667
833.299	2701
833.437	2678
833.576	2693
833.714	2720
833.852	2762
833.991	2807
834.129	2838
834.267	2883
834.406	2804
834.544	2872
834.682	2899
834.821	2906
834.959	3081
835.097	2895
835.235	3013
835.373	3039
835.511	3051
835.65	2982
835.788	2975
835.926	2868
836.064	2830
836.202	2853
836.34	3104
836.478	3165
836.615	3028
836.753	3176
836.891	3230
837.029	3150
837.167	3100
837.305	3100
837.443	3051
837.58	2967
837.718	3157
837.856	3089
837.993	3066
838.131	3173
838.269	3108
838.406	3135
838.544	3081
838.681	2956
838.819	2891
838.956	2834
839.094	2842
839.231	2883
839.369	3024
839.506	3397
839.643	3192
839.781	3013
839.918	2929
840.055	3074
840.193	3058
840.33	3093
840.467	3100
840.604	3138
840.742	3393
840.879	3062
841.016	3070
841.153	3108
841.29	3344
841.427	3272
841.564	3306
841.701	3321
841.838	3253
841.975	3142
842.112	3199
842.249	3093
842.385	3032
842.522	3226
842.659	3093
842.796	3058
842.933	3116
843.069	3058
843.206	3077
843.343	3199
843.479	3135
843.616	3161
843.752	2902
843.889	2891
844.025	3081
844.162	2910
844.298	3097
844.435	2948
844.571	2937
844.708	3070
844.844	3146
844.98	3233
845.117	3214
845.253	3058
845.389	2994
845.525	3112
845.661	3093
845.798	3009
845.934	3135
846.07	3066
846.206	3233
846.342	3332
846.478	3218
846.614	3085
846.75	3055
846.886	3024
847.022	3260
847.158	3150
847.294	3188
847.429	3241
847.565	3253
847.701	3477
847.837	3017
847.972	3066
848.108	3154
848.244	3146
848.379	2994
848.515	2910
848.65	2948
848.786	2960
848.921	3047
849.057	3100
849.192	3169
849.328	3055
849.463	3089
849.598	3108
849.734	3032
849.869	2975
850.004	2944
850.14	2956
850.275	2891
850.41	2804
850.545	2895
850.68	2933
850.815	2925
850.95	2982
851.085	3195
851.22	3100
851.355	3047
851.49	3043
851.625	3009
851.76	3001
851.895	2933
852.03	2910
852.165	3039
852.299	3081
852.434	3131
852.569	3138
852.703	3184
852.838	3226
852.973	3344
853.107	3344
853.242	3157
853.376	3119
853.511	2986
853.645	3058
853.78	3230
853.914	3112
854.048	3104
854.183	3077
854.317	3169
854.451	3279
854.585	3119
854.72	3100
854.854	3214
854.988	3074
855.122	3112
855.256	2929
855.39	3112
855.524	3237
855.658	3180
855.792	3157
855.926	3173
856.06	3207
856.194	3268
856.327	3127
856.461	3070
856.595	3077
856.729	3085
856.862	3214
856.996	3146
857.13	3199
857.263	3249
857.397	3313
857.53	3097
857.664	3226
857.797	3249
857.931	3214
858.064	3157
858.197	3230
858.331	3169
858.464	3123
858.597	3047
858.731	3097
858.864	3131
858.997	3100
859.13	3173
859.263	3165
859.396	3180
859.529	3062
859.662	3058
859.795	3039
859.928	3154
860.061	3264
860.194	3279
860.327	3150
860.46	3108
860.592	3230
860.725	3256
860.858	3241
860.99	3093
861.123	3085
861.256	3036
861.388	3138
861.521	3907
861.653	3058
861.786	2963
861.918	2986
862.05	3005
862.183	3123
862.315	3176
862.447	3211
862.58	3081
862.712	2971
862.844	2853
862.976	3020
863.108	2971
863.24	3306
863.372	2857
863.504	2990
863.636	2937
863.768	3039
863.9	3005
864.032	2902
864.164	2933
864.296	3009
864.428	3089
864.559	3116
864.691	3047
864.823	3085
864.954	3062
865.086	3077
865.217	2963
865.349	2979
865.48	2982
865.612	3028
865.743	3142
865.875	2990
866.006	2948
866.137	3009
866.269	2925
866.4	2998
866.531	2929
866.662	2891
866.793	2910
866.924	2914
867.055	2937
867.186	2925
867.317	2906
867.448	2834
867.579	2872
867.71	2845
867.841	2853
867.972	2880
868.103	2876
868.233	2902
868.364	2895
868.495	2910
868.625	3066
868.756	3180
868.886	2982
869.017	2971
869.147	3146
869.278	3123
869.408	3055
869.539	3024
869.669	3085
869.799	2990
869.929	3138
870.06	3108
870.19	3310
870.32	3279
870.45	3306
870.58	3370
870.71	3447
870.84	3450
870.97	3298
871.1	3226
871.23	3473
871.36	3435
871.489	3348
871.619	3447
871.749	3416
871.879	3424
872.008	3485
872.138	3348
872.267	3272
872.397	3127
872.526	3104
872.656	2998
872.785	3104
872.915	3245
873.044	3310
873.173	3203
873.303	3268
873.432	3237
873.561	3199
873.69	3150
873.819	3154
873.948	3157
874.077	3108
874.206	3032
874.335	3074
874.464	3245
874.593	3401
874.722	3245
874.851	3393
874.979	3355
875.108	3317
875.237	3218
875.365	3211
875.494	3165
875.623	3275
875.751	3081
875.88	3131
876.008	3165
876.136	3226
876.265	3367
876.393	3500
876.521	3420
876.65	3397
876.778	3306
876.906	3249
877.034	3211
877.162	3207
877.29	3165
877.418	3245
877.546	3237
877.674	3264
877.802	3241
877.93	3253
878.058	3112
878.185	3100
878.313	3176
878.441	3226
878.568	3104
878.696	3135
878.824	3214
878.951	3325
879.079	3469
879.206	3622
879.333	3416
879.461	3344
879.588	3325
879.715	3469
879.842	3591
879.97	3367
880.097	3150
880.224	3150
880.351	3188
880.478	3211
880.605	3211
880.732	3131
880.859	3504
880.986	3272
881.112	3321
881.239	3180
881.366	3100
881.493	3001
881.619	2998
881.746	3066
881.872	3127
881.999	3135
882.125	3154
882.252	3264
882.378	3264
882.505	3424
882.631	3294
882.757	3195
882.883	3230
883.01	3245
883.136	3161
883.262	3062
883.388	3138
883.514	3298
883.64	3397
883.766	3298
883.892	3154
884.018	3272
884.143	3409
884.269	3500
884.395	3188
884.52	3161
884.646	3176
884.772	3127
884.897	3104
885.023	3203
885.148	3329
885.274	3424
885.399	3393
885.524	3283
885.65	3260
885.775	3310
885.9	3302
886.025	3386
886.15	3378
886.275	3279
886.4	3222
886.525	3340
886.65	3245
886.775	3268
886.9	3473
887.025	3622
887.149	3405
887.274	3241
887.399	3195
887.523	3211
887.648	3214
887.773	3199
887.897	3374
888.021	3374
888.146	3256
888.27	3428
888.395	3519
888.519	3420
888.643	3462
888.767	3481
888.891	3298
889.015	3241
889.139	3256
889.263	3249
889.387	3382
889.511	3496
889.635	3462
889.759	3294
889.883	3268
890.006	3382
890.13	3443
890.254	3264
890.377	3325
890.501	3214
890.624	3192
890.748	3317
890.871	3214
890.995	3135
891.118	3017
891.241	3161
891.364	3226
891.488	3317
891.611	3135
891.734	3184
891.857	3268
891.98	3264
892.103	3348
892.226	3332
892.349	3241
892.471	3123
892.594	3233
892.717	3302
892.839	3268
892.962	3279
893.085	3355
893.207	3256
893.33	3154
893.452	3203
893.575	3302
893.697	3233
893.819	3431
893.941	3488
894.064	3450
894.186	3283
894.308	3268
894.43	3450
894.552	3542
894.674	3435
894.796	3298
894.918	3332
895.04	3275
895.161	3405
895.283	3412
895.405	3294
895.526	3367
895.648	3389
895.769	3393
895.891	3439
896.012	3473
896.134	3458
896.255	3382
896.376	3397
896.498	3355
896.619	3412
896.74	3378
896.861	3378
896.982	3720
897.103	3869
897.224	3606
897.345	3504
897.466	3431
897.587	3435
897.708	3625
897.828	3568
897.949	3454
898.07	3306
898.19	3409
898.311	3584
898.431	3443
898.552	3511
898.672	3587
898.792	3568
898.913	3504
899.033	3428
899.153	3302
899.273	3241
899.393	3275
899.513	3272
899.633	3291
899.753	3332
899.873	3294
899.993	3386
900.113	3367
900.232	3378
900.352	3336
900.472	3325
900.591	3188
900.711	3348
900.83	3237
900.95	3405
901.069	3466
901.189	3355
901.308	3142
901.427	3119
901.546	3180
901.665	3283
901.784	3325
901.904	3253
902.023	3127
902.141	3005
902.26	2982
902.379	3123
902.498	3077
902.617	3043
902.735	3207
902.854	3218
902.973	3176
903.091	3062
903.21	3043
903.328	3119
903.446	3104
903.565	3089
903.683	3211
903.801	3085
903.919	3226
904.038	3249
904.156	3146
904.274	3317
904.392	3233
904.51	3310
904.627	3355
904.745	3420
904.863	3466
904.981	3233
905.098	3180
905.216	3249
905.334	3264
905.451	3302
905.569	3287
905.686	3450
905.803	3447
905.921	3291
906.038	3466
906.155	3344
906.272	3275
906.389	3321
906.506	3214
906.623	3203
906.74	3275
906.857	3169
906.974	3245
907.091	3439
907.208	3526
907.324	3458
907.441	3351
907.557	3176
907.674	3226
907.79	3199
907.907	3245
908.023	3348
908.139	3336
908.256	3340
908.372	3344
908.488	3370
908.604	3287
908.72	3218
908.836	3275
908.952	3283
909.068	3310
909.184	3454
909.3	3389
909.415	3500
909.531	3431
909.647	3241
909.762	3249
909.878	3253
909.993	3409
910.108	3298
910.224	3329
910.339	3431
910.454	3317
910.57	3291
910.685	3256
910.8	3591
910.915	3530
911.03	3386
911.145	3268
911.259	3302
911.374	3294
911.489	3275
911.604	3237
911.718	3150
911.833	3142
911.947	3020
912.062	2982
912.176	3142
912.291	3180
912.405	3207
912.519	3416
912.633	3469
912.748	3351
912.862	3268
912.976	3199
913.09	3062
913.204	3146
913.318	3233
913.431	3325
913.545	3367
913.659	3454
913.772	3344
913.886	3241
914	3214
914.113	3348
914.226	3374
914.34	3370
914.453	3211
914.566	3409
914.68	3275
914.793	3310
914.906	3157
915.019	3123
915.132	3089
915.245	3176
915.358	3169
915.47	3199
915.583	3233
915.696	3313
915.809	3416
915.921	3450
916.034	3203
916.146	3237
916.259	3214
916.371	3412
916.483	3359
916.595	3237
916.708	3351
916.82	3332
916.932	3313
917.044	3306
917.156	3336
917.268	3256
917.38	3283
917.491	3245
917.603	3351
917.715	3492
917.826	3477
917.938	3405
918.049	3298
918.161	3443
918.272	3595
918.384	3557
918.495	3492
918.606	3302
918.717	3260
918.828	3363
918.939	3389
919.05	3306
919.161	3386
919.272	3138
919.383	3294
919.494	3469
919.604	3694
919.715	3492
919.826	3370
919.936	3458
920.047	3595
920.157	3553
920.267	3762
920.378	3652
920.488	3542
920.598	3850
920.708	3945
920.818	3778
920.928	3816
921.038	4010
921.148	3953
921.258	3690
921.368	3618
921.477	3572
921.587	3504
921.697	3458
921.806	3637
921.916	3504
922.025	3351
922.134	3382
922.244	3325
922.353	3431
922.462	3275
922.571	3222
922.68	3135
922.789	3097
922.898	3169
923.007	3127
923.116	3214
923.224	3188
923.333	3207
923.442	3089
923.55	3135
923.659	3112
923.767	3249
923.876	3119
923.984	3245
924.092	3135
924.201	3131
924.309	3207
924.417	3264
924.525	3199
924.633	3272
924.741	4116
924.849	3024
924.956	3230
925.064	3108
925.172	3028
925.279	3108
925.387	3199
925.494	3199
925.602	3325
925.709	3348
925.816	3203
925.924	3317
926.031	3389
926.138	3344
926.245	3367
926.352	3264
926.459	3401
926.566	3473
926.673	3302
926.779	3260
926.886	3294
926.993	3138
927.099	3138
927.206	3123
927.312	3135
927.419	3218
927.525	3195
927.631	3253
927.737	3165
927.843	3127
927.95	3024
928.056	3154
928.162	3146
928.267	3245
928.373	3747
928.479	3268
928.585	3081
928.69	3180
928.796	3264
928.901	3154
929.007	3047
929.112	3184
929.218	3169
929.323	3150
929.428	3146
929.533	3283
929.638	3085
929.743	3173
929.848	3249
929.953	3188
930.058	3131
930.163	2975
930.267	3043
930.372	3222
930.477	3070
930.581	3306
930.685	3154
930.79	3085
930.894	3104
930.998	3116
931.103	3275
931.207	2963
931.311	2963
931.415	2975
931.519	2773
931.623	2819
