Data from test_V78500241_150.txt Node
Date: Fri Mar 25 16:16:14 CST 2022
User: usil
Spectrometer: V785-0024
Trigger mode: 0
Integration Time (sec): 4.000000E-1
Scans to average: 1
Nonlinearity correction enabled: false
Boxcar width: 0
Storing dark spectrum: false
XAxis mode: Wavelengths
Number of Pixels in Spectrum: 1024
>>>>>Begin Spectral Data<<<<<
801.071	2906
801.214	2925
801.356	2872
801.499	2899
801.641	2853
801.783	2956
801.926	3070
802.068	2975
802.211	2990
802.353	3032
802.496	2941
802.638	3013
802.78	3009
802.923	3058
803.065	2990
803.208	2914
803.35	2918
803.492	2944
803.635	2925
803.777	2743
803.919	2868
804.061	3207
804.204	2971
804.346	2899
804.488	2834
804.63	2986
804.773	2899
804.915	2895
805.057	3116
805.199	2937
805.341	2956
805.483	3043
805.626	3001
805.768	2994
805.91	3066
806.052	3146
806.194	3043
806.336	3237
806.478	3001
806.62	2937
806.762	2994
806.904	3127
807.046	3169
807.188	2963
807.33	2929
807.472	3039
807.614	2918
807.756	2982
807.898	2967
808.04	2899
808.182	2998
808.324	2937
808.465	2899
808.607	2880
808.749	2815
808.891	2864
809.033	3009
809.174	2971
809.316	2914
809.458	2906
809.6	2804
809.741	2804
809.883	2758
810.025	2845
810.166	2868
810.308	2845
810.45	2880
810.591	2792
810.733	2754
810.875	2838
811.016	2796
811.158	2792
811.299	2834
811.441	2910
811.582	2914
811.724	2819
811.865	2861
812.007	2956
812.148	2861
812.29	2910
812.431	2899
812.573	2979
812.714	2948
812.855	3089
812.997	3089
813.138	3138
813.279	2998
813.421	3009
813.562	2994
813.703	2891
813.845	2910
813.986	2773
814.127	2727
814.268	2838
814.41	2849
814.551	2811
814.692	2902
814.833	2834
814.974	2929
815.115	2971
815.256	2876
815.397	2845
815.539	2876
815.68	2785
815.821	2807
815.962	2960
816.103	2910
816.244	2887
816.385	2910
816.526	3013
816.666	2944
816.807	2777
816.948	2883
817.089	2933
817.23	2868
817.371	2769
817.512	2800
817.653	2830
817.793	2845
817.934	2922
818.075	2967
818.216	3020
818.356	3036
818.497	2906
818.638	2792
818.778	2834
818.919	2773
819.06	2762
819.2	2906
819.341	2796
819.481	2826
819.622	2933
819.762	3131
819.903	3074
820.043	2902
820.184	2929
820.324	2883
820.465	3032
820.605	3009
820.746	3017
820.886	2929
821.026	3119
821.167	3188
821.307	3249
821.447	3272
821.588	3272
821.728	3211
821.868	3218
822.008	3093
822.149	3192
822.289	3214
822.429	3112
822.569	3100
822.709	3188
822.849	3051
822.99	3074
823.13	3169
823.27	3218
823.41	3112
823.55	3169
823.69	3138
823.83	3207
823.97	3100
824.11	3013
824.25	3009
824.389	3089
824.529	3127
824.669	3070
824.809	3165
824.949	3264
825.089	3214
825.228	3169
825.368	3020
825.508	2979
825.648	2986
825.787	3020
825.927	3047
826.067	2994
826.206	3005
826.346	3070
826.485	3089
826.625	3100
826.765	3291
826.904	3241
827.044	3009
827.183	2982
827.323	2876
827.462	2994
827.601	2982
827.741	2956
827.88	2956
828.02	2895
828.159	3036
828.298	3070
828.437	3161
828.577	3077
828.716	3272
828.855	3138
828.994	2944
829.134	2906
829.273	2956
829.412	2906
829.551	2948
829.69	2933
829.829	2998
829.968	3176
830.107	3047
830.246	3062
830.385	2971
830.524	2948
830.663	2868
830.802	2754
830.941	2720
831.08	2701
831.219	2815
831.357	2819
831.496	3001
831.635	2766
831.774	2674
831.913	2720
832.051	2594
832.19	2648
832.329	2743
832.467	2575
832.606	2556
832.744	2640
832.883	2659
833.022	2629
833.16	2712
833.299	2739
833.437	2731
833.576	2746
833.714	2773
833.852	2743
833.991	2792
834.129	2880
834.267	2918
834.406	2842
834.544	2902
834.682	2918
834.821	2933
834.959	3142
835.097	2918
835.235	3097
835.373	3081
835.511	3089
835.65	2990
835.788	3058
835.926	2891
836.064	2876
836.202	2902
836.34	3123
836.478	3203
836.615	3089
836.753	3207
836.891	3214
837.029	3237
837.167	3142
837.305	3138
837.443	3081
837.58	3043
837.718	3195
837.856	3093
837.993	3131
838.131	3192
838.269	3173
838.406	3161
838.544	3154
838.681	2998
838.819	2998
838.956	2887
839.094	2880
839.231	2952
839.369	3100
839.506	3439
839.643	3275
839.781	3062
839.918	3062
840.055	3157
840.193	3142
840.33	3123
840.467	3154
840.604	3165
840.742	3450
840.879	3123
841.016	3116
841.153	3169
841.29	3416
841.427	3340
841.564	3359
841.701	3363
841.838	3275
841.975	3237
842.112	3287
842.249	3150
842.385	3104
842.522	3325
842.659	3116
842.796	3146
842.933	3173
843.069	3074
843.206	3104
843.343	3188
843.479	3165
843.616	3180
843.752	2929
843.889	2944
844.025	3150
844.162	2899
844.298	3138
844.435	3009
844.571	2975
844.708	3138
844.844	3211
844.98	3298
845.117	3260
845.253	3119
845.389	3077
845.525	3154
845.661	3165
845.798	3047
845.934	3176
846.07	3116
846.206	3287
846.342	3351
846.478	3313
846.614	3116
846.75	3089
846.886	3074
847.022	3260
847.158	3176
847.294	3283
847.429	3294
847.565	3291
847.701	3534
847.837	3062
847.972	3066
848.108	3199
848.244	3211
848.379	3051
848.515	2956
848.65	2986
848.786	3024
848.921	3089
849.057	3142
849.192	3173
849.328	3119
849.463	3161
849.598	3127
849.734	3074
849.869	3058
850.004	2971
850.14	3017
850.275	2960
850.41	2883
850.545	2922
850.68	2956
850.815	3028
850.95	3039
851.085	3272
851.22	3127
851.355	3058
851.49	3001
851.625	3062
851.76	3066
851.895	2986
852.03	2963
852.165	3062
852.299	3176
852.434	3222
852.569	3188
852.703	3230
852.838	3355
852.973	3386
853.107	3378
853.242	3161
853.376	3131
853.511	3009
853.645	3055
853.78	3253
853.914	3173
854.048	3176
854.183	3085
854.317	3199
854.451	3378
854.585	3176
854.72	3119
854.854	3272
854.988	3089
855.122	3138
855.256	2998
855.39	3135
855.524	3306
855.658	3218
855.792	3222
855.926	3264
856.06	3241
856.194	3336
856.327	3230
856.461	3123
856.595	3116
856.729	3108
856.862	3230
856.996	3195
857.13	3233
857.263	3310
857.397	3302
857.53	3169
857.664	3245
857.797	3317
857.931	3294
858.064	3192
858.197	3291
858.331	3157
858.464	3150
858.597	3032
858.731	3146
858.864	3214
858.997	3146
859.13	3226
859.263	3233
859.396	3249
859.529	3123
859.662	3108
859.795	3077
859.928	3180
860.061	3329
860.194	3329
860.327	3150
860.46	3176
860.592	3279
860.725	3325
860.858	3291
860.99	3142
861.123	3127
861.256	3089
861.388	3211
861.521	3762
861.653	3066
861.786	3055
861.918	3028
862.05	3138
862.183	3138
862.315	3195
862.447	3218
862.58	3161
862.712	2979
862.844	2948
862.976	3070
863.108	3058
863.24	3363
863.372	2933
863.504	3028
863.636	2975
863.768	3081
863.9	3001
864.032	2948
864.164	2998
864.296	3036
864.428	3123
864.559	3135
864.691	3131
864.823	3127
864.954	3066
865.086	3074
865.217	3051
865.349	3009
865.48	3009
865.612	3093
865.743	3207
865.875	3062
866.006	2998
866.137	3020
866.269	2979
866.4	2963
866.531	2963
866.662	2948
866.793	2944
866.924	2918
867.055	3024
867.186	2990
867.317	2914
867.448	2857
867.579	2883
867.71	2918
867.841	2842
867.972	2925
868.103	2944
868.233	2960
868.364	2933
868.495	2967
868.625	3070
868.756	3222
868.886	3001
869.017	3043
869.147	3226
869.278	3207
869.408	3066
869.539	3081
869.669	3165
869.799	3093
869.929	3173
870.06	3142
870.19	3370
870.32	3275
870.45	3351
870.58	3412
870.71	3496
870.84	3466
870.97	3321
871.1	3268
871.23	3515
871.36	3557
871.489	3443
871.619	3435
871.749	3462
871.879	3431
872.008	3477
872.138	3397
872.267	3298
872.397	3180
872.526	3184
872.656	3051
872.785	3116
872.915	3325
873.044	3351
873.173	3291
873.303	3287
873.432	3253
873.561	3325
873.69	3207
873.819	3203
873.948	3192
874.077	3154
874.206	3097
874.335	3142
874.464	3214
874.593	3409
874.722	3268
874.851	3420
874.979	3363
875.108	3317
875.237	3241
875.365	3211
875.494	3184
875.623	3291
875.751	3154
875.88	3165
876.008	3233
876.136	3279
876.265	3439
876.393	3587
876.521	3435
876.65	3439
876.778	3397
876.906	3294
877.034	3226
877.162	3245
877.29	3237
877.418	3291
877.546	3268
877.674	3291
877.802	3283
877.93	3264
878.058	3138
878.185	3146
878.313	3222
878.441	3241
878.568	3116
878.696	3169
878.824	3287
878.951	3306
879.079	3466
879.206	3652
879.333	3488
879.461	3363
879.588	3367
879.715	3507
879.842	3618
879.97	3443
880.097	3188
880.224	3173
880.351	3241
880.478	3249
880.605	3207
880.732	3173
880.859	3515
880.986	3370
881.112	3389
881.239	3218
881.366	3169
881.493	3036
881.619	3062
881.746	3093
881.872	3131
881.999	3150
882.125	3184
882.252	3260
882.378	3336
882.505	3466
882.631	3317
882.757	3169
882.883	3222
883.01	3245
883.136	3203
883.262	3123
883.388	3161
883.514	3386
883.64	3412
883.766	3348
883.892	3233
884.018	3313
884.143	3435
884.269	3584
884.395	3237
884.52	3184
884.646	3233
884.772	3135
884.897	3108
885.023	3260
885.148	3378
885.274	3439
885.399	3386
885.524	3321
885.65	3302
885.775	3317
885.9	3249
886.025	3488
886.15	3428
886.275	3340
886.4	3256
886.525	3351
886.65	3306
886.775	3336
886.9	3572
887.025	3671
887.149	3473
887.274	3275
887.399	3203
887.523	3222
887.648	3184
887.773	3241
887.897	3447
888.021	3454
888.146	3340
888.27	3481
888.395	3564
888.519	3469
888.643	3526
888.767	3473
888.891	3382
889.015	3287
889.139	3302
889.263	3268
889.387	3431
889.511	3553
889.635	3466
889.759	3310
889.883	3302
890.006	3420
890.13	3507
890.254	3283
890.377	3405
890.501	3222
890.624	3226
890.748	3317
890.871	3249
890.995	3142
891.118	3070
891.241	3214
891.364	3260
891.488	3351
891.611	3241
891.734	3283
891.857	3317
891.98	3275
892.103	3367
892.226	3291
892.349	3237
892.471	3154
892.594	3291
892.717	3298
892.839	3325
892.962	3306
893.085	3374
893.207	3340
893.33	3207
893.452	3264
893.575	3363
893.697	3283
893.819	3511
893.941	3511
894.064	3504
894.186	3332
894.308	3310
894.43	3511
894.552	3568
894.674	3504
894.796	3325
894.918	3363
895.04	3336
895.161	3447
895.283	3409
895.405	3351
895.526	3363
895.648	3447
895.769	3462
895.891	3458
896.012	3515
896.134	3538
896.255	3435
896.376	3386
896.498	3386
896.619	3431
896.74	3386
896.861	3466
896.982	3743
897.103	3892
897.224	3644
897.345	3492
897.466	3488
897.587	3500
897.708	3652
897.828	3599
897.949	3435
898.07	3306
898.19	3420
898.311	3644
898.431	3473
898.552	3584
898.672	3584
898.792	3599
898.913	3496
899.033	3477
899.153	3298
899.273	3268
899.393	3340
899.513	3351
899.633	3340
899.753	3348
899.873	3321
899.993	3386
900.113	3393
900.232	3424
900.352	3336
900.472	3291
900.591	3222
900.711	3306
900.83	3230
900.95	3443
901.069	3507
901.189	3386
901.308	3230
901.427	3112
901.546	3241
901.665	3310
901.784	3348
901.904	3253
902.023	3165
902.141	3013
902.26	3009
902.379	3176
902.498	3116
902.617	3119
902.735	3230
902.854	3272
902.973	3237
903.091	3043
903.21	3104
903.328	3131
903.446	3142
903.565	3112
903.683	3226
903.801	3135
903.919	3291
904.038	3336
904.156	3138
904.274	3340
904.392	3279
904.51	3317
904.627	3351
904.745	3492
904.863	3542
904.981	3298
905.098	3211
905.216	3283
905.334	3317
905.451	3348
905.569	3355
905.686	3466
905.803	3477
905.921	3298
906.038	3454
906.155	3374
906.272	3279
906.389	3401
906.506	3275
906.623	3325
906.74	3306
906.857	3237
906.974	3253
907.091	3469
907.208	3568
907.324	3553
907.441	3409
907.557	3291
907.674	3256
907.79	3260
907.907	3310
908.023	3409
908.139	3412
908.256	3382
908.372	3428
908.488	3389
908.604	3264
908.72	3283
908.836	3329
908.952	3321
909.068	3363
909.184	3496
909.3	3374
909.415	3511
909.531	3488
909.647	3291
909.762	3306
909.878	3294
909.993	3389
910.108	3336
910.224	3317
910.339	3420
910.454	3336
910.57	3321
910.685	3294
910.8	3614
910.915	3549
911.03	3469
911.145	3275
911.259	3272
911.374	3351
911.489	3294
911.604	3298
911.718	3169
911.833	3169
911.947	3051
912.062	3005
912.176	3195
912.291	3241
912.405	3241
912.519	3439
912.633	3458
912.748	3416
912.862	3306
912.976	3184
913.09	3081
913.204	3188
913.318	3268
913.431	3382
913.545	3374
913.659	3412
913.772	3367
913.886	3268
914	3249
914.113	3397
914.226	3454
914.34	3424
914.453	3249
914.566	3424
914.68	3287
914.793	3340
914.906	3173
915.019	3116
915.132	3097
915.245	3211
915.358	3237
915.47	3253
915.583	3249
915.696	3340
915.809	3469
915.921	3466
916.034	3291
916.146	3272
916.259	3249
916.371	3386
916.483	3351
916.595	3306
916.708	3386
916.82	3378
916.932	3374
917.044	3344
917.156	3355
917.268	3264
917.38	3310
917.491	3306
917.603	3409
917.715	3466
917.826	3462
917.938	3420
918.049	3351
918.161	3435
918.272	3580
918.384	3587
918.495	3492
918.606	3355
918.717	3294
918.828	3393
918.939	3424
919.05	3329
919.161	3393
919.272	3233
919.383	3313
919.494	3519
919.604	3698
919.715	3507
919.826	3431
919.936	3435
920.047	3572
920.157	3610
920.267	3819
920.378	3625
920.488	3603
920.598	3774
920.708	3960
920.818	3854
920.928	3846
921.038	4044
921.148	4040
921.258	3732
921.368	3652
921.477	3599
921.587	3576
921.697	3496
921.806	3663
921.916	3553
922.025	3374
922.134	3393
922.244	3351
922.353	3469
922.462	3310
922.571	3241
922.68	3150
922.789	3093
922.898	3192
923.007	3119
923.116	3237
923.224	3184
923.333	3226
923.442	3123
923.55	3154
923.659	3188
923.767	3249
923.876	3131
923.984	3264
924.092	3104
924.201	3199
924.309	3245
924.417	3283
924.525	3203
924.633	3264
924.741	4139
924.849	3074
924.956	3272
925.064	3138
925.172	3104
925.279	3138
925.387	3180
925.494	3230
925.602	3363
925.709	3374
925.816	3195
925.924	3302
926.031	3389
926.138	3321
926.245	3393
926.352	3313
926.459	3428
926.566	3500
926.673	3317
926.779	3253
926.886	3283
926.993	3192
927.099	3150
927.206	3150
927.312	3097
927.419	3283
927.525	3249
927.631	3325
927.737	3169
927.843	3108
927.95	3039
928.056	3131
928.162	3211
928.267	3279
928.373	3865
928.479	3325
928.585	3112
928.69	3188
928.796	3291
928.901	3154
929.007	3028
929.112	3222
929.218	3192
929.323	3142
929.428	3199
929.533	3351
929.638	3116
929.743	3165
929.848	3275
929.953	3233
930.058	3150
930.163	2975
930.267	3058
930.372	3230
930.477	3070
930.581	3336
930.685	3188
930.79	3077
930.894	3150
930.998	3116
931.103	3313
931.207	2998
931.311	2956
931.415	2948
931.519	2830
931.623	2815
