Data from test_V78500241_415.txt Node
Date: Fri Mar 25 16:18:04 CST 2022
User: usil
Spectrometer: V785-0024
Trigger mode: 0
Integration Time (sec): 4.000000E-1
Scans to average: 1
Nonlinearity correction enabled: false
Boxcar width: 0
Storing dark spectrum: false
XAxis mode: Wavelengths
Number of Pixels in Spectrum: 1024
>>>>>Begin Spectral Data<<<<<
801.071	2910
801.214	2948
801.356	2864
801.499	2914
801.641	2887
801.783	2910
801.926	3039
802.068	2960
802.211	2944
802.353	3017
802.496	2971
802.638	2975
802.78	3043
802.923	3036
803.065	2971
803.208	2883
803.35	2906
803.492	2899
803.635	2910
803.777	2750
803.919	2838
804.061	3176
804.204	2933
804.346	2891
804.488	2823
804.63	2994
804.773	2880
804.915	2918
805.057	3081
805.199	2895
805.341	2971
805.483	3017
805.626	2979
805.768	2941
805.91	3070
806.052	3085
806.194	3051
806.336	3218
806.478	3017
806.62	2960
806.762	2944
806.904	3062
807.046	3138
807.188	3001
807.33	2899
807.472	2982
807.614	2918
807.756	2960
807.898	2925
808.04	2883
808.182	2944
808.324	2963
808.465	2864
808.607	2853
808.749	2830
808.891	2826
809.033	2941
809.174	2937
809.316	2899
809.458	2876
809.6	2777
809.741	2758
809.883	2773
810.025	2834
810.166	2868
810.308	2823
810.45	2872
810.591	2758
810.733	2804
810.875	2781
811.016	2739
811.158	2788
811.299	2804
811.441	2914
811.582	2883
811.724	2823
811.865	2853
812.007	2861
812.148	2880
812.29	2861
812.431	2883
812.573	2918
812.714	2944
812.855	3013
812.997	3055
813.138	3085
813.279	2975
813.421	2948
813.562	2925
813.703	2861
813.845	2918
813.986	2781
814.127	2705
814.268	2800
814.41	2811
814.551	2815
814.692	2902
814.833	2819
814.974	2876
815.115	2941
815.256	2842
815.397	2830
815.539	2857
815.68	2781
815.821	2800
815.962	2883
816.103	2895
816.244	2880
816.385	2845
816.526	2975
816.666	2925
816.807	2724
816.948	2902
817.089	2929
817.23	2868
817.371	2766
817.512	2781
817.653	2819
817.793	2811
817.934	2891
818.075	2929
818.216	2990
818.356	2990
818.497	2853
818.638	2750
818.778	2842
818.919	2792
819.06	2769
819.2	2849
819.341	2804
819.481	2800
819.622	2899
819.762	3127
819.903	3036
820.043	2868
820.184	2887
820.324	2861
820.465	3001
820.605	3024
820.746	3009
820.886	2941
821.026	3142
821.167	3173
821.307	3268
821.447	3298
821.588	3256
821.728	3203
821.868	3165
822.008	3089
822.149	3161
822.289	3211
822.429	3077
822.569	3074
822.709	3138
822.849	3043
822.99	3100
823.13	3119
823.27	3161
823.41	3123
823.55	3131
823.69	3123
823.83	3150
823.97	3085
824.11	3024
824.25	2982
824.389	3077
824.529	3097
824.669	3108
824.809	3176
824.949	3249
825.089	3192
825.228	3142
825.368	2994
825.508	2971
825.648	2979
825.787	2986
825.927	3001
826.067	2937
826.206	2948
826.346	3020
826.485	3066
826.625	3100
826.765	3253
826.904	3222
827.044	2963
827.183	2910
827.323	2868
827.462	3024
827.601	2872
827.741	2925
827.88	2944
828.02	2845
828.159	2979
828.298	3013
828.437	3097
828.577	3020
828.716	3211
828.855	3070
828.994	2918
829.134	2880
829.273	2895
829.412	2838
829.551	2823
829.69	2872
829.829	2933
829.968	3150
830.107	2986
830.246	3005
830.385	2918
830.524	2880
830.663	2796
830.802	2769
830.941	2648
831.08	2640
831.219	2769
831.357	2731
831.496	2933
831.635	2716
831.774	2651
831.913	2629
832.051	2537
832.19	2579
832.329	2663
832.467	2560
832.606	2488
832.744	2552
832.883	2594
833.022	2579
833.16	2651
833.299	2659
833.437	2678
833.576	2693
833.714	2689
833.852	2701
833.991	2750
834.129	2853
834.267	2811
834.406	2792
834.544	2853
834.682	2864
834.821	2842
834.959	3085
835.097	2899
835.235	3001
835.373	2990
835.511	3020
835.65	2922
835.788	2960
835.926	2815
836.064	2804
836.202	2849
836.34	3085
836.478	3138
836.615	3009
836.753	3138
836.891	3165
837.029	3180
837.167	3097
837.305	3055
837.443	3028
837.58	2944
837.718	3108
837.856	3043
837.993	3024
838.131	3119
838.269	3077
838.406	3085
838.544	3085
838.681	2925
838.819	2864
838.956	2819
839.094	2838
839.231	2933
839.369	3017
839.506	3359
839.643	3207
839.781	3020
839.918	2944
840.055	3066
840.193	3017
840.33	3043
840.467	3104
840.604	3150
840.742	3351
840.879	3024
841.016	3058
841.153	3062
841.29	3317
841.427	3245
841.564	3226
841.701	3332
841.838	3173
841.975	3165
842.112	3199
842.249	3039
842.385	3020
842.522	3241
842.659	3100
842.796	3043
842.933	3089
843.069	3005
843.206	3039
843.343	3199
843.479	3100
843.616	3108
843.752	2842
843.889	2842
844.025	3051
844.162	2880
844.298	3051
844.435	2944
844.571	2895
844.708	3081
844.844	3142
844.98	3176
845.117	3146
845.253	3047
845.389	2990
845.525	3077
845.661	3100
845.798	3005
845.934	3070
846.07	3024
846.206	3195
846.342	3332
846.478	3165
846.614	3116
846.75	2998
846.886	2994
847.022	3211
847.158	3131
847.294	3176
847.429	3249
847.565	3184
847.701	3523
847.837	3043
847.972	2952
848.108	3104
848.244	3119
848.379	2963
848.515	2922
848.65	2929
848.786	2967
848.921	2975
849.057	3066
849.192	3112
849.328	3039
849.463	3085
849.598	3062
849.734	2990
849.869	2948
850.004	2929
850.14	2979
850.275	2891
850.41	2876
850.545	2880
850.68	2922
850.815	2963
850.95	2990
851.085	3226
851.22	3142
851.355	3058
851.49	3005
851.625	3028
851.76	3051
851.895	2956
852.03	2925
852.165	3055
852.299	3097
852.434	3211
852.569	3154
852.703	3241
852.838	3268
852.973	3344
853.107	3355
853.242	3203
853.376	3127
853.511	2960
853.645	3055
853.78	3226
853.914	3173
854.048	3135
854.183	3104
854.317	3150
854.451	3348
854.585	3173
854.72	3123
854.854	3222
854.988	3089
855.122	3104
855.256	2982
855.39	3184
855.524	3272
855.658	3226
855.792	3195
855.926	3192
856.06	3256
856.194	3260
856.327	3203
856.461	3104
856.595	3154
856.729	3127
856.862	3211
856.996	3165
857.13	3214
857.263	3287
857.397	3283
857.53	3135
857.664	3233
857.797	3253
857.931	3313
858.064	3180
858.197	3222
858.331	3157
858.464	3123
858.597	3032
858.731	3154
858.864	3154
858.997	3138
859.13	3218
859.263	3203
859.396	3245
859.529	3089
859.662	3089
859.795	3062
859.928	3195
860.061	3287
860.194	3363
860.327	3173
860.46	3104
860.592	3298
860.725	3298
860.858	3310
860.99	3173
861.123	3058
861.256	3081
861.388	3188
861.521	3861
861.653	3032
861.786	3070
861.918	3074
862.05	3116
862.183	3108
862.315	3180
862.447	3192
862.58	3188
862.712	2956
862.844	2910
862.976	3066
863.108	3024
863.24	3443
863.372	2914
863.504	3001
863.636	2963
863.768	3047
863.9	3001
864.032	2952
864.164	2971
864.296	3058
864.428	3097
864.559	3112
864.691	3047
864.823	3074
864.954	3089
865.086	3081
865.217	2998
865.349	2986
865.48	3009
865.612	3043
865.743	3192
865.875	3009
866.006	2967
866.137	3005
866.269	2982
866.4	3013
866.531	2960
866.662	2910
866.793	2922
866.924	2910
867.055	3009
867.186	2922
867.317	2948
867.448	2868
867.579	2868
867.71	2861
867.841	2815
867.972	2944
868.103	2910
868.233	2941
868.364	2899
868.495	2941
868.625	3104
868.756	3203
868.886	2990
869.017	3043
869.147	3199
869.278	3165
869.408	3093
869.539	3009
869.669	3123
869.799	3081
869.929	3123
870.06	3131
870.19	3363
870.32	3310
870.45	3317
870.58	3401
870.71	3469
870.84	3492
870.97	3310
871.1	3264
871.23	3523
871.36	3538
871.489	3382
871.619	3428
871.749	3439
871.879	3443
872.008	3488
872.138	3393
872.267	3332
872.397	3199
872.526	3154
872.656	3024
872.785	3150
872.915	3256
873.044	3382
873.173	3214
873.303	3275
873.432	3268
873.561	3256
873.69	3226
873.819	3157
873.948	3218
874.077	3165
874.206	3047
874.335	3116
874.464	3268
874.593	3374
874.722	3283
874.851	3447
874.979	3386
875.108	3329
875.237	3233
875.365	3192
875.494	3192
875.623	3298
875.751	3150
875.88	3135
876.008	3222
876.136	3260
876.265	3401
876.393	3553
876.521	3454
876.65	3386
876.778	3378
876.906	3283
877.034	3207
877.162	3253
877.29	3176
877.418	3264
877.546	3253
877.674	3279
877.802	3260
877.93	3260
878.058	3142
878.185	3119
878.313	3245
878.441	3253
878.568	3047
878.696	3184
878.824	3291
878.951	3336
879.079	3507
879.206	3667
879.333	3435
879.461	3397
879.588	3393
879.715	3504
879.842	3603
879.97	3420
880.097	3184
880.224	3146
880.351	3226
880.478	3275
880.605	3222
880.732	3184
880.859	3488
880.986	3329
881.112	3325
881.239	3241
881.366	3131
881.493	3043
881.619	3028
881.746	3142
881.872	3116
881.999	3142
882.125	3188
882.252	3218
882.378	3298
882.505	3420
882.631	3287
882.757	3131
882.883	3241
883.01	3230
883.136	3218
883.262	3135
883.388	3123
883.514	3332
883.64	3393
883.766	3313
883.892	3230
884.018	3256
884.143	3466
884.269	3599
884.395	3245
884.52	3192
884.646	3214
884.772	3123
884.897	3119
885.023	3230
885.148	3378
885.274	3466
885.399	3416
885.524	3291
885.65	3279
885.775	3359
885.9	3325
886.025	3466
886.15	3416
886.275	3317
886.4	3283
886.525	3291
886.65	3310
886.775	3310
886.9	3507
887.025	3671
887.149	3393
887.274	3249
887.399	3199
887.523	3237
887.648	3184
887.773	3260
887.897	3420
888.021	3473
888.146	3344
888.27	3431
888.395	3545
888.519	3477
888.643	3488
888.767	3523
888.891	3340
889.015	3291
889.139	3298
889.263	3272
889.387	3431
889.511	3538
889.635	3473
889.759	3355
889.883	3336
890.006	3424
890.13	3504
890.254	3294
890.377	3386
890.501	3218
890.624	3165
890.748	3298
890.871	3192
890.995	3131
891.118	3062
891.241	3203
891.364	3283
891.488	3313
891.611	3214
891.734	3272
891.857	3264
891.98	3253
892.103	3329
892.226	3294
892.349	3226
892.471	3165
892.594	3253
892.717	3298
892.839	3268
892.962	3310
893.085	3397
893.207	3317
893.33	3180
893.452	3256
893.575	3355
893.697	3260
893.819	3507
893.941	3485
894.064	3443
894.186	3325
894.308	3313
894.43	3496
894.552	3561
894.674	3485
894.796	3306
894.918	3340
895.04	3306
895.161	3412
895.283	3397
895.405	3367
895.526	3370
895.648	3443
895.769	3500
895.891	3458
896.012	3439
896.134	3488
896.255	3389
896.376	3420
896.498	3389
896.619	3439
896.74	3386
896.861	3389
896.982	3698
897.103	3873
897.224	3625
897.345	3545
897.466	3447
897.587	3485
897.708	3656
897.828	3553
897.949	3469
898.07	3325
898.19	3424
898.311	3648
898.431	3507
898.552	3530
898.672	3625
898.792	3584
898.913	3549
899.033	3424
899.153	3306
899.273	3222
899.393	3298
899.513	3332
899.633	3351
899.753	3325
899.873	3340
899.993	3389
900.113	3344
900.232	3466
900.352	3306
900.472	3260
900.591	3207
900.711	3329
900.83	3264
900.95	3462
901.069	3515
901.189	3329
901.308	3192
901.427	3154
901.546	3180
901.665	3287
901.784	3351
901.904	3222
902.023	3157
902.141	3032
902.26	3051
902.379	3176
902.498	3089
902.617	3093
902.735	3207
902.854	3268
902.973	3207
903.091	3055
903.21	3089
903.328	3173
903.446	3165
903.565	3085
903.683	3256
903.801	3142
903.919	3279
904.038	3321
904.156	3176
904.274	3321
904.392	3256
904.51	3317
904.627	3329
904.745	3416
904.863	3534
904.981	3272
905.098	3184
905.216	3226
905.334	3329
905.451	3332
905.569	3344
905.686	3397
905.803	3431
905.921	3336
906.038	3412
906.155	3397
906.272	3306
906.389	3348
906.506	3207
906.623	3245
906.74	3298
906.857	3222
906.974	3260
907.091	3466
907.208	3545
907.324	3507
907.441	3397
907.557	3237
907.674	3256
907.79	3249
907.907	3306
908.023	3428
908.139	3351
908.256	3321
908.372	3409
908.488	3397
908.604	3272
908.72	3283
908.836	3291
908.952	3260
909.068	3332
909.184	3542
909.3	3431
909.415	3485
909.531	3481
909.647	3306
909.762	3336
909.878	3260
909.993	3363
910.108	3359
910.224	3363
910.339	3420
910.454	3344
910.57	3294
910.685	3237
910.8	3584
910.915	3538
911.03	3439
911.145	3325
911.259	3268
911.374	3359
911.489	3253
911.604	3241
911.718	3135
911.833	3188
911.947	3051
912.062	2994
912.176	3192
912.291	3150
912.405	3230
912.519	3443
912.633	3458
912.748	3351
912.862	3287
912.976	3173
913.09	3020
913.204	3138
913.318	3211
913.431	3363
913.545	3367
913.659	3428
913.772	3340
913.886	3214
914	3184
914.113	3313
914.226	3424
914.34	3386
914.453	3214
914.566	3393
914.68	3279
914.793	3272
914.906	3157
915.019	3123
915.132	3089
915.245	3188
915.358	3249
915.47	3249
915.583	3279
915.696	3298
915.809	3420
915.921	3401
916.034	3245
916.146	3272
916.259	3237
916.371	3389
916.483	3401
916.595	3287
916.708	3340
916.82	3389
916.932	3302
917.044	3359
917.156	3298
917.268	3253
917.38	3367
917.491	3291
917.603	3412
917.715	3466
917.826	3500
917.938	3393
918.049	3291
918.161	3450
918.272	3591
918.384	3580
918.495	3511
918.606	3355
918.717	3287
918.828	3405
918.939	3412
919.05	3317
919.161	3359
919.272	3222
919.383	3321
919.494	3466
919.604	3724
919.715	3534
919.826	3458
919.936	3526
920.047	3591
920.157	3603
920.267	3789
920.378	3610
920.488	3629
920.598	3789
920.708	3975
920.818	3873
920.928	3896
921.038	4044
921.148	4051
921.258	3747
921.368	3667
921.477	3641
921.587	3538
921.697	3504
921.806	3694
921.916	3587
922.025	3393
922.134	3412
922.244	3344
922.353	3435
922.462	3321
922.571	3256
922.68	3135
922.789	3131
922.898	3176
923.007	3157
923.116	3256
923.224	3256
923.333	3207
923.442	3135
923.55	3116
923.659	3173
923.767	3260
923.876	3161
923.984	3294
924.092	3157
924.201	3226
924.309	3260
924.417	3321
924.525	3249
924.633	3302
924.741	4253
924.849	3097
924.956	3321
925.064	3180
925.172	3119
925.279	3142
925.387	3249
925.494	3233
925.602	3393
925.709	3386
925.816	3249
925.924	3336
926.031	3412
926.138	3367
926.245	3397
926.352	3233
926.459	3447
926.566	3549
926.673	3351
926.779	3245
926.886	3264
926.993	3176
927.099	3146
927.206	3150
927.312	3154
927.419	3279
927.525	3245
927.631	3325
927.737	3180
927.843	3165
927.95	3074
928.056	3123
928.162	3207
928.267	3298
928.373	3918
928.479	3332
928.585	3081
928.69	3268
928.796	3283
928.901	3214
929.007	3081
929.112	3283
929.218	3195
929.323	3169
929.428	3199
929.533	3355
929.638	3112
929.743	3230
929.848	3275
929.953	3256
930.058	3214
930.163	3058
930.267	3097
930.372	3249
930.477	3058
930.581	3348
930.685	3203
930.79	3104
930.894	3154
930.998	3138
931.103	3306
931.207	3013
931.311	2986
931.415	2933
931.519	2826
931.623	2853
