Data from test_V78500241_563.txt Node
Date: Fri Mar 25 16:19:06 CST 2022
User: usil
Spectrometer: V785-0024
Trigger mode: 0
Integration Time (sec): 4.000000E-1
Scans to average: 1
Nonlinearity correction enabled: false
Boxcar width: 0
Storing dark spectrum: false
XAxis mode: Wavelengths
Number of Pixels in Spectrum: 1024
>>>>>Begin Spectral Data<<<<<
801.071	2891
801.214	2952
801.356	2845
801.499	2914
801.641	2899
801.783	2922
801.926	3043
802.068	2975
802.211	2979
802.353	3055
802.496	2967
802.638	3017
802.78	3028
802.923	3081
803.065	3089
803.208	2902
803.35	2944
803.492	2899
803.635	2937
803.777	2754
803.919	2880
804.061	3214
804.204	2963
804.346	2933
804.488	2876
804.63	3009
804.773	2899
804.915	2975
805.057	3104
805.199	2937
805.341	2990
805.483	3043
805.626	3032
805.768	2941
805.91	3047
806.052	3112
806.194	3055
806.336	3214
806.478	3043
806.62	2960
806.762	2994
806.904	3043
807.046	3173
807.188	2960
807.33	2910
807.472	2975
807.614	2910
807.756	2960
807.898	2918
808.04	2883
808.182	2986
808.324	2952
808.465	2899
808.607	2876
808.749	2762
808.891	2861
809.033	2956
809.174	2948
809.316	2876
809.458	2895
809.6	2781
809.741	2766
809.883	2754
810.025	2830
810.166	2830
810.308	2826
810.45	2845
810.591	2762
810.733	2754
810.875	2838
811.016	2773
811.158	2739
811.299	2826
811.441	2918
811.582	2887
811.724	2769
811.865	2823
812.007	2922
812.148	2891
812.29	2834
812.431	2933
812.573	2944
812.714	2956
812.855	3024
812.997	3051
813.138	3131
813.279	3017
813.421	2990
813.562	2902
813.703	2857
813.845	2872
813.986	2766
814.127	2739
814.268	2864
814.41	2864
814.551	2819
814.692	2853
814.833	2857
814.974	2857
815.115	2979
815.256	2788
815.397	2800
815.539	2864
815.68	2781
815.821	2804
815.962	2941
816.103	2906
816.244	2853
816.385	2861
816.526	2956
816.666	2880
816.807	2766
816.948	2872
817.089	2899
817.23	2826
817.371	2777
817.512	2807
817.653	2838
817.793	2838
817.934	2880
818.075	2971
818.216	2960
818.356	2986
818.497	2899
818.638	2788
818.778	2804
818.919	2804
819.06	2716
819.2	2876
819.341	2785
819.481	2781
819.622	2952
819.762	3093
819.903	3043
820.043	2906
820.184	2910
820.324	2895
820.465	3024
820.605	3009
820.746	3017
820.886	2925
821.026	3100
821.167	3150
821.307	3256
821.447	3245
821.588	3222
821.728	3226
821.868	3195
822.008	3074
822.149	3188
822.289	3218
822.429	3081
822.569	3055
822.709	3123
822.849	3051
822.99	3036
823.13	3142
823.27	3226
823.41	3161
823.55	3135
823.69	3142
823.83	3165
823.97	3123
824.11	2986
824.25	3032
824.389	3051
824.529	3165
824.669	3055
824.809	3203
824.949	3306
825.089	3211
825.228	3161
825.368	2986
825.508	2956
825.648	2952
825.787	3009
825.927	3051
826.067	2975
826.206	2956
826.346	3039
826.485	3066
826.625	3112
826.765	3287
826.904	3230
827.044	3039
827.183	2948
827.323	2872
827.462	3028
827.601	2899
827.741	2963
827.88	2979
828.02	2887
828.159	3013
828.298	3051
828.437	3138
828.577	3074
828.716	3287
828.855	3112
828.994	2948
829.134	2933
829.273	2963
829.412	2906
829.551	2902
829.69	2944
829.829	2971
829.968	3192
830.107	3043
830.246	3093
830.385	2963
830.524	2929
830.663	2914
830.802	2785
830.941	2705
831.08	2716
831.219	2807
831.357	2777
831.496	3013
831.635	2792
831.774	2697
831.913	2689
832.051	2610
832.19	2606
832.329	2701
832.467	2587
832.606	2503
832.744	2621
832.883	2613
833.022	2613
833.16	2667
833.299	2724
833.437	2716
833.576	2746
833.714	2796
833.852	2781
833.991	2769
834.129	2861
834.267	2883
834.406	2842
834.544	2883
834.682	2941
834.821	2902
834.959	3100
835.097	2944
835.235	3100
835.373	3009
835.511	3013
835.65	2967
835.788	2967
835.926	2872
836.064	2819
836.202	2876
836.34	3116
836.478	3188
836.615	3085
836.753	3142
836.891	3241
837.029	3218
837.167	3104
837.305	3123
837.443	3074
837.58	2998
837.718	3161
837.856	3070
837.993	3074
838.131	3165
838.269	3138
838.406	3150
838.544	3131
838.681	2952
838.819	2933
838.956	2853
839.094	2861
839.231	2956
839.369	3074
839.506	3374
839.643	3195
839.781	3043
839.918	3009
840.055	3112
840.193	3089
840.33	3070
840.467	3142
840.604	3142
840.742	3393
840.879	3058
841.016	3104
841.153	3138
841.29	3405
841.427	3344
841.564	3287
841.701	3317
841.838	3260
841.975	3218
842.112	3207
842.249	3146
842.385	3047
842.522	3275
842.659	3157
842.796	3062
842.933	3146
843.069	3066
843.206	3043
843.343	3214
843.479	3108
843.616	3176
843.752	2933
843.889	2922
844.025	3150
844.162	2906
844.298	3112
844.435	2941
844.571	2979
844.708	3081
844.844	3176
844.98	3310
845.117	3203
845.253	3089
845.389	3043
845.525	3123
845.661	3138
845.798	3009
845.934	3146
846.07	3085
846.206	3218
846.342	3317
846.478	3283
846.614	3127
846.75	3047
846.886	3043
847.022	3275
847.158	3154
847.294	3230
847.429	3298
847.565	3237
847.701	3530
847.837	3089
847.972	3009
848.108	3176
848.244	3188
848.379	3020
848.515	3005
848.65	2956
848.786	2982
848.921	3032
849.057	3119
849.192	3161
849.328	3108
849.463	3150
849.598	3108
849.734	3043
849.869	3013
850.004	2944
850.14	2994
850.275	2948
850.41	2910
850.545	2918
850.68	2963
850.815	3017
850.95	2963
851.085	3188
851.22	3173
851.355	3051
851.49	2998
851.625	3024
851.76	3058
851.895	2971
852.03	2941
852.165	3070
852.299	3169
852.434	3180
852.569	3146
852.703	3169
852.838	3237
852.973	3393
853.107	3370
853.242	3165
853.376	3093
853.511	3020
853.645	3066
853.78	3249
853.914	3169
854.048	3142
854.183	3100
854.317	3195
854.451	3321
854.585	3142
854.72	3146
854.854	3245
854.988	3047
855.122	3119
855.256	3009
855.39	3165
855.524	3264
855.658	3169
855.792	3176
855.926	3222
856.06	3249
856.194	3275
856.327	3116
856.461	3085
856.595	3119
856.729	3100
856.862	3230
856.996	3218
857.13	3233
857.263	3272
857.397	3283
857.53	3138
857.664	3203
857.797	3260
857.931	3279
858.064	3195
858.197	3230
858.331	3138
858.464	3119
858.597	2998
858.731	3131
858.864	3180
858.997	3097
859.13	3173
859.263	3203
859.396	3253
859.529	3131
859.662	3081
859.795	3055
859.928	3154
860.061	3332
860.194	3306
860.327	3135
860.46	3116
860.592	3249
860.725	3272
860.858	3268
860.99	3142
861.123	3123
861.256	3062
861.388	3127
861.521	3717
861.653	3032
861.786	3009
861.918	3047
862.05	3081
862.183	3089
862.315	3188
862.447	3195
862.58	3085
862.712	2986
862.844	2910
862.976	3032
863.108	3017
863.24	3435
863.372	2880
863.504	2998
863.636	2975
863.768	3020
863.9	2994
864.032	2895
864.164	2963
864.296	3028
864.428	3104
864.559	3100
864.691	3058
864.823	3123
864.954	3058
865.086	3024
865.217	2998
865.349	2963
865.48	2986
865.612	3062
865.743	3173
865.875	3017
866.006	2948
866.137	2979
866.269	2937
866.4	2967
866.531	2922
866.662	2902
866.793	2925
866.924	2906
867.055	2975
867.186	2960
867.317	2910
867.448	2864
867.579	2845
867.71	2902
867.841	2823
867.972	2922
868.103	2922
868.233	2910
868.364	2910
868.495	2929
868.625	3074
868.756	3211
868.886	2956
869.017	3032
869.147	3161
869.278	3214
869.408	3051
869.539	3017
869.669	3108
869.799	3055
869.929	3169
870.06	3127
870.19	3306
870.32	3283
870.45	3336
870.58	3389
870.71	3462
870.84	3481
870.97	3294
871.1	3260
871.23	3485
871.36	3462
871.489	3386
871.619	3401
871.749	3416
871.879	3458
872.008	3538
872.138	3405
872.267	3306
872.397	3176
872.526	3119
872.656	3036
872.785	3100
872.915	3256
873.044	3351
873.173	3226
873.303	3233
873.432	3249
873.561	3256
873.69	3188
873.819	3131
873.948	3180
874.077	3135
874.206	3055
874.335	3112
874.464	3207
874.593	3363
874.722	3291
874.851	3424
874.979	3344
875.108	3325
875.237	3199
875.365	3192
875.494	3226
875.623	3283
875.751	3116
875.88	3146
876.008	3233
876.136	3195
876.265	3359
876.393	3504
876.521	3469
876.65	3389
876.778	3393
876.906	3233
877.034	3184
877.162	3226
877.29	3184
877.418	3256
877.546	3226
877.674	3317
877.802	3241
877.93	3211
878.058	3199
878.185	3138
878.313	3203
878.441	3233
878.568	3051
878.696	3211
878.824	3264
878.951	3279
879.079	3424
879.206	3584
879.333	3443
879.461	3340
879.588	3420
879.715	3530
879.842	3591
879.97	3405
880.097	3169
880.224	3150
880.351	3211
880.478	3203
880.605	3222
880.732	3188
880.859	3477
880.986	3329
881.112	3344
881.239	3226
881.366	3119
881.493	3043
881.619	3066
881.746	3085
881.872	3146
881.999	3104
882.125	3195
882.252	3283
882.378	3249
882.505	3420
882.631	3321
882.757	3180
882.883	3203
883.01	3260
883.136	3161
883.262	3157
883.388	3146
883.514	3321
883.64	3397
883.766	3344
883.892	3176
884.018	3230
884.143	3409
884.269	3564
884.395	3226
884.52	3203
884.646	3173
884.772	3146
884.897	3146
885.023	3237
885.148	3359
885.274	3409
885.399	3393
885.524	3237
885.65	3253
885.775	3298
885.9	3256
886.025	3458
886.15	3367
886.275	3279
886.4	3211
886.525	3275
886.65	3310
886.775	3272
886.9	3542
887.025	3671
887.149	3435
887.274	3260
887.399	3184
887.523	3249
887.648	3211
887.773	3157
887.897	3397
888.021	3409
888.146	3329
888.27	3412
888.395	3515
888.519	3447
888.643	3458
888.767	3454
888.891	3344
889.015	3253
889.139	3294
889.263	3222
889.387	3409
889.511	3523
889.635	3424
889.759	3283
889.883	3287
890.006	3424
890.13	3515
890.254	3272
890.377	3348
890.501	3214
890.624	3203
890.748	3359
890.871	3188
890.995	3123
891.118	3081
891.241	3233
891.364	3218
891.488	3340
891.611	3192
891.734	3207
891.857	3332
891.98	3249
892.103	3374
892.226	3253
892.349	3230
892.471	3123
892.594	3249
892.717	3287
892.839	3287
892.962	3313
893.085	3363
893.207	3325
893.33	3146
893.452	3207
893.575	3355
893.697	3260
893.819	3469
893.941	3511
894.064	3477
894.186	3268
894.308	3291
894.43	3454
894.552	3534
894.674	3462
894.796	3313
894.918	3329
895.04	3287
895.161	3393
895.283	3447
895.405	3332
895.526	3363
895.648	3435
895.769	3412
895.891	3431
896.012	3496
896.134	3492
896.255	3443
896.376	3382
896.498	3386
896.619	3450
896.74	3329
896.861	3420
896.982	3690
897.103	3907
897.224	3610
897.345	3504
897.466	3447
897.587	3492
897.708	3603
897.828	3568
897.949	3447
898.07	3344
898.19	3401
898.311	3629
898.431	3458
898.552	3549
898.672	3625
898.792	3622
898.913	3538
899.033	3389
899.153	3317
899.273	3233
899.393	3279
899.513	3321
899.633	3336
899.753	3329
899.873	3310
899.993	3386
900.113	3336
900.232	3378
900.352	3321
900.472	3298
900.591	3192
900.711	3291
900.83	3249
900.95	3420
901.069	3473
901.189	3367
901.308	3176
901.427	3119
901.546	3188
901.665	3317
901.784	3344
901.904	3218
902.023	3180
902.141	3009
902.26	2986
902.379	3108
902.498	3066
902.617	3051
902.735	3203
902.854	3256
902.973	3180
903.091	3070
903.21	3070
903.328	3169
903.446	3146
903.565	3127
903.683	3237
903.801	3100
903.919	3268
904.038	3268
904.156	3184
904.274	3272
904.392	3233
904.51	3306
904.627	3344
904.745	3454
904.863	3511
904.981	3249
905.098	3180
905.216	3207
905.334	3313
905.451	3268
905.569	3279
905.686	3420
905.803	3431
905.921	3294
906.038	3420
906.155	3340
906.272	3237
906.389	3363
906.506	3264
906.623	3253
906.74	3294
906.857	3184
906.974	3253
907.091	3431
907.208	3549
907.324	3485
907.441	3397
907.557	3203
907.674	3241
907.79	3195
907.907	3275
908.023	3351
908.139	3412
908.256	3359
908.372	3359
908.488	3386
908.604	3275
908.72	3260
908.836	3249
908.952	3264
909.068	3355
909.184	3488
909.3	3370
909.415	3473
909.531	3496
909.647	3272
909.762	3279
909.878	3253
909.993	3344
910.108	3370
910.224	3340
910.339	3458
910.454	3325
910.57	3317
910.685	3283
910.8	3572
910.915	3553
911.03	3466
911.145	3241
911.259	3272
911.374	3310
911.489	3260
911.604	3256
911.718	3119
911.833	3218
911.947	3043
912.062	2990
912.176	3138
912.291	3173
912.405	3218
912.519	3443
912.633	3477
912.748	3389
912.862	3298
912.976	3165
913.09	3066
913.204	3142
913.318	3222
913.431	3348
913.545	3348
913.659	3416
913.772	3351
913.886	3226
914	3214
914.113	3355
914.226	3435
914.34	3386
914.453	3203
914.566	3447
914.68	3302
914.793	3321
914.906	3116
915.019	3085
915.132	3055
915.245	3192
915.358	3222
915.47	3211
915.583	3272
915.696	3275
915.809	3405
915.921	3420
916.034	3245
916.146	3279
916.259	3180
916.371	3409
916.483	3401
916.595	3260
916.708	3336
916.82	3332
916.932	3363
917.044	3336
917.156	3321
917.268	3249
917.38	3283
917.491	3291
917.603	3344
917.715	3473
917.826	3492
917.938	3386
918.049	3272
918.161	3435
918.272	3557
918.384	3587
918.495	3496
918.606	3329
918.717	3317
918.828	3374
918.939	3420
919.05	3275
919.161	3389
919.272	3214
919.383	3275
919.494	3545
919.604	3701
919.715	3485
919.826	3405
919.936	3409
920.047	3542
920.157	3549
920.267	3743
920.378	3595
920.488	3568
920.598	3781
920.708	3975
920.818	3812
920.928	3812
921.038	4013
921.148	3953
921.258	3717
921.368	3652
921.477	3561
921.587	3519
921.697	3462
921.806	3618
921.916	3515
922.025	3397
922.134	3359
922.244	3313
922.353	3424
922.462	3291
922.571	3245
922.68	3077
922.789	3066
922.898	3135
923.007	3104
923.116	3249
923.224	3146
923.333	3188
923.442	3100
923.55	3081
923.659	3157
923.767	3237
923.876	3112
923.984	3237
924.092	3119
924.201	3195
924.309	3199
924.417	3241
924.525	3173
924.633	3256
924.741	4040
924.849	3051
924.956	3283
925.064	3093
925.172	3039
925.279	3119
925.387	3226
925.494	3218
925.602	3363
925.709	3321
925.816	3222
925.924	3245
926.031	3420
926.138	3351
926.245	3363
926.352	3245
926.459	3409
926.566	3477
926.673	3340
926.779	3237
926.886	3233
926.993	3165
927.099	3112
927.206	3104
927.312	3135
927.419	3226
927.525	3237
927.631	3298
927.737	3138
927.843	3154
927.95	3036
928.056	3100
928.162	3180
928.267	3264
928.373	3793
928.479	3302
928.585	3066
928.69	3233
928.796	3222
928.901	3165
929.007	3017
929.112	3241
929.218	3176
929.323	3195
929.428	3161
929.533	3348
929.638	3135
929.743	3180
929.848	3298
929.953	3214
930.058	3116
930.163	2986
930.267	3058
930.372	3180
930.477	2994
930.581	3317
930.685	3180
930.79	3070
930.894	3142
930.998	3077
931.103	3268
931.207	2986
931.311	2929
931.415	2899
931.519	2762
931.623	2804
