Data from test_V78500241_37.txt Node
Date: Fri Mar 25 16:15:27 CST 2022
User: usil
Spectrometer: V785-0024
Trigger mode: 0
Integration Time (sec): 4.000000E-1
Scans to average: 1
Nonlinearity correction enabled: false
Boxcar width: 0
Storing dark spectrum: false
XAxis mode: Wavelengths
Number of Pixels in Spectrum: 1024
>>>>>Begin Spectral Data<<<<<
801.071	2956
801.214	2982
801.356	2937
801.499	2998
801.641	2960
801.783	2937
801.926	3116
802.068	3062
802.211	3047
802.353	3100
802.496	3001
802.638	3036
802.78	3062
802.923	3142
803.065	3062
803.208	2963
803.35	2982
803.492	2990
803.635	3005
803.777	2807
803.919	2910
804.061	3275
804.204	3001
804.346	2941
804.488	2876
804.63	3020
804.773	2899
804.915	2986
805.057	3138
805.199	2994
805.341	3020
805.483	3062
805.626	3070
805.768	3032
805.91	3112
806.052	3142
806.194	3138
806.336	3298
806.478	3081
806.62	3047
806.762	3020
806.904	3157
807.046	3195
807.188	3051
807.33	2944
807.472	3036
807.614	2941
807.756	3066
807.898	3005
808.04	2982
808.182	3009
808.324	3017
808.465	2941
808.607	2941
808.749	2849
808.891	2906
809.033	3017
809.174	3024
809.316	2937
809.458	2963
809.6	2853
809.741	2811
809.883	2872
810.025	2899
810.166	2880
810.308	2887
810.45	2925
810.591	2830
810.733	2807
810.875	2891
811.016	2853
811.158	2815
811.299	2864
811.441	2975
811.582	2967
811.724	2876
811.865	2883
812.007	3013
812.148	2952
812.29	2933
812.431	2918
812.573	2982
812.714	3001
812.855	3138
812.997	3127
813.138	3131
813.279	3051
813.421	3017
813.562	3013
813.703	2952
813.845	2960
813.986	2815
814.127	2777
814.268	2872
814.41	2902
814.551	2872
814.692	2891
814.833	2883
814.974	2902
815.115	3039
815.256	2880
815.397	2830
815.539	2868
815.68	2830
815.821	2868
815.962	2998
816.103	2971
816.244	2971
816.385	2910
816.526	3036
816.666	2941
816.807	2792
816.948	2952
817.089	2933
817.23	2895
817.371	2800
817.512	2849
817.653	2910
817.793	2857
817.934	2929
818.075	3013
818.216	3032
818.356	3047
818.497	2925
818.638	2826
818.778	2868
818.919	2864
819.06	2800
819.2	2906
819.341	2880
819.481	2823
819.622	2971
819.762	3123
819.903	3119
820.043	2979
820.184	2956
820.324	2963
820.465	3077
820.605	3039
820.746	3077
820.886	2994
821.026	3184
821.167	3233
821.307	3313
821.447	3325
821.588	3310
821.728	3249
821.868	3230
822.008	3127
822.149	3256
822.289	3279
822.429	3138
822.569	3161
822.709	3226
822.849	3100
822.99	3123
823.13	3249
823.27	3230
823.41	3207
823.55	3211
823.69	3211
823.83	3237
823.97	3169
824.11	3058
824.25	3058
824.389	3104
824.529	3146
824.669	3108
824.809	3226
824.949	3325
825.089	3287
825.228	3222
825.368	3058
825.508	3020
825.648	2998
825.787	3051
825.927	3028
826.067	3020
826.206	3024
826.346	3127
826.485	3146
826.625	3195
826.765	3310
826.904	3260
827.044	3036
827.183	2975
827.323	2918
827.462	3043
827.601	2956
827.741	2963
827.88	2990
828.02	2872
828.159	3058
828.298	3112
828.437	3142
828.577	3093
828.716	3294
828.855	3119
828.994	2975
829.134	2948
829.273	2944
829.412	2941
829.551	2906
829.69	2914
829.829	3039
829.968	3184
830.107	3043
830.246	3066
830.385	3001
830.524	2933
830.663	2876
830.802	2781
830.941	2743
831.08	2682
831.219	2823
831.357	2811
831.496	2994
831.635	2754
831.774	2705
831.913	2705
832.051	2575
832.19	2629
832.329	2716
832.467	2575
832.606	2503
832.744	2598
832.883	2629
833.022	2648
833.16	2697
833.299	2750
833.437	2769
833.576	2746
833.714	2777
833.852	2785
833.991	2777
834.129	2891
834.267	2887
834.406	2849
834.544	2918
834.682	2876
834.821	2918
834.959	3169
835.097	2944
835.235	3104
835.373	3017
835.511	3074
835.65	2998
835.788	3009
835.926	2872
836.064	2887
836.202	2906
836.34	3150
836.478	3207
836.615	3074
836.753	3188
836.891	3253
837.029	3222
837.167	3131
837.305	3116
837.443	3074
837.58	3028
837.718	3199
837.856	3127
837.993	3074
838.131	3180
838.269	3184
838.406	3142
838.544	3173
838.681	3009
838.819	2933
838.956	2830
839.094	2849
839.231	2944
839.369	3081
839.506	3431
839.643	3275
839.781	3085
839.918	3024
840.055	3119
840.193	3127
840.33	3093
840.467	3150
840.604	3222
840.742	3492
840.879	3108
841.016	3104
841.153	3169
841.29	3325
841.427	3363
841.564	3313
841.701	3332
841.838	3272
841.975	3214
842.112	3313
842.249	3135
842.385	3070
842.522	3336
842.659	3150
842.796	3127
842.933	3138
843.069	3089
843.206	3100
843.343	3241
843.479	3176
843.616	3199
843.752	2925
843.889	2914
844.025	3127
844.162	2906
844.298	3116
844.435	3005
844.571	2956
844.708	3100
844.844	3211
844.98	3294
845.117	3230
845.253	3093
845.389	3077
845.525	3142
845.661	3207
845.798	3039
845.934	3176
846.07	3104
846.206	3272
846.342	3386
846.478	3260
846.614	3127
846.75	3097
846.886	3070
847.022	3310
847.158	3203
847.294	3245
847.429	3264
847.565	3283
847.701	3523
847.837	3077
847.972	3032
848.108	3241
848.244	3188
848.379	3051
848.515	3032
848.65	2975
848.786	3001
848.921	3055
849.057	3150
849.192	3203
849.328	3089
849.463	3169
849.598	3085
849.734	3093
849.869	3013
850.004	2948
850.14	3047
850.275	2963
850.41	2861
850.545	2941
850.68	2986
850.815	2998
850.95	3024
851.085	3214
851.22	3188
851.355	3089
851.49	3024
851.625	3077
851.76	3055
851.895	2952
852.03	2948
852.165	3085
852.299	3123
852.434	3207
852.569	3169
852.703	3203
852.838	3306
852.973	3378
853.107	3405
853.242	3176
853.376	3150
853.511	3036
853.645	3100
853.78	3264
853.914	3138
854.048	3146
854.183	3169
854.317	3184
854.451	3325
854.585	3192
854.72	3142
854.854	3294
854.988	3066
855.122	3142
855.256	3051
855.39	3142
855.524	3272
855.658	3211
855.792	3203
855.926	3260
856.06	3268
856.194	3332
856.327	3207
856.461	3093
856.595	3112
856.729	3112
856.862	3279
856.996	3222
857.13	3272
857.263	3260
857.397	3321
857.53	3157
857.664	3226
857.797	3279
857.931	3313
858.064	3230
858.197	3256
858.331	3176
858.464	3138
858.597	3020
858.731	3169
858.864	3169
858.997	3119
859.13	3192
859.263	3199
859.396	3256
859.529	3165
859.662	3097
859.795	3093
859.928	3154
860.061	3329
860.194	3382
860.327	3146
860.46	3169
860.592	3298
860.725	3275
860.858	3336
860.99	3154
861.123	3127
861.256	3066
861.388	3173
861.521	3907
861.653	3043
861.786	3036
861.918	3028
862.05	3135
862.183	3131
862.315	3222
862.447	3245
862.58	3123
862.712	3020
862.844	2960
862.976	3047
863.108	3051
863.24	3469
863.372	2944
863.504	3017
863.636	2982
863.768	3070
863.9	3005
864.032	2979
864.164	3001
864.296	3039
864.428	3138
864.559	3119
864.691	3077
864.823	3135
864.954	3074
865.086	3089
865.217	3028
865.349	2971
865.48	3039
865.612	3039
865.743	3195
865.875	3020
866.006	2963
866.137	2971
866.269	2990
866.4	2975
866.531	2975
866.662	2929
866.793	2960
866.924	2979
867.055	3001
867.186	2990
867.317	2941
867.448	2895
867.579	2891
867.71	2902
867.841	2842
867.972	2937
868.103	2933
868.233	2914
868.364	2918
868.495	2918
868.625	3116
868.756	3222
868.886	2982
869.017	3047
869.147	3203
869.278	3233
869.408	3097
869.539	3070
869.669	3154
869.799	3055
869.929	3188
870.06	3131
870.19	3405
870.32	3367
870.45	3378
870.58	3397
870.71	3511
870.84	3485
870.97	3317
871.1	3310
871.23	3523
871.36	3526
871.489	3405
871.619	3431
871.749	3447
871.879	3477
872.008	3469
872.138	3382
872.267	3351
872.397	3222
872.526	3112
872.656	3039
872.785	3157
872.915	3268
873.044	3393
873.173	3260
873.303	3283
873.432	3310
873.561	3306
873.69	3176
873.819	3169
873.948	3233
874.077	3142
874.206	3066
874.335	3119
874.464	3230
874.593	3393
874.722	3275
874.851	3439
874.979	3378
875.108	3355
875.237	3230
875.365	3176
875.494	3176
875.623	3283
875.751	3119
875.88	3161
876.008	3237
876.136	3264
876.265	3431
876.393	3549
876.521	3431
876.65	3420
876.778	3405
876.906	3317
877.034	3211
877.162	3275
877.29	3222
877.418	3329
877.546	3283
877.674	3317
877.802	3275
877.93	3317
878.058	3192
878.185	3138
878.313	3237
878.441	3291
878.568	3097
878.696	3192
878.824	3325
878.951	3298
879.079	3500
879.206	3652
879.333	3496
879.461	3389
879.588	3405
879.715	3504
879.842	3648
879.97	3450
880.097	3207
880.224	3173
880.351	3264
880.478	3245
880.605	3226
880.732	3214
880.859	3572
880.986	3340
881.112	3374
881.239	3256
881.366	3119
881.493	3093
881.619	3108
881.746	3146
881.872	3165
881.999	3138
882.125	3199
882.252	3291
882.378	3374
882.505	3462
882.631	3370
882.757	3188
882.883	3249
883.01	3233
883.136	3222
883.262	3131
883.388	3176
883.514	3359
883.64	3435
883.766	3348
883.892	3203
884.018	3268
884.143	3469
884.269	3587
884.395	3218
884.52	3230
884.646	3222
884.772	3142
884.897	3180
885.023	3199
885.148	3386
885.274	3424
885.399	3428
885.524	3348
885.65	3275
885.775	3359
885.9	3325
886.025	3473
886.15	3393
886.275	3386
886.4	3275
886.525	3378
886.65	3298
886.775	3302
886.9	3523
887.025	3667
887.149	3462
887.274	3283
887.399	3233
887.523	3260
887.648	3218
887.773	3222
887.897	3420
888.021	3439
888.146	3332
888.27	3496
888.395	3603
888.519	3496
888.643	3439
888.767	3488
888.891	3344
889.015	3340
889.139	3332
889.263	3287
889.387	3473
889.511	3553
889.635	3481
889.759	3310
889.883	3359
890.006	3481
890.13	3488
890.254	3302
890.377	3428
890.501	3230
890.624	3222
890.748	3355
890.871	3249
890.995	3161
891.118	3085
891.241	3222
891.364	3272
891.488	3378
891.611	3245
891.734	3253
891.857	3310
891.98	3302
892.103	3378
892.226	3313
892.349	3287
892.471	3150
892.594	3321
892.717	3332
892.839	3329
892.962	3336
893.085	3420
893.207	3351
893.33	3184
893.452	3253
893.575	3363
893.697	3291
893.819	3500
893.941	3538
894.064	3507
894.186	3363
894.308	3336
894.43	3492
894.552	3614
894.674	3542
894.796	3344
894.918	3355
895.04	3317
895.161	3477
895.283	3435
895.405	3351
895.526	3412
895.648	3477
895.769	3431
895.891	3473
896.012	3519
896.134	3500
896.255	3439
896.376	3401
896.498	3405
896.619	3481
896.74	3412
896.861	3431
896.982	3736
897.103	3911
897.224	3671
897.345	3568
897.466	3488
897.587	3542
897.708	3675
897.828	3549
897.949	3492
898.07	3374
898.19	3431
898.311	3633
898.431	3507
898.552	3553
898.672	3637
898.792	3637
898.913	3595
899.033	3439
899.153	3298
899.273	3279
899.393	3313
899.513	3382
899.633	3351
899.753	3405
899.873	3332
899.993	3424
900.113	3374
900.232	3428
900.352	3370
900.472	3313
900.591	3260
900.711	3317
900.83	3291
900.95	3458
901.069	3553
901.189	3405
901.308	3218
901.427	3131
901.546	3249
901.665	3340
901.784	3367
901.904	3207
902.023	3203
902.141	3062
902.26	3032
902.379	3176
902.498	3123
902.617	3062
902.735	3264
902.854	3272
902.973	3253
903.091	3074
903.21	3077
903.328	3188
903.446	3135
903.565	3123
903.683	3241
903.801	3173
903.919	3321
904.038	3336
904.156	3211
904.274	3355
904.392	3298
904.51	3317
904.627	3340
904.745	3511
904.863	3545
904.981	3272
905.098	3211
905.216	3306
905.334	3332
905.451	3332
905.569	3332
905.686	3477
905.803	3477
905.921	3313
906.038	3492
906.155	3409
906.272	3321
906.389	3378
906.506	3256
906.623	3298
906.74	3336
906.857	3245
906.974	3310
907.091	3507
907.208	3603
907.324	3504
907.441	3458
907.557	3279
907.674	3275
907.79	3226
907.907	3359
908.023	3409
908.139	3405
908.256	3363
908.372	3412
908.488	3393
908.604	3340
908.72	3291
908.836	3348
908.952	3355
909.068	3367
909.184	3542
909.3	3447
909.415	3534
909.531	3511
909.647	3351
909.762	3325
909.878	3291
909.993	3367
910.108	3382
910.224	3378
910.339	3462
910.454	3351
910.57	3340
910.685	3310
910.8	3641
910.915	3606
911.03	3477
911.145	3294
911.259	3313
911.374	3348
911.489	3310
911.604	3275
911.718	3165
911.833	3237
911.947	3097
912.062	3024
912.176	3207
912.291	3241
912.405	3260
912.519	3488
912.633	3507
912.748	3424
912.862	3329
912.976	3192
913.09	3108
913.204	3169
913.318	3264
913.431	3409
913.545	3428
913.659	3431
913.772	3386
913.886	3275
914	3249
914.113	3382
914.226	3450
914.34	3450
914.453	3256
914.566	3481
914.68	3348
914.793	3351
914.906	3222
915.019	3157
915.132	3131
915.245	3214
915.358	3264
915.47	3291
915.583	3298
915.696	3344
915.809	3458
915.921	3462
916.034	3298
916.146	3298
916.259	3264
916.371	3443
916.483	3393
916.595	3332
916.708	3367
916.82	3424
916.932	3378
917.044	3416
917.156	3389
917.268	3294
917.38	3355
917.491	3348
917.603	3424
917.715	3511
917.826	3526
917.938	3450
918.049	3317
918.161	3447
918.272	3644
918.384	3641
918.495	3545
918.606	3363
918.717	3310
918.828	3386
918.939	3454
919.05	3382
919.161	3386
919.272	3192
919.383	3302
919.494	3584
919.604	3751
919.715	3534
919.826	3469
919.936	3534
920.047	3637
920.157	3576
920.267	3854
920.378	3637
920.488	3580
920.598	3797
920.708	4051
920.818	3926
920.928	3911
921.038	4055
921.148	4032
921.258	3770
921.368	3667
921.477	3633
921.587	3553
921.697	3488
921.806	3671
921.916	3599
922.025	3409
922.134	3374
922.244	3355
922.353	3477
922.462	3329
922.571	3279
922.68	3142
922.789	3123
922.898	3211
923.007	3142
923.116	3230
923.224	3184
923.333	3253
923.442	3146
923.55	3119
923.659	3188
923.767	3287
923.876	3176
923.984	3272
924.092	3135
924.201	3253
924.309	3260
924.417	3298
924.525	3245
924.633	3256
924.741	4242
924.849	3104
924.956	3283
925.064	3161
925.172	3081
925.279	3123
925.387	3230
925.494	3283
925.602	3412
925.709	3359
925.816	3222
925.924	3348
926.031	3435
926.138	3412
926.245	3382
926.352	3317
926.459	3485
926.566	3504
926.673	3351
926.779	3313
926.886	3294
926.993	3199
927.099	3176
927.206	3184
927.312	3176
927.419	3264
927.525	3264
927.631	3348
927.737	3180
927.843	3180
927.95	3066
928.056	3222
928.162	3211
928.267	3321
928.373	3835
928.479	3325
928.585	3108
928.69	3237
928.796	3340
928.901	3207
929.007	3108
929.112	3256
929.218	3188
929.323	3173
929.428	3180
929.533	3370
929.638	3161
929.743	3211
929.848	3291
929.953	3256
930.058	3184
930.163	3051
930.267	3131
930.372	3260
930.477	3055
930.581	3401
930.685	3195
930.79	3100
930.894	3146
930.998	3157
931.103	3321
931.207	2975
931.311	2998
931.415	2979
931.519	2823
931.623	2853
