Data from test_V78500241_1643.txt Node
Date: Fri Mar 25 16:26:35 CST 2022
User: usil
Spectrometer: V785-0024
Trigger mode: 0
Integration Time (sec): 4.000000E-1
Scans to average: 1
Nonlinearity correction enabled: false
Boxcar width: 0
Storing dark spectrum: false
XAxis mode: Wavelengths
Number of Pixels in Spectrum: 1024
>>>>>Begin Spectral Data<<<<<
801.071	2910
801.214	2971
801.356	2883
801.499	2864
801.641	2883
801.783	2929
801.926	3047
802.068	2975
802.211	2998
802.353	3020
802.496	2960
802.638	3001
802.78	3051
802.923	3097
803.065	2956
803.208	2853
803.35	2914
803.492	2914
803.635	2902
803.777	2773
803.919	2872
804.061	3188
804.204	2960
804.346	2918
804.488	2838
804.63	2998
804.773	2918
804.915	2918
805.057	3066
805.199	2929
805.341	2982
805.483	3032
805.626	3032
805.768	2963
805.91	3074
806.052	3138
806.194	3089
806.336	3218
806.478	3058
806.62	2986
806.762	2975
806.904	3032
807.046	3169
807.188	2982
807.33	2906
807.472	2990
807.614	2914
807.756	2963
807.898	2922
808.04	2914
808.182	2979
808.324	2956
808.465	2891
808.607	2864
808.749	2815
808.891	2895
809.033	2994
809.174	2963
809.316	2891
809.458	2857
809.6	2762
809.741	2773
809.883	2785
810.025	2838
810.166	2838
810.308	2838
810.45	2849
810.591	2788
810.733	2781
810.875	2819
811.016	2785
811.158	2750
811.299	2785
811.441	2956
811.582	2891
811.724	2823
811.865	2876
812.007	2899
812.148	2880
812.29	2857
812.431	2891
812.573	2922
812.714	2979
812.855	3024
812.997	3085
813.138	3131
813.279	2994
813.421	2975
813.562	2929
813.703	2880
813.845	2891
813.986	2800
814.127	2758
814.268	2826
814.41	2838
814.551	2804
814.692	2899
814.833	2826
814.974	2922
815.115	2986
815.256	2830
815.397	2849
815.539	2872
815.68	2781
815.821	2769
815.962	2929
816.103	2944
816.244	2864
816.385	2845
816.526	2948
816.666	2948
816.807	2788
816.948	2891
817.089	2922
817.23	2849
817.371	2766
817.512	2804
817.653	2868
817.793	2823
817.934	2868
818.075	2925
818.216	3017
818.356	3043
818.497	2891
818.638	2781
818.778	2811
818.919	2773
819.06	2743
819.2	2891
819.341	2838
819.481	2792
819.622	2937
819.762	3097
819.903	3077
820.043	2941
820.184	2887
820.324	2834
820.465	3043
820.605	3020
820.746	3017
820.886	2899
821.026	3066
821.167	3135
821.307	3245
821.447	3298
821.588	3226
821.728	3154
821.868	3249
822.008	3066
822.149	3192
822.289	3218
822.429	3089
822.569	3093
822.709	3195
822.849	3032
822.99	3058
823.13	3176
823.27	3203
823.41	3100
823.55	3142
823.69	3157
823.83	3188
823.97	3100
824.11	3032
824.25	2982
824.389	3051
824.529	3112
824.669	3055
824.809	3188
824.949	3264
825.089	3222
825.228	3157
825.368	2975
825.508	2971
825.648	2937
825.787	2990
825.927	3020
826.067	2952
826.206	2948
826.346	3032
826.485	3062
826.625	3123
826.765	3279
826.904	3176
827.044	3001
827.183	2952
827.323	2876
827.462	2967
827.601	2922
827.741	2944
827.88	2963
828.02	2872
828.159	2967
828.298	3036
828.437	3127
828.577	3039
828.716	3237
828.855	3070
828.994	2933
829.134	2880
829.273	2891
829.412	2842
829.551	2868
829.69	2872
829.829	2998
829.968	3112
830.107	3013
830.246	3081
830.385	2914
830.524	2861
830.663	2830
830.802	2735
830.941	2667
831.08	2659
831.219	2766
831.357	2766
831.496	2975
831.635	2689
831.774	2674
831.913	2606
832.051	2568
832.19	2583
832.329	2693
832.467	2537
832.606	2492
832.744	2575
832.883	2575
833.022	2571
833.16	2686
833.299	2697
833.437	2667
833.576	2686
833.714	2705
833.852	2743
833.991	2739
834.129	2823
834.267	2826
834.406	2758
834.544	2845
834.682	2876
834.821	2861
834.959	3074
835.097	2914
835.235	3043
835.373	2971
835.511	3009
835.65	2960
835.788	2937
835.926	2823
836.064	2819
836.202	2811
836.34	3127
836.478	3192
836.615	3062
836.753	3131
836.891	3188
837.029	3150
837.167	3081
837.305	3066
837.443	3036
837.58	2960
837.718	3131
837.856	3062
837.993	3013
838.131	3100
838.269	3097
838.406	3070
838.544	3112
838.681	2922
838.819	2883
838.956	2826
839.094	2861
839.231	2910
839.369	3043
839.506	3370
839.643	3203
839.781	3001
839.918	3009
840.055	3055
840.193	3036
840.33	3047
840.467	3074
840.604	3142
840.742	3409
840.879	3066
841.016	3051
841.153	3119
841.29	3344
841.427	3340
841.564	3294
841.701	3294
841.838	3233
841.975	3192
842.112	3230
842.249	3085
842.385	3020
842.522	3214
842.659	3089
842.796	3074
842.933	3055
843.069	3028
843.206	3005
843.343	3199
843.479	3093
843.616	3135
843.752	2902
843.889	2849
844.025	3085
844.162	2880
844.298	3062
844.435	2944
844.571	2902
844.708	3055
844.844	3203
844.98	3245
845.117	3173
845.253	3039
845.389	3017
845.525	3089
845.661	3089
845.798	3013
845.934	3123
846.07	3043
846.206	3203
846.342	3283
846.478	3237
846.614	3051
846.75	3036
846.886	3005
847.022	3207
847.158	3127
847.294	3184
847.429	3272
847.565	3237
847.701	3492
847.837	3017
847.972	2937
848.108	3169
848.244	3135
848.379	2982
848.515	2918
848.65	2906
848.786	2937
848.921	3005
849.057	3116
849.192	3127
849.328	3051
849.463	3104
849.598	3070
849.734	3005
849.869	2960
850.004	2952
850.14	2994
850.275	2902
850.41	2857
850.545	2891
850.68	2906
850.815	2937
850.95	2982
851.085	3207
851.22	3093
851.355	3043
851.49	2967
851.625	3013
851.76	3017
851.895	2918
852.03	2922
852.165	3055
852.299	3108
852.434	3192
852.569	3135
852.703	3142
852.838	3256
852.973	3370
853.107	3363
853.242	3146
853.376	3112
853.511	2975
853.645	2994
853.78	3241
853.914	3123
854.048	3119
854.183	3066
854.317	3131
854.451	3294
854.585	3104
854.72	3070
854.854	3226
854.988	3043
855.122	3066
855.256	2971
855.39	3146
855.524	3218
855.658	3154
855.792	3161
855.926	3176
856.06	3233
856.194	3249
856.327	3154
856.461	3116
856.595	3085
856.729	3100
856.862	3188
856.996	3169
857.13	3192
857.263	3207
857.397	3272
857.53	3112
857.664	3195
857.797	3237
857.931	3245
858.064	3135
858.197	3218
858.331	3135
858.464	3100
858.597	2971
858.731	3112
858.864	3112
858.997	3104
859.13	3203
859.263	3173
859.396	3173
859.529	3093
859.662	3062
859.795	3085
859.928	3127
860.061	3260
860.194	3275
860.327	3123
860.46	3127
860.592	3222
860.725	3230
860.858	3233
860.99	3085
861.123	3062
861.256	3028
861.388	3131
861.521	3835
861.653	2982
861.786	2956
861.918	2998
862.05	3066
862.183	3077
862.315	3100
862.447	3173
862.58	3112
862.712	2922
862.844	2861
862.976	3001
863.108	3001
863.24	3416
863.372	2883
863.504	2948
863.636	2960
863.768	3009
863.9	2960
864.032	2891
864.164	2918
864.296	2998
864.428	3093
864.559	3093
864.691	3077
864.823	3047
864.954	3043
865.086	3013
865.217	3009
865.349	2971
865.48	2963
865.612	2998
865.743	3142
865.875	2994
866.006	2906
866.137	2918
866.269	2895
866.4	2918
866.531	2910
866.662	2876
866.793	2891
866.924	2891
867.055	2948
867.186	2952
867.317	2883
867.448	2845
867.579	2883
867.71	2857
867.841	2823
867.972	2876
868.103	2906
868.233	2899
868.364	2868
868.495	2933
868.625	3058
868.756	3188
868.886	2979
869.017	3013
869.147	3154
869.278	3161
869.408	3039
869.539	3032
869.669	3077
869.799	3043
869.929	3123
870.06	3085
870.19	3306
870.32	3268
870.45	3294
870.58	3378
870.71	3454
870.84	3431
870.97	3272
871.1	3237
871.23	3466
871.36	3435
871.489	3355
871.619	3416
871.749	3409
871.879	3401
872.008	3473
872.138	3355
872.267	3302
872.397	3108
872.526	3089
872.656	2994
872.785	3074
872.915	3226
873.044	3310
873.173	3237
873.303	3233
873.432	3253
873.561	3222
873.69	3131
873.819	3108
873.948	3192
874.077	3093
874.206	3039
874.335	3093
874.464	3260
874.593	3325
874.722	3214
874.851	3370
874.979	3359
875.108	3317
875.237	3207
875.365	3150
875.494	3184
875.623	3241
875.751	3058
875.88	3081
876.008	3184
876.136	3222
876.265	3386
876.393	3496
876.521	3424
876.65	3401
876.778	3336
876.906	3287
877.034	3184
877.162	3230
877.29	3173
877.418	3245
877.546	3203
877.674	3214
877.802	3233
877.93	3176
878.058	3150
878.185	3081
878.313	3199
878.441	3249
878.568	3058
878.696	3180
878.824	3241
878.951	3272
879.079	3428
879.206	3595
879.333	3431
879.461	3344
879.588	3351
879.715	3473
879.842	3545
879.97	3367
880.097	3169
880.224	3119
880.351	3184
880.478	3180
880.605	3176
880.732	3180
880.859	3439
880.986	3317
881.112	3298
881.239	3203
881.366	3104
881.493	3043
881.619	2998
881.746	3066
881.872	3089
881.999	3127
882.125	3123
882.252	3256
882.378	3249
882.505	3439
882.631	3317
882.757	3127
882.883	3211
883.01	3203
883.136	3127
883.262	3074
883.388	3074
883.514	3367
883.64	3370
883.766	3321
883.892	3146
884.018	3188
884.143	3401
884.269	3511
884.395	3226
884.52	3180
884.646	3222
884.772	3131
884.897	3104
885.023	3180
885.148	3329
885.274	3431
885.399	3363
885.524	3256
885.65	3253
885.775	3313
885.9	3279
886.025	3424
886.15	3336
886.275	3294
886.4	3222
886.525	3275
886.65	3283
886.775	3329
886.9	3450
887.025	3606
887.149	3439
887.274	3253
887.399	3192
887.523	3207
887.648	3211
887.773	3214
887.897	3370
888.021	3389
888.146	3310
888.27	3428
888.395	3542
888.519	3450
888.643	3450
888.767	3439
888.891	3332
889.015	3253
889.139	3275
889.263	3249
889.387	3397
889.511	3526
889.635	3412
889.759	3283
889.883	3306
890.006	3397
890.13	3500
890.254	3275
890.377	3374
890.501	3214
890.624	3169
890.748	3294
890.871	3180
890.995	3058
891.118	3070
891.241	3142
891.364	3237
891.488	3279
891.611	3173
891.734	3207
891.857	3283
891.98	3230
892.103	3332
892.226	3279
892.349	3176
892.471	3127
892.594	3226
892.717	3260
892.839	3291
892.962	3321
893.085	3363
893.207	3264
893.33	3157
893.452	3207
893.575	3321
893.697	3230
893.819	3477
893.941	3515
894.064	3466
894.186	3287
894.308	3317
894.43	3409
894.552	3519
894.674	3466
894.796	3283
894.918	3306
895.04	3313
895.161	3447
895.283	3374
895.405	3283
895.526	3370
895.648	3382
895.769	3424
895.891	3504
896.012	3462
896.134	3477
896.255	3405
896.376	3321
896.498	3321
896.619	3416
896.74	3382
896.861	3409
896.982	3656
897.103	3812
897.224	3534
897.345	3534
897.466	3450
897.587	3485
897.708	3595
897.828	3523
897.949	3424
898.07	3306
898.19	3397
898.311	3572
898.431	3428
898.552	3481
898.672	3587
898.792	3568
898.913	3477
899.033	3348
899.153	3253
899.273	3245
899.393	3253
899.513	3329
899.633	3332
899.753	3355
899.873	3291
899.993	3397
900.113	3310
900.232	3382
900.352	3363
900.472	3310
900.591	3230
900.711	3287
900.83	3214
900.95	3428
901.069	3492
901.189	3374
901.308	3161
901.427	3131
901.546	3184
901.665	3272
901.784	3332
901.904	3233
902.023	3157
902.141	2975
902.26	2998
902.379	3138
902.498	3066
902.617	3074
902.735	3214
902.854	3264
902.973	3192
903.091	3039
903.21	3074
903.328	3138
903.446	3100
903.565	3055
903.683	3157
903.801	3138
903.919	3222
904.038	3268
904.156	3142
904.274	3291
904.392	3207
904.51	3298
904.627	3367
904.745	3393
904.863	3473
904.981	3291
905.098	3169
905.216	3249
905.334	3268
905.451	3294
905.569	3332
905.686	3443
905.803	3420
905.921	3275
906.038	3431
906.155	3351
906.272	3275
906.389	3378
906.506	3256
906.623	3226
906.74	3245
906.857	3173
906.974	3241
907.091	3450
907.208	3568
907.324	3496
907.441	3401
907.557	3264
907.674	3207
907.79	3203
907.907	3291
908.023	3378
908.139	3340
908.256	3348
908.372	3382
908.488	3336
908.604	3283
908.72	3195
908.836	3306
908.952	3233
909.068	3317
909.184	3462
909.3	3389
909.415	3492
909.531	3485
909.647	3291
909.762	3256
909.878	3233
909.993	3355
910.108	3332
910.224	3302
910.339	3370
910.454	3306
910.57	3294
910.685	3233
910.8	3553
910.915	3519
911.03	3428
911.145	3237
911.259	3279
911.374	3291
911.489	3230
911.604	3192
911.718	3161
911.833	3173
911.947	3024
912.062	2956
912.176	3142
912.291	3173
912.405	3195
912.519	3454
912.633	3469
912.748	3336
912.862	3306
912.976	3176
913.09	3032
913.204	3150
913.318	3279
913.431	3351
913.545	3332
913.659	3370
913.772	3340
913.886	3211
914	3207
914.113	3344
914.226	3367
914.34	3370
914.453	3226
914.566	3435
914.68	3313
914.793	3317
914.906	3119
915.019	3077
915.132	3058
915.245	3195
915.358	3169
915.47	3241
915.583	3294
915.696	3268
915.809	3431
915.921	3412
916.034	3237
916.146	3218
916.259	3207
916.371	3382
916.483	3374
916.595	3283
916.708	3329
916.82	3317
916.932	3336
917.044	3325
917.156	3393
917.268	3249
917.38	3306
917.491	3287
917.603	3310
917.715	3458
917.826	3488
917.938	3386
918.049	3233
918.161	3428
918.272	3576
918.384	3580
918.495	3526
918.606	3344
918.717	3310
918.828	3367
918.939	3428
919.05	3264
919.161	3367
919.272	3192
919.383	3306
919.494	3507
919.604	3652
919.715	3481
919.826	3393
919.936	3447
920.047	3568
920.157	3549
920.267	3793
920.378	3633
920.488	3572
920.598	3759
920.708	3930
920.818	3823
920.928	3838
921.038	4010
921.148	3987
921.258	3694
921.368	3618
921.477	3591
921.587	3542
921.697	3488
921.806	3637
921.916	3515
922.025	3359
922.134	3359
922.244	3279
922.353	3420
922.462	3260
922.571	3249
922.68	3093
922.789	3024
922.898	3119
923.007	3104
923.116	3226
923.224	3169
923.333	3188
923.442	3138
923.55	3108
923.659	3116
923.767	3199
923.876	3104
923.984	3233
924.092	3074
924.201	3222
924.309	3180
924.417	3268
924.525	3173
924.633	3264
924.741	4215
924.849	3085
924.956	3275
925.064	3123
925.172	3036
925.279	3108
925.387	3226
925.494	3203
925.602	3340
925.709	3298
925.816	3207
925.924	3291
926.031	3359
926.138	3329
926.245	3359
926.352	3260
926.459	3405
926.566	3435
926.673	3294
926.779	3279
926.886	3249
926.993	3188
927.099	3157
927.206	3138
927.312	3157
927.419	3230
927.525	3176
927.631	3275
927.737	3123
927.843	3123
927.95	3001
928.056	3127
928.162	3161
928.267	3222
928.373	3770
928.479	3321
928.585	3036
928.69	3207
928.796	3249
928.901	3127
929.007	3043
929.112	3199
929.218	3131
929.323	3116
929.428	3127
929.533	3313
929.638	3089
929.743	3176
929.848	3279
929.953	3214
930.058	3138
930.163	3005
930.267	3055
930.372	3161
930.477	3028
930.581	3268
930.685	3169
930.79	3047
930.894	3074
930.998	3119
931.103	3283
931.207	2967
931.311	2948
931.415	2902
931.519	2777
931.623	2826
