Data from test_V78500241_1351.txt Node
Date: Fri Mar 25 16:24:33 CST 2022
User: usil
Spectrometer: V785-0024
Trigger mode: 0
Integration Time (sec): 4.000000E-1
Scans to average: 1
Nonlinearity correction enabled: false
Boxcar width: 0
Storing dark spectrum: false
XAxis mode: Wavelengths
Number of Pixels in Spectrum: 1024
>>>>>Begin Spectral Data<<<<<
801.071	2952
801.214	2960
801.356	2899
801.499	2925
801.641	2902
801.783	2967
801.926	3005
802.068	2994
802.211	2998
802.353	3039
802.496	2975
802.638	3051
802.78	3081
802.923	3077
803.065	3036
803.208	2910
803.35	2887
803.492	2937
803.635	2937
803.777	2758
803.919	2864
804.061	3169
804.204	2956
804.346	2933
804.488	2842
804.63	2979
804.773	2853
804.915	2864
805.057	3066
805.199	2925
805.341	2960
805.483	3081
805.626	3005
805.768	2960
805.91	3085
806.052	3157
806.194	2975
806.336	3237
806.478	3009
806.62	2933
806.762	2994
806.904	3005
807.046	3169
807.188	2979
807.33	2887
807.472	2952
807.614	2906
807.756	3001
807.898	2941
808.04	2902
808.182	3009
808.324	2963
808.465	2887
808.607	2883
808.749	2823
808.891	2868
809.033	2975
809.174	2967
809.316	2864
809.458	2861
809.6	2769
809.741	2766
809.883	2788
810.025	2849
810.166	2830
810.308	2800
810.45	2868
810.591	2773
810.733	2754
810.875	2849
811.016	2777
811.158	2705
811.299	2815
811.441	2910
811.582	2883
811.724	2804
811.865	2830
812.007	2929
812.148	2880
812.29	2853
812.431	2887
812.573	2925
812.714	2956
812.855	3024
812.997	3047
813.138	3116
813.279	2998
813.421	3017
813.562	2963
813.703	2857
813.845	2906
813.986	2769
814.127	2716
814.268	2853
814.41	2891
814.551	2823
814.692	2895
814.833	2788
814.974	2895
815.115	2979
815.256	2819
815.397	2796
815.539	2868
815.68	2750
815.821	2823
815.962	2986
816.103	2914
816.244	2914
816.385	2868
816.526	3001
816.666	2899
816.807	2727
816.948	2910
817.089	2887
817.23	2838
817.371	2800
817.512	2792
817.653	2819
817.793	2807
817.934	2864
818.075	2971
818.216	2956
818.356	3020
818.497	2861
818.638	2800
818.778	2781
818.919	2781
819.06	2735
819.2	2887
819.341	2823
819.481	2788
819.622	2944
819.762	3043
819.903	3013
820.043	2902
820.184	2925
820.324	2853
820.465	2979
820.605	3024
820.746	2982
820.886	2910
821.026	3089
821.167	3142
821.307	3260
821.447	3249
821.588	3226
821.728	3165
821.868	3207
822.008	3070
822.149	3165
822.289	3245
822.429	3074
822.569	3051
822.709	3199
822.849	3028
822.99	3070
823.13	3157
823.27	3173
823.41	3100
823.55	3138
823.69	3146
823.83	3173
823.97	3131
824.11	2986
824.25	3005
824.389	3039
824.529	3123
824.669	3104
824.809	3176
824.949	3237
825.089	3241
825.228	3142
825.368	2986
825.508	2937
825.648	2922
825.787	3009
825.927	3036
826.067	2960
826.206	2952
826.346	3055
826.485	3077
826.625	3150
826.765	3249
826.904	3241
827.044	2986
827.183	2979
827.323	2883
827.462	3020
827.601	2941
827.741	2948
827.88	2967
828.02	2876
828.159	2960
828.298	3085
828.437	3161
828.577	3032
828.716	3260
828.855	3085
828.994	2990
829.134	2956
829.273	2960
829.412	2910
829.551	2910
829.69	2941
829.829	3024
829.968	3161
830.107	3077
830.246	3043
830.385	2986
830.524	2910
830.663	2895
830.802	2762
830.941	2716
831.08	2651
831.219	2800
831.357	2788
831.496	2971
831.635	2796
831.774	2705
831.913	2708
832.051	2602
832.19	2617
832.329	2762
832.467	2537
832.606	2552
832.744	2606
832.883	2621
833.022	2636
833.16	2705
833.299	2727
833.437	2739
833.576	2712
833.714	2739
833.852	2739
833.991	2830
834.129	2899
834.267	2864
834.406	2864
834.544	2902
834.682	2918
834.821	2906
834.959	3077
835.097	2944
835.235	3100
835.373	3077
835.511	3074
835.65	2952
835.788	3001
835.926	2861
836.064	2830
836.202	2868
836.34	3165
836.478	3180
836.615	3089
836.753	3150
836.891	3253
837.029	3203
837.167	3169
837.305	3123
837.443	3089
837.58	2979
837.718	3142
837.856	3142
837.993	3089
838.131	3154
838.269	3142
838.406	3135
838.544	3108
838.681	2948
838.819	2990
838.956	2838
839.094	2845
839.231	2937
839.369	3081
839.506	3420
839.643	3253
839.781	3077
839.918	3017
840.055	3066
840.193	3100
840.33	3097
840.467	3138
840.604	3222
840.742	3435
840.879	3089
841.016	3081
841.153	3146
841.29	3359
841.427	3336
841.564	3317
841.701	3389
841.838	3241
841.975	3214
842.112	3237
842.249	3123
842.385	3074
842.522	3264
842.659	3135
842.796	3085
842.933	3108
843.069	3104
843.206	3024
843.343	3233
843.479	3135
843.616	3135
843.752	2948
843.889	2902
844.025	3104
844.162	2914
844.298	3108
844.435	2952
844.571	2963
844.708	3127
844.844	3180
844.98	3241
845.117	3199
845.253	3043
845.389	3028
845.525	3173
845.661	3123
845.798	3017
845.934	3195
846.07	3066
846.206	3241
846.342	3355
846.478	3245
846.614	3119
846.75	3077
846.886	3055
847.022	3310
847.158	3169
847.294	3249
847.429	3249
847.565	3214
847.701	3504
847.837	3093
847.972	3009
848.108	3188
848.244	3146
848.379	3020
848.515	2975
848.65	2948
848.786	3024
848.921	3043
849.057	3116
849.192	3161
849.328	3108
849.463	3108
849.598	3070
849.734	3062
849.869	3005
850.004	2971
850.14	2994
850.275	2944
850.41	2842
850.545	2883
850.68	2967
850.815	2941
850.95	2971
851.085	3211
851.22	3127
851.355	3062
851.49	3005
851.625	3009
851.76	3055
851.895	2979
852.03	2967
852.165	3051
852.299	3116
852.434	3203
852.569	3169
852.703	3195
852.838	3310
852.973	3374
853.107	3355
853.242	3180
853.376	3180
853.511	2998
853.645	3055
853.78	3279
853.914	3154
854.048	3104
854.183	3100
854.317	3195
854.451	3336
854.585	3119
854.72	3100
854.854	3256
854.988	3093
855.122	3119
855.256	2982
855.39	3146
855.524	3260
855.658	3169
855.792	3203
855.926	3211
856.06	3237
856.194	3287
856.327	3203
856.461	3093
856.595	3131
856.729	3093
856.862	3226
856.996	3180
857.13	3230
857.263	3241
857.397	3302
857.53	3146
857.664	3226
857.797	3241
857.931	3275
858.064	3192
858.197	3272
858.331	3184
858.464	3138
858.597	3028
858.731	3180
858.864	3165
858.997	3070
859.13	3173
859.263	3192
859.396	3256
859.529	3119
859.662	3116
859.795	3043
859.928	3150
860.061	3275
860.194	3317
860.327	3142
860.46	3184
860.592	3275
860.725	3268
860.858	3260
860.99	3138
861.123	3070
861.256	3036
861.388	3154
861.521	3743
861.653	3043
861.786	2998
861.918	3020
862.05	3089
862.183	3150
862.315	3169
862.447	3195
862.58	3074
862.712	2960
862.844	2918
862.976	3028
863.108	3058
863.24	3321
863.372	2948
863.504	3005
863.636	2979
863.768	3104
863.9	3009
864.032	2956
864.164	2986
864.296	3039
864.428	3093
864.559	3131
864.691	3112
864.823	3116
864.954	3039
865.086	3058
865.217	3005
865.349	2971
865.48	3001
865.612	3017
865.743	3184
865.875	2982
866.006	2982
866.137	2998
866.269	3005
866.4	2948
866.531	2925
866.662	2952
866.793	2941
866.924	2887
867.055	3013
867.186	2941
867.317	2887
867.448	2880
867.579	2891
867.71	2887
867.841	2868
867.972	2883
868.103	2925
868.233	2918
868.364	2922
868.495	2906
868.625	3119
868.756	3188
868.886	2994
869.017	3066
869.147	3188
869.278	3195
869.408	3108
869.539	3055
869.669	3119
869.799	3036
869.929	3131
870.06	3108
870.19	3336
870.32	3298
870.45	3310
870.58	3340
870.71	3488
870.84	3481
870.97	3332
871.1	3272
871.23	3507
871.36	3473
871.489	3428
871.619	3428
871.749	3458
871.879	3462
872.008	3473
872.138	3397
872.267	3291
872.397	3207
872.526	3176
872.656	3020
872.785	3142
872.915	3211
873.044	3378
873.173	3272
873.303	3329
873.432	3287
873.561	3253
873.69	3184
873.819	3142
873.948	3211
874.077	3123
874.206	3047
874.335	3104
874.464	3237
874.593	3389
874.722	3256
874.851	3393
874.979	3351
875.108	3374
875.237	3222
875.365	3173
875.494	3161
875.623	3245
875.751	3112
875.88	3154
876.008	3180
876.136	3256
876.265	3389
876.393	3504
876.521	3462
876.65	3424
876.778	3382
876.906	3241
877.034	3195
877.162	3275
877.29	3173
877.418	3279
877.546	3268
877.674	3279
877.802	3283
877.93	3264
878.058	3146
878.185	3089
878.313	3218
878.441	3218
878.568	3081
878.696	3192
878.824	3294
878.951	3291
879.079	3439
879.206	3656
879.333	3469
879.461	3332
879.588	3397
879.715	3469
879.842	3591
879.97	3386
880.097	3169
880.224	3161
880.351	3203
880.478	3241
880.605	3222
880.732	3233
880.859	3507
880.986	3313
881.112	3351
881.239	3237
881.366	3146
881.493	3043
881.619	3062
881.746	3104
881.872	3093
881.999	3154
882.125	3146
882.252	3287
882.378	3325
882.505	3401
882.631	3264
882.757	3157
882.883	3203
883.01	3264
883.136	3176
883.262	3131
883.388	3116
883.514	3332
883.64	3405
883.766	3317
883.892	3188
884.018	3241
884.143	3435
884.269	3515
884.395	3211
884.52	3173
884.646	3173
884.772	3119
884.897	3100
885.023	3195
885.148	3332
885.274	3412
885.399	3374
885.524	3268
885.65	3253
885.775	3329
885.9	3275
886.025	3447
886.15	3344
886.275	3325
886.4	3249
886.525	3283
886.65	3306
886.775	3329
886.9	3481
887.025	3633
887.149	3386
887.274	3283
887.399	3184
887.523	3218
887.648	3195
887.773	3218
887.897	3393
888.021	3435
888.146	3302
888.27	3447
888.395	3534
888.519	3428
888.643	3481
888.767	3469
888.891	3359
889.015	3268
889.139	3287
889.263	3253
889.387	3397
889.511	3553
889.635	3458
889.759	3294
889.883	3275
890.006	3355
890.13	3496
890.254	3260
890.377	3329
890.501	3207
890.624	3207
890.748	3275
890.871	3169
890.995	3100
891.118	3104
891.241	3199
891.364	3245
891.488	3275
891.611	3169
891.734	3226
891.857	3294
891.98	3268
892.103	3340
892.226	3321
892.349	3233
892.471	3127
892.594	3211
892.717	3291
892.839	3253
892.962	3287
893.085	3397
893.207	3298
893.33	3154
893.452	3245
893.575	3348
893.697	3222
893.819	3492
893.941	3538
894.064	3439
894.186	3325
894.308	3256
894.43	3466
894.552	3564
894.674	3500
894.796	3249
894.918	3317
895.04	3272
895.161	3439
895.283	3424
895.405	3298
895.526	3374
895.648	3424
895.769	3405
895.891	3454
896.012	3466
896.134	3488
896.255	3450
896.376	3401
896.498	3370
896.619	3428
896.74	3378
896.861	3458
896.982	3701
897.103	3846
897.224	3587
897.345	3530
897.466	3450
897.587	3534
897.708	3584
897.828	3584
897.949	3447
898.07	3359
898.19	3420
898.311	3580
898.431	3515
898.552	3515
898.672	3614
898.792	3595
898.913	3542
899.033	3393
899.153	3291
899.273	3245
899.393	3332
899.513	3370
899.633	3367
899.753	3340
899.873	3272
899.993	3409
900.113	3378
900.232	3382
900.352	3359
900.472	3310
900.591	3207
900.711	3306
900.83	3249
900.95	3401
901.069	3481
901.189	3359
901.308	3203
901.427	3157
901.546	3214
901.665	3313
901.784	3363
901.904	3245
902.023	3184
902.141	3028
902.26	2975
902.379	3154
902.498	3089
902.617	3047
902.735	3199
902.854	3226
902.973	3199
903.091	3043
903.21	3104
903.328	3108
903.446	3119
903.565	3119
903.683	3195
903.801	3169
903.919	3237
904.038	3325
904.156	3180
904.274	3294
904.392	3287
904.51	3287
904.627	3313
904.745	3469
904.863	3473
904.981	3256
905.098	3203
905.216	3260
905.334	3264
905.451	3310
905.569	3279
905.686	3424
905.803	3466
905.921	3329
906.038	3424
906.155	3374
906.272	3310
906.389	3325
906.506	3268
906.623	3291
906.74	3348
906.857	3211
906.974	3279
907.091	3466
907.208	3591
907.324	3511
907.441	3370
907.557	3195
907.674	3230
907.79	3214
907.907	3279
908.023	3397
908.139	3370
908.256	3374
908.372	3412
908.488	3367
908.604	3249
908.72	3218
908.836	3272
908.952	3268
909.068	3370
909.184	3496
909.3	3382
909.415	3500
909.531	3507
909.647	3298
909.762	3279
909.878	3294
909.993	3351
910.108	3344
910.224	3355
910.339	3439
910.454	3351
910.57	3325
910.685	3245
910.8	3568
910.915	3485
911.03	3397
911.145	3298
911.259	3287
911.374	3313
911.489	3253
911.604	3211
911.718	3131
911.833	3116
911.947	3013
912.062	2933
912.176	3138
912.291	3207
912.405	3233
912.519	3420
912.633	3458
912.748	3313
912.862	3275
912.976	3176
913.09	3051
913.204	3180
913.318	3230
913.431	3370
913.545	3370
913.659	3382
913.772	3374
913.886	3256
914	3233
914.113	3336
914.226	3386
914.34	3401
914.453	3237
914.566	3405
914.68	3279
914.793	3329
914.906	3154
915.019	3131
915.132	3081
915.245	3188
915.358	3214
915.47	3207
915.583	3268
915.696	3256
915.809	3389
915.921	3409
916.034	3253
916.146	3264
916.259	3249
916.371	3409
916.483	3393
916.595	3256
916.708	3359
916.82	3351
916.932	3336
917.044	3397
917.156	3321
917.268	3249
917.38	3321
917.491	3291
917.603	3359
917.715	3450
917.826	3462
917.938	3374
918.049	3287
918.161	3450
918.272	3584
918.384	3576
918.495	3523
918.606	3321
918.717	3298
918.828	3409
918.939	3435
919.05	3317
919.161	3348
919.272	3176
919.383	3310
919.494	3534
919.604	3660
919.715	3507
919.826	3424
919.936	3462
920.047	3591
920.157	3591
920.267	3755
920.378	3595
920.488	3523
920.598	3812
920.708	3968
920.818	3812
920.928	3838
921.038	3994
921.148	3972
921.258	3694
921.368	3637
921.477	3603
921.587	3530
921.697	3454
921.806	3637
921.916	3523
922.025	3374
922.134	3336
922.244	3351
922.353	3424
922.462	3294
922.571	3272
922.68	3119
922.789	3058
922.898	3135
923.007	3119
923.116	3230
923.224	3161
923.333	3169
923.442	3135
923.55	3108
923.659	3135
923.767	3249
923.876	3100
923.984	3256
924.092	3058
924.201	3218
924.309	3211
924.417	3226
924.525	3173
924.633	3260
924.741	4036
924.849	3058
924.956	3233
925.064	3135
925.172	3013
925.279	3127
925.387	3184
925.494	3249
925.602	3370
925.709	3336
925.816	3199
925.924	3283
926.031	3393
926.138	3321
926.245	3386
926.352	3230
926.459	3412
926.566	3488
926.673	3363
926.779	3287
926.886	3226
926.993	3165
927.099	3119
927.206	3150
927.312	3123
927.419	3222
927.525	3249
927.631	3268
927.737	3131
927.843	3089
927.95	3017
928.056	3104
928.162	3192
928.267	3253
928.373	3903
928.479	3325
928.585	3077
928.69	3199
928.796	3253
928.901	3180
929.007	3039
929.112	3211
929.218	3184
929.323	3173
929.428	3135
929.533	3275
929.638	3108
929.743	3169
929.848	3249
929.953	3199
930.058	3138
930.163	2986
930.267	3055
930.372	3184
930.477	3058
930.581	3332
930.685	3199
930.79	3047
930.894	3119
930.998	3097
931.103	3332
931.207	2944
931.311	3013
931.415	2922
931.519	2785
931.623	2811
