Data from test_V78500241_1926.txt Node
Date: Fri Mar 25 16:28:32 CST 2022
User: usil
Spectrometer: V785-0024
Trigger mode: 0
Integration Time (sec): 4.000000E-1
Scans to average: 1
Nonlinearity correction enabled: false
Boxcar width: 0
Storing dark spectrum: false
XAxis mode: Wavelengths
Number of Pixels in Spectrum: 1024
>>>>>Begin Spectral Data<<<<<
801.071	2941
801.214	2994
801.356	2925
801.499	2956
801.641	2895
801.783	2956
801.926	3051
802.068	3020
802.211	3001
802.353	3043
802.496	2967
802.638	3001
802.78	3066
802.923	3066
803.065	3058
803.208	2868
803.35	2952
803.492	2963
803.635	2902
803.777	2758
803.919	2868
804.061	3245
804.204	2944
804.346	2933
804.488	2876
804.63	3013
804.773	2864
804.915	2918
805.057	3085
805.199	2941
805.341	2990
805.483	3051
805.626	2994
805.768	2952
805.91	3077
806.052	3154
806.194	3001
806.336	3203
806.478	3058
806.62	2960
806.762	3009
806.904	3074
807.046	3173
807.188	3013
807.33	2899
807.472	2994
807.614	2895
807.756	2998
807.898	2929
808.04	2887
808.182	2975
808.324	2979
808.465	2914
808.607	2910
808.749	2823
808.891	2861
809.033	2979
809.174	2986
809.316	2918
809.458	2929
809.6	2807
809.741	2769
809.883	2785
810.025	2845
810.166	2895
810.308	2872
810.45	2891
810.591	2785
810.733	2788
810.875	2853
811.016	2754
811.158	2788
811.299	2819
811.441	2963
811.582	2937
811.724	2815
811.865	2876
812.007	2922
812.148	2891
812.29	2906
812.431	2948
812.573	2982
812.714	2952
812.855	3066
812.997	3104
813.138	3138
813.279	3051
813.421	2986
813.562	2979
813.703	2895
813.845	2918
813.986	2826
814.127	2766
814.268	2838
814.41	2868
814.551	2842
814.692	2918
814.833	2842
814.974	2929
815.115	2960
815.256	2826
815.397	2823
815.539	2876
815.68	2826
815.821	2811
815.962	2975
816.103	2960
816.244	2899
816.385	2895
816.526	3028
816.666	2956
816.807	2762
816.948	2910
817.089	2956
817.23	2883
817.371	2796
817.512	2830
817.653	2872
817.793	2845
817.934	2929
818.075	2963
818.216	3017
818.356	3032
818.497	2876
818.638	2788
818.778	2830
818.919	2838
819.06	2796
819.2	2910
819.341	2849
819.481	2842
819.622	2963
819.762	3112
819.903	3081
820.043	2956
820.184	2967
820.324	2922
820.465	3043
820.605	3009
820.746	3020
820.886	2948
821.026	3100
821.167	3207
821.307	3279
821.447	3336
821.588	3260
821.728	3222
821.868	3192
822.008	3062
822.149	3222
822.289	3199
822.429	3097
822.569	3085
822.709	3184
822.849	3081
822.99	3036
823.13	3169
823.27	3222
823.41	3127
823.55	3169
823.69	3195
823.83	3253
823.97	3123
824.11	3043
824.25	2998
824.389	3051
824.529	3173
824.669	3089
824.809	3226
824.949	3214
825.089	3207
825.228	3138
825.368	3028
825.508	2975
825.648	2975
825.787	3062
825.927	3085
826.067	2975
826.206	2998
826.346	3047
826.485	3100
826.625	3154
826.765	3253
826.904	3226
827.044	2982
827.183	2948
827.323	2899
827.462	3009
827.601	2933
827.741	2952
827.88	2918
828.02	2899
828.159	2963
828.298	3070
828.437	3146
828.577	3093
828.716	3233
828.855	3074
828.994	2933
829.134	2902
829.273	2960
829.412	2876
829.551	2872
829.69	2918
829.829	2960
829.968	3146
830.107	3013
830.246	3024
830.385	2944
830.524	2906
830.663	2861
830.802	2724
830.941	2682
831.08	2667
831.219	2777
831.357	2773
831.496	2990
831.635	2735
831.774	2670
831.913	2670
832.051	2571
832.19	2606
832.329	2701
832.467	2568
832.606	2484
832.744	2610
832.883	2610
833.022	2610
833.16	2705
833.299	2678
833.437	2727
833.576	2697
833.714	2743
833.852	2731
833.991	2792
834.129	2899
834.267	2834
834.406	2815
834.544	2906
834.682	2876
834.821	2895
834.959	3047
835.097	2922
835.235	3066
835.373	3047
835.511	3032
835.65	2986
835.788	2982
835.926	2823
836.064	2826
836.202	2849
836.34	3097
836.478	3146
836.615	3062
836.753	3123
836.891	3199
837.029	3157
837.167	3112
837.305	3081
837.443	3100
837.58	2960
837.718	3173
837.856	3077
837.993	3043
838.131	3138
838.269	3157
838.406	3089
838.544	3085
838.681	2998
838.819	2914
838.956	2792
839.094	2834
839.231	2941
839.369	3047
839.506	3412
839.643	3218
839.781	3055
839.918	2975
840.055	2998
840.193	3051
840.33	3085
840.467	3112
840.604	3142
840.742	3416
840.879	3077
841.016	3070
841.153	3135
841.29	3386
841.427	3302
841.564	3294
841.701	3313
841.838	3203
841.975	3207
842.112	3233
842.249	3066
842.385	3066
842.522	3283
842.659	3112
842.796	3089
842.933	3089
843.069	3032
843.206	3024
843.343	3180
843.479	3138
843.616	3146
843.752	2933
843.889	2861
844.025	3070
844.162	2891
844.298	3058
844.435	2979
844.571	2956
844.708	3100
844.844	3188
844.98	3279
845.117	3218
845.253	3077
845.389	3009
845.525	3100
845.661	3142
845.798	3036
845.934	3135
846.07	3070
846.206	3241
846.342	3329
846.478	3245
846.614	3108
846.75	3062
846.886	3005
847.022	3260
847.158	3176
847.294	3249
847.429	3245
847.565	3264
847.701	3488
847.837	3017
847.972	3001
848.108	3165
848.244	3150
848.379	3020
848.515	2960
848.65	2952
848.786	2975
848.921	3001
849.057	3112
849.192	3150
849.328	3108
849.463	3097
849.598	3043
849.734	3039
849.869	3001
850.004	2944
850.14	3005
850.275	2937
850.41	2845
850.545	2899
850.68	2952
850.815	2971
850.95	2956
851.085	3203
851.22	3154
851.355	3032
851.49	2944
851.625	3009
851.76	2986
851.895	2960
852.03	2891
852.165	3028
852.299	3127
852.434	3203
852.569	3089
852.703	3203
852.838	3237
852.973	3329
853.107	3351
853.242	3180
853.376	3112
853.511	2967
853.645	3043
853.78	3218
853.914	3169
854.048	3089
854.183	3119
854.317	3142
854.451	3283
854.585	3150
854.72	3093
854.854	3188
854.988	3055
855.122	3077
855.256	2994
855.39	3093
855.524	3233
855.658	3173
855.792	3157
855.926	3188
856.06	3211
856.194	3283
856.327	3135
856.461	3047
856.595	3104
856.729	3123
856.862	3207
856.996	3157
857.13	3218
857.263	3195
857.397	3268
857.53	3146
857.664	3222
857.797	3230
857.931	3302
858.064	3207
858.197	3260
858.331	3157
858.464	3135
858.597	3032
858.731	3173
858.864	3150
858.997	3131
859.13	3192
859.263	3188
859.396	3199
859.529	3142
859.662	3097
859.795	3043
859.928	3195
860.061	3317
860.194	3340
860.327	3150
860.46	3108
860.592	3287
860.725	3294
860.858	3283
860.99	3116
861.123	3058
861.256	3081
861.388	3195
861.521	3842
861.653	3066
861.786	3013
861.918	3074
862.05	3104
862.183	3150
862.315	3180
862.447	3218
862.58	3123
862.712	3020
862.844	2887
862.976	3051
863.108	3036
863.24	3336
863.372	2933
863.504	3005
863.636	3001
863.768	3039
863.9	3032
864.032	2933
864.164	3005
864.296	3017
864.428	3123
864.559	3150
864.691	3093
864.823	3097
864.954	3074
865.086	3119
865.217	3055
865.349	2967
865.48	3005
865.612	3051
865.743	3199
865.875	3020
866.006	2979
866.137	2994
866.269	3005
866.4	2979
866.531	2956
866.662	2922
866.793	2929
866.924	2952
867.055	2982
867.186	2948
867.317	2933
867.448	2868
867.579	2895
867.71	2910
867.841	2849
867.972	2963
868.103	2902
868.233	2944
868.364	2868
868.495	2998
868.625	3150
868.756	3195
868.886	3001
869.017	3058
869.147	3188
869.278	3188
869.408	3070
869.539	3097
869.669	3127
869.799	3055
869.929	3180
870.06	3142
870.19	3317
870.32	3336
870.45	3317
870.58	3435
870.71	3492
870.84	3485
870.97	3268
871.1	3279
871.23	3515
871.36	3519
871.489	3374
871.619	3412
871.749	3431
871.879	3447
872.008	3526
872.138	3378
872.267	3336
872.397	3146
872.526	3123
872.656	3081
872.785	3112
872.915	3268
873.044	3321
873.173	3275
873.303	3283
873.432	3268
873.561	3264
873.69	3195
873.819	3157
873.948	3256
874.077	3131
874.206	3089
874.335	3104
874.464	3275
874.593	3367
874.722	3272
874.851	3378
874.979	3367
875.108	3363
875.237	3241
875.365	3188
875.494	3222
875.623	3268
875.751	3127
875.88	3169
876.008	3233
876.136	3272
876.265	3435
876.393	3534
876.521	3428
876.65	3454
876.778	3367
876.906	3256
877.034	3245
877.162	3260
877.29	3222
877.418	3291
877.546	3245
877.674	3294
877.802	3260
877.93	3275
878.058	3161
878.185	3157
878.313	3226
878.441	3249
878.568	3100
878.696	3146
878.824	3275
878.951	3329
879.079	3511
879.206	3648
879.333	3462
879.461	3363
879.588	3389
879.715	3519
879.842	3618
879.97	3389
880.097	3211
880.224	3138
880.351	3203
880.478	3264
880.605	3230
880.732	3199
880.859	3553
880.986	3370
881.112	3367
881.239	3222
881.366	3116
881.493	3089
881.619	3058
881.746	3108
881.872	3138
881.999	3157
882.125	3184
882.252	3294
882.378	3298
882.505	3393
882.631	3310
882.757	3146
882.883	3222
883.01	3253
883.136	3195
883.262	3081
883.388	3169
883.514	3348
883.64	3382
883.766	3370
883.892	3192
884.018	3287
884.143	3454
884.269	3549
884.395	3256
884.52	3203
884.646	3268
884.772	3146
884.897	3142
885.023	3226
885.148	3351
885.274	3428
885.399	3378
885.524	3310
885.65	3310
885.775	3348
885.9	3302
886.025	3447
886.15	3378
886.275	3310
886.4	3241
886.525	3332
886.65	3306
886.775	3264
886.9	3500
887.025	3717
887.149	3447
887.274	3268
887.399	3237
887.523	3226
887.648	3203
887.773	3237
887.897	3378
888.021	3435
888.146	3313
888.27	3435
888.395	3542
888.519	3454
888.643	3473
888.767	3485
888.891	3332
889.015	3245
889.139	3325
889.263	3253
889.387	3439
889.511	3511
889.635	3447
889.759	3340
889.883	3294
890.006	3412
890.13	3500
890.254	3298
890.377	3389
890.501	3245
890.624	3245
890.748	3325
890.871	3222
890.995	3142
891.118	3119
891.241	3230
891.364	3230
891.488	3389
891.611	3211
891.734	3218
891.857	3272
891.98	3283
892.103	3348
892.226	3272
892.349	3241
892.471	3119
892.594	3294
892.717	3306
892.839	3275
892.962	3321
893.085	3428
893.207	3310
893.33	3180
893.452	3188
893.575	3332
893.697	3268
893.819	3496
893.941	3488
894.064	3409
894.186	3275
894.308	3306
894.43	3458
894.552	3553
894.674	3504
894.796	3298
894.918	3351
895.04	3313
895.161	3447
895.283	3378
895.405	3325
895.526	3374
895.648	3492
895.769	3443
895.891	3458
896.012	3504
896.134	3469
896.255	3481
896.376	3401
896.498	3393
896.619	3443
896.74	3393
896.861	3454
896.982	3694
897.103	3831
897.224	3599
897.345	3553
897.466	3435
897.587	3538
897.708	3644
897.828	3538
897.949	3439
898.07	3351
898.19	3435
898.311	3637
898.431	3481
898.552	3542
898.672	3584
898.792	3603
898.913	3530
899.033	3466
899.153	3321
899.273	3230
899.393	3332
899.513	3329
899.633	3325
899.753	3355
899.873	3313
899.993	3397
900.113	3340
900.232	3428
900.352	3344
900.472	3294
900.591	3237
900.711	3302
900.83	3226
900.95	3435
901.069	3542
901.189	3363
901.308	3188
901.427	3123
901.546	3207
901.665	3310
901.784	3351
901.904	3245
902.023	3157
902.141	3039
902.26	3051
902.379	3165
902.498	3104
902.617	3081
902.735	3211
902.854	3245
902.973	3203
903.091	3066
903.21	3074
903.328	3188
903.446	3146
903.565	3127
903.683	3241
903.801	3138
903.919	3264
904.038	3313
904.156	3214
904.274	3310
904.392	3287
904.51	3321
904.627	3332
904.745	3511
904.863	3500
904.981	3264
905.098	3207
905.216	3237
905.334	3325
905.451	3313
905.569	3317
905.686	3428
905.803	3488
905.921	3298
906.038	3462
906.155	3363
906.272	3291
906.389	3367
906.506	3287
906.623	3294
906.74	3291
906.857	3192
906.974	3287
907.091	3473
907.208	3614
907.324	3492
907.441	3409
907.557	3249
907.674	3214
907.79	3226
907.907	3275
908.023	3389
908.139	3416
908.256	3367
908.372	3393
908.488	3420
908.604	3275
908.72	3260
908.836	3317
908.952	3306
909.068	3370
909.184	3504
909.3	3439
909.415	3500
909.531	3504
909.647	3302
909.762	3351
909.878	3291
909.993	3370
910.108	3344
910.224	3386
910.339	3462
910.454	3355
910.57	3310
910.685	3268
910.8	3603
910.915	3576
911.03	3424
911.145	3287
911.259	3294
911.374	3294
911.489	3275
911.604	3256
911.718	3146
911.833	3188
911.947	3039
912.062	3013
912.176	3203
912.291	3230
912.405	3214
912.519	3424
912.633	3492
912.748	3355
912.862	3310
912.976	3195
913.09	3085
913.204	3146
913.318	3207
913.431	3329
913.545	3382
913.659	3355
913.772	3378
913.886	3237
914	3249
914.113	3348
914.226	3469
914.34	3416
914.453	3241
914.566	3443
914.68	3310
914.793	3351
914.906	3123
915.019	3165
915.132	3085
915.245	3203
915.358	3180
915.47	3283
915.583	3256
915.696	3310
915.809	3409
915.921	3447
916.034	3298
916.146	3279
916.259	3237
916.371	3416
916.483	3355
916.595	3275
916.708	3325
916.82	3355
916.932	3367
917.044	3367
917.156	3351
917.268	3237
917.38	3310
917.491	3317
917.603	3374
917.715	3450
917.826	3466
917.938	3378
918.049	3279
918.161	3496
918.272	3587
918.384	3545
918.495	3511
918.606	3393
918.717	3313
918.828	3386
918.939	3412
919.05	3317
919.161	3386
919.272	3199
919.383	3260
919.494	3511
919.604	3679
919.715	3473
919.826	3428
919.936	3450
920.047	3610
920.157	3538
920.267	3755
920.378	3637
920.488	3561
920.598	3804
920.708	3983
920.818	3857
920.928	3819
921.038	4029
921.148	4071
921.258	3709
921.368	3679
921.477	3587
921.587	3530
921.697	3469
921.806	3625
921.916	3545
922.025	3359
922.134	3397
922.244	3291
922.353	3458
922.462	3279
922.571	3237
922.68	3058
922.789	3070
922.898	3195
923.007	3116
923.116	3188
923.224	3180
923.333	3207
923.442	3131
923.55	3131
923.659	3150
923.767	3195
923.876	3119
923.984	3260
924.092	3127
924.201	3169
924.309	3218
924.417	3279
924.525	3161
924.633	3230
924.741	4139
924.849	3077
924.956	3313
925.064	3135
925.172	3055
925.279	3146
925.387	3233
925.494	3211
925.602	3363
925.709	3348
925.816	3184
925.924	3260
926.031	3393
926.138	3374
926.245	3351
926.352	3283
926.459	3439
926.566	3492
926.673	3367
926.779	3245
926.886	3222
926.993	3165
927.099	3150
927.206	3131
927.312	3116
927.419	3222
927.525	3211
927.631	3279
927.737	3123
927.843	3119
927.95	3066
928.056	3157
928.162	3131
928.267	3256
928.373	3934
928.479	3325
928.585	3089
928.69	3207
928.796	3302
928.901	3146
929.007	3047
929.112	3222
929.218	3233
929.323	3138
929.428	3135
929.533	3325
929.638	3131
929.743	3184
929.848	3245
929.953	3192
930.058	3146
930.163	3005
930.267	3051
930.372	3211
930.477	3039
930.581	3340
930.685	3199
930.79	3036
930.894	3142
930.998	3112
931.103	3298
931.207	2948
931.311	2971
931.415	2918
931.519	2788
931.623	2792
