Data from test_V78500241_1497.txt Node
Date: Fri Mar 25 16:25:34 CST 2022
User: usil
Spectrometer: V785-0024
Trigger mode: 0
Integration Time (sec): 4.000000E-1
Scans to average: 1
Nonlinearity correction enabled: false
Boxcar width: 0
Storing dark spectrum: false
XAxis mode: Wavelengths
Number of Pixels in Spectrum: 1024
>>>>>Begin Spectral Data<<<<<
801.071	2902
801.214	2963
801.356	2872
801.499	2883
801.641	2849
801.783	2891
801.926	3055
802.068	2982
802.211	3020
802.353	3028
802.496	2944
802.638	3047
802.78	3055
802.923	3116
803.065	3020
803.208	2925
803.35	2895
803.492	2899
803.635	2925
803.777	2804
803.919	2880
804.061	3233
804.204	2994
804.346	2922
804.488	2876
804.63	2975
804.773	2891
804.915	2910
805.057	3104
805.199	2937
805.341	2971
805.483	3043
805.626	3085
805.768	3001
805.91	3093
806.052	3165
806.194	3036
806.336	3279
806.478	3036
806.62	2986
806.762	3017
806.904	3119
807.046	3188
807.188	3032
807.33	2925
807.472	3028
807.614	2941
807.756	3039
807.898	2967
808.04	2914
808.182	2975
808.324	3024
808.465	2933
808.607	2910
808.749	2807
808.891	2906
809.033	3020
809.174	2986
809.316	2922
809.458	2952
809.6	2781
809.741	2811
809.883	2800
810.025	2853
810.166	2910
810.308	2861
810.45	2910
810.591	2853
810.733	2807
810.875	2887
811.016	2819
811.158	2819
811.299	2845
811.441	2982
811.582	2937
811.724	2857
811.865	2861
812.007	2960
812.148	2906
812.29	2876
812.431	2933
812.573	2986
812.714	2982
812.855	3142
812.997	3058
813.138	3176
813.279	3017
813.421	3051
813.562	2982
813.703	2925
813.845	2922
813.986	2807
814.127	2743
814.268	2845
814.41	2876
814.551	2861
814.692	2918
814.833	2864
814.974	2944
815.115	3001
815.256	2876
815.397	2826
815.539	2876
815.68	2800
815.821	2872
815.962	2948
816.103	2986
816.244	2933
816.385	2902
816.526	2986
816.666	2944
816.807	2777
816.948	2891
817.089	2944
817.23	2868
817.371	2788
817.512	2830
817.653	2853
817.793	2845
817.934	2929
818.075	2956
818.216	3017
818.356	3047
818.497	2941
818.638	2823
818.778	2838
818.919	2804
819.06	2792
819.2	2918
819.341	2853
819.481	2857
819.622	2960
819.762	3150
819.903	3062
820.043	2941
820.184	2937
820.324	2922
820.465	3047
820.605	3039
820.746	3032
820.886	2967
821.026	3119
821.167	3173
821.307	3275
821.447	3287
821.588	3283
821.728	3241
821.868	3287
822.008	3100
822.149	3230
822.289	3264
822.429	3161
822.569	3116
822.709	3218
822.849	3058
822.99	3104
823.13	3169
823.27	3237
823.41	3138
823.55	3199
823.69	3173
823.83	3214
823.97	3119
824.11	3001
824.25	3013
824.389	3085
824.529	3131
824.669	3089
824.809	3180
824.949	3260
825.089	3245
825.228	3211
825.368	3032
825.508	2971
825.648	3017
825.787	3036
825.927	3036
826.067	2990
826.206	3005
826.346	3070
826.485	3066
826.625	3154
826.765	3272
826.904	3237
827.044	3024
827.183	2941
827.323	2887
827.462	3032
827.601	2956
827.741	2933
827.88	2948
828.02	2902
828.159	2967
828.298	3062
828.437	3089
828.577	3066
828.716	3283
828.855	3085
828.994	2933
829.134	2914
829.273	2986
829.412	2876
829.551	2872
829.69	2922
829.829	3005
829.968	3184
830.107	3020
830.246	3062
830.385	2952
830.524	2876
830.663	2842
830.802	2743
830.941	2689
831.08	2678
831.219	2830
831.357	2785
831.496	2960
831.635	2739
831.774	2667
831.913	2689
832.051	2571
832.19	2594
832.329	2731
832.467	2556
832.606	2465
832.744	2617
832.883	2583
833.022	2621
833.16	2674
833.299	2712
833.437	2701
833.576	2750
833.714	2735
833.852	2785
833.991	2773
834.129	2857
834.267	2845
834.406	2811
834.544	2910
834.682	2929
834.821	2914
834.959	3077
835.097	2887
835.235	3070
835.373	3013
835.511	3043
835.65	2990
835.788	2986
835.926	2868
836.064	2819
836.202	2876
836.34	3097
836.478	3207
836.615	3020
836.753	3142
836.891	3222
837.029	3195
837.167	3161
837.305	3100
837.443	3051
837.58	3001
837.718	3146
837.856	3089
837.993	3070
838.131	3146
838.269	3131
838.406	3127
838.544	3051
838.681	2971
838.819	2941
838.956	2819
839.094	2834
839.231	2929
839.369	3058
839.506	3359
839.643	3233
839.781	3032
839.918	2960
840.055	3074
840.193	3058
840.33	3074
840.467	3131
840.604	3165
840.742	3439
840.879	3066
841.016	3062
841.153	3161
841.29	3340
841.427	3332
841.564	3313
841.701	3332
841.838	3226
841.975	3207
842.112	3241
842.249	3081
842.385	3058
842.522	3298
842.659	3100
842.796	3055
842.933	3142
843.069	3116
843.206	3074
843.343	3226
843.479	3150
843.616	3176
843.752	2922
843.889	2861
844.025	3119
844.162	2868
844.298	3104
844.435	2952
844.571	2967
844.708	3081
844.844	3176
844.98	3283
845.117	3214
845.253	3093
845.389	3043
845.525	3085
845.661	3104
845.798	3009
845.934	3157
846.07	3070
846.206	3245
846.342	3306
846.478	3260
846.614	3058
846.75	3051
846.886	3032
847.022	3245
847.158	3135
847.294	3188
847.429	3245
847.565	3226
847.701	3496
847.837	3051
847.972	3024
848.108	3180
848.244	3195
848.379	2990
848.515	2944
848.65	2918
848.786	2971
848.921	3039
849.057	3104
849.192	3169
849.328	3070
849.463	3104
849.598	3051
849.734	3043
849.869	2994
850.004	2944
850.14	3009
850.275	2952
850.41	2883
850.545	2906
850.68	2948
850.815	2963
850.95	2956
851.085	3207
851.22	3085
851.355	3009
851.49	2982
851.625	3028
851.76	3009
851.895	2960
852.03	2925
852.165	3043
852.299	3123
852.434	3199
852.569	3112
852.703	3226
852.838	3256
852.973	3355
853.107	3340
853.242	3150
853.376	3085
853.511	2975
853.645	3062
853.78	3241
853.914	3154
854.048	3138
854.183	3138
854.317	3180
854.451	3272
854.585	3142
854.72	3112
854.854	3222
854.988	3066
855.122	3077
855.256	3001
855.39	3116
855.524	3253
855.658	3218
855.792	3180
855.926	3188
856.06	3241
856.194	3260
856.327	3161
856.461	3093
856.595	3085
856.729	3104
856.862	3199
856.996	3207
857.13	3211
857.263	3264
857.397	3294
857.53	3169
857.664	3230
857.797	3253
857.931	3249
858.064	3207
858.197	3241
858.331	3135
858.464	3131
858.597	3043
858.731	3123
858.864	3135
858.997	3062
859.13	3195
859.263	3169
859.396	3218
859.529	3119
859.662	3100
859.795	3047
859.928	3150
860.061	3317
860.194	3279
860.327	3131
860.46	3093
860.592	3233
860.725	3272
860.858	3294
860.99	3108
861.123	3047
861.256	3024
861.388	3146
861.521	3850
861.653	3024
861.786	3028
861.918	3047
862.05	3070
862.183	3112
862.315	3165
862.447	3184
862.58	3127
862.712	2944
862.844	2906
862.976	3017
863.108	3024
863.24	3359
863.372	2899
863.504	2963
863.636	2967
863.768	3047
863.9	2986
864.032	2895
864.164	2922
864.296	3020
864.428	3097
864.559	3104
864.691	3097
864.823	3070
864.954	3062
865.086	3051
865.217	3005
865.349	2994
865.48	2998
865.612	3051
865.743	3169
865.875	2986
866.006	2952
866.137	2986
866.269	2960
866.4	2944
866.531	2937
866.662	2944
866.793	2895
866.924	2929
867.055	2990
867.186	2967
867.317	2918
867.448	2864
867.579	2861
867.71	2861
867.841	2842
867.972	2895
868.103	2929
868.233	2861
868.364	2914
868.495	2899
868.625	3097
868.756	3157
868.886	2971
869.017	3051
869.147	3169
869.278	3192
869.408	3036
869.539	3020
869.669	3093
869.799	3051
869.929	3112
870.06	3146
870.19	3344
870.32	3268
870.45	3321
870.58	3363
870.71	3473
870.84	3462
870.97	3298
871.1	3249
871.23	3492
871.36	3439
871.489	3405
871.619	3382
871.749	3431
871.879	3450
872.008	3492
872.138	3355
872.267	3291
872.397	3154
872.526	3093
872.656	3005
872.785	3157
872.915	3275
873.044	3378
873.173	3233
873.303	3230
873.432	3256
873.561	3241
873.69	3211
873.819	3138
873.948	3218
874.077	3138
874.206	3013
874.335	3108
874.464	3237
874.593	3351
874.722	3253
874.851	3382
874.979	3332
875.108	3336
875.237	3180
875.365	3161
875.494	3173
875.623	3207
875.751	3036
875.88	3150
876.008	3237
876.136	3241
876.265	3374
876.393	3530
876.521	3428
876.65	3401
876.778	3370
876.906	3279
877.034	3233
877.162	3264
877.29	3173
877.418	3302
877.546	3241
877.674	3249
877.802	3207
877.93	3233
878.058	3161
878.185	3112
878.313	3226
878.441	3192
878.568	3108
878.696	3157
878.824	3268
878.951	3298
879.079	3462
879.206	3622
879.333	3428
879.461	3310
879.588	3386
879.715	3519
879.842	3603
879.97	3367
880.097	3188
880.224	3138
880.351	3211
880.478	3222
880.605	3222
880.732	3176
880.859	3515
880.986	3287
881.112	3291
881.239	3226
881.366	3097
881.493	3028
881.619	3028
881.746	3066
881.872	3093
881.999	3093
882.125	3157
882.252	3233
882.378	3321
882.505	3401
882.631	3260
882.757	3165
882.883	3222
883.01	3211
883.136	3180
883.262	3097
883.388	3108
883.514	3287
883.64	3386
883.766	3283
883.892	3199
884.018	3222
884.143	3431
884.269	3591
884.395	3203
884.52	3146
884.646	3192
884.772	3108
884.897	3100
885.023	3264
885.148	3351
885.274	3382
885.399	3367
885.524	3321
885.65	3283
885.775	3348
885.9	3302
886.025	3412
886.15	3351
886.275	3268
886.4	3230
886.525	3325
886.65	3275
886.775	3294
886.9	3530
887.025	3652
887.149	3469
887.274	3272
887.399	3184
887.523	3203
887.648	3226
887.773	3214
887.897	3344
888.021	3424
888.146	3298
888.27	3450
888.395	3519
888.519	3454
888.643	3477
888.767	3477
888.891	3298
889.015	3233
889.139	3287
889.263	3226
889.387	3370
889.511	3534
889.635	3443
889.759	3275
889.883	3264
890.006	3374
890.13	3485
890.254	3287
890.377	3317
890.501	3173
890.624	3207
890.748	3348
890.871	3207
890.995	3119
891.118	3070
891.241	3169
891.364	3218
891.488	3351
891.611	3184
891.734	3195
891.857	3272
891.98	3207
892.103	3332
892.226	3344
892.349	3222
892.471	3142
892.594	3245
892.717	3306
892.839	3287
892.962	3249
893.085	3336
893.207	3306
893.33	3154
893.452	3218
893.575	3382
893.697	3272
893.819	3488
893.941	3523
894.064	3435
894.186	3272
894.308	3260
894.43	3450
894.552	3542
894.674	3458
894.796	3264
894.918	3321
895.04	3279
895.161	3431
895.283	3397
895.405	3306
895.526	3405
895.648	3420
895.769	3466
895.891	3469
896.012	3466
896.134	3507
896.255	3401
896.376	3359
896.498	3355
896.619	3443
896.74	3336
896.861	3382
896.982	3682
897.103	3846
897.224	3618
897.345	3534
897.466	3439
897.587	3485
897.708	3637
897.828	3576
897.949	3454
898.07	3317
898.19	3450
898.311	3610
898.431	3447
898.552	3511
898.672	3568
898.792	3595
898.913	3534
899.033	3378
899.153	3264
899.273	3233
899.393	3268
899.513	3294
899.633	3321
899.753	3363
899.873	3294
899.993	3378
900.113	3351
900.232	3374
900.352	3313
900.472	3294
900.591	3173
900.711	3325
900.83	3245
900.95	3416
901.069	3496
901.189	3370
901.308	3176
901.427	3135
901.546	3218
901.665	3287
901.784	3325
901.904	3237
902.023	3161
902.141	2986
902.26	3005
902.379	3104
902.498	3074
902.617	3032
902.735	3173
902.854	3245
902.973	3184
903.091	3032
903.21	3085
903.328	3146
903.446	3127
903.565	3055
903.683	3211
903.801	3119
903.919	3237
904.038	3264
904.156	3176
904.274	3291
904.392	3253
904.51	3279
904.627	3321
904.745	3409
904.863	3504
904.981	3306
905.098	3195
905.216	3241
905.334	3294
905.451	3287
905.569	3291
905.686	3424
905.803	3450
905.921	3294
906.038	3420
906.155	3363
906.272	3272
906.389	3355
906.506	3214
906.623	3233
906.74	3279
906.857	3157
906.974	3237
907.091	3454
907.208	3587
907.324	3458
907.441	3344
907.557	3245
907.674	3256
907.79	3218
907.907	3310
908.023	3359
908.139	3370
908.256	3313
908.372	3378
908.488	3386
908.604	3260
908.72	3218
908.836	3291
908.952	3260
909.068	3374
909.184	3507
909.3	3367
909.415	3492
909.531	3435
909.647	3298
909.762	3275
909.878	3272
909.993	3367
910.108	3321
910.224	3382
910.339	3359
910.454	3313
910.57	3294
910.685	3256
910.8	3603
910.915	3538
911.03	3454
911.145	3264
911.259	3272
911.374	3298
911.489	3241
911.604	3184
911.718	3146
911.833	3135
911.947	3005
912.062	2990
912.176	3127
912.291	3192
912.405	3207
912.519	3454
912.633	3477
912.748	3340
912.862	3287
912.976	3207
913.09	3085
913.204	3150
913.318	3253
913.431	3302
913.545	3374
913.659	3382
913.772	3317
913.886	3211
914	3192
914.113	3374
914.226	3443
914.34	3374
914.453	3222
914.566	3458
914.68	3306
914.793	3310
914.906	3135
915.019	3131
915.132	3074
915.245	3173
915.358	3176
915.47	3241
915.583	3260
915.696	3264
915.809	3420
915.921	3405
916.034	3253
916.146	3245
916.259	3237
916.371	3389
916.483	3340
916.595	3279
916.708	3302
916.82	3351
916.932	3325
917.044	3348
917.156	3340
917.268	3279
917.38	3310
917.491	3291
917.603	3344
917.715	3439
917.826	3477
917.938	3428
918.049	3264
918.161	3428
918.272	3591
918.384	3557
918.495	3553
918.606	3283
918.717	3291
918.828	3374
918.939	3428
919.05	3291
919.161	3389
919.272	3184
919.383	3313
919.494	3511
919.604	3690
919.715	3511
919.826	3431
919.936	3473
920.047	3599
920.157	3557
920.267	3747
920.378	3648
920.488	3549
920.598	3728
920.708	3941
920.818	3857
920.928	3823
921.038	4021
921.148	3987
921.258	3698
921.368	3629
921.477	3614
921.587	3542
921.697	3466
921.806	3671
921.916	3534
922.025	3374
922.134	3363
922.244	3348
922.353	3412
922.462	3283
922.571	3249
922.68	3119
922.789	3123
922.898	3138
923.007	3081
923.116	3222
923.224	3165
923.333	3184
923.442	3146
923.55	3100
923.659	3150
923.767	3226
923.876	3142
923.984	3249
924.092	3116
924.201	3218
924.309	3249
924.417	3310
924.525	3176
924.633	3253
924.741	3998
924.849	3062
924.956	3264
925.064	3093
925.172	3058
925.279	3116
925.387	3199
925.494	3207
925.602	3374
925.709	3340
925.816	3264
925.924	3260
926.031	3401
926.138	3321
926.245	3389
926.352	3233
926.459	3450
926.566	3466
926.673	3313
926.779	3260
926.886	3253
926.993	3154
927.099	3138
927.206	3161
927.312	3112
927.419	3222
927.525	3199
927.631	3268
927.737	3165
927.843	3154
927.95	3024
928.056	3142
928.162	3165
928.267	3279
928.373	3774
928.479	3302
928.585	3097
928.69	3260
928.796	3298
928.901	3184
929.007	3062
929.112	3184
929.218	3173
929.323	3154
929.428	3138
929.533	3340
929.638	3142
929.743	3188
929.848	3272
929.953	3241
930.058	3146
930.163	3001
930.267	3066
930.372	3211
930.477	3066
930.581	3313
930.685	3154
930.79	3066
930.894	3104
930.998	3104
931.103	3306
931.207	2948
931.311	2937
931.415	2914
931.519	2766
931.623	2804
