Data from test_V78500241_1469.txt Node
Date: Fri Mar 25 16:25:22 CST 2022
User: usil
Spectrometer: V785-0024
Trigger mode: 0
Integration Time (sec): 4.000000E-1
Scans to average: 1
Nonlinearity correction enabled: false
Boxcar width: 0
Storing dark spectrum: false
XAxis mode: Wavelengths
Number of Pixels in Spectrum: 1024
>>>>>Begin Spectral Data<<<<<
801.071	2902
801.214	2963
801.356	2845
801.499	2914
801.641	2853
801.783	2918
801.926	3036
802.068	2979
802.211	2979
802.353	3028
802.496	2990
802.638	3024
802.78	3043
802.923	3051
803.065	3009
803.208	2918
803.35	2880
803.492	2975
803.635	2922
803.777	2758
803.919	2834
804.061	3211
804.204	2975
804.346	2922
804.488	2842
804.63	2990
804.773	2842
804.915	2876
805.057	3085
805.199	2925
805.341	2986
805.483	3055
805.626	3001
805.768	2937
805.91	3085
806.052	3097
806.194	2998
806.336	3214
806.478	3005
806.62	2956
806.762	2937
806.904	3055
807.046	3173
807.188	2952
807.33	2922
807.472	2944
807.614	2876
807.756	2967
807.898	2910
808.04	2857
808.182	2986
808.324	2944
808.465	2864
808.607	2880
808.749	2788
808.891	2815
809.033	2956
809.174	2975
809.316	2910
809.458	2876
809.6	2773
809.741	2731
809.883	2769
810.025	2834
810.166	2864
810.308	2819
810.45	2838
810.591	2811
810.733	2792
810.875	2853
811.016	2743
811.158	2746
811.299	2823
811.441	2880
811.582	2899
811.724	2796
811.865	2815
812.007	2883
812.148	2864
812.29	2853
812.431	2887
812.573	2929
812.714	2937
812.855	3020
812.997	3024
813.138	3081
813.279	3024
813.421	3001
813.562	2948
813.703	2883
813.845	2902
813.986	2792
814.127	2720
814.268	2823
814.41	2788
814.551	2800
814.692	2861
814.833	2792
814.974	2868
815.115	2925
815.256	2853
815.397	2826
815.539	2872
815.68	2746
815.821	2792
815.962	2914
816.103	2944
816.244	2838
816.385	2857
816.526	2937
816.666	2891
816.807	2731
816.948	2872
817.089	2880
817.23	2815
817.371	2792
817.512	2834
817.653	2853
817.793	2819
817.934	2876
818.075	2952
818.216	3013
818.356	2990
818.497	2887
818.638	2785
818.778	2773
818.919	2785
819.06	2754
819.2	2887
819.341	2800
819.481	2792
819.622	2910
819.762	3089
819.903	3032
820.043	2922
820.184	2910
820.324	2857
820.465	3017
820.605	2990
820.746	3005
820.886	2910
821.026	3089
821.167	3192
821.307	3256
821.447	3233
821.588	3268
821.728	3218
821.868	3188
822.008	3066
822.149	3180
822.289	3154
822.429	3093
822.569	3093
822.709	3165
822.849	3009
822.99	3039
823.13	3146
823.27	3211
823.41	3112
823.55	3138
823.69	3135
823.83	3173
823.97	3055
824.11	2998
824.25	2971
824.389	3074
824.529	3104
824.669	3055
824.809	3165
824.949	3233
825.089	3195
825.228	3188
825.368	3032
825.508	2948
825.648	2982
825.787	3017
825.927	3009
826.067	2922
826.206	2941
826.346	3020
826.485	3043
826.625	3089
826.765	3268
826.904	3188
827.044	2994
827.183	2910
827.323	2876
827.462	2990
827.601	2891
827.741	2902
827.88	2914
828.02	2872
828.159	2948
828.298	3055
828.437	3127
828.577	3020
828.716	3233
828.855	3081
828.994	2922
829.134	2895
829.273	2895
829.412	2857
829.551	2876
829.69	2906
829.829	2975
829.968	3116
830.107	3024
830.246	3058
830.385	2872
830.524	2902
830.663	2769
830.802	2708
830.941	2655
831.08	2617
831.219	2785
831.357	2754
831.496	2918
831.635	2701
831.774	2632
831.913	2629
832.051	2568
832.19	2594
832.329	2689
832.467	2514
832.606	2461
832.744	2568
832.883	2583
833.022	2575
833.16	2629
833.299	2686
833.437	2686
833.576	2701
833.714	2701
833.852	2697
833.991	2731
834.129	2861
834.267	2781
834.406	2800
834.544	2823
834.682	2876
834.821	2880
834.959	3074
835.097	2880
835.235	3070
835.373	2971
835.511	3017
835.65	2971
835.788	2944
835.926	2800
836.064	2792
836.202	2823
836.34	3077
836.478	3119
836.615	3066
836.753	3165
836.891	3207
837.029	3142
837.167	3104
837.305	3036
837.443	3043
837.58	2929
837.718	3154
837.856	3058
837.993	3032
838.131	3123
838.269	3104
838.406	3066
838.544	3074
838.681	2929
838.819	2883
838.956	2811
839.094	2811
839.231	2899
839.369	3013
839.506	3359
839.643	3214
839.781	2990
839.918	2956
840.055	3039
840.193	3066
840.33	3051
840.467	3055
840.604	3161
840.742	3405
840.879	3036
841.016	3036
841.153	3146
841.29	3313
841.427	3256
841.564	3245
841.701	3325
841.838	3188
841.975	3195
842.112	3207
842.249	3043
842.385	3077
842.522	3230
842.659	3108
842.796	3039
842.933	3119
843.069	3036
843.206	3013
843.343	3207
843.479	3066
843.616	3127
843.752	2876
843.889	2845
844.025	3093
844.162	2845
844.298	3077
844.435	2963
844.571	2891
844.708	3051
844.844	3135
844.98	3230
845.117	3180
845.253	3081
845.389	3001
845.525	3119
845.661	3100
845.798	3024
845.934	3097
846.07	3070
846.206	3176
846.342	3302
846.478	3241
846.614	3051
846.75	3039
846.886	2971
847.022	3195
847.158	3146
847.294	3199
847.429	3233
847.565	3184
847.701	3450
847.837	3009
847.972	2971
848.108	3138
848.244	3123
848.379	2986
848.515	2918
848.65	2929
848.786	2971
848.921	2975
849.057	3074
849.192	3135
849.328	3089
849.463	3074
849.598	3058
849.734	3058
849.869	2960
850.004	2880
850.14	2956
850.275	2902
850.41	2838
850.545	2872
850.68	2941
850.815	2982
850.95	2948
851.085	3192
851.22	3116
851.355	3020
851.49	2986
851.625	2967
851.76	3013
851.895	2918
852.03	2895
852.165	3009
852.299	3085
852.434	3188
852.569	3157
852.703	3131
852.838	3233
852.973	3363
853.107	3355
853.242	3127
853.376	3104
853.511	2986
853.645	3039
853.78	3245
853.914	3104
854.048	3100
854.183	3100
854.317	3161
854.451	3268
854.585	3089
854.72	3055
854.854	3195
854.988	3058
855.122	3058
855.256	2982
855.39	3127
855.524	3222
855.658	3150
855.792	3142
855.926	3180
856.06	3211
856.194	3264
856.327	3127
856.461	3074
856.595	3074
856.729	3077
856.862	3154
856.996	3150
857.13	3214
857.263	3226
857.397	3249
857.53	3089
857.664	3207
857.797	3211
857.931	3306
858.064	3161
858.197	3222
858.331	3108
858.464	3100
858.597	3013
858.731	3123
858.864	3119
858.997	3047
859.13	3173
859.263	3161
859.396	3218
859.529	3097
859.662	3036
859.795	3039
859.928	3142
860.061	3264
860.194	3283
860.327	3123
860.46	3070
860.592	3211
860.725	3237
860.858	3249
860.99	3081
861.123	3017
861.256	3017
861.388	3176
861.521	3835
861.653	3001
861.786	2948
861.918	2979
862.05	3043
862.183	3051
862.315	3150
862.447	3150
862.58	3104
862.712	2948
862.844	2861
862.976	2986
863.108	3005
863.24	3325
863.372	2887
863.504	2979
863.636	2963
863.768	3039
863.9	2971
864.032	2864
864.164	2975
864.296	3017
864.428	3070
864.559	3081
864.691	3074
864.823	3097
864.954	3047
865.086	3055
865.217	2994
865.349	2941
865.48	2960
865.612	3009
865.743	3150
865.875	2982
866.006	2933
866.137	2952
866.269	2937
866.4	2918
866.531	2914
866.662	2906
866.793	2868
866.924	2876
867.055	2948
867.186	2902
867.317	2838
867.448	2864
867.579	2830
867.71	2807
867.841	2864
867.972	2933
868.103	2899
868.233	2880
868.364	2899
868.495	2902
868.625	3077
868.756	3157
868.886	2963
869.017	3013
869.147	3169
869.278	3123
869.408	3047
869.539	2975
869.669	3093
869.799	3036
869.929	3150
870.06	3077
870.19	3294
870.32	3222
870.45	3351
870.58	3367
870.71	3443
870.84	3428
870.97	3279
871.1	3253
871.23	3485
871.36	3428
871.489	3317
871.619	3355
871.749	3428
871.879	3416
872.008	3492
872.138	3374
872.267	3260
872.397	3161
872.526	3077
872.656	2990
872.785	3070
872.915	3233
873.044	3336
873.173	3207
873.303	3237
873.432	3207
873.561	3249
873.69	3150
873.819	3146
873.948	3199
874.077	3051
874.206	3028
874.335	3074
874.464	3222
874.593	3344
874.722	3253
874.851	3382
874.979	3321
875.108	3332
875.237	3150
875.365	3146
875.494	3203
875.623	3253
875.751	3058
875.88	3089
876.008	3192
876.136	3245
876.265	3367
876.393	3481
876.521	3363
876.65	3367
876.778	3325
876.906	3226
877.034	3154
877.162	3203
877.29	3176
877.418	3233
877.546	3199
877.674	3230
877.802	3230
877.93	3260
878.058	3138
878.185	3097
878.313	3253
878.441	3203
878.568	3074
878.696	3142
878.824	3253
878.951	3294
879.079	3424
879.206	3561
879.333	3477
879.461	3302
879.588	3329
879.715	3473
879.842	3587
879.97	3374
880.097	3150
880.224	3150
880.351	3184
880.478	3192
880.605	3188
880.732	3173
880.859	3466
880.986	3310
881.112	3291
881.239	3176
881.366	3070
881.493	3032
881.619	2998
881.746	3116
881.872	3066
881.999	3108
882.125	3142
882.252	3226
882.378	3306
882.505	3443
882.631	3283
882.757	3173
882.883	3241
883.01	3237
883.136	3142
883.262	3047
883.388	3085
883.514	3340
883.64	3359
883.766	3306
883.892	3203
884.018	3218
884.143	3401
884.269	3507
884.395	3218
884.52	3184
884.646	3154
884.772	3157
884.897	3058
885.023	3226
885.148	3321
885.274	3405
885.399	3344
885.524	3291
885.65	3268
885.775	3306
885.9	3275
886.025	3431
886.15	3359
886.275	3325
886.4	3203
886.525	3298
886.65	3249
886.775	3272
886.9	3469
887.025	3622
887.149	3401
887.274	3249
887.399	3188
887.523	3199
887.648	3184
887.773	3199
887.897	3329
888.021	3435
888.146	3298
888.27	3374
888.395	3545
888.519	3431
888.643	3412
888.767	3469
888.891	3287
889.015	3253
889.139	3268
889.263	3275
889.387	3382
889.511	3500
889.635	3469
889.759	3275
889.883	3287
890.006	3367
890.13	3462
890.254	3249
890.377	3283
890.501	3218
890.624	3192
890.748	3279
890.871	3203
890.995	3093
891.118	3066
891.241	3142
891.364	3195
891.488	3332
891.611	3157
891.734	3218
891.857	3287
891.98	3279
892.103	3332
892.226	3298
892.349	3195
892.471	3058
892.594	3207
892.717	3256
892.839	3272
892.962	3237
893.085	3332
893.207	3294
893.33	3142
893.452	3218
893.575	3321
893.697	3214
893.819	3439
893.941	3500
894.064	3466
894.186	3199
894.308	3233
894.43	3416
894.552	3488
894.674	3450
894.796	3222
894.918	3336
895.04	3268
895.161	3439
895.283	3332
895.405	3291
895.526	3344
895.648	3382
895.769	3428
895.891	3473
896.012	3481
896.134	3462
896.255	3428
896.376	3382
896.498	3336
896.619	3450
896.74	3370
896.861	3405
896.982	3682
897.103	3804
897.224	3564
897.345	3473
897.466	3428
897.587	3549
897.708	3595
897.828	3530
897.949	3428
898.07	3310
898.19	3424
898.311	3584
898.431	3443
898.552	3492
898.672	3584
898.792	3549
898.913	3504
899.033	3389
899.153	3249
899.273	3195
899.393	3272
899.513	3344
899.633	3287
899.753	3313
899.873	3298
899.993	3355
900.113	3332
900.232	3389
900.352	3317
900.472	3253
900.591	3169
900.711	3268
900.83	3207
900.95	3386
901.069	3507
901.189	3351
901.308	3161
901.427	3131
901.546	3161
901.665	3253
901.784	3302
901.904	3207
902.023	3135
902.141	3020
902.26	2986
902.379	3157
902.498	3043
902.617	3051
902.735	3188
902.854	3214
902.973	3222
903.091	3036
903.21	3058
903.328	3135
903.446	3108
903.565	3119
903.683	3195
903.801	3108
903.919	3207
904.038	3298
904.156	3173
904.274	3260
904.392	3256
904.51	3279
904.627	3348
904.745	3458
904.863	3473
904.981	3226
905.098	3127
905.216	3233
905.334	3272
905.451	3291
905.569	3294
905.686	3447
905.803	3473
905.921	3256
906.038	3389
906.155	3340
906.272	3264
906.389	3336
906.506	3230
906.623	3241
906.74	3245
906.857	3173
906.974	3272
907.091	3447
907.208	3538
907.324	3454
907.441	3412
907.557	3211
907.674	3253
907.79	3203
907.907	3287
908.023	3340
908.139	3317
908.256	3283
908.372	3340
908.488	3348
908.604	3253
908.72	3237
908.836	3272
908.952	3264
909.068	3332
909.184	3424
909.3	3378
909.415	3462
909.531	3435
909.647	3249
909.762	3279
909.878	3260
909.993	3340
910.108	3329
910.224	3313
910.339	3382
910.454	3302
910.57	3275
910.685	3211
910.8	3599
910.915	3515
911.03	3420
911.145	3256
911.259	3249
911.374	3325
911.489	3249
911.604	3169
911.718	3123
911.833	3165
911.947	3070
912.062	3001
912.176	3165
912.291	3169
912.405	3184
912.519	3386
912.633	3435
912.748	3344
912.862	3256
912.976	3173
913.09	3039
913.204	3089
913.318	3214
913.431	3359
913.545	3291
913.659	3401
913.772	3298
913.886	3188
914	3161
914.113	3313
914.226	3439
914.34	3321
914.453	3192
914.566	3378
914.68	3283
914.793	3294
914.906	3131
915.019	3119
915.132	3070
915.245	3138
915.358	3199
915.47	3180
915.583	3260
915.696	3317
915.809	3405
915.921	3439
916.034	3256
916.146	3241
916.259	3245
916.371	3386
916.483	3340
916.595	3275
916.708	3340
916.82	3325
916.932	3348
917.044	3359
917.156	3310
917.268	3294
917.38	3302
917.491	3291
917.603	3344
917.715	3454
917.826	3477
917.938	3401
918.049	3275
918.161	3462
918.272	3599
918.384	3587
918.495	3523
918.606	3382
918.717	3313
918.828	3412
918.939	3447
919.05	3294
919.161	3378
919.272	3176
919.383	3325
919.494	3561
919.604	3698
919.715	3538
919.826	3439
919.936	3549
920.047	3603
920.157	3622
920.267	3778
920.378	3625
920.488	3625
920.598	3838
920.708	3998
920.818	3861
920.928	3876
921.038	4067
921.148	4044
921.258	3747
921.368	3652
921.477	3599
921.587	3576
921.697	3496
921.806	3679
921.916	3534
922.025	3370
922.134	3401
922.244	3348
922.353	3450
922.462	3298
922.571	3256
922.68	3146
922.789	3127
922.898	3165
923.007	3127
923.116	3249
923.224	3222
923.333	3195
923.442	3097
923.55	3135
923.659	3173
923.767	3233
923.876	3180
923.984	3279
924.092	3119
924.201	3222
924.309	3233
924.417	3241
924.525	3222
924.633	3253
924.741	4215
924.849	3085
924.956	3287
925.064	3100
925.172	3055
925.279	3116
925.387	3233
925.494	3203
925.602	3382
925.709	3416
925.816	3230
925.924	3336
926.031	3416
926.138	3370
926.245	3397
926.352	3302
926.459	3420
926.566	3500
926.673	3351
926.779	3256
926.886	3287
926.993	3176
927.099	3150
927.206	3150
927.312	3142
927.419	3260
927.525	3279
927.631	3268
927.737	3173
927.843	3207
927.95	3013
928.056	3207
928.162	3203
928.267	3317
928.373	3797
928.479	3359
928.585	3108
928.69	3226
928.796	3291
928.901	3192
929.007	3081
929.112	3260
929.218	3195
929.323	3157
929.428	3157
929.533	3382
929.638	3169
929.743	3184
929.848	3302
929.953	3245
930.058	3146
930.163	3024
930.267	3093
930.372	3245
930.477	3077
930.581	3363
930.685	3211
930.79	3055
930.894	3150
930.998	3123
931.103	3313
931.207	2986
931.311	2956
931.415	2971
931.519	2811
931.623	2823
