Data from test_V78500241_1209.txt Node
Date: Fri Mar 25 16:23:34 CST 2022
User: usil
Spectrometer: V785-0024
Trigger mode: 0
Integration Time (sec): 4.000000E-1
Scans to average: 1
Nonlinearity correction enabled: false
Boxcar width: 0
Storing dark spectrum: false
XAxis mode: Wavelengths
Number of Pixels in Spectrum: 1024
>>>>>Begin Spectral Data<<<<<
801.071	2925
801.214	2956
801.356	2872
801.499	2902
801.641	2868
801.783	2941
801.926	3062
802.068	2952
802.211	2986
802.353	2998
802.496	2956
802.638	3020
802.78	3055
802.923	3028
803.065	2979
803.208	2922
803.35	2910
803.492	2925
803.635	2975
803.777	2785
803.919	2845
804.061	3173
804.204	2963
804.346	2918
804.488	2819
804.63	2994
804.773	2891
804.915	2925
805.057	3058
805.199	2952
805.341	2960
805.483	3017
805.626	2994
805.768	2952
805.91	3062
806.052	3112
806.194	3062
806.336	3195
806.478	3009
806.62	2998
806.762	2975
806.904	3070
807.046	3157
807.188	2982
807.33	2948
807.472	2990
807.614	2925
807.756	3001
807.898	2922
808.04	2868
808.182	2986
808.324	2948
808.465	2906
808.607	2937
808.749	2830
808.891	2853
809.033	2994
809.174	2925
809.316	2853
809.458	2906
809.6	2754
809.741	2781
809.883	2777
810.025	2826
810.166	2819
810.308	2845
810.45	2872
810.591	2754
810.733	2804
810.875	2823
811.016	2773
811.158	2800
811.299	2804
811.441	2925
811.582	2891
811.724	2849
811.865	2819
812.007	2925
812.148	2857
812.29	2826
812.431	2910
812.573	2902
812.714	2933
812.855	3047
812.997	3081
813.138	3097
813.279	3005
813.421	2998
813.562	2941
813.703	2857
813.845	2887
813.986	2769
814.127	2712
814.268	2811
814.41	2830
814.551	2811
814.692	2868
814.833	2804
814.974	2902
815.115	2960
815.256	2815
815.397	2815
815.539	2845
815.68	2769
815.821	2811
815.962	2918
816.103	2929
816.244	2868
816.385	2883
816.526	2952
816.666	2891
816.807	2758
816.948	2861
817.089	2891
817.23	2826
817.371	2788
817.512	2781
817.653	2834
817.793	2815
817.934	2857
818.075	2948
818.216	2967
818.356	3070
818.497	2880
818.638	2792
818.778	2804
818.919	2788
819.06	2731
819.2	2864
819.341	2800
819.481	2804
819.622	2929
819.762	3116
819.903	3047
820.043	2952
820.184	2895
820.324	2876
820.465	3024
820.605	3028
820.746	3009
820.886	2914
821.026	3062
821.167	3150
821.307	3272
821.447	3291
821.588	3214
821.728	3211
821.868	3192
822.008	3074
822.149	3188
822.289	3245
822.429	3093
822.569	3074
822.709	3184
822.849	3009
822.99	3097
823.13	3142
823.27	3157
823.41	3104
823.55	3165
823.69	3169
823.83	3154
823.97	3100
824.11	2975
824.25	2979
824.389	3066
824.529	3112
824.669	3066
824.809	3161
824.949	3218
825.089	3207
825.228	3154
825.368	2994
825.508	2963
825.648	2960
825.787	3024
825.927	3043
826.067	2948
826.206	2971
826.346	3058
826.485	3062
826.625	3116
826.765	3260
826.904	3199
827.044	3017
827.183	2929
827.323	2838
827.462	2990
827.601	2906
827.741	2929
827.88	2975
828.02	2842
828.159	2971
828.298	3028
828.437	3093
828.577	3055
828.716	3195
828.855	3112
828.994	2922
829.134	2876
829.273	2891
829.412	2887
829.551	2876
829.69	2887
829.829	2963
829.968	3116
830.107	3005
830.246	3032
830.385	2925
830.524	2929
830.663	2800
830.802	2720
830.941	2651
831.08	2632
831.219	2777
831.357	2769
831.496	2937
831.635	2708
831.774	2613
831.913	2667
832.051	2552
832.19	2552
832.329	2705
832.467	2533
832.606	2473
832.744	2560
832.883	2594
833.022	2568
833.16	2644
833.299	2663
833.437	2716
833.576	2720
833.714	2708
833.852	2720
833.991	2727
834.129	2842
834.267	2845
834.406	2785
834.544	2883
834.682	2868
834.821	2868
834.959	3043
835.097	2918
835.235	3062
835.373	3017
835.511	2990
835.65	2956
835.788	2952
835.926	2811
836.064	2811
836.202	2815
836.34	3062
836.478	3146
836.615	3070
836.753	3116
836.891	3188
837.029	3138
837.167	3108
837.305	3058
837.443	3043
837.58	2967
837.718	3127
837.856	3062
837.993	3039
838.131	3077
838.269	3119
838.406	3157
838.544	3074
838.681	2956
838.819	2899
838.956	2826
839.094	2819
839.231	2941
839.369	3017
839.506	3340
839.643	3222
839.781	3020
839.918	2952
840.055	3074
840.193	3062
840.33	3028
840.467	3039
840.604	3157
840.742	3412
840.879	3058
841.016	3039
841.153	3089
841.29	3340
841.427	3279
841.564	3287
841.701	3340
841.838	3138
841.975	3157
842.112	3207
842.249	3093
842.385	3070
842.522	3233
842.659	3077
842.796	3013
842.933	3093
843.069	3039
843.206	3039
843.343	3165
843.479	3097
843.616	3150
843.752	2914
843.889	2857
844.025	3077
844.162	2887
844.298	3070
844.435	2971
844.571	2910
844.708	3039
844.844	3150
844.98	3218
845.117	3195
845.253	3039
845.389	3009
845.525	3116
845.661	3104
845.798	3017
845.934	3089
846.07	3005
846.206	3188
846.342	3279
846.478	3233
846.614	3074
846.75	3020
846.886	3024
847.022	3211
847.158	3116
847.294	3192
847.429	3237
847.565	3214
847.701	3473
847.837	3013
847.972	2998
848.108	3131
848.244	3112
848.379	2971
848.515	2967
848.65	2925
848.786	2944
848.921	2998
849.057	3093
849.192	3097
849.328	3077
849.463	3093
849.598	3070
849.734	3009
849.869	2971
850.004	2880
850.14	2956
850.275	2880
850.41	2838
850.545	2872
850.68	2929
850.815	2948
850.95	2952
851.085	3161
851.22	3085
851.355	3001
851.49	2975
851.625	2990
851.76	3001
851.895	2910
852.03	2910
852.165	3032
852.299	3104
852.434	3176
852.569	3154
852.703	3161
852.838	3222
852.973	3321
853.107	3317
853.242	3127
853.376	3077
853.511	2971
853.645	3051
853.78	3214
853.914	3142
854.048	3097
854.183	3066
854.317	3100
854.451	3306
854.585	3093
854.72	3104
854.854	3161
854.988	3028
855.122	3074
855.256	2967
855.39	3146
855.524	3241
855.658	3195
855.792	3150
855.926	3173
856.06	3184
856.194	3249
856.327	3123
856.461	3058
856.595	3058
856.729	3112
856.862	3173
856.996	3131
857.13	3218
857.263	3218
857.397	3249
857.53	3093
857.664	3192
857.797	3237
857.931	3245
858.064	3169
858.197	3207
858.331	3108
858.464	3089
858.597	3017
858.731	3085
858.864	3119
858.997	3039
859.13	3142
859.263	3192
859.396	3188
859.529	3066
859.662	3055
859.795	3047
859.928	3165
860.061	3272
860.194	3287
860.327	3138
860.46	3093
860.592	3237
860.725	3260
860.858	3272
860.99	3108
861.123	3024
861.256	3077
861.388	3184
861.521	3732
861.653	3020
861.786	2963
861.918	2979
862.05	3100
862.183	3108
862.315	3154
862.447	3199
862.58	3100
862.712	2925
862.844	2906
862.976	3020
863.108	2990
863.24	3450
863.372	2849
863.504	2982
863.636	2979
863.768	3005
863.9	2956
864.032	2914
864.164	2975
864.296	3039
864.428	3055
864.559	3108
864.691	3051
864.823	3062
864.954	3017
865.086	3047
865.217	2971
865.349	2944
865.48	2952
865.612	2979
865.743	3165
865.875	2971
866.006	2963
866.137	3013
866.269	2895
866.4	2937
866.531	2922
866.662	2864
866.793	2910
866.924	2880
867.055	2933
867.186	2910
867.317	2872
867.448	2811
867.579	2819
867.71	2845
867.841	2804
867.972	2925
868.103	2899
868.233	2876
868.364	2876
868.495	2925
868.625	3039
868.756	3199
868.886	2971
869.017	3024
869.147	3176
869.278	3165
869.408	3013
869.539	3032
869.669	3089
869.799	3009
869.929	3119
870.06	3062
870.19	3321
870.32	3272
870.45	3291
870.58	3317
870.71	3443
870.84	3485
870.97	3283
871.1	3222
871.23	3496
871.36	3488
871.489	3332
871.619	3420
871.749	3431
871.879	3450
872.008	3462
872.138	3336
872.267	3279
872.397	3135
872.526	3127
872.656	2994
872.785	3097
872.915	3207
873.044	3283
873.173	3207
873.303	3264
873.432	3226
873.561	3226
873.69	3154
873.819	3142
873.948	3157
874.077	3062
874.206	3051
874.335	3085
874.464	3157
874.593	3370
874.722	3291
874.851	3397
874.979	3374
875.108	3329
875.237	3245
875.365	3176
875.494	3138
875.623	3211
875.751	3074
875.88	3154
876.008	3173
876.136	3169
876.265	3367
876.393	3481
876.521	3374
876.65	3367
876.778	3298
876.906	3264
877.034	3218
877.162	3253
877.29	3173
877.418	3233
877.546	3249
877.674	3233
877.802	3233
877.93	3226
878.058	3173
878.185	3085
878.313	3176
878.441	3211
878.568	3043
878.696	3135
878.824	3268
878.951	3287
879.079	3431
879.206	3591
879.333	3454
879.461	3313
879.588	3329
879.715	3458
879.842	3591
879.97	3370
880.097	3195
880.224	3150
880.351	3135
880.478	3230
880.605	3157
880.732	3184
880.859	3504
880.986	3321
881.112	3310
881.239	3188
881.366	3085
881.493	3013
881.619	2982
881.746	3070
881.872	3062
881.999	3085
882.125	3135
882.252	3260
882.378	3245
882.505	3466
882.631	3279
882.757	3192
882.883	3226
883.01	3241
883.136	3154
883.262	3074
883.388	3100
883.514	3313
883.64	3340
883.766	3298
883.892	3207
884.018	3195
884.143	3386
884.269	3530
884.395	3211
884.52	3180
884.646	3173
884.772	3108
884.897	3112
885.023	3180
885.148	3359
885.274	3401
885.399	3370
885.524	3310
885.65	3264
885.775	3310
885.9	3291
886.025	3416
886.15	3351
886.275	3313
886.4	3260
886.525	3294
886.65	3275
886.775	3298
886.9	3523
887.025	3622
887.149	3397
887.274	3249
887.399	3131
887.523	3180
887.648	3146
887.773	3176
887.897	3367
888.021	3382
888.146	3306
888.27	3382
888.395	3519
888.519	3409
888.643	3412
888.767	3458
888.891	3325
889.015	3241
889.139	3310
889.263	3249
889.387	3397
889.511	3492
889.635	3454
889.759	3302
889.883	3287
890.006	3409
890.13	3488
890.254	3268
890.377	3313
890.501	3211
890.624	3203
890.748	3253
890.871	3169
890.995	3093
891.118	3020
891.241	3169
891.364	3211
891.488	3317
891.611	3169
891.734	3245
891.857	3283
891.98	3207
892.103	3317
892.226	3283
892.349	3214
892.471	3093
892.594	3214
892.717	3279
892.839	3230
892.962	3283
893.085	3348
893.207	3287
893.33	3161
893.452	3199
893.575	3351
893.697	3264
893.819	3450
893.941	3496
894.064	3424
894.186	3287
894.308	3279
894.43	3454
894.552	3496
894.674	3454
894.796	3268
894.918	3291
895.04	3275
895.161	3458
895.283	3355
895.405	3291
895.526	3382
895.648	3374
895.769	3428
895.891	3420
896.012	3443
896.134	3454
896.255	3428
896.376	3359
896.498	3367
896.619	3416
896.74	3389
896.861	3389
896.982	3679
897.103	3797
897.224	3595
897.345	3477
897.466	3397
897.587	3507
897.708	3637
897.828	3538
897.949	3447
898.07	3332
898.19	3310
898.311	3591
898.431	3386
898.552	3507
898.672	3610
898.792	3568
898.913	3511
899.033	3393
899.153	3268
899.273	3154
899.393	3249
899.513	3332
899.633	3317
899.753	3351
899.873	3298
899.993	3370
900.113	3325
900.232	3367
900.352	3329
900.472	3302
900.591	3230
900.711	3306
900.83	3226
900.95	3370
901.069	3504
901.189	3348
901.308	3188
901.427	3093
901.546	3184
901.665	3283
901.784	3313
901.904	3237
902.023	3154
902.141	2990
902.26	2971
902.379	3154
902.498	3081
902.617	3070
902.735	3165
902.854	3237
902.973	3199
903.091	3036
903.21	3032
903.328	3127
903.446	3100
903.565	3100
903.683	3203
903.801	3108
903.919	3291
904.038	3310
904.156	3188
904.274	3268
904.392	3268
904.51	3287
904.627	3336
904.745	3435
904.863	3477
904.981	3249
905.098	3108
905.216	3211
905.334	3313
905.451	3291
905.569	3317
905.686	3374
905.803	3466
905.921	3306
906.038	3458
906.155	3359
906.272	3272
906.389	3321
906.506	3226
906.623	3245
906.74	3283
906.857	3161
906.974	3260
907.091	3450
907.208	3542
907.324	3439
907.441	3374
907.557	3253
907.674	3195
907.79	3169
907.907	3298
908.023	3355
908.139	3367
908.256	3325
908.372	3370
908.488	3355
908.604	3218
908.72	3241
908.836	3283
908.952	3268
909.068	3275
909.184	3488
909.3	3416
909.415	3519
909.531	3435
909.647	3275
909.762	3310
909.878	3287
909.993	3329
910.108	3317
910.224	3332
910.339	3412
910.454	3310
910.57	3260
910.685	3256
910.8	3622
910.915	3492
911.03	3393
911.145	3226
911.259	3253
911.374	3287
911.489	3233
911.604	3260
911.718	3127
911.833	3184
911.947	3055
912.062	2975
912.176	3169
912.291	3184
912.405	3214
912.519	3409
912.633	3435
912.748	3325
912.862	3275
912.976	3173
913.09	3051
913.204	3154
913.318	3207
913.431	3294
913.545	3332
913.659	3359
913.772	3325
913.886	3211
914	3245
914.113	3370
914.226	3382
914.34	3355
914.453	3214
914.566	3416
914.68	3275
914.793	3340
914.906	3161
915.019	3119
915.132	3062
915.245	3157
915.358	3199
915.47	3222
915.583	3207
915.696	3287
915.809	3393
915.921	3409
916.034	3237
916.146	3237
916.259	3249
916.371	3378
916.483	3370
916.595	3302
916.708	3332
916.82	3294
916.932	3329
917.044	3310
917.156	3374
917.268	3260
917.38	3272
917.491	3279
917.603	3367
917.715	3416
917.826	3454
917.938	3389
918.049	3253
918.161	3431
918.272	3542
918.384	3603
918.495	3466
918.606	3275
918.717	3264
918.828	3367
918.939	3393
919.05	3264
919.161	3348
919.272	3135
919.383	3321
919.494	3496
919.604	3690
919.715	3447
919.826	3420
919.936	3428
920.047	3599
920.157	3534
920.267	3762
920.378	3591
920.488	3542
920.598	3774
920.708	3934
920.818	3831
920.928	3827
921.038	4006
921.148	4006
921.258	3705
921.368	3603
921.477	3580
921.587	3511
921.697	3458
921.806	3614
921.916	3568
922.025	3317
922.134	3332
922.244	3313
922.353	3393
922.462	3275
922.571	3218
922.68	3097
922.789	3112
922.898	3138
923.007	3066
923.116	3207
923.224	3192
923.333	3165
923.442	3131
923.55	3108
923.659	3165
923.767	3222
923.876	3116
923.984	3253
924.092	3055
924.201	3214
924.309	3245
924.417	3237
924.525	3169
924.633	3222
924.741	4006
924.849	3036
924.956	3226
925.064	3089
925.172	3028
925.279	3112
925.387	3180
925.494	3188
925.602	3325
925.709	3325
925.816	3192
925.924	3310
926.031	3370
926.138	3310
926.245	3340
926.352	3226
926.459	3409
926.566	3473
926.673	3344
926.779	3253
926.886	3218
926.993	3146
927.099	3131
927.206	3085
927.312	3108
927.419	3237
927.525	3218
927.631	3294
927.737	3112
927.843	3127
927.95	3028
928.056	3142
928.162	3157
928.267	3264
928.373	3880
928.479	3321
928.585	3001
928.69	3199
928.796	3272
928.901	3192
929.007	3001
929.112	3173
929.218	3161
929.323	3131
929.428	3165
929.533	3329
929.638	3108
929.743	3192
929.848	3264
929.953	3214
930.058	3108
930.163	2998
930.267	3043
930.372	3184
930.477	3024
930.581	3294
930.685	3165
930.79	3043
930.894	3112
930.998	3116
931.103	3294
931.207	2960
931.311	2975
931.415	2891
931.519	2773
931.623	2796
