Data from test_V78500241_1206.txt Node
Date: Fri Mar 25 16:23:33 CST 2022
User: usil
Spectrometer: V785-0024
Trigger mode: 0
Integration Time (sec): 4.000000E-1
Scans to average: 1
Nonlinearity correction enabled: false
Boxcar width: 0
Storing dark spectrum: false
XAxis mode: Wavelengths
Number of Pixels in Spectrum: 1024
>>>>>Begin Spectral Data<<<<<
801.071	2876
801.214	2937
801.356	2876
801.499	2883
801.641	2857
801.783	2941
801.926	3043
802.068	2971
802.211	3001
802.353	3020
802.496	2956
802.638	3036
802.78	3058
802.923	3058
803.065	3036
803.208	2880
803.35	2929
803.492	2982
803.635	2929
803.777	2746
803.919	2845
804.061	3188
804.204	2944
804.346	2914
804.488	2834
804.63	3001
804.773	2868
804.915	2906
805.057	3085
805.199	2937
805.341	2918
805.483	3066
805.626	2994
805.768	2986
805.91	3108
806.052	3097
806.194	3020
806.336	3249
806.478	3028
806.62	2956
806.762	2956
806.904	3036
807.046	3169
807.188	3013
807.33	2906
807.472	2990
807.614	2925
807.756	2979
807.898	2899
808.04	2857
808.182	2963
808.324	2933
808.465	2902
808.607	2899
808.749	2804
808.891	2857
809.033	2971
809.174	2960
809.316	2922
809.458	2902
809.6	2796
809.741	2746
809.883	2754
810.025	2857
810.166	2883
810.308	2853
810.45	2842
810.591	2781
810.733	2807
810.875	2842
811.016	2777
811.158	2743
811.299	2792
811.441	2922
811.582	2914
811.724	2807
811.865	2826
812.007	2914
812.148	2857
812.29	2872
812.431	2872
812.573	2967
812.714	2994
812.855	3024
812.997	3051
813.138	3097
813.279	3013
813.421	2956
813.562	2956
813.703	2853
813.845	2899
813.986	2766
814.127	2754
814.268	2826
814.41	2838
814.551	2800
814.692	2868
814.833	2830
814.974	2910
815.115	2971
815.256	2842
815.397	2800
815.539	2883
815.68	2769
815.821	2815
815.962	2952
816.103	2960
816.244	2845
816.385	2891
816.526	2971
816.666	2906
816.807	2727
816.948	2872
817.089	2895
817.23	2899
817.371	2781
817.512	2823
817.653	2868
817.793	2842
817.934	2899
818.075	2963
818.216	2975
818.356	3055
818.497	2872
818.638	2838
818.778	2845
818.919	2819
819.06	2781
819.2	2861
819.341	2811
819.481	2792
819.622	2933
819.762	3089
819.903	3039
820.043	2922
820.184	2910
820.324	2891
820.465	2998
820.605	3020
820.746	3009
820.886	2967
821.026	3100
821.167	3142
821.307	3264
821.447	3260
821.588	3264
821.728	3180
821.868	3184
822.008	3116
822.149	3195
822.289	3207
822.429	3097
822.569	3028
822.709	3142
822.849	3036
822.99	3062
823.13	3165
823.27	3222
823.41	3093
823.55	3146
823.69	3146
823.83	3222
823.97	3112
824.11	3024
824.25	3005
824.389	3070
824.529	3085
824.669	3074
824.809	3188
824.949	3237
825.089	3184
825.228	3169
825.368	3020
825.508	2986
825.648	2998
825.787	3005
825.927	3013
826.067	2979
826.206	2963
826.346	3070
826.485	3070
826.625	3097
826.765	3245
826.904	3195
827.044	2998
827.183	2952
827.323	2883
827.462	2948
827.601	2891
827.741	2948
827.88	2956
828.02	2811
828.159	2925
828.298	3005
828.437	3150
828.577	3039
828.716	3241
828.855	3097
828.994	2925
829.134	2891
829.273	2929
829.412	2853
829.551	2845
829.69	2891
829.829	2994
829.968	3085
830.107	3013
830.246	2986
830.385	2899
830.524	2876
830.663	2781
830.802	2682
830.941	2651
831.08	2629
831.219	2743
831.357	2762
831.496	2967
831.635	2739
831.774	2606
831.913	2632
832.051	2541
832.19	2560
832.329	2686
832.467	2541
832.606	2465
832.744	2587
832.883	2587
833.022	2590
833.16	2629
833.299	2640
833.437	2667
833.576	2697
833.714	2712
833.852	2705
833.991	2769
834.129	2819
834.267	2800
834.406	2773
834.544	2861
834.682	2853
834.821	2887
834.959	3051
835.097	2925
835.235	3066
835.373	2979
835.511	2979
835.65	2914
835.788	2941
835.926	2788
836.064	2796
836.202	2830
836.34	3081
836.478	3146
836.615	3017
836.753	3135
836.891	3180
837.029	3173
837.167	3112
837.305	3047
837.443	3043
837.58	2922
837.718	3116
837.856	3074
837.993	3051
838.131	3127
838.269	3100
838.406	3039
838.544	3116
838.681	2910
838.819	2937
838.956	2819
839.094	2830
839.231	2922
839.369	3028
839.506	3355
839.643	3230
839.781	3047
839.918	2925
840.055	3028
840.193	3043
840.33	3047
840.467	3116
840.604	3119
840.742	3420
840.879	3032
841.016	3032
841.153	3150
841.29	3325
841.427	3279
841.564	3260
841.701	3241
841.838	3226
841.975	3180
842.112	3188
842.249	3043
842.385	3032
842.522	3268
842.659	3070
842.796	3066
842.933	3070
843.069	3051
843.206	3051
843.343	3207
843.479	3127
843.616	3135
843.752	2864
843.889	2868
844.025	3085
844.162	2895
844.298	3081
844.435	2963
844.571	2914
844.708	3085
844.844	3169
844.98	3256
845.117	3192
845.253	3055
845.389	2960
845.525	3093
845.661	3085
845.798	2975
845.934	3085
846.07	3043
846.206	3237
846.342	3294
846.478	3256
846.614	3123
846.75	3055
846.886	3017
847.022	3230
847.158	3100
847.294	3245
847.429	3226
847.565	3195
847.701	3488
847.837	3039
847.972	2960
848.108	3161
848.244	3123
848.379	2986
848.515	2937
848.65	2902
848.786	2967
848.921	3005
849.057	3074
849.192	3097
849.328	3066
849.463	3070
849.598	3066
849.734	3020
849.869	2941
850.004	2906
850.14	2963
850.275	2887
850.41	2838
850.545	2857
850.68	2899
850.815	2956
850.95	2948
851.085	3157
851.22	3089
851.355	3017
851.49	2952
851.625	2975
851.76	3017
851.895	2933
852.03	2899
852.165	3047
852.299	3085
852.434	3157
852.569	3146
852.703	3150
852.838	3218
852.973	3279
853.107	3351
853.242	3184
853.376	3089
853.511	2941
853.645	3047
853.78	3237
853.914	3138
854.048	3077
854.183	3058
854.317	3138
854.451	3294
854.585	3135
854.72	3100
854.854	3195
854.988	3051
855.122	3100
855.256	2944
855.39	3074
855.524	3222
855.658	3154
855.792	3131
855.926	3154
856.06	3226
856.194	3253
856.327	3123
856.461	3051
856.595	3074
856.729	3097
856.862	3176
856.996	3131
857.13	3245
857.263	3260
857.397	3233
857.53	3089
857.664	3233
857.797	3253
857.931	3230
858.064	3138
858.197	3233
858.331	3089
858.464	3055
858.597	2994
858.731	3112
858.864	3127
858.997	3077
859.13	3119
859.263	3195
859.396	3169
859.529	3081
859.662	3051
859.795	3036
859.928	3119
860.061	3230
860.194	3279
860.327	3157
860.46	3097
860.592	3214
860.725	3241
860.858	3218
860.99	3077
861.123	3039
861.256	3024
861.388	3108
861.521	3770
861.653	3017
861.786	2982
861.918	2963
862.05	3039
862.183	3062
862.315	3150
862.447	3180
862.58	3100
862.712	2922
862.844	2872
862.976	2994
863.108	3024
863.24	3420
863.372	2853
863.504	2975
863.636	2941
863.768	3032
863.9	2948
864.032	2880
864.164	2960
864.296	2979
864.428	3070
864.559	3146
864.691	3043
864.823	3051
864.954	3039
865.086	3036
865.217	2994
865.349	2929
865.48	2960
865.612	3055
865.743	3157
865.875	2944
866.006	2941
866.137	2979
866.269	2922
866.4	2929
866.531	2929
866.662	2864
866.793	2883
866.924	2880
867.055	2963
867.186	2910
867.317	2876
867.448	2800
867.579	2857
867.71	2834
867.841	2804
867.972	2933
868.103	2887
868.233	2876
868.364	2883
868.495	2902
868.625	3100
868.756	3165
868.886	2986
869.017	3032
869.147	3104
869.278	3127
869.408	3017
869.539	3024
869.669	3104
869.799	3032
869.929	3135
870.06	3100
870.19	3359
870.32	3256
870.45	3260
870.58	3351
870.71	3447
870.84	3447
870.97	3321
871.1	3203
871.23	3477
871.36	3435
871.489	3374
871.619	3447
871.749	3405
871.879	3424
872.008	3439
872.138	3336
872.267	3253
872.397	3131
872.526	3047
872.656	2963
872.785	3104
872.915	3195
873.044	3351
873.173	3268
873.303	3207
873.432	3260
873.561	3249
873.69	3142
873.819	3142
873.948	3233
874.077	3081
874.206	3036
874.335	3070
874.464	3207
874.593	3306
874.722	3211
874.851	3382
874.979	3363
875.108	3302
875.237	3222
875.365	3154
875.494	3176
875.623	3226
875.751	3097
875.88	3123
876.008	3192
876.136	3214
876.265	3321
876.393	3504
876.521	3378
876.65	3374
876.778	3325
876.906	3230
877.034	3207
877.162	3230
877.29	3184
877.418	3241
877.546	3222
877.674	3233
877.802	3207
877.93	3233
878.058	3165
878.185	3104
878.313	3161
878.441	3188
878.568	3047
878.696	3157
878.824	3256
878.951	3355
879.079	3409
879.206	3610
879.333	3424
879.461	3313
879.588	3344
879.715	3447
879.842	3564
879.97	3401
880.097	3131
880.224	3135
880.351	3192
880.478	3207
880.605	3230
880.732	3176
880.859	3519
880.986	3275
881.112	3321
881.239	3226
881.366	3123
881.493	3009
881.619	3036
881.746	3081
881.872	3074
881.999	3108
882.125	3173
882.252	3226
882.378	3260
882.505	3428
882.631	3268
882.757	3142
882.883	3195
883.01	3211
883.136	3169
883.262	3032
883.388	3131
883.514	3393
883.64	3378
883.766	3317
883.892	3180
884.018	3237
884.143	3428
884.269	3515
884.395	3192
884.52	3142
884.646	3199
884.772	3104
884.897	3085
885.023	3184
885.148	3359
885.274	3424
885.399	3374
885.524	3291
885.65	3275
885.775	3287
885.9	3310
886.025	3447
886.15	3344
886.275	3302
886.4	3253
886.525	3275
886.65	3283
886.775	3272
886.9	3492
887.025	3629
887.149	3401
887.274	3245
887.399	3165
887.523	3184
887.648	3203
887.773	3180
887.897	3378
888.021	3378
888.146	3313
888.27	3424
888.395	3530
888.519	3458
888.643	3397
888.767	3435
888.891	3279
889.015	3272
889.139	3310
889.263	3249
889.387	3389
889.511	3542
889.635	3435
889.759	3256
889.883	3336
890.006	3424
890.13	3454
890.254	3260
890.377	3298
890.501	3176
890.624	3165
890.748	3268
890.871	3180
890.995	3112
891.118	3039
891.241	3146
891.364	3233
891.488	3272
891.611	3203
891.734	3207
891.857	3298
891.98	3218
892.103	3332
892.226	3268
892.349	3207
892.471	3123
892.594	3233
892.717	3294
892.839	3287
892.962	3256
893.085	3329
893.207	3283
893.33	3154
893.452	3176
893.575	3329
893.697	3260
893.819	3397
893.941	3485
894.064	3458
894.186	3226
894.308	3268
894.43	3382
894.552	3553
894.674	3439
894.796	3253
894.918	3336
895.04	3264
895.161	3424
895.283	3382
895.405	3302
895.526	3332
895.648	3401
895.769	3409
895.891	3450
896.012	3435
896.134	3424
896.255	3389
896.376	3370
896.498	3382
896.619	3431
896.74	3367
896.861	3424
896.982	3656
897.103	3827
897.224	3576
897.345	3485
897.466	3370
897.587	3458
897.708	3663
897.828	3564
897.949	3420
898.07	3313
898.19	3412
898.311	3576
898.431	3416
898.552	3511
898.672	3599
898.792	3591
898.913	3500
899.033	3416
899.153	3283
899.273	3214
899.393	3291
899.513	3260
899.633	3302
899.753	3298
899.873	3283
899.993	3370
900.113	3329
900.232	3351
900.352	3340
900.472	3275
900.591	3211
900.711	3279
900.83	3203
900.95	3405
901.069	3485
901.189	3340
901.308	3154
901.427	3173
901.546	3150
901.665	3268
901.784	3348
901.904	3188
902.023	3123
902.141	3009
902.26	3013
902.379	3085
902.498	3036
902.617	3055
902.735	3199
902.854	3249
902.973	3176
903.091	3020
903.21	3058
903.328	3131
903.446	3085
903.565	3100
903.683	3188
903.801	3112
903.919	3253
904.038	3264
904.156	3184
904.274	3302
904.392	3256
904.51	3275
904.627	3348
904.745	3431
904.863	3477
904.981	3256
905.098	3157
905.216	3249
905.334	3283
905.451	3340
905.569	3302
905.686	3424
905.803	3431
905.921	3256
906.038	3397
906.155	3367
906.272	3279
906.389	3351
906.506	3195
906.623	3275
906.74	3237
906.857	3188
906.974	3241
907.091	3481
907.208	3595
907.324	3477
907.441	3370
907.557	3218
907.674	3249
907.79	3211
907.907	3294
908.023	3370
908.139	3378
908.256	3325
908.372	3359
908.488	3329
908.604	3264
908.72	3260
908.836	3256
908.952	3264
909.068	3359
909.184	3481
909.3	3348
909.415	3511
909.531	3454
909.647	3287
909.762	3264
909.878	3256
909.993	3412
910.108	3367
910.224	3321
910.339	3435
910.454	3321
910.57	3302
910.685	3249
910.8	3584
910.915	3519
911.03	3431
911.145	3264
911.259	3260
911.374	3329
911.489	3249
911.604	3249
911.718	3070
911.833	3135
911.947	3028
912.062	2994
912.176	3165
912.291	3192
912.405	3192
912.519	3424
912.633	3435
912.748	3325
912.862	3268
912.976	3169
913.09	3043
913.204	3154
913.318	3207
913.431	3294
913.545	3332
913.659	3416
913.772	3302
913.886	3226
914	3195
914.113	3348
914.226	3431
914.34	3359
914.453	3214
914.566	3420
914.68	3283
914.793	3332
914.906	3150
915.019	3100
915.132	3093
915.245	3146
915.358	3195
915.47	3249
915.583	3256
915.696	3321
915.809	3409
915.921	3424
916.034	3279
916.146	3264
916.259	3192
916.371	3367
916.483	3355
916.595	3268
916.708	3310
916.82	3329
916.932	3378
917.044	3378
917.156	3363
917.268	3253
917.38	3291
917.491	3302
917.603	3363
917.715	3439
917.826	3473
917.938	3359
918.049	3268
918.161	3428
918.272	3576
918.384	3591
918.495	3473
918.606	3329
918.717	3272
918.828	3359
918.939	3435
919.05	3329
919.161	3348
919.272	3138
919.383	3291
919.494	3492
919.604	3690
919.715	3507
919.826	3367
919.936	3431
920.047	3576
920.157	3545
920.267	3728
920.378	3572
920.488	3549
920.598	3751
920.708	3991
920.818	3823
920.928	3785
921.038	4002
921.148	3983
921.258	3728
921.368	3622
921.477	3584
921.587	3549
921.697	3435
921.806	3625
921.916	3553
922.025	3332
922.134	3355
922.244	3294
922.353	3412
922.462	3283
922.571	3237
922.68	3108
922.789	3081
922.898	3116
923.007	3089
923.116	3195
923.224	3188
923.333	3211
923.442	3108
923.55	3093
923.659	3135
923.767	3230
923.876	3100
923.984	3241
924.092	3119
924.201	3230
924.309	3233
924.417	3241
924.525	3169
924.633	3203
924.741	3979
924.849	3032
924.956	3275
925.064	3112
925.172	2998
925.279	3112
925.387	3211
925.494	3203
925.602	3344
925.709	3332
925.816	3161
925.924	3264
926.031	3389
926.138	3302
926.245	3386
926.352	3272
926.459	3386
926.566	3443
926.673	3302
926.779	3188
926.886	3226
926.993	3138
927.099	3112
927.206	3070
927.312	3127
927.419	3218
927.525	3176
927.631	3291
927.737	3135
927.843	3108
927.95	3005
928.056	3138
928.162	3207
928.267	3249
928.373	3884
928.479	3317
928.585	3070
928.69	3203
928.796	3275
928.901	3195
929.007	3024
929.112	3192
929.218	3131
929.323	3127
929.428	3112
929.533	3325
929.638	3142
929.743	3199
929.848	3226
929.953	3237
930.058	3146
930.163	2990
930.267	3062
930.372	3195
930.477	3066
930.581	3306
930.685	3176
930.79	3024
930.894	3116
930.998	3112
931.103	3268
931.207	2979
931.311	2944
931.415	2933
931.519	2777
931.623	2826
