Data from test_V78500241_1140.txt Node
Date: Fri Mar 25 16:23:06 CST 2022
User: usil
Spectrometer: V785-0024
Trigger mode: 0
Integration Time (sec): 4.000000E-1
Scans to average: 1
Nonlinearity correction enabled: false
Boxcar width: 0
Storing dark spectrum: false
XAxis mode: Wavelengths
Number of Pixels in Spectrum: 1024
>>>>>Begin Spectral Data<<<<<
801.071	2906
801.214	2982
801.356	2872
801.499	2906
801.641	2883
801.783	2902
801.926	3055
802.068	2971
802.211	3020
802.353	3055
802.496	2960
802.638	3001
802.78	3039
802.923	3058
803.065	3032
803.208	2910
803.35	2895
803.492	2948
803.635	2922
803.777	2769
803.919	2872
804.061	3192
804.204	2963
804.346	2906
804.488	2872
804.63	2982
804.773	2861
804.915	2922
805.057	3062
805.199	2922
805.341	3005
805.483	3055
805.626	2998
805.768	2994
805.91	3043
806.052	3112
806.194	3020
806.336	3226
806.478	3028
806.62	2967
806.762	2975
806.904	3081
807.046	3154
807.188	2979
807.33	2906
807.472	2967
807.614	2918
807.756	3001
807.898	2906
808.04	2861
808.182	2986
808.324	2963
808.465	2876
808.607	2880
808.749	2834
808.891	2804
809.033	2956
809.174	2986
809.316	2899
809.458	2876
809.6	2792
809.741	2731
809.883	2788
810.025	2819
810.166	2849
810.308	2853
810.45	2872
810.591	2773
810.733	2777
810.875	2861
811.016	2758
811.158	2773
811.299	2807
811.441	2910
811.582	2853
811.724	2838
811.865	2845
812.007	2937
812.148	2883
812.29	2857
812.431	2872
812.573	2899
812.714	2941
812.855	3036
812.997	3043
813.138	3100
813.279	3020
813.421	2956
813.562	2941
813.703	2883
813.845	2864
813.986	2766
814.127	2716
814.268	2788
814.41	2819
814.551	2785
814.692	2891
814.833	2807
814.974	2880
815.115	2956
815.256	2823
815.397	2800
815.539	2830
815.68	2758
815.821	2796
815.962	2944
816.103	2880
816.244	2857
816.385	2864
816.526	2982
816.666	2918
816.807	2743
816.948	2849
817.089	2899
817.23	2834
817.371	2769
817.512	2758
817.653	2842
817.793	2792
817.934	2864
818.075	2910
818.216	2990
818.356	3039
818.497	2876
818.638	2762
818.778	2807
818.919	2792
819.06	2754
819.2	2883
819.341	2792
819.481	2807
819.622	2910
819.762	3074
819.903	3051
820.043	2933
820.184	2899
820.324	2868
820.465	2998
820.605	3005
820.746	3032
820.886	2918
821.026	3074
821.167	3150
821.307	3279
821.447	3287
821.588	3264
821.728	3230
821.868	3161
822.008	3058
822.149	3180
822.289	3226
822.429	3100
822.569	3097
822.709	3218
822.849	3036
822.99	3055
823.13	3161
823.27	3180
823.41	3108
823.55	3188
823.69	3131
823.83	3180
823.97	3100
824.11	2998
824.25	2998
824.389	3062
824.529	3093
824.669	3058
824.809	3169
824.949	3260
825.089	3218
825.228	3161
825.368	3020
825.508	2937
825.648	2994
825.787	3013
825.927	3028
826.067	2933
826.206	2914
826.346	3013
826.485	3036
826.625	3100
826.765	3245
826.904	3180
827.044	3017
827.183	2925
827.323	2864
827.462	3001
827.601	2922
827.741	2910
827.88	2944
828.02	2853
828.159	2967
828.298	3020
828.437	3104
828.577	3043
828.716	3230
828.855	3039
828.994	2891
829.134	2872
829.273	2925
829.412	2842
829.551	2853
829.69	2842
829.829	2979
829.968	3100
830.107	2998
830.246	3058
830.385	2933
830.524	2887
830.663	2777
830.802	2746
830.941	2648
831.08	2632
831.219	2769
831.357	2716
831.496	2941
831.635	2788
831.774	2644
831.913	2629
832.051	2526
832.19	2552
832.329	2686
832.467	2533
832.606	2518
832.744	2568
832.883	2602
833.022	2594
833.16	2644
833.299	2659
833.437	2689
833.576	2712
833.714	2716
833.852	2731
833.991	2754
834.129	2815
834.267	2811
834.406	2777
834.544	2811
834.682	2872
834.821	2857
834.959	3017
835.097	2883
835.235	3051
835.373	3005
835.511	3058
835.65	2933
835.788	2929
835.926	2807
836.064	2785
836.202	2826
836.34	3097
836.478	3154
836.615	3058
836.753	3100
836.891	3203
837.029	3154
837.167	3085
837.305	3043
837.443	3032
837.58	2963
837.718	3081
837.856	3051
837.993	3017
838.131	3123
838.269	3085
838.406	3112
838.544	3100
838.681	2910
838.819	2899
838.956	2834
839.094	2838
839.231	2906
839.369	3017
839.506	3359
839.643	3199
839.781	2990
839.918	2960
840.055	3036
840.193	3055
840.33	3081
840.467	3104
840.604	3150
840.742	3382
840.879	3024
841.016	3062
841.153	3081
841.29	3310
841.427	3283
841.564	3264
841.701	3306
841.838	3211
841.975	3161
842.112	3154
842.249	3039
842.385	3074
842.522	3222
842.659	3085
842.796	3024
842.933	3081
843.069	3089
843.206	3032
843.343	3195
843.479	3108
843.616	3116
843.752	2906
843.889	2845
844.025	3085
844.162	2895
844.298	3009
844.435	2956
844.571	2929
844.708	3070
844.844	3165
844.98	3214
845.117	3211
845.253	3024
845.389	3043
845.525	3066
845.661	3100
845.798	2994
845.934	3127
846.07	3055
846.206	3214
846.342	3325
846.478	3211
846.614	3081
846.75	3051
846.886	3009
847.022	3241
847.158	3131
847.294	3207
847.429	3253
847.565	3207
847.701	3431
847.837	3028
847.972	3020
848.108	3188
848.244	3097
848.379	2956
848.515	2937
848.65	2925
848.786	2979
848.921	2986
849.057	3077
849.192	3142
849.328	3062
849.463	3093
849.598	3055
849.734	3032
849.869	2960
850.004	2922
850.14	2922
850.275	2910
850.41	2811
850.545	2868
850.68	2906
850.815	2941
850.95	2956
851.085	3199
851.22	3123
851.355	3001
851.49	2952
851.625	2986
851.76	2998
851.895	2895
852.03	2914
852.165	3028
852.299	3097
852.434	3169
852.569	3142
852.703	3173
852.838	3230
852.973	3348
853.107	3272
853.242	3127
853.376	3093
853.511	3009
853.645	3070
853.78	3207
853.914	3104
854.048	3123
854.183	3074
854.317	3135
854.451	3287
854.585	3165
854.72	3093
854.854	3192
854.988	3017
855.122	3093
855.256	2906
855.39	3097
855.524	3199
855.658	3165
855.792	3123
855.926	3199
856.06	3222
856.194	3260
856.327	3154
856.461	3089
856.595	3036
856.729	3112
856.862	3199
856.996	3127
857.13	3207
857.263	3226
857.397	3253
857.53	3127
857.664	3218
857.797	3260
857.931	3253
858.064	3154
858.197	3222
858.331	3131
858.464	3070
858.597	3001
858.731	3108
858.864	3154
858.997	3135
859.13	3097
859.263	3165
859.396	3184
859.529	3089
859.662	3074
859.795	3051
859.928	3150
860.061	3245
860.194	3279
860.327	3142
860.46	3074
860.592	3199
860.725	3222
860.858	3230
860.99	3085
861.123	3017
861.256	3051
861.388	3108
861.521	3759
861.653	3005
861.786	3013
861.918	2998
862.05	3043
862.183	3104
862.315	3173
862.447	3214
862.58	3081
862.712	2975
862.844	2823
862.976	3036
863.108	2975
863.24	3329
863.372	2815
863.504	2994
863.636	2929
863.768	3028
863.9	2956
864.032	2876
864.164	2933
864.296	2998
864.428	3051
864.559	3074
864.691	3100
864.823	3062
864.954	3036
865.086	2986
865.217	2986
865.349	2944
865.48	2998
865.612	3005
865.743	3127
865.875	2975
866.006	2933
866.137	2956
866.269	2929
866.4	2941
866.531	2899
866.662	2861
866.793	2914
866.924	2887
867.055	3005
867.186	2933
867.317	2887
867.448	2819
867.579	2834
867.71	2834
867.841	2830
867.972	2891
868.103	2914
868.233	2887
868.364	2899
868.495	2880
868.625	3081
868.756	3150
868.886	2937
869.017	3001
869.147	3127
869.278	3169
869.408	3013
869.539	3020
869.669	3089
869.799	3028
869.929	3085
870.06	3093
870.19	3340
870.32	3241
870.45	3317
870.58	3351
870.71	3458
870.84	3450
870.97	3298
871.1	3214
871.23	3485
871.36	3435
871.489	3355
871.619	3367
871.749	3336
871.879	3409
872.008	3454
872.138	3382
872.267	3287
872.397	3127
872.526	3077
872.656	2994
872.785	3058
872.915	3249
873.044	3283
873.173	3214
873.303	3245
873.432	3230
873.561	3214
873.69	3161
873.819	3138
873.948	3173
874.077	3093
874.206	3024
874.335	3074
874.464	3199
874.593	3336
874.722	3253
874.851	3374
874.979	3344
875.108	3313
875.237	3188
875.365	3157
875.494	3169
875.623	3249
875.751	3081
875.88	3089
876.008	3207
876.136	3237
876.265	3355
876.393	3492
876.521	3424
876.65	3370
876.778	3340
876.906	3230
877.034	3165
877.162	3211
877.29	3142
877.418	3230
877.546	3237
877.674	3233
877.802	3214
877.93	3226
878.058	3135
878.185	3123
878.313	3199
878.441	3192
878.568	3085
878.696	3150
878.824	3233
878.951	3306
879.079	3458
879.206	3622
879.333	3431
879.461	3329
879.588	3363
879.715	3458
879.842	3580
879.97	3325
880.097	3165
880.224	3142
880.351	3184
880.478	3180
880.605	3222
880.732	3150
880.859	3504
880.986	3272
881.112	3306
881.239	3226
881.366	3085
881.493	3047
881.619	3017
881.746	3066
881.872	3097
881.999	3085
882.125	3146
882.252	3218
882.378	3264
882.505	3420
882.631	3291
882.757	3165
882.883	3199
883.01	3222
883.136	3176
883.262	3062
883.388	3100
883.514	3348
883.64	3344
883.766	3306
883.892	3184
884.018	3230
884.143	3405
884.269	3545
884.395	3195
884.52	3123
884.646	3135
884.772	3138
884.897	3070
885.023	3192
885.148	3348
885.274	3424
885.399	3405
885.524	3283
885.65	3237
885.775	3344
885.9	3283
886.025	3439
886.15	3321
886.275	3287
886.4	3226
886.525	3302
886.65	3272
886.775	3302
886.9	3454
887.025	3614
887.149	3382
887.274	3199
887.399	3207
887.523	3176
887.648	3203
887.773	3142
887.897	3370
888.021	3412
888.146	3279
888.27	3431
888.395	3580
888.519	3462
888.643	3424
888.767	3447
888.891	3313
889.015	3226
889.139	3287
889.263	3222
889.387	3393
889.511	3511
889.635	3424
889.759	3287
889.883	3317
890.006	3367
890.13	3477
890.254	3256
890.377	3317
890.501	3207
890.624	3207
890.748	3279
890.871	3169
890.995	3097
891.118	3093
891.241	3188
891.364	3211
891.488	3302
891.611	3154
891.734	3211
891.857	3268
891.98	3226
892.103	3321
892.226	3264
892.349	3169
892.471	3100
892.594	3245
892.717	3264
892.839	3253
892.962	3241
893.085	3348
893.207	3344
893.33	3146
893.452	3199
893.575	3359
893.697	3214
893.819	3485
893.941	3485
894.064	3420
894.186	3241
894.308	3302
894.43	3462
894.552	3523
894.674	3496
894.796	3226
894.918	3298
895.04	3260
895.161	3435
895.283	3424
895.405	3340
895.526	3344
895.648	3412
895.769	3420
895.891	3466
896.012	3473
896.134	3450
896.255	3409
896.376	3348
896.498	3363
896.619	3439
896.74	3336
896.861	3401
896.982	3679
897.103	3827
897.224	3587
897.345	3507
897.466	3435
897.587	3519
897.708	3629
897.828	3595
897.949	3454
898.07	3306
898.19	3405
898.311	3568
898.431	3469
898.552	3530
898.672	3591
898.792	3572
898.913	3515
899.033	3397
899.153	3298
899.273	3207
899.393	3279
899.513	3291
899.633	3310
899.753	3332
899.873	3306
899.993	3405
900.113	3279
900.232	3409
900.352	3336
900.472	3260
900.591	3195
900.711	3294
900.83	3245
900.95	3420
901.069	3496
901.189	3351
901.308	3173
901.427	3173
901.546	3176
901.665	3294
901.784	3291
901.904	3214
902.023	3127
902.141	3005
902.26	3009
902.379	3135
902.498	3058
902.617	3070
902.735	3195
902.854	3264
902.973	3214
903.091	3051
903.21	3055
903.328	3108
903.446	3077
903.565	3112
903.683	3214
903.801	3138
903.919	3241
904.038	3275
904.156	3165
904.274	3256
904.392	3222
904.51	3256
904.627	3310
904.745	3435
904.863	3492
904.981	3241
905.098	3195
905.216	3241
905.334	3275
905.451	3264
905.569	3283
905.686	3447
905.803	3454
905.921	3294
906.038	3378
906.155	3325
906.272	3233
906.389	3317
906.506	3226
906.623	3260
906.74	3298
906.857	3173
906.974	3260
907.091	3466
907.208	3545
907.324	3485
907.441	3401
907.557	3226
907.674	3184
907.79	3218
907.907	3302
908.023	3359
908.139	3370
908.256	3355
908.372	3378
908.488	3348
908.604	3253
908.72	3237
908.836	3291
908.952	3256
909.068	3348
909.184	3485
909.3	3405
909.415	3504
909.531	3466
909.647	3283
909.762	3313
909.878	3249
909.993	3340
910.108	3374
910.224	3340
910.339	3378
910.454	3306
910.57	3264
910.685	3249
910.8	3584
910.915	3542
911.03	3458
911.145	3294
911.259	3260
911.374	3268
911.489	3241
911.604	3222
911.718	3116
911.833	3142
911.947	3017
912.062	2952
912.176	3222
912.291	3199
912.405	3195
912.519	3401
912.633	3469
912.748	3294
912.862	3283
912.976	3157
913.09	3039
913.204	3142
913.318	3241
913.431	3279
913.545	3348
913.659	3355
913.772	3348
913.886	3249
914	3192
914.113	3359
914.226	3397
914.34	3367
914.453	3207
914.566	3397
914.68	3268
914.793	3332
914.906	3169
915.019	3097
915.132	3047
915.245	3184
915.358	3184
915.47	3283
915.583	3237
915.696	3291
915.809	3405
915.921	3424
916.034	3268
916.146	3245
916.259	3245
916.371	3405
916.483	3351
916.595	3245
916.708	3332
916.82	3321
916.932	3310
917.044	3310
917.156	3344
917.268	3241
917.38	3310
917.491	3306
917.603	3367
917.715	3458
917.826	3466
917.938	3374
918.049	3249
918.161	3405
918.272	3576
918.384	3591
918.495	3447
918.606	3329
918.717	3287
918.828	3393
918.939	3382
919.05	3325
919.161	3344
919.272	3142
919.383	3291
919.494	3553
919.604	3660
919.715	3507
919.826	3412
919.936	3431
920.047	3580
920.157	3557
920.267	3766
920.378	3610
920.488	3545
920.598	3816
920.708	3926
920.818	3831
920.928	3797
921.038	3956
921.148	3983
921.258	3732
921.368	3610
921.477	3576
921.587	3511
921.697	3412
921.806	3568
921.916	3496
922.025	3378
922.134	3344
922.244	3344
922.353	3397
922.462	3249
922.571	3245
922.68	3112
922.789	3081
922.898	3116
923.007	3055
923.116	3199
923.224	3146
923.333	3157
923.442	3119
923.55	3081
923.659	3161
923.767	3203
923.876	3100
923.984	3226
924.092	3089
924.201	3157
924.309	3211
924.417	3245
924.525	3218
924.633	3214
924.741	3998
924.849	3062
924.956	3256
925.064	3085
925.172	3043
925.279	3093
925.387	3207
925.494	3180
925.602	3325
925.709	3336
925.816	3207
925.924	3279
926.031	3325
926.138	3355
926.245	3386
926.352	3241
926.459	3412
926.566	3462
926.673	3264
926.779	3222
926.886	3214
926.993	3119
927.099	3142
927.206	3112
927.312	3142
927.419	3230
927.525	3211
927.631	3241
927.737	3112
927.843	3108
927.95	3001
928.056	3123
928.162	3150
928.267	3260
928.373	3850
928.479	3283
928.585	3043
928.69	3222
928.796	3233
928.901	3154
929.007	3058
929.112	3226
929.218	3154
929.323	3112
929.428	3123
929.533	3329
929.638	3085
929.743	3192
929.848	3241
929.953	3176
930.058	3154
930.163	3013
930.267	3039
930.372	3199
930.477	3032
930.581	3287
930.685	3157
930.79	3051
930.894	3119
930.998	3089
931.103	3275
931.207	2979
931.311	2925
931.415	2948
931.519	2773
931.623	2796
