Data from test_V78500241_1186.txt Node
Date: Fri Mar 25 16:23:25 CST 2022
User: usil
Spectrometer: V785-0024
Trigger mode: 0
Integration Time (sec): 4.000000E-1
Scans to average: 1
Nonlinearity correction enabled: false
Boxcar width: 0
Storing dark spectrum: false
XAxis mode: Wavelengths
Number of Pixels in Spectrum: 1024
>>>>>Begin Spectral Data<<<<<
801.071	2914
801.214	2933
801.356	2891
801.499	2876
801.641	2876
801.783	2906
801.926	3028
802.068	3001
802.211	2975
802.353	3070
802.496	2975
802.638	2994
802.78	3062
802.923	3020
803.065	2979
803.208	2910
803.35	2876
803.492	2910
803.635	2918
803.777	2758
803.919	2853
804.061	3165
804.204	2963
804.346	2906
804.488	2811
804.63	2944
804.773	2880
804.915	2914
805.057	3043
805.199	2937
805.341	2990
805.483	3017
805.626	3020
805.768	2967
805.91	3097
806.052	3100
806.194	3043
806.336	3233
806.478	3017
806.62	2941
806.762	2956
806.904	3032
807.046	3169
807.188	2986
807.33	2914
807.472	2960
807.614	2872
807.756	2994
807.898	2941
808.04	2891
808.182	2914
808.324	2952
808.465	2876
808.607	2861
808.749	2807
808.891	2872
809.033	2963
809.174	2948
809.316	2906
809.458	2842
809.6	2762
809.741	2758
809.883	2758
810.025	2819
810.166	2864
810.308	2834
810.45	2834
810.591	2785
810.733	2750
810.875	2876
811.016	2785
811.158	2785
811.299	2826
811.441	2925
811.582	2910
811.724	2849
811.865	2800
812.007	2876
812.148	2883
812.29	2842
812.431	2906
812.573	2941
812.714	2963
812.855	3009
812.997	3028
813.138	3127
813.279	3005
813.421	2967
813.562	2948
813.703	2883
813.845	2883
813.986	2731
814.127	2735
814.268	2826
814.41	2842
814.551	2815
814.692	2842
814.833	2811
814.974	2868
815.115	2971
815.256	2796
815.397	2804
815.539	2845
815.68	2746
815.821	2815
815.962	2918
816.103	2941
816.244	2880
816.385	2861
816.526	2933
816.666	2899
816.807	2762
816.948	2864
817.089	2895
817.23	2853
817.371	2777
817.512	2769
817.653	2834
817.793	2781
817.934	2887
818.075	2948
818.216	2967
818.356	3028
818.497	2918
818.638	2800
818.778	2815
818.919	2807
819.06	2731
819.2	2861
819.341	2796
819.481	2811
819.622	2895
819.762	3085
819.903	3051
820.043	2906
820.184	2891
820.324	2861
820.465	3036
820.605	2956
820.746	3043
820.886	2937
821.026	3062
821.167	3131
821.307	3241
821.447	3287
821.588	3249
821.728	3222
821.868	3180
822.008	3074
822.149	3173
822.289	3226
822.429	3123
822.569	3066
822.709	3184
822.849	3001
822.99	3058
823.13	3176
823.27	3180
823.41	3077
823.55	3085
823.69	3150
823.83	3176
823.97	3097
824.11	3028
824.25	2998
824.389	3028
824.529	3108
824.669	3058
824.809	3169
824.949	3222
825.089	3230
825.228	3131
825.368	3020
825.508	2937
825.648	2975
825.787	3028
825.927	2986
826.067	2922
826.206	2952
826.346	3020
826.485	3047
826.625	3097
826.765	3275
826.904	3188
827.044	3009
827.183	2933
827.323	2872
827.462	2979
827.601	2876
827.741	2925
827.88	2994
828.02	2842
828.159	2933
828.298	3028
828.437	3085
828.577	3024
828.716	3184
828.855	3047
828.994	2899
829.134	2861
829.273	2899
829.412	2902
829.551	2842
829.69	2880
829.829	2956
829.968	3142
830.107	3024
830.246	3009
830.385	2929
830.524	2872
830.663	2815
830.802	2731
830.941	2648
831.08	2663
831.219	2781
831.357	2766
831.496	2925
831.635	2674
831.774	2636
831.913	2632
832.051	2522
832.19	2568
832.329	2674
832.467	2526
832.606	2469
832.744	2552
832.883	2587
833.022	2590
833.16	2632
833.299	2708
833.437	2670
833.576	2705
833.714	2727
833.852	2708
833.991	2750
834.129	2773
834.267	2834
834.406	2766
834.544	2857
834.682	2883
834.821	2853
834.959	3074
835.097	2880
835.235	3066
835.373	2998
835.511	3032
835.65	2944
835.788	2956
835.926	2815
836.064	2819
836.202	2819
836.34	3097
836.478	3161
836.615	3001
836.753	3131
836.891	3226
837.029	3150
837.167	3108
837.305	3066
837.443	3058
837.58	2956
837.718	3081
837.856	3032
837.993	3039
838.131	3070
838.269	3123
838.406	3036
838.544	3093
838.681	2929
838.819	2899
838.956	2804
839.094	2823
839.231	2922
839.369	3020
839.506	3367
839.643	3195
839.781	2998
839.918	2975
840.055	3013
840.193	3017
840.33	3017
840.467	3093
840.604	3127
840.742	3409
840.879	3024
841.016	3009
841.153	3100
841.29	3313
841.427	3317
841.564	3237
841.701	3275
841.838	3214
841.975	3199
842.112	3226
842.249	3089
842.385	3039
842.522	3241
842.659	3077
842.796	3039
842.933	3077
843.069	3032
843.206	3047
843.343	3165
843.479	3097
843.616	3131
843.752	2910
843.889	2861
844.025	3112
844.162	2864
844.298	3062
844.435	2922
844.571	2902
844.708	3074
844.844	3188
844.98	3214
845.117	3173
845.253	3039
845.389	2990
845.525	3085
845.661	3070
845.798	2963
845.934	3146
846.07	3051
846.206	3230
846.342	3264
846.478	3207
846.614	3089
846.75	3055
846.886	3005
847.022	3237
847.158	3142
847.294	3192
847.429	3230
847.565	3222
847.701	3488
847.837	3051
847.972	2998
848.108	3119
848.244	3119
848.379	2979
848.515	2944
848.65	2883
848.786	2994
848.921	3020
849.057	3100
849.192	3142
849.328	3074
849.463	3116
849.598	3047
849.734	3028
849.869	2956
850.004	2914
850.14	2937
850.275	2864
850.41	2838
850.545	2861
850.68	2933
850.815	2944
850.95	2971
851.085	3165
851.22	3081
851.355	3024
851.49	3024
851.625	3005
851.76	3009
851.895	2933
852.03	2925
852.165	3024
852.299	3104
852.434	3199
852.569	3150
852.703	3165
852.838	3256
852.973	3332
853.107	3351
853.242	3161
853.376	3116
853.511	2979
853.645	3020
853.78	3203
853.914	3112
854.048	3100
854.183	3051
854.317	3142
854.451	3283
854.585	3135
854.72	3051
854.854	3195
854.988	3032
855.122	3058
855.256	2925
855.39	3104
855.524	3245
855.658	3195
855.792	3176
855.926	3195
856.06	3180
856.194	3275
856.327	3127
856.461	3039
856.595	3074
856.729	3108
856.862	3188
856.996	3142
857.13	3222
857.263	3241
857.397	3268
857.53	3097
857.664	3169
857.797	3218
857.931	3283
858.064	3176
858.197	3211
858.331	3127
858.464	3093
858.597	3013
858.731	3081
858.864	3123
858.997	3066
859.13	3135
859.263	3161
859.396	3195
859.529	3055
859.662	3104
859.795	3039
859.928	3100
860.061	3226
860.194	3310
860.327	3119
860.46	3089
860.592	3199
860.725	3230
860.858	3237
860.99	3108
861.123	3036
861.256	3024
861.388	3108
861.521	3724
861.653	3020
861.786	2979
861.918	2971
862.05	3058
862.183	3097
862.315	3184
862.447	3184
862.58	3089
862.712	2975
862.844	2868
862.976	2998
863.108	2994
863.24	3332
863.372	2883
863.504	2990
863.636	2960
863.768	2990
863.9	3013
864.032	2925
864.164	2918
864.296	3013
864.428	3104
864.559	3093
864.691	3051
864.823	3070
864.954	3001
865.086	3032
865.217	2982
865.349	2971
865.48	2960
865.612	2994
865.743	3161
865.875	2960
866.006	2925
866.137	2960
866.269	2956
866.4	2902
866.531	2902
866.662	2857
866.793	2891
866.924	2918
867.055	2963
867.186	2929
867.317	2861
867.448	2807
867.579	2853
867.71	2845
867.841	2788
867.972	2929
868.103	2891
868.233	2891
868.364	2857
868.495	2914
868.625	3077
868.756	3150
868.886	2944
869.017	3017
869.147	3195
869.278	3188
869.408	3028
869.539	3013
869.669	3100
869.799	3036
869.929	3119
870.06	3123
870.19	3264
870.32	3291
870.45	3272
870.58	3378
870.71	3462
870.84	3431
870.97	3279
871.1	3211
871.23	3466
871.36	3466
871.489	3340
871.619	3378
871.749	3355
871.879	3382
872.008	3454
872.138	3348
872.267	3302
872.397	3131
872.526	3093
872.656	3020
872.785	3051
872.915	3222
873.044	3348
873.173	3241
873.303	3199
873.432	3195
873.561	3233
873.69	3150
873.819	3131
873.948	3138
874.077	3097
874.206	3070
874.335	3043
874.464	3188
874.593	3321
874.722	3241
874.851	3397
874.979	3340
875.108	3298
875.237	3188
875.365	3165
875.494	3157
875.623	3241
875.751	3093
875.88	3135
876.008	3184
876.136	3272
876.265	3405
876.393	3526
876.521	3393
876.65	3389
876.778	3336
876.906	3203
877.034	3192
877.162	3230
877.29	3176
877.418	3230
877.546	3207
877.674	3233
877.802	3237
877.93	3245
878.058	3123
878.185	3100
878.313	3176
878.441	3199
878.568	3085
878.696	3150
878.824	3279
878.951	3298
879.079	3420
879.206	3606
879.333	3405
879.461	3321
879.588	3367
879.715	3466
879.842	3572
879.97	3348
880.097	3165
880.224	3112
880.351	3161
880.478	3207
880.605	3180
880.732	3180
880.859	3504
880.986	3294
881.112	3287
881.239	3184
881.366	3123
881.493	3039
881.619	3001
881.746	3043
881.872	3074
881.999	3074
882.125	3127
882.252	3260
882.378	3283
882.505	3409
882.631	3294
882.757	3100
882.883	3207
883.01	3256
883.136	3180
883.262	3104
883.388	3119
883.514	3268
883.64	3374
883.766	3272
883.892	3222
884.018	3233
884.143	3389
884.269	3496
884.395	3214
884.52	3138
884.646	3176
884.772	3127
884.897	3081
885.023	3188
885.148	3344
885.274	3416
885.399	3351
885.524	3275
885.65	3272
885.775	3268
885.9	3287
886.025	3397
886.15	3359
886.275	3310
886.4	3268
886.525	3291
886.65	3275
886.775	3249
886.9	3462
887.025	3614
887.149	3458
887.274	3272
887.399	3169
887.523	3199
887.648	3176
887.773	3180
887.897	3378
888.021	3378
888.146	3260
888.27	3386
888.395	3568
888.519	3447
888.643	3469
888.767	3450
888.891	3298
889.015	3218
889.139	3245
889.263	3245
889.387	3435
889.511	3496
889.635	3462
889.759	3279
889.883	3275
890.006	3367
890.13	3466
890.254	3233
890.377	3313
890.501	3154
890.624	3169
890.748	3260
890.871	3165
890.995	3093
891.118	3036
891.241	3169
891.364	3207
891.488	3313
891.611	3169
891.734	3203
891.857	3298
891.98	3233
892.103	3348
892.226	3275
892.349	3192
892.471	3077
892.594	3207
892.717	3287
892.839	3249
892.962	3256
893.085	3370
893.207	3336
893.33	3157
893.452	3180
893.575	3321
893.697	3272
893.819	3447
893.941	3530
894.064	3454
894.186	3283
894.308	3287
894.43	3405
894.552	3515
894.674	3504
894.796	3237
894.918	3272
895.04	3291
895.161	3412
895.283	3348
895.405	3348
895.526	3332
895.648	3401
895.769	3443
895.891	3447
896.012	3496
896.134	3447
896.255	3435
896.376	3363
896.498	3325
896.619	3397
896.74	3359
896.861	3386
896.982	3652
897.103	3838
897.224	3580
897.345	3519
897.466	3428
897.587	3511
897.708	3648
897.828	3526
897.949	3424
898.07	3294
898.19	3389
898.311	3652
898.431	3466
898.552	3507
898.672	3568
898.792	3545
898.913	3496
899.033	3405
899.153	3317
899.273	3222
899.393	3237
899.513	3272
899.633	3298
899.753	3332
899.873	3279
899.993	3397
900.113	3310
900.232	3367
900.352	3329
900.472	3283
900.591	3169
900.711	3264
900.83	3275
900.95	3420
901.069	3485
901.189	3374
901.308	3192
901.427	3089
901.546	3192
901.665	3283
901.784	3306
901.904	3184
902.023	3154
902.141	3013
902.26	2979
902.379	3173
902.498	3062
902.617	3020
902.735	3150
902.854	3226
902.973	3173
903.091	3036
903.21	3066
903.328	3123
903.446	3093
903.565	3131
903.683	3203
903.801	3089
903.919	3230
904.038	3256
904.156	3157
904.274	3321
904.392	3253
904.51	3272
904.627	3359
904.745	3443
904.863	3492
904.981	3241
905.098	3154
905.216	3218
905.334	3302
905.451	3294
905.569	3298
905.686	3443
905.803	3416
905.921	3272
906.038	3401
906.155	3313
906.272	3275
906.389	3306
906.506	3222
906.623	3264
906.74	3291
906.857	3173
906.974	3275
907.091	3435
907.208	3538
907.324	3458
907.441	3367
907.557	3264
907.674	3249
907.79	3165
907.907	3253
908.023	3378
908.139	3355
908.256	3306
908.372	3374
908.488	3313
908.604	3272
908.72	3237
908.836	3268
908.952	3268
909.068	3351
909.184	3488
909.3	3401
909.415	3492
909.531	3435
909.647	3237
909.762	3298
909.878	3226
909.993	3298
910.108	3340
910.224	3332
910.339	3409
910.454	3332
910.57	3283
910.685	3245
910.8	3599
910.915	3515
911.03	3439
911.145	3256
911.259	3253
911.374	3283
911.489	3222
911.604	3245
911.718	3138
911.833	3157
911.947	3036
912.062	2971
912.176	3154
912.291	3176
912.405	3233
912.519	3439
912.633	3466
912.748	3348
912.862	3230
912.976	3184
913.09	2998
913.204	3108
913.318	3199
913.431	3294
913.545	3306
913.659	3363
913.772	3306
913.886	3199
914	3230
914.113	3336
914.226	3393
914.34	3405
914.453	3249
914.566	3435
914.68	3291
914.793	3279
914.906	3146
915.019	3100
915.132	3100
915.245	3192
915.358	3169
915.47	3211
915.583	3237
915.696	3317
915.809	3386
915.921	3450
916.034	3253
916.146	3268
916.259	3214
916.371	3370
916.483	3363
916.595	3283
916.708	3329
916.82	3359
916.932	3313
917.044	3336
917.156	3348
917.268	3256
917.38	3317
917.491	3291
917.603	3355
917.715	3443
917.826	3458
917.938	3428
918.049	3272
918.161	3435
918.272	3591
918.384	3572
918.495	3469
918.606	3306
918.717	3268
918.828	3359
918.939	3397
919.05	3302
919.161	3359
919.272	3165
919.383	3249
919.494	3469
919.604	3675
919.715	3450
919.826	3405
919.936	3443
920.047	3599
920.157	3561
920.267	3774
920.378	3614
920.488	3568
920.598	3778
920.708	3968
920.818	3800
920.928	3835
921.038	3991
921.148	3979
921.258	3717
921.368	3660
921.477	3599
921.587	3500
921.697	3500
921.806	3618
921.916	3488
922.025	3306
922.134	3378
922.244	3298
922.353	3466
922.462	3283
922.571	3214
922.68	3104
922.789	3089
922.898	3100
923.007	3127
923.116	3226
923.224	3173
923.333	3165
923.442	3074
923.55	3077
923.659	3127
923.767	3211
923.876	3138
923.984	3226
924.092	3135
924.201	3142
924.309	3214
924.417	3256
924.525	3192
924.633	3222
924.741	4036
924.849	3051
924.956	3245
925.064	3039
925.172	3028
925.279	3116
925.387	3165
925.494	3222
925.602	3351
925.709	3306
925.816	3192
925.924	3298
926.031	3367
926.138	3351
926.245	3317
926.352	3249
926.459	3447
926.566	3462
926.673	3302
926.779	3260
926.886	3207
926.993	3173
927.099	3100
927.206	3104
927.312	3085
927.419	3253
927.525	3214
927.631	3233
927.737	3116
927.843	3123
927.95	2994
928.056	3123
928.162	3165
928.267	3256
928.373	3880
928.479	3329
928.585	3058
928.69	3203
928.796	3230
928.901	3169
929.007	3047
929.112	3199
929.218	3184
929.323	3173
929.428	3142
929.533	3332
929.638	3135
929.743	3199
929.848	3226
929.953	3199
930.058	3169
930.163	2986
930.267	3077
930.372	3165
930.477	3039
930.581	3287
930.685	3203
930.79	3085
930.894	3123
930.998	3085
931.103	3291
931.207	2941
931.311	2929
931.415	2899
931.519	2777
931.623	2819
