Data from test_V78500241_221.txt Node
Date: Fri Mar 25 16:16:44 CST 2022
User: usil
Spectrometer: V785-0024
Trigger mode: 0
Integration Time (sec): 4.000000E-1
Scans to average: 1
Nonlinearity correction enabled: false
Boxcar width: 0
Storing dark spectrum: false
XAxis mode: Wavelengths
Number of Pixels in Spectrum: 1024
>>>>>Begin Spectral Data<<<<<
801.071	2929
801.214	2975
801.356	2872
801.499	2933
801.641	2895
801.783	2937
801.926	3039
802.068	2971
802.211	3017
802.353	3066
802.496	2967
802.638	3028
802.78	3017
802.923	3108
803.065	2990
803.208	2933
803.35	2895
803.492	2914
803.635	2933
803.777	2804
803.919	2857
804.061	3214
804.204	2944
804.346	2971
804.488	2853
804.63	3009
804.773	2861
804.915	2914
805.057	3070
805.199	2918
805.341	2937
805.483	3009
805.626	2982
805.768	2960
805.91	3077
806.052	3127
806.194	3005
806.336	3245
806.478	3039
806.62	2941
806.762	2986
806.904	3089
807.046	3214
807.188	2986
807.33	2933
807.472	2990
807.614	2925
807.756	2986
807.898	2941
808.04	2929
808.182	2979
808.324	2944
808.465	2887
808.607	2899
808.749	2804
808.891	2872
809.033	2979
809.174	2990
809.316	2891
809.458	2899
809.6	2746
809.741	2781
809.883	2792
810.025	2868
810.166	2883
810.308	2849
810.45	2899
810.591	2823
810.733	2735
810.875	2842
811.016	2766
811.158	2773
811.299	2796
811.441	2956
811.582	2910
811.724	2811
811.865	2853
812.007	2914
812.148	2880
812.29	2864
812.431	2891
812.573	2933
812.714	3005
812.855	3043
812.997	3036
813.138	3112
813.279	3024
813.421	2971
813.562	2971
813.703	2880
813.845	2929
813.986	2796
814.127	2735
814.268	2819
814.41	2849
814.551	2823
814.692	2887
814.833	2845
814.974	2864
815.115	2948
815.256	2845
815.397	2804
815.539	2864
815.68	2804
815.821	2796
815.962	2937
816.103	2922
816.244	2887
816.385	2887
816.526	2956
816.666	2971
816.807	2735
816.948	2876
817.089	2922
817.23	2838
817.371	2788
817.512	2823
817.653	2868
817.793	2838
817.934	2883
818.075	2971
818.216	2990
818.356	3024
818.497	2895
818.638	2777
818.778	2811
818.919	2804
819.06	2754
819.2	2883
819.341	2819
819.481	2785
819.622	2948
819.762	3089
819.903	3062
820.043	2918
820.184	2933
820.324	2906
820.465	3028
820.605	2971
820.746	3047
820.886	2922
821.026	3108
821.167	3154
821.307	3264
821.447	3264
821.588	3233
821.728	3211
821.868	3237
822.008	3104
822.149	3199
822.289	3241
822.429	3116
822.569	3123
822.709	3157
822.849	3047
822.99	3066
823.13	3131
823.27	3214
823.41	3112
823.55	3188
823.69	3176
823.83	3199
823.97	3051
824.11	2998
824.25	2982
824.389	3074
824.529	3100
824.669	3039
824.809	3173
824.949	3253
825.089	3241
825.228	3169
825.368	3009
825.508	2929
825.648	2979
825.787	3032
825.927	2990
826.067	2963
826.206	2937
826.346	3047
826.485	3085
826.625	3123
826.765	3291
826.904	3218
827.044	2979
827.183	2937
827.323	2895
827.462	2975
827.601	2960
827.741	2902
827.88	2963
828.02	2895
828.159	3005
828.298	3036
828.437	3104
828.577	3036
828.716	3253
828.855	3077
828.994	2902
829.134	2891
829.273	2925
829.412	2861
829.551	2868
829.69	2876
829.829	2971
829.968	3154
830.107	3047
830.246	2994
830.385	2906
830.524	2857
830.663	2823
830.802	2731
830.941	2613
831.08	2659
831.219	2796
831.357	2785
831.496	2967
831.635	2743
831.774	2648
831.913	2682
832.051	2556
832.19	2587
832.329	2682
832.467	2560
832.606	2499
832.744	2590
832.883	2560
833.022	2579
833.16	2667
833.299	2682
833.437	2705
833.576	2686
833.714	2727
833.852	2712
833.991	2758
834.129	2811
834.267	2849
834.406	2830
834.544	2883
834.682	2853
834.821	2845
834.959	3097
835.097	2902
835.235	3089
835.373	2986
835.511	3020
835.65	2986
835.788	2952
835.926	2819
836.064	2834
836.202	2853
836.34	3093
836.478	3135
836.615	3051
836.753	3142
836.891	3222
837.029	3176
837.167	3104
837.305	3074
837.443	3032
837.58	2982
837.718	3127
837.856	3062
837.993	3051
838.131	3150
838.269	3127
838.406	3089
838.544	3089
838.681	2918
838.819	2910
838.956	2834
839.094	2815
839.231	2941
839.369	3009
839.506	3393
839.643	3272
839.781	3013
839.918	2956
840.055	3058
840.193	3077
840.33	3081
840.467	3108
840.604	3150
840.742	3367
840.879	3074
841.016	3055
841.153	3100
841.29	3348
841.427	3264
841.564	3291
841.701	3321
841.838	3211
841.975	3157
842.112	3222
842.249	3077
842.385	3020
842.522	3245
842.659	3100
842.796	3085
842.933	3142
843.069	3066
843.206	3036
843.343	3192
843.479	3112
843.616	3108
843.752	2891
843.889	2880
844.025	3097
844.162	2887
844.298	3043
844.435	2975
844.571	2925
844.708	3074
844.844	3214
844.98	3237
845.117	3195
845.253	3036
845.389	3028
845.525	3077
845.661	3116
845.798	3013
845.934	3104
846.07	3066
846.206	3237
846.342	3298
846.478	3249
846.614	3123
846.75	3066
846.886	3005
847.022	3256
847.158	3146
847.294	3146
847.429	3249
847.565	3222
847.701	3500
847.837	3100
847.972	3028
848.108	3161
848.244	3161
848.379	2990
848.515	2967
848.65	2914
848.786	2956
848.921	3017
849.057	3116
849.192	3150
849.328	3081
849.463	3123
849.598	3066
849.734	3005
849.869	2994
850.004	2922
850.14	2975
850.275	2891
850.41	2876
850.545	2887
850.68	2941
850.815	2918
850.95	3039
851.085	3207
851.22	3127
851.355	3036
851.49	2982
851.625	2994
851.76	3017
851.895	2914
852.03	2906
852.165	3077
852.299	3123
852.434	3214
852.569	3161
852.703	3180
852.838	3241
852.973	3340
853.107	3340
853.242	3142
853.376	3093
853.511	2975
853.645	3024
853.78	3268
853.914	3089
854.048	3104
854.183	3108
854.317	3119
854.451	3275
854.585	3146
854.72	3081
854.854	3256
854.988	3081
855.122	3100
855.256	3009
855.39	3108
855.524	3195
855.658	3173
855.792	3138
855.926	3180
856.06	3218
856.194	3237
856.327	3176
856.461	3062
856.595	3100
856.729	3085
856.862	3218
856.996	3233
857.13	3203
857.263	3226
857.397	3256
857.53	3112
857.664	3184
857.797	3230
857.931	3241
858.064	3138
858.197	3230
858.331	3131
858.464	3062
858.597	3032
858.731	3131
858.864	3142
858.997	3074
859.13	3142
859.263	3173
859.396	3192
859.529	3066
859.662	3093
859.795	3062
859.928	3119
860.061	3287
860.194	3268
860.327	3108
860.46	3100
860.592	3203
860.725	3233
860.858	3264
860.99	3173
861.123	3032
861.256	3077
861.388	3161
861.521	3873
861.653	3039
861.786	2963
861.918	3005
862.05	3085
862.183	3093
862.315	3123
862.447	3192
862.58	3104
862.712	2941
862.844	2880
862.976	3005
863.108	3028
863.24	3298
863.372	2868
863.504	2956
863.636	2956
863.768	3043
863.9	2986
864.032	2891
864.164	2960
864.296	3020
864.428	3104
864.559	3138
864.691	3058
864.823	3066
864.954	3024
865.086	3066
865.217	3020
865.349	2944
865.48	2982
865.612	3005
865.743	3138
865.875	2979
866.006	2899
866.137	2998
866.269	2952
866.4	2948
866.531	2883
866.662	2906
866.793	2872
866.924	2887
867.055	2956
867.186	2910
867.317	2883
867.448	2864
867.579	2880
867.71	2849
867.841	2807
867.972	2891
868.103	2891
868.233	2857
868.364	2864
868.495	2891
868.625	3047
868.756	3173
868.886	2979
869.017	3009
869.147	3192
869.278	3184
869.408	3070
869.539	3066
869.669	3116
869.799	3077
869.929	3157
870.06	3131
870.19	3336
870.32	3302
870.45	3294
870.58	3351
870.71	3462
870.84	3458
870.97	3294
871.1	3260
871.23	3511
871.36	3424
871.489	3340
871.619	3405
871.749	3420
871.879	3443
872.008	3515
872.138	3348
872.267	3283
872.397	3154
872.526	3116
872.656	3047
872.785	3104
872.915	3207
873.044	3287
873.173	3230
873.303	3233
873.432	3256
873.561	3237
873.69	3123
873.819	3135
873.948	3192
874.077	3123
874.206	3039
874.335	3081
874.464	3195
874.593	3317
874.722	3268
874.851	3405
874.979	3374
875.108	3325
875.237	3199
875.365	3142
875.494	3165
875.623	3241
875.751	3089
875.88	3104
876.008	3199
876.136	3241
876.265	3378
876.393	3515
876.521	3458
876.65	3386
876.778	3348
876.906	3222
877.034	3157
877.162	3264
877.29	3138
877.418	3214
877.546	3256
877.674	3230
877.802	3264
877.93	3226
878.058	3154
878.185	3097
878.313	3226
878.441	3195
878.568	3100
878.696	3142
878.824	3275
878.951	3287
879.079	3462
879.206	3660
879.333	3439
879.461	3344
879.588	3367
879.715	3526
879.842	3610
879.97	3424
880.097	3211
880.224	3154
880.351	3226
880.478	3211
880.605	3214
880.732	3184
880.859	3504
880.986	3291
881.112	3355
881.239	3188
881.366	3074
881.493	2994
881.619	3028
881.746	3100
881.872	3116
881.999	3116
882.125	3169
882.252	3256
882.378	3332
882.505	3401
882.631	3298
882.757	3161
882.883	3195
883.01	3241
883.136	3154
883.262	3097
883.388	3093
883.514	3344
883.64	3370
883.766	3329
883.892	3203
884.018	3253
884.143	3424
884.269	3572
884.395	3233
884.52	3188
884.646	3199
884.772	3169
884.897	3146
885.023	3222
885.148	3329
885.274	3409
885.399	3367
885.524	3275
885.65	3260
885.775	3340
885.9	3275
886.025	3458
886.15	3340
886.275	3317
886.4	3214
886.525	3287
886.65	3264
886.775	3268
886.9	3473
887.025	3648
887.149	3435
887.274	3245
887.399	3176
887.523	3173
887.648	3184
887.773	3226
887.897	3367
888.021	3382
888.146	3310
888.27	3428
888.395	3515
888.519	3447
888.643	3469
888.767	3492
888.891	3348
889.015	3241
889.139	3256
889.263	3287
889.387	3447
889.511	3523
889.635	3462
889.759	3298
889.883	3310
890.006	3359
890.13	3530
890.254	3287
890.377	3344
890.501	3211
890.624	3207
890.748	3310
890.871	3173
890.995	3093
891.118	3070
891.241	3180
891.364	3237
891.488	3336
891.611	3176
891.734	3245
891.857	3344
891.98	3211
892.103	3348
892.226	3256
892.349	3207
892.471	3097
892.594	3260
892.717	3332
892.839	3291
892.962	3291
893.085	3382
893.207	3291
893.33	3138
893.452	3218
893.575	3374
893.697	3253
893.819	3447
893.941	3488
894.064	3507
894.186	3268
894.308	3294
894.43	3424
894.552	3507
894.674	3473
894.796	3260
894.918	3317
895.04	3298
895.161	3450
895.283	3397
895.405	3336
895.526	3382
895.648	3389
895.769	3409
895.891	3492
896.012	3481
896.134	3477
896.255	3409
896.376	3374
896.498	3386
896.619	3447
896.74	3306
896.861	3443
896.982	3679
897.103	3850
897.224	3584
897.345	3530
897.466	3424
897.587	3545
897.708	3599
897.828	3572
897.949	3431
898.07	3367
898.19	3428
898.311	3618
898.431	3462
898.552	3538
898.672	3610
898.792	3591
898.913	3526
899.033	3416
899.153	3245
899.273	3222
899.393	3272
899.513	3332
899.633	3344
899.753	3340
899.873	3325
899.993	3420
900.113	3317
900.232	3409
900.352	3359
900.472	3306
900.591	3211
900.711	3283
900.83	3275
900.95	3397
901.069	3492
901.189	3325
901.308	3199
901.427	3146
901.546	3173
901.665	3298
901.784	3363
901.904	3214
902.023	3157
902.141	3009
902.26	2998
902.379	3150
902.498	3093
902.617	3077
902.735	3192
902.854	3264
902.973	3256
903.091	3043
903.21	3081
903.328	3154
903.446	3100
903.565	3108
903.683	3203
903.801	3131
903.919	3264
904.038	3249
904.156	3173
904.274	3287
904.392	3245
904.51	3283
904.627	3359
904.745	3439
904.863	3519
904.981	3294
905.098	3135
905.216	3275
905.334	3302
905.451	3302
905.569	3340
905.686	3439
905.803	3443
905.921	3310
906.038	3458
906.155	3332
906.272	3294
906.389	3302
906.506	3222
906.623	3275
906.74	3253
906.857	3207
906.974	3241
907.091	3469
907.208	3534
907.324	3492
907.441	3348
907.557	3253
907.674	3249
907.79	3199
907.907	3264
908.023	3348
908.139	3370
908.256	3344
908.372	3412
908.488	3382
908.604	3256
908.72	3207
908.836	3310
908.952	3279
909.068	3355
909.184	3504
909.3	3424
909.415	3469
909.531	3492
909.647	3275
909.762	3291
909.878	3275
909.993	3367
910.108	3321
910.224	3329
910.339	3420
910.454	3351
910.57	3275
910.685	3245
910.8	3568
910.915	3511
911.03	3454
911.145	3256
911.259	3241
911.374	3298
911.489	3268
911.604	3195
911.718	3150
911.833	3161
911.947	3005
912.062	2994
912.176	3180
912.291	3211
912.405	3233
912.519	3439
912.633	3488
912.748	3393
912.862	3272
912.976	3237
913.09	3032
913.204	3169
913.318	3207
913.431	3367
913.545	3359
913.659	3409
913.772	3321
913.886	3230
914	3218
914.113	3393
914.226	3401
914.34	3405
914.453	3226
914.566	3401
914.68	3344
914.793	3313
914.906	3119
915.019	3077
915.132	3070
915.245	3157
915.358	3169
915.47	3249
915.583	3272
915.696	3256
915.809	3443
915.921	3458
916.034	3218
916.146	3279
916.259	3233
916.371	3348
916.483	3363
916.595	3291
916.708	3336
916.82	3329
916.932	3355
917.044	3393
917.156	3336
917.268	3249
917.38	3340
917.491	3294
917.603	3374
917.715	3492
917.826	3469
917.938	3374
918.049	3230
918.161	3439
918.272	3618
918.384	3576
918.495	3526
918.606	3344
918.717	3313
918.828	3370
918.939	3401
919.05	3260
919.161	3332
919.272	3192
919.383	3283
919.494	3538
919.604	3675
919.715	3496
919.826	3477
919.936	3458
920.047	3614
920.157	3538
920.267	3747
920.378	3629
920.488	3580
920.598	3816
920.708	3953
920.818	3816
920.928	3873
921.038	4074
921.148	3991
921.258	3663
921.368	3671
921.477	3622
921.587	3580
921.697	3424
921.806	3625
921.916	3515
922.025	3374
922.134	3367
922.244	3325
922.353	3443
922.462	3306
922.571	3230
922.68	3123
922.789	3112
922.898	3180
923.007	3097
923.116	3233
923.224	3214
923.333	3154
923.442	3112
923.55	3074
923.659	3127
923.767	3192
923.876	3108
923.984	3287
924.092	3131
924.201	3226
924.309	3218
924.417	3256
924.525	3222
924.633	3279
924.741	4158
924.849	3081
924.956	3298
925.064	3100
925.172	3062
925.279	3081
925.387	3253
925.494	3207
925.602	3367
925.709	3317
925.816	3165
925.924	3272
926.031	3378
926.138	3363
926.245	3397
926.352	3264
926.459	3435
926.566	3424
926.673	3363
926.779	3260
926.886	3256
926.993	3146
927.099	3138
927.206	3123
927.312	3116
927.419	3253
927.525	3214
927.631	3237
927.737	3142
927.843	3131
927.95	3028
928.056	3188
928.162	3176
928.267	3268
928.373	3876
928.479	3313
928.585	3089
928.69	3199
928.796	3264
928.901	3188
929.007	3058
929.112	3211
929.218	3180
929.323	3127
929.428	3157
929.533	3329
929.638	3104
929.743	3176
929.848	3283
929.953	3199
930.058	3131
930.163	3013
930.267	3066
930.372	3222
930.477	3058
930.581	3332
930.685	3211
930.79	3100
930.894	3085
930.998	3077
931.103	3298
931.207	2937
931.311	2971
931.415	2880
931.519	2746
931.623	2811
