Data from test_V78500241_759.txt Node
Date: Fri Mar 25 16:20:27 CST 2022
User: usil
Spectrometer: V785-0024
Trigger mode: 0
Integration Time (sec): 4.000000E-1
Scans to average: 1
Nonlinearity correction enabled: false
Boxcar width: 0
Storing dark spectrum: false
XAxis mode: Wavelengths
Number of Pixels in Spectrum: 1024
>>>>>Begin Spectral Data<<<<<
801.071	2971
801.214	2963
801.356	2887
801.499	2895
801.641	2853
801.783	2906
801.926	3039
802.068	3005
802.211	3039
802.353	3028
802.496	2967
802.638	3039
802.78	3051
802.923	3077
803.065	2979
803.208	2906
803.35	2899
803.492	2944
803.635	2944
803.777	2750
803.919	2902
804.061	3195
804.204	2979
804.346	2918
804.488	2861
804.63	2960
804.773	2864
804.915	2918
805.057	3093
805.199	2956
805.341	2941
805.483	3070
805.626	2986
805.768	2967
805.91	3085
806.052	3123
806.194	3009
806.336	3203
806.478	3070
806.62	2944
806.762	2960
806.904	3097
807.046	3173
807.188	2967
807.33	2914
807.472	2944
807.614	2899
807.756	2979
807.898	2956
808.04	2929
808.182	3013
808.324	2902
808.465	2864
808.607	2876
808.749	2800
808.891	2861
809.033	2990
809.174	2982
809.316	2891
809.458	2929
809.6	2758
809.741	2804
809.883	2785
810.025	2834
810.166	2902
810.308	2823
810.45	2853
810.591	2781
810.733	2777
810.875	2864
811.016	2769
811.158	2777
811.299	2819
811.441	2918
811.582	2883
811.724	2830
811.865	2838
812.007	2918
812.148	2899
812.29	2857
812.431	2868
812.573	2944
812.714	2979
812.855	3055
812.997	3032
813.138	3138
813.279	2982
813.421	2975
813.562	2975
813.703	2861
813.845	2868
813.986	2773
814.127	2708
814.268	2872
814.41	2807
814.551	2830
814.692	2910
814.833	2792
814.974	2910
815.115	2914
815.256	2826
815.397	2819
815.539	2853
815.68	2788
815.821	2819
815.962	2952
816.103	2933
816.244	2876
816.385	2899
816.526	2967
816.666	2895
816.807	2724
816.948	2948
817.089	2895
817.23	2845
817.371	2792
817.512	2819
817.653	2845
817.793	2845
817.934	2880
818.075	2918
818.216	2986
818.356	3039
818.497	2914
818.638	2800
818.778	2823
818.919	2792
819.06	2777
819.2	2895
819.341	2842
819.481	2792
819.622	2925
819.762	3123
819.903	3036
820.043	2929
820.184	2891
820.324	2910
820.465	3017
820.605	3024
820.746	3020
820.886	2982
821.026	3108
821.167	3173
821.307	3260
821.447	3283
821.588	3249
821.728	3218
821.868	3173
822.008	3135
822.149	3199
822.289	3218
822.429	3077
822.569	3123
822.709	3199
822.849	3017
822.99	3070
823.13	3173
823.27	3256
823.41	3081
823.55	3138
823.69	3165
823.83	3188
823.97	3085
824.11	3001
824.25	2990
824.389	3062
824.529	3097
824.669	3051
824.809	3203
824.949	3230
825.089	3192
825.228	3169
825.368	2982
825.508	2956
825.648	3017
825.787	3028
825.927	2998
826.067	2998
826.206	2982
826.346	3062
826.485	3104
826.625	3104
826.765	3230
826.904	3195
827.044	2986
827.183	2960
827.323	2880
827.462	3009
827.601	2902
827.741	2982
827.88	2952
828.02	2849
828.159	2948
828.298	3043
828.437	3081
828.577	3047
828.716	3245
828.855	3066
828.994	2922
829.134	2914
829.273	2906
829.412	2861
829.551	2857
829.69	2902
829.829	2979
829.968	3127
830.107	3005
830.246	3051
830.385	2918
830.524	2876
830.663	2785
830.802	2746
830.941	2659
831.08	2689
831.219	2754
831.357	2754
831.496	2967
831.635	2712
831.774	2632
831.913	2651
832.051	2514
832.19	2575
832.329	2689
832.467	2537
832.606	2465
832.744	2568
832.883	2610
833.022	2568
833.16	2651
833.299	2655
833.437	2701
833.576	2705
833.714	2697
833.852	2731
833.991	2754
834.129	2823
834.267	2880
834.406	2804
834.544	2891
834.682	2880
834.821	2861
834.959	3066
835.097	2914
835.235	3066
835.373	3001
835.511	3070
835.65	2929
835.788	2975
835.926	2857
836.064	2842
836.202	2861
836.34	3104
836.478	3127
836.615	2990
836.753	3112
836.891	3203
837.029	3146
837.167	3066
837.305	3017
837.443	3051
837.58	2975
837.718	3123
837.856	3081
837.993	3081
838.131	3104
838.269	3112
838.406	3104
838.544	3089
838.681	2941
838.819	2910
838.956	2811
839.094	2830
839.231	2952
839.369	3036
839.506	3355
839.643	3211
839.781	3005
839.918	2941
840.055	3062
840.193	3055
840.33	3085
840.467	3119
840.604	3146
840.742	3447
840.879	3081
841.016	3055
841.153	3142
841.29	3340
841.427	3279
841.564	3241
841.701	3302
841.838	3214
841.975	3169
842.112	3249
842.249	3108
842.385	3039
842.522	3237
842.659	3081
842.796	3055
842.933	3093
843.069	3024
843.206	3047
843.343	3165
843.479	3100
843.616	3116
843.752	2922
843.889	2872
844.025	3093
844.162	2868
844.298	3051
844.435	2982
844.571	2895
844.708	3104
844.844	3180
844.98	3218
845.117	3195
845.253	3036
845.389	3009
845.525	3085
845.661	3089
845.798	2986
845.934	3119
846.07	3047
846.206	3230
846.342	3317
846.478	3245
846.614	3089
846.75	3055
846.886	3013
847.022	3253
847.158	3146
847.294	3180
847.429	3188
847.565	3218
847.701	3485
847.837	3047
847.972	2967
848.108	3165
848.244	3150
848.379	3013
848.515	2948
848.65	2933
848.786	2967
848.921	3001
849.057	3127
849.192	3138
849.328	3055
849.463	3135
849.598	3089
849.734	3028
849.869	2967
850.004	2937
850.14	2925
850.275	2895
850.41	2819
850.545	2868
850.68	2948
850.815	2941
850.95	2979
851.085	3188
851.22	3085
851.355	2990
851.49	2952
851.625	3009
851.76	3020
851.895	2967
852.03	2891
852.165	3009
852.299	3093
852.434	3150
852.569	3123
852.703	3169
852.838	3226
852.973	3283
853.107	3313
853.242	3161
853.376	3074
853.511	3009
853.645	2998
853.78	3253
853.914	3093
854.048	3131
854.183	3108
854.317	3165
854.451	3253
854.585	3131
854.72	3058
854.854	3192
854.988	3070
855.122	3100
855.256	2944
855.39	3097
855.524	3249
855.658	3211
855.792	3169
855.926	3192
856.06	3192
856.194	3256
856.327	3157
856.461	3058
856.595	3081
856.729	3081
856.862	3169
856.996	3180
857.13	3203
857.263	3207
857.397	3294
857.53	3116
857.664	3188
857.797	3245
857.931	3226
858.064	3150
858.197	3203
858.331	3112
858.464	3089
858.597	2990
858.731	3089
858.864	3138
858.997	3074
859.13	3180
859.263	3195
859.396	3188
859.529	3100
859.662	3077
859.795	3085
859.928	3157
860.061	3275
860.194	3268
860.327	3119
860.46	3089
860.592	3253
860.725	3256
860.858	3268
860.99	3104
861.123	3013
861.256	3066
861.388	3138
861.521	3884
861.653	3013
861.786	2994
861.918	3020
862.05	3062
862.183	3089
862.315	3184
862.447	3199
862.58	3123
862.712	2933
862.844	2883
862.976	3028
863.108	3005
863.24	3450
863.372	2845
863.504	2948
863.636	2948
863.768	3032
863.9	2979
864.032	2929
864.164	2933
864.296	2998
864.428	3100
864.559	3104
864.691	3058
864.823	3055
864.954	3017
865.086	3055
865.217	2994
865.349	2975
865.48	2963
865.612	2963
865.743	3165
865.875	2971
866.006	2952
866.137	2982
866.269	2906
866.4	2918
866.531	2902
866.662	2902
866.793	2925
866.924	2929
867.055	2944
867.186	2880
867.317	2876
867.448	2811
867.579	2853
867.71	2876
867.841	2811
867.972	2895
868.103	2868
868.233	2876
868.364	2880
868.495	2887
868.625	3066
868.756	3127
868.886	2990
869.017	3024
869.147	3180
869.278	3135
869.408	3028
869.539	3036
869.669	3093
869.799	3043
869.929	3097
870.06	3108
870.19	3344
870.32	3291
870.45	3291
870.58	3382
870.71	3424
870.84	3412
870.97	3279
871.1	3226
871.23	3511
871.36	3450
871.489	3359
871.619	3393
871.749	3386
871.879	3439
872.008	3454
872.138	3348
872.267	3245
872.397	3138
872.526	3070
872.656	3024
872.785	3123
872.915	3241
873.044	3306
873.173	3214
873.303	3245
873.432	3237
873.561	3199
873.69	3131
873.819	3127
873.948	3233
874.077	3104
874.206	3036
874.335	3077
874.464	3176
874.593	3340
874.722	3268
874.851	3393
874.979	3313
875.108	3294
875.237	3173
875.365	3146
875.494	3195
875.623	3260
875.751	3077
875.88	3097
876.008	3180
876.136	3195
876.265	3344
876.393	3492
876.521	3416
876.65	3344
876.778	3359
876.906	3237
877.034	3211
877.162	3233
877.29	3150
877.418	3249
877.546	3230
877.674	3253
877.802	3188
877.93	3203
878.058	3154
878.185	3131
878.313	3207
878.441	3230
878.568	3036
878.696	3146
878.824	3249
878.951	3306
879.079	3462
879.206	3599
879.333	3420
879.461	3332
879.588	3340
879.715	3462
879.842	3606
879.97	3389
880.097	3142
880.224	3157
880.351	3169
880.478	3169
880.605	3230
880.732	3150
880.859	3477
880.986	3302
881.112	3310
881.239	3214
881.366	3070
881.493	3036
881.619	3036
881.746	3074
881.872	3104
881.999	3100
882.125	3108
882.252	3241
882.378	3298
882.505	3359
882.631	3275
882.757	3123
882.883	3233
883.01	3218
883.136	3161
883.262	3108
883.388	3123
883.514	3294
883.64	3374
883.766	3279
883.892	3222
884.018	3264
884.143	3378
884.269	3488
884.395	3237
884.52	3184
884.646	3192
884.772	3108
884.897	3104
885.023	3188
885.148	3306
885.274	3405
885.399	3359
885.524	3272
885.65	3268
885.775	3329
885.9	3260
886.025	3473
886.15	3382
886.275	3325
886.4	3207
886.525	3310
886.65	3260
886.775	3272
886.9	3485
887.025	3629
887.149	3428
887.274	3256
887.399	3169
887.523	3199
887.648	3195
887.773	3214
887.897	3355
888.021	3412
888.146	3306
888.27	3416
888.395	3549
888.519	3435
888.643	3405
888.767	3416
888.891	3321
889.015	3237
889.139	3279
889.263	3207
889.387	3428
889.511	3523
889.635	3409
889.759	3291
889.883	3291
890.006	3359
890.13	3523
890.254	3241
890.377	3351
890.501	3184
890.624	3192
890.748	3283
890.871	3180
890.995	3104
891.118	3077
891.241	3188
891.364	3222
891.488	3317
891.611	3176
891.734	3211
891.857	3260
891.98	3222
892.103	3313
892.226	3275
892.349	3188
892.471	3138
892.594	3230
892.717	3310
892.839	3272
892.962	3287
893.085	3367
893.207	3260
893.33	3150
893.452	3165
893.575	3313
893.697	3233
893.819	3435
893.941	3485
894.064	3485
894.186	3241
894.308	3256
894.43	3420
894.552	3542
894.674	3454
894.796	3287
894.918	3279
895.04	3310
895.161	3416
895.283	3359
895.405	3306
895.526	3378
895.648	3443
895.769	3409
895.891	3450
896.012	3447
896.134	3443
896.255	3420
896.376	3412
896.498	3359
896.619	3420
896.74	3374
896.861	3412
896.982	3679
897.103	3838
897.224	3584
897.345	3515
897.466	3431
897.587	3469
897.708	3584
897.828	3584
897.949	3401
898.07	3317
898.19	3416
898.311	3523
898.431	3435
898.552	3492
898.672	3584
898.792	3576
898.913	3526
899.033	3382
899.153	3272
899.273	3214
899.393	3291
899.513	3279
899.633	3321
899.753	3310
899.873	3306
899.993	3378
900.113	3348
900.232	3348
900.352	3336
900.472	3287
900.591	3199
900.711	3310
900.83	3218
900.95	3409
901.069	3481
901.189	3401
901.308	3142
901.427	3112
901.546	3173
901.665	3272
901.784	3332
901.904	3180
902.023	3138
902.141	3013
902.26	2982
902.379	3154
902.498	3085
902.617	3043
902.735	3214
902.854	3233
902.973	3195
903.091	2998
903.21	3024
903.328	3123
903.446	3097
903.565	3097
903.683	3173
903.801	3119
903.919	3245
904.038	3256
904.156	3154
904.274	3226
904.392	3230
904.51	3283
904.627	3298
904.745	3424
904.863	3507
904.981	3279
905.098	3157
905.216	3256
905.334	3317
905.451	3272
905.569	3294
905.686	3424
905.803	3450
905.921	3279
906.038	3428
906.155	3359
906.272	3268
906.389	3348
906.506	3241
906.623	3275
906.74	3253
906.857	3195
906.974	3249
907.091	3450
907.208	3538
907.324	3454
907.441	3370
907.557	3165
907.674	3245
907.79	3226
907.907	3291
908.023	3389
908.139	3382
908.256	3363
908.372	3397
908.488	3332
908.604	3245
908.72	3253
908.836	3272
908.952	3237
909.068	3344
909.184	3447
909.3	3382
909.415	3504
909.531	3488
909.647	3272
909.762	3332
909.878	3218
909.993	3336
910.108	3313
910.224	3325
910.339	3389
910.454	3359
910.57	3283
910.685	3237
910.8	3553
910.915	3549
911.03	3416
911.145	3222
911.259	3283
911.374	3332
911.489	3241
911.604	3253
911.718	3108
911.833	3157
911.947	3036
912.062	2960
912.176	3184
912.291	3211
912.405	3218
912.519	3443
912.633	3473
912.748	3329
912.862	3260
912.976	3161
913.09	3055
913.204	3138
913.318	3214
913.431	3340
913.545	3355
913.659	3412
913.772	3306
913.886	3241
914	3230
914.113	3348
914.226	3420
914.34	3351
914.453	3188
914.566	3412
914.68	3275
914.793	3298
914.906	3138
915.019	3077
915.132	3074
915.245	3176
915.358	3169
915.47	3230
915.583	3302
915.696	3241
915.809	3439
915.921	3424
916.034	3264
916.146	3275
916.259	3211
916.371	3363
916.483	3355
916.595	3260
916.708	3306
916.82	3355
916.932	3348
917.044	3332
917.156	3367
917.268	3256
917.38	3294
917.491	3325
917.603	3401
917.715	3420
917.826	3530
917.938	3386
918.049	3264
918.161	3420
918.272	3580
918.384	3587
918.495	3511
918.606	3325
918.717	3291
918.828	3382
918.939	3393
919.05	3321
919.161	3355
919.272	3180
919.383	3317
919.494	3481
919.604	3690
919.715	3481
919.826	3424
919.936	3477
920.047	3526
920.157	3587
920.267	3770
920.378	3564
920.488	3545
920.598	3781
920.708	3907
920.818	3835
920.928	3831
921.038	4010
921.148	3983
921.258	3701
921.368	3595
921.477	3595
921.587	3523
921.697	3473
921.806	3591
921.916	3530
922.025	3310
922.134	3344
922.244	3310
922.353	3439
922.462	3291
922.571	3218
922.68	3066
922.789	3032
922.898	3119
923.007	3085
923.116	3211
923.224	3165
923.333	3161
923.442	3112
923.55	3070
923.659	3135
923.767	3241
923.876	3135
923.984	3222
924.092	3085
924.201	3211
924.309	3207
924.417	3226
924.525	3230
924.633	3241
924.741	4192
924.849	2998
924.956	3298
925.064	3104
925.172	3024
925.279	3093
925.387	3230
925.494	3161
925.602	3359
925.709	3294
925.816	3184
925.924	3298
926.031	3370
926.138	3325
926.245	3329
926.352	3249
926.459	3424
926.566	3462
926.673	3313
926.779	3203
926.886	3279
926.993	3157
927.099	3127
927.206	3154
927.312	3150
927.419	3211
927.525	3214
927.631	3272
927.737	3180
927.843	3135
927.95	3043
928.056	3154
928.162	3173
928.267	3237
928.373	3785
928.479	3313
928.585	3070
928.69	3195
928.796	3279
928.901	3161
929.007	3055
929.112	3230
929.218	3173
929.323	3157
929.428	3112
929.533	3329
929.638	3142
929.743	3138
929.848	3268
929.953	3218
930.058	3135
930.163	3013
930.267	3051
930.372	3207
930.477	3077
930.581	3336
930.685	3169
930.79	3058
930.894	3146
930.998	3074
931.103	3233
931.207	2967
931.311	2941
931.415	2929
931.519	2769
931.623	2796
