Data from test_V78500241_1092.txt Node
Date: Fri Mar 25 16:22:46 CST 2022
User: usil
Spectrometer: V785-0024
Trigger mode: 0
Integration Time (sec): 4.000000E-1
Scans to average: 1
Nonlinearity correction enabled: false
Boxcar width: 0
Storing dark spectrum: false
XAxis mode: Wavelengths
Number of Pixels in Spectrum: 1024
>>>>>Begin Spectral Data<<<<<
801.071	2883
801.214	2922
801.356	2857
801.499	2906
801.641	2910
801.783	2944
801.926	3020
802.068	2952
802.211	2967
802.353	3032
802.496	2941
802.638	3024
802.78	2998
802.923	3097
803.065	3024
803.208	2883
803.35	2895
803.492	2918
803.635	2899
803.777	2750
803.919	2857
804.061	3218
804.204	2910
804.346	2883
804.488	2834
804.63	2979
804.773	2864
804.915	2902
805.057	3089
805.199	2910
805.341	2914
805.483	3047
805.626	3020
805.768	2941
805.91	3077
806.052	3116
806.194	3013
806.336	3233
806.478	3013
806.62	2941
806.762	2933
806.904	3047
807.046	3142
807.188	2982
807.33	2872
807.472	2990
807.614	2883
807.756	2963
807.898	2944
808.04	2876
808.182	2952
808.324	2956
808.465	2838
808.607	2883
808.749	2758
808.891	2838
809.033	2960
809.174	2937
809.316	2910
809.458	2895
809.6	2781
809.741	2735
809.883	2754
810.025	2845
810.166	2861
810.308	2857
810.45	2792
810.591	2781
810.733	2731
810.875	2842
811.016	2754
811.158	2773
811.299	2838
811.441	2952
811.582	2872
811.724	2804
811.865	2826
812.007	2849
812.148	2857
812.29	2815
812.431	2876
812.573	2895
812.714	2975
812.855	3017
812.997	3066
813.138	3093
813.279	3009
813.421	3001
813.562	2948
813.703	2891
813.845	2918
813.986	2750
814.127	2712
814.268	2826
814.41	2845
814.551	2785
814.692	2876
814.833	2838
814.974	2887
815.115	2971
815.256	2834
815.397	2792
815.539	2849
815.68	2781
815.821	2800
815.962	2918
816.103	2944
816.244	2845
816.385	2902
816.526	2998
816.666	2910
816.807	2766
816.948	2857
817.089	2925
817.23	2853
817.371	2754
817.512	2792
817.653	2857
817.793	2815
817.934	2876
818.075	2929
818.216	2998
818.356	3032
818.497	2857
818.638	2785
818.778	2792
818.919	2743
819.06	2735
819.2	2895
819.341	2811
819.481	2815
819.622	2891
819.762	3104
819.903	3043
820.043	2883
820.184	2906
820.324	2876
820.465	2990
820.605	3001
820.746	3047
820.886	2937
821.026	3077
821.167	3131
821.307	3230
821.447	3256
821.588	3245
821.728	3173
821.868	3211
822.008	3036
822.149	3192
822.289	3214
822.429	3062
822.569	3123
822.709	3169
822.849	3070
822.99	3043
823.13	3150
823.27	3180
823.41	3108
823.55	3142
823.69	3150
823.83	3161
823.97	3055
824.11	3020
824.25	2990
824.389	3028
824.529	3089
824.669	3036
824.809	3188
824.949	3241
825.089	3195
825.228	3173
825.368	2986
825.508	2952
825.648	2937
825.787	3013
825.927	2971
826.067	2998
826.206	2963
826.346	3051
826.485	3055
826.625	3062
826.765	3230
826.904	3207
827.044	2967
827.183	2918
827.323	2868
827.462	2979
827.601	2906
827.741	2918
827.88	2929
828.02	2834
828.159	2967
828.298	3036
828.437	3104
828.577	3051
828.716	3256
828.855	3066
828.994	2922
829.134	2895
829.273	2891
829.412	2838
829.551	2876
829.69	2902
829.829	2975
829.968	3093
830.107	3028
830.246	3051
830.385	2883
830.524	2868
830.663	2796
830.802	2716
830.941	2636
831.08	2640
831.219	2720
831.357	2750
831.496	2929
831.635	2708
831.774	2610
831.913	2659
832.051	2526
832.19	2560
832.329	2640
832.467	2530
832.606	2476
832.744	2560
832.883	2545
833.022	2575
833.16	2644
833.299	2667
833.437	2693
833.576	2682
833.714	2708
833.852	2735
833.991	2712
834.129	2796
834.267	2807
834.406	2804
834.544	2845
834.682	2876
834.821	2864
834.959	3032
835.097	2861
835.235	3062
835.373	2990
835.511	3039
835.65	2982
835.788	2941
835.926	2864
836.064	2796
836.202	2853
836.34	3074
836.478	3123
836.615	3001
836.753	3100
836.891	3192
837.029	3192
837.167	3074
837.305	3093
837.443	3051
837.58	2963
837.718	3123
837.856	3039
837.993	3036
838.131	3135
838.269	3089
838.406	3138
838.544	3104
838.681	2925
838.819	2902
838.956	2826
839.094	2842
839.231	2910
839.369	3017
839.506	3325
839.643	3241
839.781	2971
839.918	2971
840.055	3039
840.193	3020
840.33	3058
840.467	3077
840.604	3123
840.742	3340
840.879	3062
841.016	3066
841.153	3138
841.29	3298
841.427	3294
841.564	3260
841.701	3275
841.838	3192
841.975	3169
842.112	3211
842.249	3043
842.385	3055
842.522	3241
842.659	3055
842.796	2986
842.933	3119
843.069	3013
843.206	3047
843.343	3154
843.479	3070
843.616	3123
843.752	2918
843.889	2895
844.025	3081
844.162	2872
844.298	3112
844.435	2948
844.571	2887
844.708	3036
844.844	3154
844.98	3241
845.117	3195
845.253	3032
845.389	2994
845.525	3100
845.661	3097
845.798	3032
845.934	3097
846.07	3070
846.206	3211
846.342	3294
846.478	3211
846.614	3047
846.75	3039
846.886	3009
847.022	3207
847.158	3157
847.294	3192
847.429	3245
847.565	3211
847.701	3473
847.837	3051
847.972	2929
848.108	3100
848.244	3161
848.379	2948
848.515	2922
848.65	2899
848.786	2956
848.921	2998
849.057	3074
849.192	3135
849.328	3032
849.463	3074
849.598	3043
849.734	3013
849.869	2963
850.004	2910
850.14	2941
850.275	2910
850.41	2838
850.545	2868
850.68	2895
850.815	2975
850.95	2933
851.085	3199
851.22	3043
851.355	2990
851.49	3001
851.625	2971
851.76	2994
851.895	2876
852.03	2883
852.165	3013
852.299	3081
852.434	3150
852.569	3116
852.703	3161
852.838	3245
852.973	3348
853.107	3313
853.242	3142
853.376	3093
853.511	2906
853.645	3024
853.78	3226
853.914	3131
854.048	3085
854.183	3036
854.317	3135
854.451	3294
854.585	3138
854.72	3070
854.854	3211
854.988	2994
855.122	3077
855.256	2971
855.39	3062
855.524	3222
855.658	3138
855.792	3142
855.926	3138
856.06	3211
856.194	3230
856.327	3135
856.461	3039
856.595	3058
856.729	3104
856.862	3218
856.996	3157
857.13	3169
857.263	3218
857.397	3260
857.53	3116
857.664	3165
857.797	3233
857.931	3256
858.064	3180
858.197	3195
858.331	3161
858.464	3036
858.597	3009
858.731	3127
858.864	3100
858.997	3089
859.13	3161
859.263	3195
859.396	3226
859.529	3093
859.662	3131
859.795	3043
859.928	3127
860.061	3268
860.194	3348
860.327	3154
860.46	3081
860.592	3214
860.725	3226
860.858	3283
860.99	3154
861.123	3077
861.256	3077
861.388	3169
861.521	3747
861.653	3036
861.786	3001
861.918	3043
862.05	3112
862.183	3142
862.315	3184
862.447	3226
862.58	3108
862.712	2967
862.844	2891
862.976	3039
863.108	2986
863.24	3511
863.372	2914
863.504	3024
863.636	3009
863.768	3066
863.9	3009
864.032	2933
864.164	3020
864.296	3081
864.428	3123
864.559	3116
864.691	3097
864.823	3100
864.954	3089
865.086	3085
865.217	3039
865.349	2998
865.48	3017
865.612	3066
865.743	3226
865.875	3013
866.006	3013
866.137	2990
866.269	2979
866.4	2975
866.531	2963
866.662	2925
866.793	2933
866.924	2941
867.055	3020
867.186	2994
867.317	2929
867.448	2906
867.579	2880
867.71	2876
867.841	2883
867.972	2948
868.103	2952
868.233	2941
868.364	2910
868.495	2906
868.625	3100
868.756	3195
868.886	3005
869.017	3097
869.147	3192
869.278	3203
869.408	3089
869.539	3039
869.669	3138
869.799	3062
869.929	3180
870.06	3142
870.19	3359
870.32	3302
870.45	3351
870.58	3382
870.71	3492
870.84	3447
870.97	3310
871.1	3245
871.23	3511
871.36	3462
871.489	3405
871.619	3450
871.749	3443
871.879	3469
872.008	3545
872.138	3378
872.267	3302
872.397	3184
872.526	3142
872.656	3055
872.785	3150
872.915	3272
873.044	3386
873.173	3275
873.303	3294
873.432	3302
873.561	3294
873.69	3176
873.819	3131
873.948	3203
874.077	3169
874.206	3085
874.335	3112
874.464	3176
874.593	3378
874.722	3241
874.851	3397
874.979	3378
875.108	3348
875.237	3211
875.365	3165
875.494	3157
875.623	3287
875.751	3123
875.88	3161
876.008	3214
876.136	3241
876.265	3367
876.393	3538
876.521	3435
876.65	3401
876.778	3340
876.906	3291
877.034	3203
877.162	3249
877.29	3180
877.418	3272
877.546	3279
877.674	3256
877.802	3272
877.93	3230
878.058	3169
878.185	3157
878.313	3211
878.441	3260
878.568	3131
878.696	3173
878.824	3283
878.951	3317
879.079	3469
879.206	3660
879.333	3443
879.461	3336
879.588	3386
879.715	3542
879.842	3622
879.97	3412
880.097	3184
880.224	3184
880.351	3253
880.478	3226
880.605	3249
880.732	3195
880.859	3500
880.986	3313
881.112	3310
881.239	3230
881.366	3135
881.493	3051
881.619	3055
881.746	3097
881.872	3135
881.999	3150
882.125	3176
882.252	3268
882.378	3340
882.505	3439
882.631	3294
882.757	3180
882.883	3241
883.01	3222
883.136	3180
883.262	3119
883.388	3146
883.514	3386
883.64	3393
883.766	3291
883.892	3211
884.018	3336
884.143	3504
884.269	3511
884.395	3237
884.52	3161
884.646	3226
884.772	3157
884.897	3127
885.023	3245
885.148	3363
885.274	3450
885.399	3409
885.524	3302
885.65	3283
885.775	3351
885.9	3310
886.025	3454
886.15	3386
886.275	3317
886.4	3298
886.525	3272
886.65	3313
886.775	3306
886.9	3515
887.025	3652
887.149	3409
887.274	3287
887.399	3207
887.523	3207
887.648	3249
887.773	3184
887.897	3386
888.021	3420
888.146	3329
888.27	3454
888.395	3557
888.519	3462
888.643	3450
888.767	3504
888.891	3351
889.015	3283
889.139	3336
889.263	3260
889.387	3477
889.511	3534
889.635	3466
889.759	3260
889.883	3302
890.006	3367
890.13	3473
890.254	3260
890.377	3367
890.501	3233
890.624	3161
890.748	3310
890.871	3245
890.995	3180
891.118	3100
891.241	3214
891.364	3241
891.488	3340
891.611	3161
891.734	3260
891.857	3313
891.98	3230
892.103	3351
892.226	3287
892.349	3218
892.471	3097
892.594	3291
892.717	3313
892.839	3268
892.962	3317
893.085	3412
893.207	3298
893.33	3176
893.452	3199
893.575	3348
893.697	3306
893.819	3431
893.941	3519
894.064	3488
894.186	3283
894.308	3355
894.43	3481
894.552	3549
894.674	3519
894.796	3317
894.918	3344
895.04	3283
895.161	3477
895.283	3431
895.405	3329
895.526	3397
895.648	3424
895.769	3401
895.891	3466
896.012	3530
896.134	3469
896.255	3431
896.376	3435
896.498	3370
896.619	3397
896.74	3370
896.861	3428
896.982	3648
897.103	3884
897.224	3644
897.345	3542
897.466	3481
897.587	3538
897.708	3625
897.828	3564
897.949	3466
898.07	3340
898.19	3405
898.311	3637
898.431	3458
898.552	3568
898.672	3618
898.792	3564
898.913	3557
899.033	3447
899.153	3317
899.273	3245
899.393	3287
899.513	3317
899.633	3367
899.753	3329
899.873	3325
899.993	3386
900.113	3344
900.232	3393
900.352	3382
900.472	3294
900.591	3233
900.711	3332
900.83	3245
900.95	3428
901.069	3500
901.189	3393
901.308	3211
901.427	3150
901.546	3176
901.665	3313
901.784	3363
901.904	3245
902.023	3184
902.141	3047
902.26	3032
902.379	3180
902.498	3058
902.617	3081
902.735	3169
902.854	3275
902.973	3237
903.091	3112
903.21	3062
903.328	3165
903.446	3108
903.565	3097
903.683	3199
903.801	3127
903.919	3287
904.038	3306
904.156	3180
904.274	3325
904.392	3287
904.51	3310
904.627	3340
904.745	3462
904.863	3523
904.981	3279
905.098	3169
905.216	3241
905.334	3306
905.451	3298
905.569	3287
905.686	3435
905.803	3450
905.921	3264
906.038	3466
906.155	3370
906.272	3275
906.389	3386
906.506	3245
906.623	3272
906.74	3329
906.857	3192
906.974	3291
907.091	3469
907.208	3561
907.324	3504
907.441	3397
907.557	3237
907.674	3233
907.79	3211
907.907	3287
908.023	3401
908.139	3393
908.256	3348
908.372	3393
908.488	3363
908.604	3256
908.72	3291
908.836	3325
908.952	3268
909.068	3401
909.184	3466
909.3	3420
909.415	3545
909.531	3458
909.647	3321
909.762	3329
909.878	3291
909.993	3359
910.108	3351
910.224	3325
910.339	3443
910.454	3363
910.57	3332
910.685	3268
910.8	3637
910.915	3519
911.03	3447
911.145	3325
911.259	3264
911.374	3317
911.489	3245
911.604	3226
911.718	3116
911.833	3157
911.947	3070
912.062	2990
912.176	3180
912.291	3195
912.405	3195
912.519	3443
912.633	3462
912.748	3351
912.862	3272
912.976	3188
913.09	3081
913.204	3157
913.318	3241
913.431	3336
913.545	3348
913.659	3428
913.772	3302
913.886	3253
914	3218
914.113	3363
914.226	3443
914.34	3355
914.453	3237
914.566	3431
914.68	3279
914.793	3325
914.906	3180
915.019	3119
915.132	3085
915.245	3176
915.358	3226
915.47	3256
915.583	3253
915.696	3264
915.809	3435
915.921	3424
916.034	3294
916.146	3287
916.259	3199
916.371	3348
916.483	3397
916.595	3291
916.708	3397
916.82	3374
916.932	3317
917.044	3321
917.156	3389
917.268	3287
917.38	3336
917.491	3329
917.603	3367
917.715	3416
917.826	3515
917.938	3382
918.049	3268
918.161	3447
918.272	3603
918.384	3568
918.495	3450
918.606	3348
918.717	3287
918.828	3412
918.939	3416
919.05	3306
919.161	3370
919.272	3169
919.383	3306
919.494	3519
919.604	3720
919.715	3416
919.826	3462
919.936	3492
920.047	3603
920.157	3587
920.267	3766
920.378	3614
920.488	3511
920.598	3823
920.708	3926
920.818	3854
920.928	3846
921.038	4032
921.148	4036
921.258	3740
921.368	3625
921.477	3561
921.587	3549
921.697	3496
921.806	3656
921.916	3504
922.025	3344
922.134	3374
922.244	3325
922.353	3420
922.462	3253
922.571	3214
922.68	3119
922.789	3081
922.898	3131
923.007	3127
923.116	3218
923.224	3192
923.333	3192
923.442	3100
923.55	3074
923.659	3138
923.767	3233
923.876	3154
923.984	3272
924.092	3100
924.201	3188
924.309	3245
924.417	3272
924.525	3188
924.633	3207
924.741	4029
924.849	3058
924.956	3275
925.064	3104
925.172	3074
925.279	3119
925.387	3241
925.494	3184
925.602	3386
925.709	3306
925.816	3195
925.924	3298
926.031	3370
926.138	3332
926.245	3363
926.352	3279
926.459	3378
926.566	3458
926.673	3313
926.779	3256
926.886	3321
926.993	3157
927.099	3169
927.206	3112
927.312	3146
927.419	3268
927.525	3207
927.631	3306
927.737	3195
927.843	3165
927.95	3028
928.056	3169
928.162	3199
928.267	3256
928.373	3876
928.479	3359
928.585	3089
928.69	3264
928.796	3317
928.901	3214
929.007	3112
929.112	3233
929.218	3233
929.323	3195
929.428	3165
929.533	3332
929.638	3154
929.743	3249
929.848	3275
929.953	3283
930.058	3176
930.163	3085
930.267	3085
930.372	3241
930.477	3047
930.581	3401
930.685	3218
930.79	3104
930.894	3169
930.998	3135
931.103	3302
931.207	3024
931.311	2986
931.415	2963
931.519	2857
931.623	2823
