Data from test_V78500241_109.txt Node
Date: Fri Mar 25 16:15:57 CST 2022
User: usil
Spectrometer: V785-0024
Trigger mode: 0
Integration Time (sec): 4.000000E-1
Scans to average: 1
Nonlinearity correction enabled: false
Boxcar width: 0
Storing dark spectrum: false
XAxis mode: Wavelengths
Number of Pixels in Spectrum: 1024
>>>>>Begin Spectral Data<<<<<
801.071	2910
801.214	2948
801.356	2849
801.499	2914
801.641	2918
801.783	2929
801.926	3058
802.068	3047
802.211	3039
802.353	3055
802.496	2994
802.638	2979
802.78	3062
802.923	3116
803.065	3020
803.208	2937
803.35	2944
803.492	2952
803.635	2960
803.777	2769
803.919	2876
804.061	3211
804.204	2986
804.346	2918
804.488	2853
804.63	2986
804.773	2929
804.915	2933
805.057	3051
805.199	2971
805.341	2982
805.483	3039
805.626	3017
805.768	2990
805.91	3093
806.052	3146
806.194	3051
806.336	3233
806.478	3036
806.62	2929
806.762	3017
806.904	3097
807.046	3173
807.188	3009
807.33	2914
807.472	3017
807.614	2899
807.756	3024
807.898	2918
808.04	2906
808.182	2998
808.324	2960
808.465	2899
808.607	2899
808.749	2819
808.891	2849
809.033	2975
809.174	3001
809.316	2918
809.458	2910
809.6	2773
809.741	2823
809.883	2800
810.025	2891
810.166	2864
810.308	2864
810.45	2864
810.591	2807
810.733	2800
810.875	2872
811.016	2807
811.158	2769
811.299	2826
811.441	2944
811.582	2887
811.724	2853
811.865	2857
812.007	2910
812.148	2902
812.29	2823
812.431	2887
812.573	2941
812.714	2956
812.855	3070
812.997	3058
813.138	3127
813.279	3058
813.421	2975
813.562	3005
813.703	2864
813.845	2906
813.986	2758
814.127	2712
814.268	2823
814.41	2830
814.551	2845
814.692	2887
814.833	2838
814.974	2902
815.115	2967
815.256	2876
815.397	2823
815.539	2902
815.68	2807
815.821	2792
815.962	2937
816.103	2941
816.244	2910
816.385	2902
816.526	3013
816.666	2933
816.807	2762
816.948	2895
817.089	2944
817.23	2876
817.371	2811
817.512	2834
817.653	2876
817.793	2830
817.934	2899
818.075	3005
818.216	3032
818.356	3036
818.497	2914
818.638	2807
818.778	2845
818.919	2823
819.06	2766
819.2	2922
819.341	2815
819.481	2842
819.622	2979
819.762	3123
819.903	3043
820.043	2922
820.184	2937
820.324	2910
820.465	3058
820.605	3009
820.746	3077
820.886	2956
821.026	3123
821.167	3195
821.307	3336
821.447	3317
821.588	3245
821.728	3214
821.868	3214
822.008	3119
822.149	3192
822.289	3256
822.429	3108
822.569	3104
822.709	3211
822.849	3070
822.99	3097
823.13	3214
823.27	3207
823.41	3146
823.55	3169
823.69	3188
823.83	3226
823.97	3157
824.11	3055
824.25	3032
824.389	3077
824.529	3097
824.669	3089
824.809	3226
824.949	3287
825.089	3253
825.228	3195
825.368	2998
825.508	2941
825.648	2990
825.787	3017
825.927	3036
826.067	2979
826.206	2975
826.346	3017
826.485	3085
826.625	3123
826.765	3264
826.904	3199
827.044	3009
827.183	2982
827.323	2880
827.462	3036
827.601	2975
827.741	2914
827.88	2963
828.02	2834
828.159	2956
828.298	3074
828.437	3131
828.577	3077
828.716	3226
828.855	3089
828.994	2971
829.134	2906
829.273	2944
829.412	2902
829.551	2880
829.69	2918
829.829	2982
829.968	3135
830.107	3058
830.246	3047
830.385	2971
830.524	2906
830.663	2842
830.802	2743
830.941	2670
831.08	2678
831.219	2777
831.357	2762
831.496	2971
831.635	2792
831.774	2682
831.913	2670
832.051	2568
832.19	2602
832.329	2678
832.467	2541
832.606	2526
832.744	2613
832.883	2602
833.022	2602
833.16	2686
833.299	2689
833.437	2716
833.576	2720
833.714	2743
833.852	2758
833.991	2773
834.129	2880
834.267	2807
834.406	2792
834.544	2902
834.682	2899
834.821	2872
834.959	3058
835.097	2922
835.235	3100
835.373	3013
835.511	3013
835.65	2994
835.788	2975
835.926	2823
836.064	2861
836.202	2891
836.34	3123
836.478	3150
836.615	3036
836.753	3211
836.891	3214
837.029	3203
837.167	3085
837.305	3085
837.443	3039
837.58	2979
837.718	3127
837.856	3097
837.993	3051
838.131	3135
838.269	3119
838.406	3142
838.544	3089
838.681	2967
838.819	2910
838.956	2826
839.094	2857
839.231	2960
839.369	3047
839.506	3382
839.643	3241
839.781	3062
839.918	2990
840.055	3055
840.193	3097
840.33	3100
840.467	3146
840.604	3180
840.742	3454
840.879	3089
841.016	3081
841.153	3138
841.29	3378
841.427	3317
841.564	3298
841.701	3325
841.838	3241
841.975	3211
842.112	3222
842.249	3085
842.385	3074
842.522	3272
842.659	3154
842.796	3077
842.933	3157
843.069	3062
843.206	3066
843.343	3256
843.479	3131
843.616	3154
843.752	2918
843.889	2883
844.025	3055
844.162	2868
844.298	3085
844.435	2967
844.571	2960
844.708	3100
844.844	3260
844.98	3249
845.117	3184
845.253	3055
845.389	3070
845.525	3119
845.661	3100
845.798	3020
845.934	3127
846.07	3077
846.206	3233
846.342	3348
846.478	3245
846.614	3093
846.75	3093
846.886	3051
847.022	3287
847.158	3165
847.294	3268
847.429	3279
847.565	3264
847.701	3511
847.837	3058
847.972	3028
848.108	3154
848.244	3165
848.379	3005
848.515	2960
848.65	2944
848.786	3005
848.921	3017
849.057	3154
849.192	3135
849.328	3097
849.463	3112
849.598	3070
849.734	3066
849.869	2960
850.004	2948
850.14	3009
850.275	2941
850.41	2838
850.545	2902
850.68	2971
850.815	2963
850.95	3009
851.085	3207
851.22	3176
851.355	3043
851.49	2982
851.625	3005
851.76	3032
851.895	2963
852.03	2883
852.165	3024
852.299	3100
852.434	3214
852.569	3146
852.703	3184
852.838	3294
852.973	3378
853.107	3340
853.242	3165
853.376	3116
853.511	3020
853.645	3077
853.78	3256
853.914	3154
854.048	3131
854.183	3093
854.317	3157
854.451	3332
854.585	3173
854.72	3089
854.854	3260
854.988	3036
855.122	3104
855.256	3032
855.39	3135
855.524	3260
855.658	3222
855.792	3131
855.926	3218
856.06	3237
856.194	3275
856.327	3207
856.461	3066
856.595	3119
856.729	3081
856.862	3264
856.996	3214
857.13	3173
857.263	3253
857.397	3291
857.53	3131
857.664	3241
857.797	3256
857.931	3207
858.064	3161
858.197	3237
858.331	3176
858.464	3127
858.597	2979
858.731	3161
858.864	3161
858.997	3089
859.13	3192
859.263	3226
859.396	3188
859.529	3108
859.662	3112
859.795	3055
859.928	3188
860.061	3325
860.194	3291
860.327	3146
860.46	3127
860.592	3264
860.725	3275
860.858	3287
860.99	3138
861.123	3070
861.256	3047
861.388	3161
861.521	3720
861.653	3036
861.786	2967
861.918	3020
862.05	3051
862.183	3104
862.315	3188
862.447	3211
862.58	3119
862.712	2971
862.844	2922
862.976	3058
863.108	3032
863.24	3416
863.372	2914
863.504	3020
863.636	2960
863.768	3085
863.9	3013
864.032	2902
864.164	2975
864.296	3028
864.428	3131
864.559	3112
864.691	3108
864.823	3097
864.954	3093
865.086	3028
865.217	3024
865.349	2971
865.48	3001
865.612	3036
865.743	3180
865.875	2998
866.006	2952
866.137	2994
866.269	2975
866.4	3005
866.531	2929
866.662	2910
866.793	2929
866.924	2944
867.055	3020
867.186	2944
867.317	2925
867.448	2861
867.579	2887
867.71	2838
867.841	2864
867.972	2948
868.103	2948
868.233	2853
868.364	2861
868.495	2914
868.625	3074
868.756	3184
868.886	2994
869.017	3051
869.147	3222
869.278	3180
869.408	3047
869.539	3062
869.669	3131
869.799	3058
869.929	3161
870.06	3131
870.19	3351
870.32	3291
870.45	3298
870.58	3405
870.71	3462
870.84	3485
870.97	3298
871.1	3291
871.23	3492
871.36	3500
871.489	3359
871.619	3428
871.749	3382
871.879	3431
872.008	3496
872.138	3393
872.267	3291
872.397	3142
872.526	3135
872.656	3017
872.785	3154
872.915	3275
873.044	3348
873.173	3218
873.303	3249
873.432	3279
873.561	3253
873.69	3146
873.819	3154
873.948	3226
874.077	3154
874.206	3058
874.335	3119
874.464	3249
874.593	3386
874.722	3283
874.851	3450
874.979	3363
875.108	3359
875.237	3260
875.365	3214
875.494	3184
875.623	3287
875.751	3097
875.88	3165
876.008	3256
876.136	3275
876.265	3378
876.393	3515
876.521	3447
876.65	3393
876.778	3351
876.906	3275
877.034	3207
877.162	3226
877.29	3237
877.418	3245
877.546	3275
877.674	3287
877.802	3279
877.93	3233
878.058	3180
878.185	3131
878.313	3195
878.441	3253
878.568	3081
878.696	3150
878.824	3260
878.951	3310
879.079	3481
879.206	3648
879.333	3507
879.461	3386
879.588	3397
879.715	3534
879.842	3618
879.97	3428
880.097	3173
880.224	3127
880.351	3245
880.478	3230
880.605	3214
880.732	3184
880.859	3504
880.986	3294
881.112	3351
881.239	3230
881.366	3108
881.493	3028
881.619	3039
881.746	3089
881.872	3077
881.999	3116
882.125	3157
882.252	3306
882.378	3329
882.505	3450
882.631	3313
882.757	3195
882.883	3245
883.01	3245
883.136	3173
883.262	3112
883.388	3131
883.514	3344
883.64	3382
883.766	3359
883.892	3249
884.018	3272
884.143	3431
884.269	3572
884.395	3253
884.52	3173
884.646	3184
884.772	3165
884.897	3104
885.023	3241
885.148	3340
885.274	3412
885.399	3359
885.524	3317
885.65	3272
885.775	3340
885.9	3294
886.025	3462
886.15	3401
886.275	3351
886.4	3268
886.525	3329
886.65	3249
886.775	3351
886.9	3507
887.025	3667
887.149	3469
887.274	3302
887.399	3184
887.523	3222
887.648	3218
887.773	3218
887.897	3393
888.021	3416
888.146	3302
888.27	3496
888.395	3557
888.519	3428
888.643	3443
888.767	3454
888.891	3321
889.015	3241
889.139	3306
889.263	3264
889.387	3450
889.511	3534
889.635	3485
889.759	3302
889.883	3332
890.006	3450
890.13	3488
890.254	3298
890.377	3401
890.501	3237
890.624	3207
890.748	3332
890.871	3207
890.995	3127
891.118	3104
891.241	3256
891.364	3211
891.488	3332
891.611	3203
891.734	3237
891.857	3355
891.98	3275
892.103	3351
892.226	3298
892.349	3279
892.471	3165
892.594	3260
892.717	3310
892.839	3264
892.962	3268
893.085	3416
893.207	3283
893.33	3161
893.452	3173
893.575	3348
893.697	3287
893.819	3542
893.941	3530
894.064	3481
894.186	3287
894.308	3336
894.43	3473
894.552	3538
894.674	3469
894.796	3283
894.918	3344
895.04	3310
895.161	3485
895.283	3424
895.405	3287
895.526	3409
895.648	3401
895.769	3481
895.891	3485
896.012	3545
896.134	3549
896.255	3428
896.376	3416
896.498	3409
896.619	3412
896.74	3351
896.861	3435
896.982	3720
897.103	3880
897.224	3637
897.345	3549
897.466	3439
897.587	3523
897.708	3652
897.828	3584
897.949	3435
898.07	3363
898.19	3473
898.311	3610
898.431	3454
898.552	3549
898.672	3652
898.792	3618
898.913	3542
899.033	3420
899.153	3317
899.273	3249
899.393	3291
899.513	3351
899.633	3332
899.753	3389
899.873	3336
899.993	3450
900.113	3317
900.232	3409
900.352	3367
900.472	3317
900.591	3249
900.711	3268
900.83	3264
900.95	3454
901.069	3519
901.189	3393
901.308	3241
901.427	3184
901.546	3203
901.665	3355
901.784	3378
901.904	3241
902.023	3211
902.141	3036
902.26	3058
902.379	3173
902.498	3119
902.617	3077
902.735	3245
902.854	3268
902.973	3222
903.091	3058
903.21	3066
903.328	3169
903.446	3157
903.565	3097
903.683	3233
903.801	3142
903.919	3233
904.038	3283
904.156	3195
904.274	3325
904.392	3275
904.51	3317
904.627	3389
904.745	3454
904.863	3576
904.981	3275
905.098	3195
905.216	3237
905.334	3317
905.451	3332
905.569	3332
905.686	3458
905.803	3443
905.921	3321
906.038	3473
906.155	3412
906.272	3268
906.389	3378
906.506	3230
906.623	3256
906.74	3294
906.857	3233
906.974	3294
907.091	3500
907.208	3595
907.324	3500
907.441	3405
907.557	3287
907.674	3249
907.79	3237
907.907	3298
908.023	3424
908.139	3412
908.256	3355
908.372	3405
908.488	3363
908.604	3264
908.72	3268
908.836	3279
908.952	3306
909.068	3359
909.184	3511
909.3	3416
909.415	3507
909.531	3485
909.647	3317
909.762	3321
909.878	3275
909.993	3382
910.108	3351
910.224	3351
910.339	3439
910.454	3336
910.57	3359
910.685	3237
910.8	3587
910.915	3606
911.03	3462
911.145	3249
911.259	3256
911.374	3344
911.489	3260
911.604	3249
911.718	3104
911.833	3233
911.947	3074
912.062	3005
912.176	3154
912.291	3218
912.405	3226
912.519	3473
912.633	3469
912.748	3359
912.862	3310
912.976	3207
913.09	3089
913.204	3165
913.318	3214
913.431	3378
913.545	3389
913.659	3443
913.772	3367
913.886	3283
914	3226
914.113	3367
914.226	3412
914.34	3428
914.453	3230
914.566	3412
914.68	3317
914.793	3310
914.906	3176
915.019	3112
915.132	3047
915.245	3195
915.358	3245
915.47	3226
915.583	3336
915.696	3306
915.809	3428
915.921	3435
916.034	3287
916.146	3306
916.259	3256
916.371	3370
916.483	3389
916.595	3310
916.708	3355
916.82	3367
916.932	3374
917.044	3329
917.156	3332
917.268	3272
917.38	3313
917.491	3317
917.603	3382
917.715	3500
917.826	3454
917.938	3409
918.049	3287
918.161	3477
918.272	3545
918.384	3614
918.495	3492
918.606	3351
918.717	3317
918.828	3378
918.939	3412
919.05	3313
919.161	3389
919.272	3218
919.383	3317
919.494	3523
919.604	3713
919.715	3504
919.826	3447
919.936	3492
920.047	3637
920.157	3584
920.267	3778
920.378	3656
920.488	3614
920.598	3797
920.708	3975
920.818	3846
920.928	3846
921.038	4044
921.148	4006
921.258	3766
921.368	3709
921.477	3568
921.587	3553
921.697	3454
921.806	3652
921.916	3549
922.025	3378
922.134	3412
922.244	3344
922.353	3405
922.462	3298
922.571	3253
922.68	3142
922.789	3131
922.898	3184
923.007	3104
923.116	3226
923.224	3192
923.333	3214
923.442	3112
923.55	3062
923.659	3169
923.767	3264
923.876	3154
923.984	3291
924.092	3108
924.201	3230
924.309	3264
924.417	3272
924.525	3173
924.633	3283
924.741	4150
924.849	3051
924.956	3291
925.064	3131
925.172	3028
925.279	3157
925.387	3211
925.494	3264
925.602	3405
925.709	3351
925.816	3233
925.924	3329
926.031	3424
926.138	3374
926.245	3389
926.352	3317
926.459	3416
926.566	3511
926.673	3363
926.779	3275
926.886	3279
926.993	3192
927.099	3161
927.206	3100
927.312	3142
927.419	3233
927.525	3230
927.631	3340
927.737	3150
927.843	3123
927.95	3066
928.056	3176
928.162	3180
928.267	3260
928.373	3797
928.479	3336
928.585	3085
928.69	3214
928.796	3298
928.901	3157
929.007	3077
929.112	3218
929.218	3218
929.323	3142
929.428	3173
929.533	3351
929.638	3123
929.743	3188
929.848	3317
929.953	3222
930.058	3176
930.163	3062
930.267	3070
930.372	3214
930.477	3058
930.581	3370
930.685	3211
930.79	3055
930.894	3150
930.998	3119
931.103	3325
931.207	2967
931.311	2979
931.415	2944
931.519	2788
931.623	2830
