Data from test_V78500241_1220.txt Node
Date: Fri Mar 25 16:23:39 CST 2022
User: usil
Spectrometer: V785-0024
Trigger mode: 0
Integration Time (sec): 4.000000E-1
Scans to average: 1
Nonlinearity correction enabled: false
Boxcar width: 0
Storing dark spectrum: false
XAxis mode: Wavelengths
Number of Pixels in Spectrum: 1024
>>>>>Begin Spectral Data<<<<<
801.071	2895
801.214	2960
801.356	2853
801.499	2891
801.641	2914
801.783	2933
801.926	3062
802.068	2941
802.211	2994
802.353	3001
802.496	2971
802.638	3001
802.78	3039
802.923	3074
803.065	2952
803.208	2876
803.35	2902
803.492	2922
803.635	2887
803.777	2727
803.919	2868
804.061	3188
804.204	2937
804.346	2906
804.488	2811
804.63	2998
804.773	2887
804.915	2906
805.057	3028
805.199	2891
805.341	2960
805.483	2990
805.626	3005
805.768	2960
805.91	3055
806.052	3062
806.194	3020
806.336	3195
806.478	3013
806.62	2948
806.762	2979
806.904	3036
807.046	3173
807.188	2975
807.33	2933
807.472	2971
807.614	2914
807.756	2960
807.898	2918
808.04	2891
808.182	2967
808.324	2952
808.465	2895
808.607	2880
808.749	2804
808.891	2807
809.033	2933
809.174	2948
809.316	2868
809.458	2883
809.6	2785
809.741	2750
809.883	2743
810.025	2842
810.166	2823
810.308	2853
810.45	2815
810.591	2788
810.733	2750
810.875	2826
811.016	2758
811.158	2788
811.299	2823
811.441	2887
811.582	2922
811.724	2807
811.865	2823
812.007	2941
812.148	2895
812.29	2849
812.431	2872
812.573	2960
812.714	2937
812.855	3020
812.997	2998
813.138	3077
813.279	3017
813.421	2960
813.562	2918
813.703	2872
813.845	2876
813.986	2754
814.127	2720
814.268	2845
814.41	2861
814.551	2823
814.692	2861
814.833	2815
814.974	2876
815.115	2952
815.256	2800
815.397	2792
815.539	2838
815.68	2811
815.821	2796
815.962	2933
816.103	2895
816.244	2853
816.385	2868
816.526	2979
816.666	2899
816.807	2727
816.948	2883
817.089	2895
817.23	2842
817.371	2754
817.512	2804
817.653	2815
817.793	2807
817.934	2864
818.075	2948
818.216	2971
818.356	3013
818.497	2861
818.638	2800
818.778	2826
818.919	2785
819.06	2735
819.2	2914
819.341	2766
819.481	2773
819.622	2918
819.762	3089
819.903	3001
820.043	2933
820.184	2906
820.324	2868
820.465	3032
820.605	3017
820.746	2994
820.886	2887
821.026	3104
821.167	3135
821.307	3253
821.447	3283
821.588	3211
821.728	3199
821.868	3176
822.008	3051
822.149	3176
822.289	3195
822.429	3104
822.569	3104
822.709	3184
822.849	2979
822.99	3093
823.13	3169
823.27	3214
823.41	3104
823.55	3119
823.69	3123
823.83	3180
823.97	3062
824.11	2998
824.25	2967
824.389	3043
824.529	3112
824.669	3074
824.809	3207
824.949	3222
825.089	3188
825.228	3154
825.368	2963
825.508	2952
825.648	2979
825.787	2960
825.927	2998
826.067	2967
826.206	2933
826.346	3062
826.485	3047
826.625	3104
826.765	3237
826.904	3192
827.044	2975
827.183	2925
827.323	2834
827.462	2975
827.601	2941
827.741	2868
827.88	2952
828.02	2849
828.159	2944
828.298	3028
828.437	3093
828.577	3043
828.716	3233
828.855	3062
828.994	2902
829.134	2872
829.273	2910
829.412	2834
829.551	2819
829.69	2887
829.829	2952
829.968	3112
830.107	3028
830.246	3032
830.385	2906
830.524	2872
830.663	2823
830.802	2735
830.941	2644
831.08	2667
831.219	2773
831.357	2712
831.496	2937
831.635	2712
831.774	2674
831.913	2667
832.051	2537
832.19	2583
832.329	2693
832.467	2518
832.606	2469
832.744	2568
832.883	2568
833.022	2602
833.16	2640
833.299	2659
833.437	2682
833.576	2659
833.714	2708
833.852	2697
833.991	2777
834.129	2830
834.267	2785
834.406	2804
834.544	2876
834.682	2899
834.821	2842
834.959	3036
835.097	2876
835.235	3077
835.373	3020
835.511	2994
835.65	2967
835.788	2948
835.926	2792
836.064	2807
836.202	2830
836.34	3055
836.478	3138
836.615	3043
836.753	3165
836.891	3222
837.029	3146
837.167	3077
837.305	3032
837.443	3017
837.58	2948
837.718	3108
837.856	3047
837.993	3032
838.131	3112
838.269	3131
838.406	3028
838.544	3093
838.681	2925
838.819	2925
838.956	2804
839.094	2815
839.231	2975
839.369	3013
839.506	3397
839.643	3226
839.781	3005
839.918	2967
840.055	3058
840.193	3036
840.33	3028
840.467	3116
840.604	3127
840.742	3374
840.879	3028
841.016	3036
841.153	3112
841.29	3310
841.427	3272
841.564	3291
841.701	3302
841.838	3203
841.975	3188
842.112	3218
842.249	3017
842.385	3036
842.522	3268
842.659	3062
842.796	3055
842.933	3100
843.069	3051
843.206	3043
843.343	3169
843.479	3112
843.616	3127
843.752	2880
843.889	2868
844.025	3074
844.162	2849
844.298	3043
844.435	2960
844.571	2944
844.708	3058
844.844	3157
844.98	3207
845.117	3211
845.253	3032
845.389	3017
845.525	3089
845.661	3055
845.798	2990
845.934	3104
846.07	3051
846.206	3214
846.342	3272
846.478	3173
846.614	3077
846.75	2998
846.886	3028
847.022	3214
847.158	3100
847.294	3176
847.429	3268
847.565	3214
847.701	3473
847.837	3001
847.972	2979
848.108	3161
848.244	3150
848.379	2952
848.515	2952
848.65	2922
848.786	2944
848.921	3017
849.057	3104
849.192	3116
849.328	3058
849.463	3116
849.598	3043
849.734	3032
849.869	2967
850.004	2956
850.14	2960
850.275	2925
850.41	2807
850.545	2887
850.68	2948
850.815	2929
850.95	2963
851.085	3214
851.22	3093
851.355	2975
851.49	2979
851.625	3005
851.76	2986
851.895	2910
852.03	2872
852.165	3020
852.299	3108
852.434	3180
852.569	3142
852.703	3176
852.838	3245
852.973	3329
853.107	3317
853.242	3119
853.376	3089
853.511	2971
853.645	3005
853.78	3211
853.914	3108
854.048	3097
854.183	3070
854.317	3142
854.451	3294
854.585	3100
854.72	3131
854.854	3176
854.988	3051
855.122	3070
855.256	2979
855.39	3131
855.524	3249
855.658	3135
855.792	3146
855.926	3184
856.06	3203
856.194	3233
856.327	3112
856.461	3058
856.595	3058
856.729	3085
856.862	3199
856.996	3150
857.13	3203
857.263	3214
857.397	3249
857.53	3119
857.664	3157
857.797	3256
857.931	3256
858.064	3165
858.197	3253
858.331	3135
858.464	3093
858.597	3009
858.731	3146
858.864	3131
858.997	3093
859.13	3169
859.263	3157
859.396	3184
859.529	3093
859.662	3062
859.795	3058
859.928	3165
860.061	3272
860.194	3272
860.327	3112
860.46	3058
860.592	3253
860.725	3226
860.858	3203
860.99	3074
861.123	3066
861.256	3036
861.388	3138
861.521	3732
861.653	3032
861.786	2948
861.918	2990
862.05	3062
862.183	3100
862.315	3123
862.447	3169
862.58	3051
862.712	2960
862.844	2899
862.976	3017
863.108	2948
863.24	3443
863.372	2845
863.504	2963
863.636	2925
863.768	3005
863.9	2967
864.032	2933
864.164	2937
864.296	3017
864.428	3036
864.559	3119
864.691	3055
864.823	3024
864.954	3039
865.086	3066
865.217	3001
865.349	2960
865.48	2948
865.612	2986
865.743	3108
865.875	3009
866.006	2929
866.137	2986
866.269	2941
866.4	2910
866.531	2948
866.662	2868
866.793	2891
866.924	2887
867.055	2971
867.186	2929
867.317	2899
867.448	2830
867.579	2872
867.71	2876
867.841	2811
867.972	2914
868.103	2861
868.233	2880
868.364	2868
868.495	2899
868.625	3077
868.756	3138
868.886	2956
869.017	2971
869.147	3161
869.278	3131
869.408	3043
869.539	3024
869.669	3108
869.799	3043
869.929	3123
870.06	3085
870.19	3302
870.32	3287
870.45	3298
870.58	3336
870.71	3428
870.84	3458
870.97	3294
871.1	3253
871.23	3458
871.36	3447
871.489	3348
871.619	3370
871.749	3424
871.879	3443
872.008	3466
872.138	3351
872.267	3230
872.397	3146
872.526	3085
872.656	3039
872.785	3100
872.915	3237
873.044	3317
873.173	3218
873.303	3245
873.432	3230
873.561	3249
873.69	3127
873.819	3097
873.948	3192
874.077	3055
874.206	3017
874.335	3100
874.464	3230
874.593	3344
874.722	3241
874.851	3370
874.979	3332
875.108	3287
875.237	3173
875.365	3127
875.494	3173
875.623	3245
875.751	3077
875.88	3112
876.008	3138
876.136	3233
876.265	3313
876.393	3488
876.521	3412
876.65	3378
876.778	3294
876.906	3230
877.034	3195
877.162	3192
877.29	3165
877.418	3233
877.546	3203
877.674	3264
877.802	3241
877.93	3218
878.058	3150
878.185	3100
878.313	3233
878.441	3211
878.568	3070
878.696	3127
878.824	3245
878.951	3287
879.079	3477
879.206	3545
879.333	3412
879.461	3321
879.588	3378
879.715	3488
879.842	3595
879.97	3370
880.097	3146
880.224	3138
880.351	3173
880.478	3195
880.605	3192
880.732	3195
880.859	3466
880.986	3310
881.112	3317
881.239	3173
881.366	3066
881.493	3036
881.619	3009
881.746	3020
881.872	3112
881.999	3093
882.125	3104
882.252	3237
882.378	3325
882.505	3386
882.631	3233
882.757	3161
882.883	3195
883.01	3207
883.136	3146
883.262	3077
883.388	3089
883.514	3302
883.64	3363
883.766	3272
883.892	3150
884.018	3249
884.143	3397
884.269	3561
884.395	3211
884.52	3142
884.646	3150
884.772	3100
884.897	3119
885.023	3180
885.148	3287
885.274	3428
885.399	3329
885.524	3313
885.65	3241
885.775	3298
885.9	3241
886.025	3420
886.15	3393
886.275	3264
886.4	3203
886.525	3275
886.65	3275
886.775	3306
886.9	3515
887.025	3637
887.149	3439
887.274	3253
887.399	3207
887.523	3226
887.648	3184
887.773	3195
887.897	3340
888.021	3405
888.146	3298
888.27	3469
888.395	3515
888.519	3424
888.643	3431
888.767	3428
888.891	3302
889.015	3233
889.139	3272
889.263	3211
889.387	3409
889.511	3462
889.635	3447
889.759	3294
889.883	3291
890.006	3367
890.13	3473
890.254	3264
890.377	3302
890.501	3195
890.624	3180
890.748	3306
890.871	3203
890.995	3119
891.118	3058
891.241	3195
891.364	3218
891.488	3287
891.611	3180
891.734	3192
891.857	3321
891.98	3226
892.103	3279
892.226	3272
892.349	3188
892.471	3085
892.594	3218
892.717	3291
892.839	3272
892.962	3275
893.085	3393
893.207	3272
893.33	3112
893.452	3249
893.575	3336
893.697	3253
893.819	3447
893.941	3466
894.064	3473
894.186	3214
894.308	3237
894.43	3416
894.552	3553
894.674	3439
894.796	3275
894.918	3256
895.04	3275
895.161	3416
895.283	3397
895.405	3275
895.526	3370
895.648	3405
895.769	3428
895.891	3458
896.012	3500
896.134	3435
896.255	3393
896.376	3363
896.498	3367
896.619	3439
896.74	3359
896.861	3370
896.982	3679
897.103	3808
897.224	3610
897.345	3473
897.466	3439
897.587	3454
897.708	3584
897.828	3572
897.949	3428
898.07	3313
898.19	3370
898.311	3572
898.431	3431
898.552	3481
898.672	3576
898.792	3572
898.913	3519
899.033	3374
899.153	3268
899.273	3192
899.393	3272
899.513	3287
899.633	3264
899.753	3336
899.873	3298
899.993	3378
900.113	3321
900.232	3412
900.352	3268
900.472	3260
900.591	3188
900.711	3302
900.83	3249
900.95	3397
901.069	3504
901.189	3306
901.308	3150
901.427	3108
901.546	3211
901.665	3260
901.784	3359
901.904	3218
902.023	3146
902.141	3001
902.26	2952
902.379	3123
902.498	3058
902.617	3055
902.735	3214
902.854	3272
902.973	3180
903.091	3017
903.21	3058
903.328	3108
903.446	3055
903.565	3104
903.683	3180
903.801	3131
903.919	3241
904.038	3249
904.156	3157
904.274	3287
904.392	3253
904.51	3313
904.627	3302
904.745	3447
904.863	3515
904.981	3241
905.098	3192
905.216	3241
905.334	3291
905.451	3275
905.569	3283
905.686	3389
905.803	3439
905.921	3283
906.038	3416
906.155	3336
906.272	3245
906.389	3351
906.506	3214
906.623	3264
906.74	3253
906.857	3180
906.974	3233
907.091	3428
907.208	3500
907.324	3469
907.441	3340
907.557	3241
907.674	3199
907.79	3226
907.907	3256
908.023	3382
908.139	3317
908.256	3317
908.372	3351
908.488	3351
908.604	3226
908.72	3233
908.836	3287
908.952	3302
909.068	3344
909.184	3473
909.3	3351
909.415	3500
909.531	3420
909.647	3272
909.762	3241
909.878	3272
909.993	3367
910.108	3291
910.224	3325
910.339	3374
910.454	3287
910.57	3272
910.685	3241
910.8	3561
910.915	3553
911.03	3431
911.145	3195
911.259	3264
911.374	3268
911.489	3245
911.604	3211
911.718	3093
911.833	3127
911.947	3013
912.062	2952
912.176	3146
912.291	3195
912.405	3203
912.519	3412
912.633	3420
912.748	3351
912.862	3264
912.976	3146
913.09	3055
913.204	3104
913.318	3173
913.431	3344
913.545	3313
913.659	3370
913.772	3294
913.886	3188
914	3218
914.113	3355
914.226	3420
914.34	3317
914.453	3199
914.566	3374
914.68	3306
914.793	3325
914.906	3112
915.019	3089
915.132	3062
915.245	3157
915.358	3192
915.47	3211
915.583	3237
915.696	3291
915.809	3382
915.921	3409
916.034	3291
916.146	3245
916.259	3241
916.371	3405
916.483	3405
916.595	3302
916.708	3313
916.82	3348
916.932	3325
917.044	3367
917.156	3405
917.268	3245
917.38	3332
917.491	3306
917.603	3367
917.715	3454
917.826	3466
917.938	3386
918.049	3275
918.161	3405
918.272	3610
918.384	3580
918.495	3504
918.606	3355
918.717	3340
918.828	3386
918.939	3420
919.05	3340
919.161	3389
919.272	3211
919.383	3264
919.494	3500
919.604	3698
919.715	3511
919.826	3447
919.936	3458
920.047	3622
920.157	3564
920.267	3778
920.378	3652
920.488	3595
920.598	3823
920.708	3975
920.818	3861
920.928	3892
921.038	4067
921.148	4074
921.258	3759
921.368	3660
921.477	3603
921.587	3587
921.697	3515
921.806	3682
921.916	3534
922.025	3435
922.134	3389
922.244	3317
922.353	3435
922.462	3321
922.571	3253
922.68	3184
922.789	3119
922.898	3161
923.007	3119
923.116	3237
923.224	3184
923.333	3260
923.442	3142
923.55	3093
923.659	3150
923.767	3249
923.876	3154
923.984	3287
924.092	3119
924.201	3222
924.309	3241
924.417	3310
924.525	3233
924.633	3310
924.741	4059
924.849	3058
924.956	3321
925.064	3146
925.172	3077
925.279	3169
925.387	3241
925.494	3237
925.602	3370
925.709	3409
925.816	3211
925.924	3298
926.031	3428
926.138	3370
926.245	3374
926.352	3325
926.459	3450
926.566	3496
926.673	3348
926.779	3272
926.886	3253
926.993	3184
927.099	3157
927.206	3097
927.312	3138
927.419	3268
927.525	3249
927.631	3287
927.737	3188
927.843	3131
927.95	3093
928.056	3165
928.162	3218
928.267	3241
928.373	3884
928.479	3325
928.585	3081
928.69	3211
928.796	3306
928.901	3192
929.007	3089
929.112	3241
929.218	3195
929.323	3161
929.428	3157
929.533	3321
929.638	3161
929.743	3207
929.848	3272
929.953	3211
930.058	3165
930.163	3028
930.267	3055
930.372	3203
930.477	3062
930.581	3321
930.685	3214
930.79	3081
930.894	3173
930.998	3138
931.103	3313
931.207	3005
931.311	2956
931.415	2960
931.519	2819
931.623	2830
