Data from test_V78500241_1054.txt Node
Date: Fri Mar 25 16:22:30 CST 2022
User: usil
Spectrometer: V785-0024
Trigger mode: 0
Integration Time (sec): 4.000000E-1
Scans to average: 1
Nonlinearity correction enabled: false
Boxcar width: 0
Storing dark spectrum: false
XAxis mode: Wavelengths
Number of Pixels in Spectrum: 1024
>>>>>Begin Spectral Data<<<<<
801.071	2971
801.214	2948
801.356	2883
801.499	2918
801.641	2872
801.783	2979
801.926	3081
802.068	3028
802.211	2986
802.353	3074
802.496	2960
802.638	3028
802.78	3104
802.923	3066
803.065	3058
803.208	2925
803.35	2933
803.492	2925
803.635	2925
803.777	2777
803.919	2891
804.061	3192
804.204	2948
804.346	2925
804.488	2845
804.63	2967
804.773	2906
804.915	2906
805.057	3116
805.199	2944
805.341	2998
805.483	3074
805.626	2998
805.768	2982
805.91	3112
806.052	3119
806.194	3036
806.336	3249
806.478	3032
806.62	2967
806.762	2986
806.904	3047
807.046	3192
807.188	2979
807.33	2925
807.472	2986
807.614	2899
807.756	2986
807.898	2925
808.04	2914
808.182	2979
808.324	2967
808.465	2857
808.607	2887
808.749	2819
808.891	2864
809.033	2948
809.174	2979
809.316	2868
809.458	2922
809.6	2796
809.741	2766
809.883	2739
810.025	2895
810.166	2868
810.308	2853
810.45	2861
810.591	2792
810.733	2781
810.875	2868
811.016	2800
811.158	2773
811.299	2830
811.441	2933
811.582	2887
811.724	2815
811.865	2868
812.007	2933
812.148	2914
812.29	2838
812.431	2887
812.573	2944
812.714	2963
812.855	3047
812.997	3047
813.138	3150
813.279	3009
813.421	2967
813.562	2922
813.703	2872
813.845	2883
813.986	2788
814.127	2746
814.268	2804
814.41	2834
814.551	2819
814.692	2883
814.833	2834
814.974	2902
815.115	2948
815.256	2834
815.397	2800
815.539	2864
815.68	2807
815.821	2766
815.962	2963
816.103	2937
816.244	2872
816.385	2876
816.526	2975
816.666	2899
816.807	2754
816.948	2902
817.089	2902
817.23	2849
817.371	2758
817.512	2815
817.653	2834
817.793	2811
817.934	2929
818.075	2956
818.216	2979
818.356	3036
818.497	2929
818.638	2777
818.778	2811
818.919	2826
819.06	2766
819.2	2883
819.341	2815
819.481	2804
819.622	2922
819.762	3081
819.903	3039
820.043	2948
820.184	2891
820.324	2914
820.465	2994
820.605	3020
820.746	3036
820.886	2971
821.026	3146
821.167	3192
821.307	3260
821.447	3294
821.588	3287
821.728	3241
821.868	3226
822.008	3085
822.149	3211
822.289	3233
822.429	3077
822.569	3116
822.709	3192
822.849	3020
822.99	3081
823.13	3180
823.27	3272
823.41	3135
823.55	3176
823.69	3188
823.83	3233
823.97	3100
824.11	3028
824.25	3028
824.389	3119
824.529	3154
824.669	3150
824.809	3241
824.949	3310
825.089	3275
825.228	3165
825.368	3070
825.508	3020
825.648	3005
825.787	3036
825.927	3066
826.067	3005
826.206	3013
826.346	3085
826.485	3104
826.625	3138
826.765	3283
826.904	3249
827.044	3043
827.183	2971
827.323	2922
827.462	3032
827.601	2948
827.741	2986
827.88	2994
828.02	2876
828.159	2994
828.298	3081
828.437	3157
828.577	3123
828.716	3279
828.855	3112
828.994	2960
829.134	2876
829.273	2986
829.412	2914
829.551	2880
829.69	2914
829.829	3043
829.968	3173
830.107	3032
830.246	3043
830.385	2956
830.524	2880
830.663	2842
830.802	2811
830.941	2674
831.08	2674
831.219	2788
831.357	2788
831.496	2998
831.635	2754
831.774	2678
831.913	2674
832.051	2583
832.19	2625
832.329	2712
832.467	2568
832.606	2514
832.744	2644
832.883	2621
833.022	2636
833.16	2720
833.299	2716
833.437	2735
833.576	2746
833.714	2735
833.852	2746
833.991	2792
834.129	2887
834.267	2899
834.406	2861
834.544	2910
834.682	2899
834.821	2918
834.959	3119
835.097	2925
835.235	3081
835.373	3005
835.511	3051
835.65	3032
835.788	3013
835.926	2906
836.064	2857
836.202	2861
836.34	3093
836.478	3154
836.615	3100
836.753	3154
836.891	3199
837.029	3184
837.167	3161
837.305	3104
837.443	3100
837.58	3028
837.718	3192
837.856	3123
837.993	3055
838.131	3157
838.269	3112
838.406	3127
838.544	3093
838.681	2979
838.819	2956
838.956	2868
839.094	2868
839.231	2933
839.369	3028
839.506	3401
839.643	3256
839.781	3055
839.918	2948
840.055	3058
840.193	3066
840.33	3100
840.467	3135
840.604	3150
840.742	3424
840.879	3097
841.016	3085
841.153	3180
841.29	3367
841.427	3344
841.564	3283
841.701	3344
841.838	3245
841.975	3199
842.112	3230
842.249	3100
842.385	3074
842.522	3313
842.659	3100
842.796	3131
842.933	3112
843.069	3047
843.206	3062
843.343	3211
843.479	3108
843.616	3154
843.752	2925
843.889	2868
844.025	3123
844.162	2914
844.298	3100
844.435	2971
844.571	2975
844.708	3123
844.844	3253
844.98	3237
845.117	3279
845.253	3089
845.389	3032
845.525	3074
845.661	3150
845.798	3013
845.934	3142
846.07	3077
846.206	3249
846.342	3336
846.478	3241
846.614	3142
846.75	3093
846.886	3058
847.022	3264
847.158	3165
847.294	3245
847.429	3264
847.565	3275
847.701	3515
847.837	3055
847.972	3051
848.108	3226
848.244	3180
848.379	2994
848.515	2979
848.65	2960
848.786	3009
848.921	2998
849.057	3131
849.192	3180
849.328	3104
849.463	3127
849.598	3100
849.734	3051
849.869	3009
850.004	2929
850.14	2971
850.275	2967
850.41	2853
850.545	2895
850.68	2952
850.815	2994
850.95	3013
851.085	3214
851.22	3135
851.355	3074
851.49	3009
851.625	3020
851.76	3055
851.895	2948
852.03	2933
852.165	3074
852.299	3165
852.434	3222
852.569	3142
852.703	3203
852.838	3310
852.973	3344
853.107	3382
853.242	3180
853.376	3100
853.511	2975
853.645	3070
853.78	3256
853.914	3180
854.048	3100
854.183	3104
854.317	3150
854.451	3313
854.585	3173
854.72	3085
854.854	3237
854.988	3089
855.122	3135
855.256	3028
855.39	3146
855.524	3268
855.658	3199
855.792	3184
855.926	3237
856.06	3260
856.194	3298
856.327	3161
856.461	3089
856.595	3112
856.729	3100
856.862	3264
856.996	3142
857.13	3222
857.263	3230
857.397	3291
857.53	3146
857.664	3226
857.797	3272
857.931	3298
858.064	3195
858.197	3268
858.331	3138
858.464	3100
858.597	3017
858.731	3157
858.864	3119
858.997	3157
859.13	3176
859.263	3237
859.396	3203
859.529	3093
859.662	3112
859.795	3055
859.928	3146
860.061	3287
860.194	3279
860.327	3176
860.46	3157
860.592	3260
860.725	3275
860.858	3260
860.99	3062
861.123	3081
861.256	3043
861.388	3195
861.521	3865
861.653	3028
861.786	3009
861.918	2998
862.05	3074
862.183	3108
862.315	3142
862.447	3226
862.58	3104
862.712	2990
862.844	2872
862.976	3058
863.108	3032
863.24	3420
863.372	2872
863.504	2990
863.636	2986
863.768	3062
863.9	2971
864.032	2925
864.164	2982
864.296	3062
864.428	3077
864.559	3097
864.691	3112
864.823	3077
864.954	3074
865.086	3077
865.217	3032
865.349	2963
865.48	2986
865.612	3043
865.743	3165
865.875	3051
866.006	2963
866.137	2998
866.269	2986
866.4	2960
866.531	2952
866.662	2899
866.793	2906
866.924	2902
867.055	2960
867.186	2956
867.317	2929
867.448	2861
867.579	2899
867.71	2876
867.841	2834
867.972	2914
868.103	2937
868.233	2891
868.364	2891
868.495	2925
868.625	3093
868.756	3184
868.886	2994
869.017	3058
869.147	3199
869.278	3176
869.408	3058
869.539	3077
869.669	3127
869.799	3043
869.929	3135
870.06	3131
870.19	3325
870.32	3294
870.45	3283
870.58	3393
870.71	3458
870.84	3439
870.97	3370
871.1	3260
871.23	3492
871.36	3469
871.489	3386
871.619	3443
871.749	3431
871.879	3473
872.008	3481
872.138	3351
872.267	3291
872.397	3161
872.526	3097
872.656	2994
872.785	3131
872.915	3294
873.044	3344
873.173	3241
873.303	3298
873.432	3241
873.561	3253
873.69	3207
873.819	3161
873.948	3203
874.077	3142
874.206	3043
874.335	3119
874.464	3256
874.593	3405
874.722	3268
874.851	3370
874.979	3344
875.108	3325
875.237	3184
875.365	3184
875.494	3203
875.623	3241
875.751	3089
875.88	3161
876.008	3184
876.136	3253
876.265	3386
876.393	3538
876.521	3428
876.65	3435
876.778	3329
876.906	3294
877.034	3195
877.162	3207
877.29	3203
877.418	3245
877.546	3279
877.674	3272
877.802	3237
877.93	3256
878.058	3192
878.185	3116
878.313	3260
878.441	3233
878.568	3116
878.696	3161
878.824	3291
878.951	3302
879.079	3447
879.206	3637
879.333	3469
879.461	3351
879.588	3374
879.715	3500
879.842	3591
879.97	3393
880.097	3165
880.224	3116
880.351	3195
880.478	3211
880.605	3199
880.732	3192
880.859	3496
880.986	3294
881.112	3355
881.239	3222
881.366	3058
881.493	3020
881.619	3017
881.746	3085
881.872	3119
881.999	3085
882.125	3135
882.252	3264
882.378	3298
882.505	3393
882.631	3302
882.757	3154
882.883	3237
883.01	3245
883.136	3188
883.262	3089
883.388	3104
883.514	3340
883.64	3435
883.766	3291
883.892	3207
884.018	3256
884.143	3450
884.269	3557
884.395	3230
884.52	3203
884.646	3203
884.772	3176
884.897	3104
885.023	3237
885.148	3332
885.274	3428
885.399	3359
885.524	3317
885.65	3256
885.775	3317
885.9	3313
886.025	3424
886.15	3348
886.275	3348
886.4	3222
886.525	3351
886.65	3279
886.775	3325
886.9	3485
887.025	3618
887.149	3443
887.274	3253
887.399	3180
887.523	3226
887.648	3222
887.773	3218
887.897	3393
888.021	3416
888.146	3329
888.27	3431
888.395	3534
888.519	3439
888.643	3469
888.767	3485
888.891	3291
889.015	3214
889.139	3272
889.263	3241
889.387	3428
889.511	3523
889.635	3443
889.759	3325
889.883	3310
890.006	3386
890.13	3462
890.254	3260
890.377	3317
890.501	3222
890.624	3203
890.748	3310
890.871	3199
890.995	3081
891.118	3085
891.241	3226
891.364	3222
891.488	3340
891.611	3214
891.734	3268
891.857	3268
891.98	3279
892.103	3359
892.226	3325
892.349	3230
892.471	3097
892.594	3233
892.717	3325
892.839	3264
892.962	3336
893.085	3370
893.207	3321
893.33	3165
893.452	3218
893.575	3344
893.697	3272
893.819	3439
893.941	3519
894.064	3488
894.186	3344
894.308	3306
894.43	3443
894.552	3584
894.674	3500
894.796	3329
894.918	3336
895.04	3302
895.161	3454
895.283	3405
895.405	3329
895.526	3397
895.648	3450
895.769	3409
895.891	3439
896.012	3473
896.134	3469
896.255	3435
896.376	3378
896.498	3370
896.619	3450
896.74	3420
896.861	3397
896.982	3679
897.103	3808
897.224	3606
897.345	3492
897.466	3443
897.587	3530
897.708	3622
897.828	3538
897.949	3435
898.07	3336
898.19	3416
898.311	3610
898.431	3466
898.552	3526
898.672	3587
898.792	3557
898.913	3545
899.033	3431
899.153	3291
899.273	3195
899.393	3329
899.513	3317
899.633	3340
899.753	3332
899.873	3313
899.993	3378
900.113	3310
900.232	3420
900.352	3374
900.472	3340
900.591	3253
900.711	3306
900.83	3241
900.95	3424
901.069	3488
901.189	3340
901.308	3192
901.427	3116
901.546	3211
901.665	3279
901.784	3382
901.904	3237
902.023	3157
902.141	3051
902.26	3013
902.379	3127
902.498	3100
902.617	3074
902.735	3230
902.854	3233
902.973	3192
903.091	3093
903.21	3055
903.328	3195
903.446	3116
903.565	3138
903.683	3211
903.801	3142
903.919	3253
904.038	3268
904.156	3180
904.274	3310
904.392	3302
904.51	3283
904.627	3344
904.745	3466
904.863	3515
904.981	3287
905.098	3184
905.216	3233
905.334	3340
905.451	3294
905.569	3302
905.686	3412
905.803	3424
905.921	3272
906.038	3397
906.155	3389
906.272	3253
906.389	3321
906.506	3226
906.623	3253
906.74	3260
906.857	3154
906.974	3260
907.091	3462
907.208	3564
907.324	3538
907.441	3416
907.557	3249
907.674	3245
907.79	3214
907.907	3302
908.023	3370
908.139	3389
908.256	3348
908.372	3412
908.488	3325
908.604	3294
908.72	3214
908.836	3302
908.952	3241
909.068	3340
909.184	3504
909.3	3424
909.415	3485
909.531	3477
909.647	3264
909.762	3321
909.878	3256
909.993	3344
910.108	3321
910.224	3340
910.339	3405
910.454	3325
910.57	3321
910.685	3253
910.8	3599
910.915	3545
911.03	3443
911.145	3260
911.259	3256
911.374	3291
911.489	3237
911.604	3230
911.718	3123
911.833	3184
911.947	3036
912.062	2975
912.176	3176
912.291	3195
912.405	3214
912.519	3431
912.633	3447
912.748	3355
912.862	3275
912.976	3150
913.09	3058
913.204	3169
913.318	3260
913.431	3363
913.545	3329
913.659	3473
913.772	3310
913.886	3195
914	3176
914.113	3393
914.226	3424
914.34	3386
914.453	3203
914.566	3439
914.68	3355
914.793	3294
914.906	3161
915.019	3108
915.132	3043
915.245	3161
915.358	3169
915.47	3203
915.583	3294
915.696	3272
915.809	3393
915.921	3412
916.034	3245
916.146	3226
916.259	3237
916.371	3340
916.483	3382
916.595	3313
916.708	3329
916.82	3348
916.932	3329
917.044	3382
917.156	3363
917.268	3253
917.38	3313
917.491	3272
917.603	3401
917.715	3401
917.826	3443
917.938	3367
918.049	3249
918.161	3428
918.272	3610
918.384	3557
918.495	3504
918.606	3348
918.717	3291
918.828	3370
918.939	3382
919.05	3272
919.161	3355
919.272	3188
919.383	3294
919.494	3466
919.604	3622
919.715	3428
919.826	3382
919.936	3439
920.047	3614
920.157	3557
920.267	3778
920.378	3603
920.488	3595
920.598	3755
920.708	3949
920.818	3865
920.928	3823
921.038	4071
921.148	3998
921.258	3724
921.368	3629
921.477	3641
921.587	3572
921.697	3469
921.806	3675
921.916	3507
922.025	3401
922.134	3405
922.244	3294
922.353	3450
922.462	3260
922.571	3272
922.68	3108
922.789	3066
922.898	3116
923.007	3104
923.116	3211
923.224	3150
923.333	3161
923.442	3089
923.55	3089
923.659	3135
923.767	3226
923.876	3138
923.984	3230
924.092	3085
924.201	3192
924.309	3233
924.417	3275
924.525	3184
924.633	3222
924.741	4204
924.849	3070
924.956	3291
925.064	3093
925.172	3062
925.279	3085
925.387	3192
925.494	3176
925.602	3370
925.709	3336
925.816	3211
925.924	3283
926.031	3336
926.138	3332
926.245	3325
926.352	3294
926.459	3424
926.566	3458
926.673	3351
926.779	3241
926.886	3253
926.993	3146
927.099	3165
927.206	3135
927.312	3112
927.419	3245
927.525	3241
927.631	3317
927.737	3157
927.843	3127
927.95	3024
928.056	3157
928.162	3203
928.267	3294
928.373	3827
928.479	3306
928.585	3058
928.69	3211
928.796	3264
928.901	3173
929.007	3024
929.112	3192
929.218	3184
929.323	3142
929.428	3165
929.533	3332
929.638	3116
929.743	3188
929.848	3279
929.953	3211
930.058	3154
930.163	3009
930.267	3036
930.372	3226
930.477	3032
930.581	3321
930.685	3195
930.79	3062
930.894	3150
930.998	3081
931.103	3287
931.207	2979
931.311	2910
931.415	2902
931.519	2792
931.623	2792
