Data from test_V78500241_1647.txt Node
Date: Fri Mar 25 16:26:36 CST 2022
User: usil
Spectrometer: V785-0024
Trigger mode: 0
Integration Time (sec): 4.000000E-1
Scans to average: 1
Nonlinearity correction enabled: false
Boxcar width: 0
Storing dark spectrum: false
XAxis mode: Wavelengths
Number of Pixels in Spectrum: 1024
>>>>>Begin Spectral Data<<<<<
801.071	2922
801.214	2918
801.356	2864
801.499	2872
801.641	2864
801.783	2941
801.926	3055
802.068	3001
802.211	2986
802.353	2986
802.496	2960
802.638	3005
802.78	3009
802.923	3074
803.065	2986
803.208	2883
803.35	2902
803.492	2925
803.635	2922
803.777	2758
803.919	2853
804.061	3165
804.204	2975
804.346	2895
804.488	2826
804.63	2967
804.773	2849
804.915	2910
805.057	3093
805.199	2914
805.341	2998
805.483	3047
805.626	3020
805.768	3001
805.91	3074
806.052	3093
806.194	3055
806.336	3245
806.478	3005
806.62	2952
806.762	2963
806.904	3024
807.046	3176
807.188	2979
807.33	2868
807.472	2960
807.614	2941
807.756	2998
807.898	2937
808.04	2891
808.182	2990
808.324	2990
808.465	2883
808.607	2868
808.749	2804
808.891	2823
809.033	2956
809.174	2986
809.316	2899
809.458	2899
809.6	2769
809.741	2796
809.883	2743
810.025	2880
810.166	2857
810.308	2845
810.45	2830
810.591	2781
810.733	2792
810.875	2853
811.016	2781
811.158	2746
811.299	2842
811.441	2929
811.582	2922
811.724	2800
811.865	2861
812.007	2922
812.148	2883
812.29	2845
812.431	2910
812.573	2960
812.714	2967
812.855	3051
812.997	3047
813.138	3104
813.279	3005
813.421	3009
813.562	3001
813.703	2876
813.845	2872
813.986	2777
814.127	2701
814.268	2826
814.41	2838
814.551	2785
814.692	2902
814.833	2815
814.974	2887
815.115	2948
815.256	2788
815.397	2826
815.539	2845
815.68	2788
815.821	2792
815.962	2922
816.103	2895
816.244	2853
816.385	2853
816.526	2963
816.666	2918
816.807	2708
816.948	2887
817.089	2933
817.23	2853
817.371	2811
817.512	2792
817.653	2826
817.793	2804
817.934	2883
818.075	2960
818.216	2967
818.356	3005
818.497	2876
818.638	2838
818.778	2807
818.919	2785
819.06	2724
819.2	2887
819.341	2781
819.481	2796
819.622	2902
819.762	3077
819.903	3024
820.043	2899
820.184	2857
820.324	2891
820.465	3043
820.605	3028
820.746	3013
820.886	2918
821.026	3108
821.167	3138
821.307	3260
821.447	3310
821.588	3218
821.728	3218
821.868	3169
822.008	3039
822.149	3169
822.289	3226
822.429	3089
822.569	3070
822.709	3180
822.849	3013
822.99	3062
823.13	3161
823.27	3184
823.41	3112
823.55	3199
823.69	3165
823.83	3173
823.97	3081
824.11	3009
824.25	3017
824.389	3127
824.529	3097
824.669	3074
824.809	3218
824.949	3245
825.089	3207
825.228	3157
825.368	2971
825.508	2986
825.648	2975
825.787	3028
825.927	3013
826.067	2990
826.206	2956
826.346	3032
826.485	3043
826.625	3100
826.765	3192
826.904	3214
827.044	2975
827.183	2918
827.323	2849
827.462	2986
827.601	2944
827.741	2925
827.88	2948
828.02	2830
828.159	2971
828.298	3036
828.437	3097
828.577	3013
828.716	3233
828.855	3039
828.994	2895
829.134	2838
829.273	2944
829.412	2876
829.551	2845
829.69	2876
829.829	2971
829.968	3104
830.107	2998
830.246	3001
830.385	2937
830.524	2891
830.663	2811
830.802	2727
830.941	2629
831.08	2640
831.219	2781
831.357	2746
831.496	2952
831.635	2750
831.774	2648
831.913	2663
832.051	2568
832.19	2568
832.329	2663
832.467	2541
832.606	2488
832.744	2590
832.883	2564
833.022	2571
833.16	2663
833.299	2682
833.437	2659
833.576	2693
833.714	2697
833.852	2724
833.991	2766
834.129	2819
834.267	2815
834.406	2807
834.544	2883
834.682	2872
834.821	2834
834.959	3032
835.097	2899
835.235	3051
835.373	3005
835.511	3028
835.65	2941
835.788	2937
835.926	2811
836.064	2804
836.202	2864
836.34	3066
836.478	3176
836.615	3028
836.753	3112
836.891	3211
837.029	3184
837.167	3127
837.305	3089
837.443	3036
837.58	2948
837.718	3150
837.856	3062
837.993	2994
838.131	3108
838.269	3085
838.406	3074
838.544	3051
838.681	2902
838.819	2922
838.956	2811
839.094	2853
839.231	2883
839.369	3032
839.506	3336
839.643	3199
839.781	3001
839.918	2956
840.055	3039
840.193	3032
840.33	3066
840.467	3089
840.604	3108
840.742	3420
840.879	3070
841.016	3051
841.153	3116
841.29	3298
841.427	3249
841.564	3233
841.701	3321
841.838	3203
841.975	3184
842.112	3237
842.249	3081
842.385	3036
842.522	3260
842.659	3119
842.796	3055
842.933	3070
843.069	3024
843.206	3047
843.343	3165
843.479	3070
843.616	3173
843.752	2883
843.889	2872
844.025	3055
844.162	2857
844.298	3085
844.435	2910
844.571	2914
844.708	3051
844.844	3207
844.98	3226
845.117	3207
845.253	3066
845.389	3005
845.525	3085
845.661	3074
845.798	3024
845.934	3070
846.07	3062
846.206	3195
846.342	3283
846.478	3214
846.614	3100
846.75	3074
846.886	2990
847.022	3256
847.158	3116
847.294	3222
847.429	3230
847.565	3192
847.701	3485
847.837	3028
847.972	2998
848.108	3173
848.244	3157
848.379	2979
848.515	2902
848.65	2918
848.786	2960
848.921	2982
849.057	3089
849.192	3116
849.328	3051
849.463	3074
849.598	3055
849.734	3043
849.869	2986
850.004	2952
850.14	2963
850.275	2887
850.41	2815
850.545	2868
850.68	2902
850.815	2929
850.95	2979
851.085	3180
851.22	3116
851.355	3047
851.49	2967
851.625	2979
851.76	3017
851.895	2910
852.03	2948
852.165	3036
852.299	3131
852.434	3169
852.569	3127
852.703	3165
852.838	3233
852.973	3325
853.107	3332
853.242	3161
853.376	3108
853.511	2941
853.645	3051
853.78	3241
853.914	3142
854.048	3097
854.183	3089
854.317	3154
854.451	3287
854.585	3135
854.72	3100
854.854	3203
854.988	3032
855.122	3062
855.256	2979
855.39	3131
855.524	3211
855.658	3188
855.792	3161
855.926	3184
856.06	3199
856.194	3291
856.327	3165
856.461	3062
856.595	3070
856.729	3085
856.862	3176
856.996	3138
857.13	3184
857.263	3203
857.397	3279
857.53	3112
857.664	3222
857.797	3199
857.931	3207
858.064	3176
858.197	3226
858.331	3150
858.464	3116
858.597	2975
858.731	3116
858.864	3138
858.997	3089
859.13	3188
859.263	3157
859.396	3199
859.529	3116
859.662	3047
859.795	3036
859.928	3131
860.061	3287
860.194	3306
860.327	3104
860.46	3081
860.592	3245
860.725	3264
860.858	3249
860.99	3127
861.123	3017
861.256	3043
861.388	3108
861.521	3854
861.653	3028
861.786	2948
861.918	2998
862.05	3047
862.183	3085
862.315	3135
862.447	3199
862.58	3070
862.712	2952
862.844	2845
862.976	3024
863.108	2975
863.24	3405
863.372	2895
863.504	2986
863.636	2967
863.768	3043
863.9	2967
864.032	2925
864.164	2925
864.296	2986
864.428	3081
864.559	3089
864.691	3062
864.823	3039
864.954	3070
865.086	3043
865.217	2998
865.349	2922
865.48	2994
865.612	3020
865.743	3154
865.875	2963
866.006	2910
866.137	2952
866.269	2960
866.4	2887
866.531	2914
866.662	2883
866.793	2925
866.924	2895
867.055	2960
867.186	2937
867.317	2899
867.448	2823
867.579	2872
867.71	2842
867.841	2815
867.972	2891
868.103	2868
868.233	2872
868.364	2857
868.495	2899
868.625	3077
868.756	3142
868.886	2998
869.017	3001
869.147	3180
869.278	3169
869.408	3066
869.539	2998
869.669	3085
869.799	3024
869.929	3146
870.06	3055
870.19	3329
870.32	3287
870.45	3310
870.58	3363
870.71	3443
870.84	3447
870.97	3275
871.1	3211
871.23	3492
871.36	3450
871.489	3336
871.619	3378
871.749	3416
871.879	3420
872.008	3439
872.138	3359
872.267	3310
872.397	3123
872.526	3093
872.656	3017
872.785	3100
872.915	3241
873.044	3317
873.173	3245
873.303	3241
873.432	3237
873.561	3226
873.69	3188
873.819	3097
873.948	3233
874.077	3108
874.206	3055
874.335	3070
874.464	3192
874.593	3321
874.722	3237
874.851	3370
874.979	3355
875.108	3340
875.237	3199
875.365	3161
875.494	3154
875.623	3249
875.751	3093
875.88	3097
876.008	3142
876.136	3230
876.265	3355
876.393	3469
876.521	3382
876.65	3382
876.778	3386
876.906	3249
877.034	3176
877.162	3192
877.29	3165
877.418	3283
877.546	3245
877.674	3256
877.802	3199
877.93	3211
878.058	3119
878.185	3085
878.313	3173
878.441	3207
878.568	3070
878.696	3157
878.824	3260
878.951	3287
879.079	3428
879.206	3618
879.333	3409
879.461	3340
879.588	3397
879.715	3504
879.842	3599
879.97	3378
880.097	3165
880.224	3146
880.351	3203
880.478	3165
880.605	3222
880.732	3188
880.859	3507
880.986	3317
881.112	3283
881.239	3188
881.366	3097
881.493	3001
881.619	3024
881.746	3081
881.872	3097
881.999	3104
882.125	3127
882.252	3207
882.378	3321
882.505	3416
882.631	3272
882.757	3131
882.883	3241
883.01	3245
883.136	3154
883.262	3077
883.388	3112
883.514	3279
883.64	3370
883.766	3279
883.892	3199
884.018	3279
884.143	3409
884.269	3504
884.395	3195
884.52	3142
884.646	3211
884.772	3112
884.897	3116
885.023	3260
885.148	3348
885.274	3412
885.399	3344
885.524	3260
885.65	3283
885.775	3329
885.9	3272
886.025	3450
886.15	3386
886.275	3249
886.4	3218
886.525	3283
886.65	3306
886.775	3260
886.9	3530
887.025	3606
887.149	3416
887.274	3264
887.399	3207
887.523	3199
887.648	3180
887.773	3188
887.897	3420
888.021	3405
888.146	3268
888.27	3439
888.395	3496
888.519	3447
888.643	3454
888.767	3424
888.891	3310
889.015	3249
889.139	3302
889.263	3272
889.387	3439
889.511	3507
889.635	3435
889.759	3272
889.883	3298
890.006	3389
890.13	3485
890.254	3287
890.377	3306
890.501	3195
890.624	3192
890.748	3313
890.871	3169
890.995	3135
891.118	3032
891.241	3203
891.364	3226
891.488	3313
891.611	3260
891.734	3218
891.857	3264
891.98	3226
892.103	3351
892.226	3275
892.349	3222
892.471	3093
892.594	3195
892.717	3306
892.839	3260
892.962	3279
893.085	3405
893.207	3298
893.33	3188
893.452	3199
893.575	3313
893.697	3226
893.819	3443
893.941	3500
894.064	3431
894.186	3287
894.308	3245
894.43	3473
894.552	3542
894.674	3439
894.796	3313
894.918	3359
895.04	3256
895.161	3409
895.283	3351
895.405	3287
895.526	3367
895.648	3450
895.769	3435
895.891	3466
896.012	3481
896.134	3431
896.255	3386
896.376	3386
896.498	3355
896.619	3393
896.74	3363
896.861	3374
896.982	3679
897.103	3812
897.224	3614
897.345	3504
897.466	3409
897.587	3473
897.708	3618
897.828	3568
897.949	3397
898.07	3313
898.19	3420
898.311	3603
898.431	3439
898.552	3488
898.672	3584
898.792	3564
898.913	3564
899.033	3405
899.153	3264
899.273	3241
899.393	3264
899.513	3294
899.633	3329
899.753	3325
899.873	3294
899.993	3359
900.113	3351
900.232	3367
900.352	3340
900.472	3275
900.591	3230
900.711	3287
900.83	3256
900.95	3393
901.069	3488
901.189	3306
901.308	3180
901.427	3157
901.546	3192
901.665	3275
901.784	3310
901.904	3180
902.023	3104
902.141	2998
902.26	3001
902.379	3097
902.498	3100
902.617	3077
902.735	3237
902.854	3222
902.973	3188
903.091	3013
903.21	3100
903.328	3138
903.446	3150
903.565	3097
903.683	3199
903.801	3135
903.919	3237
904.038	3302
904.156	3169
904.274	3275
904.392	3268
904.51	3272
904.627	3302
904.745	3477
904.863	3530
904.981	3260
905.098	3161
905.216	3226
905.334	3287
905.451	3275
905.569	3291
905.686	3397
905.803	3447
905.921	3233
906.038	3443
906.155	3321
906.272	3279
906.389	3340
906.506	3218
906.623	3222
906.74	3249
906.857	3188
906.974	3226
907.091	3435
907.208	3561
907.324	3496
907.441	3389
907.557	3226
907.674	3283
907.79	3222
907.907	3279
908.023	3367
908.139	3370
908.256	3340
908.372	3389
908.488	3359
908.604	3241
908.72	3207
908.836	3294
908.952	3279
909.068	3340
909.184	3481
909.3	3389
909.415	3488
909.531	3473
909.647	3260
909.762	3260
909.878	3253
909.993	3351
910.108	3336
910.224	3298
910.339	3393
910.454	3336
910.57	3310
910.685	3245
910.8	3610
910.915	3526
911.03	3431
911.145	3275
911.259	3298
911.374	3287
911.489	3230
911.604	3222
911.718	3097
911.833	3184
911.947	3032
912.062	2967
912.176	3146
912.291	3192
912.405	3211
912.519	3439
912.633	3439
912.748	3332
912.862	3291
912.976	3195
913.09	3081
913.204	3131
913.318	3195
913.431	3313
913.545	3329
913.659	3420
913.772	3313
913.886	3165
914	3161
914.113	3329
914.226	3397
914.34	3336
914.453	3230
914.566	3405
914.68	3268
914.793	3275
914.906	3123
915.019	3123
915.132	3055
915.245	3226
915.358	3226
915.47	3222
915.583	3275
915.696	3317
915.809	3397
915.921	3370
916.034	3268
916.146	3256
916.259	3203
916.371	3389
916.483	3401
916.595	3272
916.708	3306
916.82	3313
916.932	3336
917.044	3359
917.156	3351
917.268	3233
917.38	3298
917.491	3291
917.603	3386
917.715	3435
917.826	3473
917.938	3382
918.049	3272
918.161	3431
918.272	3603
918.384	3572
918.495	3450
918.606	3340
918.717	3260
918.828	3397
918.939	3409
919.05	3294
919.161	3363
919.272	3184
919.383	3253
919.494	3492
919.604	3614
919.715	3492
919.826	3409
919.936	3443
920.047	3587
920.157	3496
920.267	3724
920.378	3568
920.488	3553
920.598	3762
920.708	3934
920.818	3793
920.928	3835
921.038	3991
921.148	3991
921.258	3675
921.368	3587
921.477	3584
921.587	3545
921.697	3439
921.806	3629
921.916	3530
922.025	3378
922.134	3348
922.244	3325
922.353	3397
922.462	3249
922.571	3195
922.68	3104
922.789	3047
922.898	3142
923.007	3085
923.116	3199
923.224	3180
923.333	3161
923.442	3097
923.55	3062
923.659	3142
923.767	3199
923.876	3112
923.984	3256
924.092	3093
924.201	3226
924.309	3222
924.417	3272
924.525	3176
924.633	3245
924.741	4154
924.849	3047
924.956	3279
925.064	3104
925.172	3047
925.279	3085
925.387	3226
925.494	3222
925.602	3351
925.709	3336
925.816	3180
925.924	3237
926.031	3412
926.138	3332
926.245	3355
926.352	3233
926.459	3397
926.566	3420
926.673	3298
926.779	3241
926.886	3241
926.993	3161
927.099	3104
927.206	3108
927.312	3123
927.419	3211
927.525	3165
927.631	3287
927.737	3100
927.843	3135
927.95	3024
928.056	3138
928.162	3180
928.267	3230
928.373	3778
928.479	3279
928.585	3051
928.69	3188
928.796	3256
928.901	3161
929.007	3028
929.112	3207
929.218	3157
929.323	3154
929.428	3157
929.533	3302
929.638	3135
929.743	3157
929.848	3272
929.953	3195
930.058	3127
930.163	2975
930.267	3055
930.372	3188
930.477	3051
930.581	3340
930.685	3173
930.79	3051
930.894	3097
930.998	3058
931.103	3306
931.207	2914
931.311	2941
931.415	2914
931.519	2785
931.623	2796
