Data from test_V78500241_2043.txt Node
Date: Fri Mar 25 16:29:21 CST 2022
User: usil
Spectrometer: V785-0024
Trigger mode: 0
Integration Time (sec): 4.000000E-1
Scans to average: 1
Nonlinearity correction enabled: false
Boxcar width: 0
Storing dark spectrum: false
XAxis mode: Wavelengths
Number of Pixels in Spectrum: 1024
>>>>>Begin Spectral Data<<<<<
801.071	2906
801.214	2960
801.356	2895
801.499	2883
801.641	2876
801.783	2887
801.926	2986
802.068	2971
802.211	2990
802.353	3009
802.496	2960
802.638	2998
802.78	3055
802.923	3070
803.065	3020
803.208	2906
803.35	2891
803.492	2925
803.635	2937
803.777	2762
803.919	2861
804.061	3184
804.204	2971
804.346	2948
804.488	2853
804.63	2948
804.773	2845
804.915	2891
805.057	3123
805.199	2956
805.341	2937
805.483	3047
805.626	2948
805.768	2944
805.91	3077
806.052	3093
806.194	2990
806.336	3230
806.478	3036
806.62	2937
806.762	2971
806.904	3036
807.046	3169
807.188	2994
807.33	2918
807.472	2979
807.614	2902
807.756	2994
807.898	2899
808.04	2872
808.182	2971
808.324	2929
808.465	2895
808.607	2887
808.749	2785
808.891	2883
809.033	2937
809.174	2952
809.316	2857
809.458	2868
809.6	2762
809.741	2773
809.883	2773
810.025	2849
810.166	2857
810.308	2842
810.45	2876
810.591	2804
810.733	2758
810.875	2815
811.016	2754
811.158	2750
811.299	2781
811.441	2895
811.582	2891
811.724	2769
811.865	2842
812.007	2899
812.148	2876
812.29	2838
812.431	2876
812.573	2929
812.714	2960
812.855	3036
812.997	3036
813.138	3135
813.279	3013
813.421	2982
813.562	2941
813.703	2864
813.845	2857
813.986	2762
814.127	2724
814.268	2800
814.41	2826
814.551	2796
814.692	2876
814.833	2804
814.974	2899
815.115	2944
815.256	2823
815.397	2826
815.539	2845
815.68	2743
815.821	2788
815.962	2937
816.103	2922
816.244	2861
816.385	2834
816.526	2952
816.666	2922
816.807	2750
816.948	2887
817.089	2933
817.23	2868
817.371	2754
817.512	2758
817.653	2815
817.793	2826
817.934	2849
818.075	2941
818.216	2998
818.356	2990
818.497	2834
818.638	2785
818.778	2823
818.919	2769
819.06	2769
819.2	2849
819.341	2792
819.481	2826
819.622	2925
819.762	3100
819.903	3032
820.043	2918
820.184	2914
820.324	2902
820.465	3020
820.605	3017
820.746	3028
820.886	2864
821.026	3097
821.167	3161
821.307	3230
821.447	3272
821.588	3180
821.728	3211
821.868	3173
822.008	3055
822.149	3180
822.289	3233
822.429	3081
822.569	3047
822.709	3165
822.849	3024
822.99	3062
823.13	3127
823.27	3192
823.41	3100
823.55	3154
823.69	3165
823.83	3161
823.97	3089
824.11	2963
824.25	2967
824.389	3013
824.529	3116
824.669	3055
824.809	3207
824.949	3253
825.089	3188
825.228	3150
825.368	3009
825.508	2937
825.648	2960
825.787	3013
825.927	2998
826.067	2986
826.206	2956
826.346	3039
826.485	3100
826.625	3100
826.765	3313
826.904	3173
827.044	3009
827.183	2933
827.323	2842
827.462	2975
827.601	2925
827.741	2922
827.88	2971
828.02	2826
828.159	2971
828.298	3032
828.437	3093
828.577	3047
828.716	3268
828.855	3081
828.994	2918
829.134	2899
829.273	2918
829.412	2887
829.551	2853
829.69	2887
829.829	2975
829.968	3142
830.107	3047
830.246	3024
830.385	2925
830.524	2861
830.663	2815
830.802	2735
830.941	2667
831.08	2663
831.219	2746
831.357	2762
831.496	2933
831.635	2716
831.774	2648
831.913	2697
832.051	2564
832.19	2575
832.329	2655
832.467	2549
832.606	2488
832.744	2587
832.883	2598
833.022	2564
833.16	2644
833.299	2674
833.437	2682
833.576	2708
833.714	2697
833.852	2731
833.991	2750
834.129	2823
834.267	2800
834.406	2777
834.544	2861
834.682	2880
834.821	2864
834.959	3058
835.097	2880
835.235	3058
835.373	2990
835.511	2986
835.65	2967
835.788	2960
835.926	2800
836.064	2819
836.202	2857
836.34	3017
836.478	3127
836.615	3055
836.753	3127
836.891	3195
837.029	3142
837.167	3089
837.305	3051
837.443	2994
837.58	2986
837.718	3104
837.856	3074
837.993	2986
838.131	3085
838.269	3089
838.406	3093
838.544	3089
838.681	2918
838.819	2960
838.956	2815
839.094	2830
839.231	2883
839.369	3009
839.506	3340
839.643	3199
839.781	3005
839.918	2929
840.055	3062
840.193	3039
840.33	3074
840.467	3081
840.604	3180
840.742	3412
840.879	3043
841.016	3024
841.153	3093
841.29	3355
841.427	3283
841.564	3268
841.701	3306
841.838	3249
841.975	3146
842.112	3237
842.249	3081
842.385	2994
842.522	3237
842.659	3104
842.796	3039
842.933	3066
843.069	3051
843.206	3024
843.343	3154
843.479	3119
843.616	3146
843.752	2872
843.889	2842
844.025	3093
844.162	2899
844.298	3085
844.435	2948
844.571	2891
844.708	3081
844.844	3192
844.98	3195
845.117	3188
845.253	3070
845.389	3005
845.525	3123
845.661	3081
845.798	3017
845.934	3112
846.07	3047
846.206	3233
846.342	3279
846.478	3222
846.614	3100
846.75	3036
846.886	2994
847.022	3272
847.158	3093
847.294	3180
847.429	3249
847.565	3192
847.701	3458
847.837	3028
847.972	2975
848.108	3142
848.244	3173
848.379	2990
848.515	2925
848.65	2914
848.786	2960
848.921	2982
849.057	3100
849.192	3169
849.328	3051
849.463	3100
849.598	3093
849.734	3051
849.869	2990
850.004	2876
850.14	2937
850.275	2906
850.41	2838
850.545	2887
850.68	2925
850.815	2944
850.95	2937
851.085	3119
851.22	3097
851.355	3036
851.49	2971
851.625	2994
851.76	3013
851.895	2899
852.03	2902
852.165	3020
852.299	3100
852.434	3176
852.569	3135
852.703	3154
852.838	3218
852.973	3302
853.107	3355
853.242	3146
853.376	3062
853.511	2952
853.645	2986
853.78	3214
853.914	3100
854.048	3100
854.183	3051
854.317	3135
854.451	3287
854.585	3150
854.72	3089
854.854	3226
854.988	3020
855.122	3039
855.256	2979
855.39	3123
855.524	3241
855.658	3142
855.792	3203
855.926	3176
856.06	3214
856.194	3207
856.327	3161
856.461	3058
856.595	3093
856.729	3070
856.862	3207
856.996	3146
857.13	3222
857.263	3245
857.397	3253
857.53	3104
857.664	3199
857.797	3230
857.931	3207
858.064	3123
858.197	3184
858.331	3138
858.464	3058
858.597	3013
858.731	3116
858.864	3154
858.997	3097
859.13	3142
859.263	3157
859.396	3207
859.529	3066
859.662	3081
859.795	2971
859.928	3142
860.061	3260
860.194	3272
860.327	3116
860.46	3093
860.592	3211
860.725	3218
860.858	3230
860.99	3074
861.123	3051
861.256	3039
861.388	3135
861.521	3835
861.653	3024
861.786	2986
861.918	2998
862.05	3047
862.183	3062
862.315	3142
862.447	3214
862.58	3062
862.712	2982
862.844	2883
862.976	3017
863.108	3009
863.24	3287
863.372	2849
863.504	2937
863.636	2944
863.768	3024
863.9	2994
864.032	2922
864.164	2963
864.296	2979
864.428	3066
864.559	3112
864.691	3043
864.823	3051
864.954	3070
865.086	3051
865.217	2982
865.349	2929
865.48	2982
865.612	3028
865.743	3104
865.875	2952
866.006	2937
866.137	2998
866.269	2937
866.4	2925
866.531	2944
866.662	2857
866.793	2880
866.924	2876
867.055	2960
867.186	2902
867.317	2834
867.448	2804
867.579	2838
867.71	2811
867.841	2819
867.972	2891
868.103	2925
868.233	2902
868.364	2864
868.495	2914
868.625	3043
868.756	3169
868.886	2963
869.017	3013
869.147	3131
869.278	3142
869.408	3058
869.539	3058
869.669	3051
869.799	3032
869.929	3112
870.06	3066
870.19	3302
870.32	3294
870.45	3264
870.58	3363
870.71	3469
870.84	3409
870.97	3283
871.1	3233
871.23	3488
871.36	3492
871.489	3310
871.619	3386
871.749	3409
871.879	3382
872.008	3488
872.138	3363
872.267	3298
872.397	3135
872.526	3066
872.656	3009
872.785	3085
872.915	3241
873.044	3321
873.173	3211
873.303	3233
873.432	3253
873.561	3272
873.69	3119
873.819	3131
873.948	3150
874.077	3085
874.206	3055
874.335	3089
874.464	3135
874.593	3336
874.722	3203
874.851	3378
874.979	3348
875.108	3351
875.237	3192
875.365	3123
875.494	3119
875.623	3214
875.751	3062
875.88	3131
876.008	3161
876.136	3226
876.265	3363
876.393	3492
876.521	3393
876.65	3367
876.778	3325
876.906	3226
877.034	3226
877.162	3226
877.29	3195
877.418	3230
877.546	3249
877.674	3241
877.802	3192
877.93	3169
878.058	3161
878.185	3123
878.313	3180
878.441	3214
878.568	3047
878.696	3104
878.824	3230
878.951	3313
879.079	3462
879.206	3603
879.333	3435
879.461	3287
879.588	3340
879.715	3469
879.842	3629
879.97	3344
880.097	3169
880.224	3112
880.351	3169
880.478	3230
880.605	3157
880.732	3188
880.859	3515
880.986	3310
881.112	3302
881.239	3176
881.366	3089
881.493	3017
881.619	3009
881.746	3100
881.872	3085
881.999	3062
882.125	3123
882.252	3241
882.378	3275
882.505	3431
882.631	3272
882.757	3161
882.883	3192
883.01	3211
883.136	3192
883.262	3074
883.388	3089
883.514	3336
883.64	3355
883.766	3317
883.892	3173
884.018	3256
884.143	3416
884.269	3492
884.395	3176
884.52	3192
884.646	3146
884.772	3119
884.897	3089
885.023	3184
885.148	3355
885.274	3412
885.399	3389
885.524	3279
885.65	3268
885.775	3329
885.9	3241
886.025	3393
886.15	3329
886.275	3321
886.4	3226
886.525	3279
886.65	3279
886.775	3256
886.9	3530
887.025	3576
887.149	3416
887.274	3230
887.399	3180
887.523	3192
887.648	3157
887.773	3165
887.897	3344
888.021	3336
888.146	3306
888.27	3420
888.395	3515
888.519	3412
888.643	3416
888.767	3477
888.891	3302
889.015	3253
889.139	3283
889.263	3253
889.387	3355
889.511	3488
889.635	3447
889.759	3310
889.883	3275
890.006	3325
890.13	3473
890.254	3241
890.377	3367
890.501	3173
890.624	3176
890.748	3275
890.871	3188
890.995	3108
891.118	3055
891.241	3211
891.364	3161
891.488	3332
891.611	3150
891.734	3264
891.857	3279
891.98	3233
892.103	3344
892.226	3260
892.349	3214
892.471	3112
892.594	3230
892.717	3294
892.839	3253
892.962	3272
893.085	3329
893.207	3249
893.33	3142
893.452	3203
893.575	3378
893.697	3211
893.819	3454
893.941	3435
894.064	3462
894.186	3237
894.308	3294
894.43	3458
894.552	3504
894.674	3469
894.796	3245
894.918	3336
895.04	3264
895.161	3374
895.283	3397
895.405	3268
895.526	3367
895.648	3397
895.769	3424
895.891	3409
896.012	3469
896.134	3454
896.255	3431
896.376	3348
896.498	3344
896.619	3416
896.74	3370
896.861	3367
896.982	3644
897.103	3827
897.224	3584
897.345	3492
897.466	3420
897.587	3462
897.708	3595
897.828	3511
897.949	3416
898.07	3317
898.19	3424
898.311	3580
898.431	3386
898.552	3504
898.672	3557
898.792	3549
898.913	3515
899.033	3443
899.153	3241
899.273	3199
899.393	3272
899.513	3325
899.633	3272
899.753	3351
899.873	3264
899.993	3355
900.113	3359
900.232	3351
900.352	3313
900.472	3237
900.591	3226
900.711	3275
900.83	3214
900.95	3370
901.069	3507
901.189	3325
901.308	3138
901.427	3108
901.546	3180
901.665	3253
901.784	3313
901.904	3192
902.023	3131
902.141	3013
902.26	2986
902.379	3127
902.498	3081
902.617	3062
902.735	3176
902.854	3237
902.973	3165
903.091	3024
903.21	3077
903.328	3142
903.446	3116
903.565	3081
903.683	3207
903.801	3108
903.919	3249
904.038	3291
904.156	3154
904.274	3306
904.392	3249
904.51	3245
904.627	3317
904.745	3397
904.863	3492
904.981	3275
905.098	3157
905.216	3218
905.334	3291
905.451	3336
905.569	3291
905.686	3462
905.803	3416
905.921	3310
906.038	3454
906.155	3355
906.272	3298
906.389	3355
906.506	3237
906.623	3287
906.74	3291
906.857	3268
906.974	3275
907.091	3515
907.208	3584
907.324	3534
907.441	3409
907.557	3222
907.674	3264
907.79	3241
907.907	3298
908.023	3367
908.139	3359
908.256	3378
908.372	3435
908.488	3370
908.604	3302
908.72	3249
908.836	3268
908.952	3332
909.068	3401
909.184	3538
909.3	3409
909.415	3564
909.531	3504
909.647	3291
909.762	3340
909.878	3302
909.993	3393
910.108	3355
910.224	3355
910.339	3458
910.454	3363
910.57	3332
910.685	3298
910.8	3622
910.915	3584
911.03	3496
911.145	3321
911.259	3298
911.374	3367
911.489	3310
911.604	3268
911.718	3146
911.833	3218
911.947	3104
912.062	3001
912.176	3203
912.291	3230
912.405	3253
912.519	3439
912.633	3477
912.748	3420
912.862	3332
912.976	3218
913.09	3108
913.204	3192
913.318	3241
913.431	3370
913.545	3397
913.659	3405
913.772	3367
913.886	3260
914	3169
914.113	3405
914.226	3447
914.34	3367
914.453	3253
914.566	3481
914.68	3332
914.793	3329
914.906	3154
915.019	3161
915.132	3116
915.245	3207
915.358	3268
915.47	3253
915.583	3325
915.696	3348
915.809	3405
915.921	3439
916.034	3321
916.146	3268
916.259	3241
916.371	3424
916.483	3397
916.595	3310
916.708	3344
916.82	3378
916.932	3386
917.044	3359
917.156	3393
917.268	3291
917.38	3329
917.491	3332
917.603	3412
917.715	3481
917.826	3538
917.938	3416
918.049	3332
918.161	3469
918.272	3614
918.384	3603
918.495	3549
918.606	3367
918.717	3336
918.828	3405
918.939	3435
919.05	3329
919.161	3382
919.272	3203
919.383	3310
919.494	3488
919.604	3720
919.715	3507
919.826	3450
919.936	3523
920.047	3591
920.157	3591
920.267	3736
920.378	3629
920.488	3610
920.598	3819
920.708	3991
920.818	3850
920.928	3812
921.038	4021
921.148	4002
921.258	3717
921.368	3671
921.477	3603
921.587	3591
921.697	3462
921.806	3675
921.916	3576
922.025	3367
922.134	3428
922.244	3348
922.353	3443
922.462	3310
922.571	3264
922.68	3142
922.789	3104
922.898	3157
923.007	3112
923.116	3230
923.224	3165
923.333	3157
923.442	3161
923.55	3097
923.659	3184
923.767	3264
923.876	3142
923.984	3249
924.092	3138
924.201	3233
924.309	3256
924.417	3287
924.525	3245
924.633	3279
924.741	4230
924.849	3062
924.956	3283
925.064	3119
925.172	3043
925.279	3116
925.387	3226
925.494	3230
925.602	3378
925.709	3363
925.816	3207
925.924	3310
926.031	3428
926.138	3344
926.245	3389
926.352	3294
926.459	3443
926.566	3496
926.673	3367
926.779	3287
926.886	3260
926.993	3214
927.099	3169
927.206	3150
927.312	3131
927.419	3298
927.525	3241
927.631	3272
927.737	3188
927.843	3154
927.95	3036
928.056	3165
928.162	3165
928.267	3294
928.373	3873
928.479	3348
928.585	3108
928.69	3241
928.796	3310
928.901	3222
929.007	3085
929.112	3233
929.218	3188
929.323	3188
929.428	3135
929.533	3363
929.638	3142
929.743	3230
929.848	3260
929.953	3272
930.058	3207
930.163	3036
930.267	3055
930.372	3222
930.477	3100
930.581	3348
930.685	3214
930.79	3081
930.894	3150
930.998	3089
931.103	3325
931.207	2998
931.311	2960
931.415	2933
931.519	2804
931.623	2838
