Data from test_V78500241_1005.txt Node
Date: Fri Mar 25 16:22:09 CST 2022
User: usil
Spectrometer: V785-0024
Trigger mode: 0
Integration Time (sec): 4.000000E-1
Scans to average: 1
Nonlinearity correction enabled: false
Boxcar width: 0
Storing dark spectrum: false
XAxis mode: Wavelengths
Number of Pixels in Spectrum: 1024
>>>>>Begin Spectral Data<<<<<
801.071	2925
801.214	2971
801.356	2899
801.499	2910
801.641	2937
801.783	2963
801.926	3108
802.068	2971
802.211	3017
802.353	3043
802.496	2994
802.638	3051
802.78	3097
802.923	3119
803.065	3020
803.208	2937
803.35	2929
803.492	2986
803.635	2937
803.777	2781
803.919	2887
804.061	3218
804.204	2971
804.346	2971
804.488	2872
804.63	3017
804.773	2864
804.915	2952
805.057	3097
805.199	2941
805.341	2986
805.483	3039
805.626	3005
805.768	2994
805.91	3131
806.052	3097
806.194	3039
806.336	3272
806.478	3058
806.62	3009
806.762	3009
806.904	3093
807.046	3192
807.188	3032
807.33	2960
807.472	2994
807.614	2933
807.756	3013
807.898	2975
808.04	2902
808.182	3005
808.324	2986
808.465	2876
808.607	2883
808.749	2815
808.891	2876
809.033	2979
809.174	2998
809.316	2902
809.458	2906
809.6	2819
809.741	2807
809.883	2792
810.025	2910
810.166	2857
810.308	2834
810.45	2868
810.591	2804
810.733	2766
810.875	2868
811.016	2792
811.158	2773
811.299	2834
811.441	2967
811.582	2902
811.724	2853
811.865	2849
812.007	2952
812.148	2895
812.29	2876
812.431	2914
812.573	2971
812.714	2952
812.855	3039
812.997	3085
813.138	3127
813.279	3017
813.421	3017
813.562	2998
813.703	2914
813.845	2891
813.986	2785
814.127	2739
814.268	2845
814.41	2834
814.551	2861
814.692	2895
814.833	2807
814.974	2918
815.115	2979
815.256	2842
815.397	2857
815.539	2872
815.68	2766
815.821	2819
815.962	2963
816.103	2914
816.244	2864
816.385	2883
816.526	3001
816.666	2986
816.807	2781
816.948	2891
817.089	2944
817.23	2868
817.371	2800
817.512	2811
817.653	2891
817.793	2834
817.934	2937
818.075	2979
818.216	3062
818.356	3039
818.497	2906
818.638	2792
818.778	2845
818.919	2785
819.06	2781
819.2	2895
819.341	2804
819.481	2811
819.622	2975
819.762	3146
819.903	3043
820.043	2944
820.184	2922
820.324	2887
820.465	3032
820.605	3043
820.746	3043
820.886	2956
821.026	3112
821.167	3154
821.307	3260
821.447	3302
821.588	3279
821.728	3218
821.868	3214
822.008	3097
822.149	3222
822.289	3218
822.429	3093
822.569	3032
822.709	3161
822.849	3024
822.99	3127
823.13	3218
823.27	3245
823.41	3116
823.55	3146
823.69	3142
823.83	3195
823.97	3119
824.11	3017
824.25	2971
824.389	3074
824.529	3062
824.669	3077
824.809	3203
824.949	3268
825.089	3214
825.228	3176
825.368	3009
825.508	2952
825.648	2986
825.787	3047
825.927	3043
826.067	2982
826.206	2994
826.346	3036
826.485	3104
826.625	3119
826.765	3294
826.904	3199
827.044	3001
827.183	2944
827.323	2868
827.462	3020
827.601	2929
827.741	2910
827.88	2975
828.02	2823
828.159	2967
828.298	3017
828.437	3123
828.577	3032
828.716	3249
828.855	3085
828.994	2941
829.134	2929
829.273	2902
829.412	2842
829.551	2853
829.69	2925
829.829	2979
829.968	3100
830.107	3017
830.246	3020
830.385	2914
830.524	2883
830.663	2815
830.802	2727
830.941	2678
831.08	2670
831.219	2769
831.357	2746
831.496	2929
831.635	2727
831.774	2629
831.913	2674
832.051	2564
832.19	2594
832.329	2667
832.467	2552
832.606	2511
832.744	2590
832.883	2583
833.022	2568
833.16	2674
833.299	2720
833.437	2724
833.576	2708
833.714	2758
833.852	2746
833.991	2785
834.129	2872
834.267	2826
834.406	2807
834.544	2910
834.682	2887
834.821	2922
834.959	3043
835.097	2922
835.235	3081
835.373	3039
835.511	3017
835.65	2990
835.788	2982
835.926	2853
836.064	2830
836.202	2868
836.34	3116
836.478	3161
836.615	3070
836.753	3165
836.891	3195
837.029	3157
837.167	3108
837.305	3066
837.443	3047
837.58	2971
837.718	3150
837.856	3085
837.993	3009
838.131	3108
838.269	3104
838.406	3081
838.544	3127
838.681	2975
838.819	2929
838.956	2811
839.094	2853
839.231	2914
839.369	3032
839.506	3348
839.643	3226
839.781	3062
839.918	2963
840.055	3051
840.193	3058
840.33	3024
840.467	3100
840.604	3146
840.742	3439
840.879	3024
841.016	3066
841.153	3135
841.29	3340
841.427	3291
841.564	3268
841.701	3313
841.838	3245
841.975	3207
842.112	3203
842.249	3089
842.385	3066
842.522	3260
842.659	3074
842.796	3062
842.933	3108
843.069	3058
843.206	3047
843.343	3207
843.479	3081
843.616	3142
843.752	2887
843.889	2830
844.025	3085
844.162	2918
844.298	3093
844.435	2963
844.571	2929
844.708	3119
844.844	3184
844.98	3249
845.117	3195
845.253	3020
845.389	3017
845.525	3085
845.661	3108
845.798	3039
845.934	3112
846.07	3047
846.206	3203
846.342	3340
846.478	3253
846.614	3070
846.75	3047
846.886	3047
847.022	3275
847.158	3154
847.294	3188
847.429	3241
847.565	3245
847.701	3511
847.837	3074
847.972	3017
848.108	3150
848.244	3180
848.379	2979
848.515	2948
848.65	2944
848.786	2948
848.921	3024
849.057	3108
849.192	3127
849.328	3055
849.463	3085
849.598	3055
849.734	3020
849.869	2982
850.004	2925
850.14	2979
850.275	2914
850.41	2853
850.545	2876
850.68	2956
850.815	2914
850.95	2956
851.085	3211
851.22	3070
851.355	3032
851.49	2994
851.625	3005
851.76	3005
851.895	2925
852.03	2902
852.165	3039
852.299	3108
852.434	3203
852.569	3173
852.703	3154
852.838	3241
852.973	3317
853.107	3325
853.242	3150
853.376	3127
853.511	2979
853.645	3058
853.78	3203
853.914	3093
854.048	3070
854.183	3104
854.317	3104
854.451	3291
854.585	3154
854.72	3074
854.854	3241
854.988	3070
855.122	3104
855.256	2990
855.39	3154
855.524	3233
855.658	3154
855.792	3161
855.926	3195
856.06	3199
856.194	3245
856.327	3131
856.461	3100
856.595	3100
856.729	3123
856.862	3207
856.996	3211
857.13	3195
857.263	3226
857.397	3298
857.53	3108
857.664	3203
857.797	3253
857.931	3230
858.064	3184
858.197	3222
858.331	3150
858.464	3070
858.597	3009
858.731	3085
858.864	3127
858.997	3104
859.13	3176
859.263	3135
859.396	3180
859.529	3081
859.662	3093
859.795	3066
859.928	3131
860.061	3253
860.194	3294
860.327	3131
860.46	3123
860.592	3218
860.725	3230
860.858	3237
860.99	3108
861.123	3062
861.256	3051
861.388	3116
861.521	3778
861.653	3009
861.786	2990
861.918	3020
862.05	3058
862.183	3100
862.315	3135
862.447	3188
862.58	3081
862.712	2937
862.844	2880
862.976	3028
863.108	2994
863.24	3450
863.372	2899
863.504	2986
863.636	2948
863.768	3032
863.9	3013
864.032	2933
864.164	2925
864.296	3024
864.428	3085
864.559	3104
864.691	3039
864.823	3074
864.954	2994
865.086	3043
865.217	2990
865.349	2952
865.48	2998
865.612	3009
865.743	3203
865.875	2975
866.006	2937
866.137	2990
866.269	2952
866.4	2948
866.531	2883
866.662	2902
866.793	2883
866.924	2891
867.055	2982
867.186	2960
867.317	2891
867.448	2838
867.579	2853
867.71	2842
867.841	2842
867.972	2902
868.103	2887
868.233	2868
868.364	2853
868.495	2895
868.625	3066
868.756	3173
868.886	2960
869.017	2998
869.147	3127
869.278	3142
869.408	3024
869.539	3001
869.669	3112
869.799	3055
869.929	3135
870.06	3093
870.19	3355
870.32	3264
870.45	3275
870.58	3363
870.71	3450
870.84	3481
870.97	3291
871.1	3241
871.23	3443
871.36	3416
871.489	3325
871.619	3386
871.749	3416
871.879	3424
872.008	3492
872.138	3370
872.267	3283
872.397	3157
872.526	3066
872.656	2986
872.785	3070
872.915	3222
873.044	3294
873.173	3207
873.303	3253
873.432	3245
873.561	3245
873.69	3192
873.819	3192
873.948	3161
874.077	3116
874.206	3005
874.335	3100
874.464	3195
874.593	3344
874.722	3256
874.851	3393
874.979	3329
875.108	3310
875.237	3188
875.365	3150
875.494	3119
875.623	3249
875.751	3123
875.88	3116
876.008	3203
876.136	3214
876.265	3367
876.393	3519
876.521	3439
876.65	3409
876.778	3317
876.906	3249
877.034	3203
877.162	3268
877.29	3199
877.418	3249
877.546	3222
877.674	3272
877.802	3249
877.93	3222
878.058	3169
878.185	3104
878.313	3199
878.441	3188
878.568	3066
878.696	3165
878.824	3199
878.951	3302
879.079	3435
879.206	3614
879.333	3428
879.461	3325
879.588	3336
879.715	3477
879.842	3606
879.97	3382
880.097	3135
880.224	3097
880.351	3184
880.478	3253
880.605	3218
880.732	3199
880.859	3462
880.986	3272
881.112	3287
881.239	3192
881.366	3135
881.493	3020
881.619	2986
881.746	3081
881.872	3131
881.999	3062
882.125	3138
882.252	3233
882.378	3268
882.505	3420
882.631	3302
882.757	3127
882.883	3245
883.01	3226
883.136	3180
883.262	3100
883.388	3108
883.514	3302
883.64	3367
883.766	3325
883.892	3214
884.018	3260
884.143	3412
884.269	3584
884.395	3195
884.52	3154
884.646	3195
884.772	3135
884.897	3070
885.023	3176
885.148	3336
885.274	3389
885.399	3321
885.524	3287
885.65	3260
885.775	3310
885.9	3253
886.025	3443
886.15	3367
886.275	3294
886.4	3211
886.525	3317
886.65	3298
886.775	3283
886.9	3523
887.025	3618
887.149	3389
887.274	3260
887.399	3188
887.523	3203
887.648	3184
887.773	3161
887.897	3336
888.021	3401
888.146	3298
888.27	3454
888.395	3553
888.519	3450
888.643	3454
888.767	3473
888.891	3279
889.015	3253
889.139	3294
889.263	3211
889.387	3378
889.511	3530
889.635	3450
889.759	3279
889.883	3313
890.006	3382
890.13	3477
890.254	3264
890.377	3340
890.501	3214
890.624	3184
890.748	3294
890.871	3188
890.995	3081
891.118	3089
891.241	3207
891.364	3211
891.488	3348
891.611	3127
891.734	3192
891.857	3302
891.98	3260
892.103	3332
892.226	3279
892.349	3211
892.471	3077
892.594	3222
892.717	3294
892.839	3268
892.962	3321
893.085	3348
893.207	3272
893.33	3123
893.452	3203
893.575	3325
893.697	3249
893.819	3439
893.941	3545
894.064	3488
894.186	3268
894.308	3249
894.43	3393
894.552	3542
894.674	3462
894.796	3283
894.918	3329
895.04	3264
895.161	3447
895.283	3397
895.405	3302
895.526	3359
895.648	3405
895.769	3397
895.891	3458
896.012	3435
896.134	3458
896.255	3420
896.376	3412
896.498	3370
896.619	3424
896.74	3409
896.861	3378
896.982	3644
897.103	3850
897.224	3599
897.345	3523
897.466	3405
897.587	3496
897.708	3584
897.828	3553
897.949	3431
898.07	3340
898.19	3416
898.311	3580
898.431	3443
898.552	3553
898.672	3614
898.792	3587
898.913	3538
899.033	3412
899.153	3283
899.273	3264
899.393	3275
899.513	3359
899.633	3332
899.753	3332
899.873	3317
899.993	3382
900.113	3332
900.232	3355
900.352	3351
900.472	3268
900.591	3214
900.711	3260
900.83	3184
900.95	3378
901.069	3496
901.189	3367
901.308	3226
901.427	3104
901.546	3150
901.665	3233
901.784	3344
901.904	3195
902.023	3157
902.141	2998
902.26	3001
902.379	3131
902.498	3081
902.617	3051
902.735	3173
902.854	3218
902.973	3176
903.091	3005
903.21	3066
903.328	3142
903.446	3119
903.565	3097
903.683	3211
903.801	3138
903.919	3260
904.038	3302
904.156	3188
904.274	3268
904.392	3264
904.51	3264
904.627	3310
904.745	3428
904.863	3462
904.981	3233
905.098	3165
905.216	3218
905.334	3268
905.451	3241
905.569	3313
905.686	3435
905.803	3469
905.921	3325
906.038	3439
906.155	3329
906.272	3287
906.389	3298
906.506	3249
906.623	3283
906.74	3283
906.857	3207
906.974	3237
907.091	3439
907.208	3568
907.324	3507
907.441	3359
907.557	3226
907.674	3249
907.79	3222
907.907	3317
908.023	3382
908.139	3340
908.256	3336
908.372	3332
908.488	3378
908.604	3279
908.72	3218
908.836	3306
908.952	3302
909.068	3344
909.184	3458
909.3	3412
909.415	3496
909.531	3466
909.647	3249
909.762	3298
909.878	3253
909.993	3348
910.108	3386
910.224	3348
910.339	3420
910.454	3310
910.57	3291
910.685	3256
910.8	3564
910.915	3534
911.03	3454
911.145	3233
911.259	3279
911.374	3310
911.489	3237
911.604	3218
911.718	3116
911.833	3146
911.947	3055
912.062	2979
912.176	3157
912.291	3230
912.405	3199
912.519	3439
912.633	3481
912.748	3310
912.862	3256
912.976	3188
913.09	3062
913.204	3131
913.318	3249
913.431	3351
913.545	3325
913.659	3389
913.772	3321
913.886	3226
914	3241
914.113	3348
914.226	3397
914.34	3389
914.453	3195
914.566	3393
914.68	3283
914.793	3291
914.906	3157
915.019	3135
915.132	3058
915.245	3169
915.358	3222
915.47	3222
915.583	3283
915.696	3294
915.809	3405
915.921	3393
916.034	3260
916.146	3245
916.259	3203
916.371	3386
916.483	3336
916.595	3268
916.708	3336
916.82	3313
916.932	3348
917.044	3332
917.156	3329
917.268	3264
917.38	3287
917.491	3291
917.603	3359
917.715	3454
917.826	3447
917.938	3367
918.049	3249
918.161	3447
918.272	3576
918.384	3572
918.495	3477
918.606	3340
918.717	3302
918.828	3367
918.939	3428
919.05	3275
919.161	3344
919.272	3169
919.383	3264
919.494	3523
919.604	3701
919.715	3473
919.826	3386
919.936	3500
920.047	3587
920.157	3530
920.267	3732
920.378	3572
920.488	3561
920.598	3770
920.708	3941
920.818	3774
920.928	3819
921.038	4013
921.148	3964
921.258	3694
921.368	3614
921.477	3595
921.587	3504
921.697	3435
921.806	3580
921.916	3523
922.025	3332
922.134	3329
922.244	3321
922.353	3389
922.462	3275
922.571	3203
922.68	3135
922.789	3093
922.898	3108
923.007	3100
923.116	3199
923.224	3150
923.333	3218
923.442	3104
923.55	3093
923.659	3165
923.767	3203
923.876	3077
923.984	3256
924.092	3108
924.201	3176
924.309	3207
924.417	3245
924.525	3192
924.633	3272
924.741	4166
924.849	3047
924.956	3241
925.064	3119
925.172	3043
925.279	3089
925.387	3192
925.494	3222
925.602	3363
925.709	3321
925.816	3218
925.924	3249
926.031	3355
926.138	3321
926.245	3370
926.352	3222
926.459	3389
926.566	3473
926.673	3325
926.779	3245
926.886	3245
926.993	3138
927.099	3123
927.206	3119
927.312	3089
927.419	3222
927.525	3211
927.631	3279
927.737	3123
927.843	3142
927.95	3058
928.056	3157
928.162	3169
928.267	3218
928.373	3857
928.479	3317
928.585	3070
928.69	3233
928.796	3256
928.901	3154
929.007	3036
929.112	3184
929.218	3169
929.323	3154
929.428	3150
929.533	3348
929.638	3123
929.743	3169
929.848	3256
929.953	3256
930.058	3173
930.163	2986
930.267	3066
930.372	3203
930.477	3009
930.581	3340
930.685	3150
930.79	3077
930.894	3116
930.998	3074
931.103	3256
931.207	2952
931.311	2918
931.415	2925
931.519	2743
931.623	2842
