Data from test_V78500241_1487.txt Node
Date: Fri Mar 25 16:25:30 CST 2022
User: usil
Spectrometer: V785-0024
Trigger mode: 0
Integration Time (sec): 4.000000E-1
Scans to average: 1
Nonlinearity correction enabled: false
Boxcar width: 0
Storing dark spectrum: false
XAxis mode: Wavelengths
Number of Pixels in Spectrum: 1024
>>>>>Begin Spectral Data<<<<<
801.071	2891
801.214	2948
801.356	2868
801.499	2868
801.641	2887
801.783	2880
801.926	3036
802.068	2960
802.211	3013
802.353	3032
802.496	2982
802.638	3051
802.78	3043
802.923	3036
803.065	2979
803.208	2906
803.35	2914
803.492	2944
803.635	2937
803.777	2758
803.919	2864
804.061	3218
804.204	2960
804.346	2929
804.488	2823
804.63	2975
804.773	2883
804.915	2906
805.057	3066
805.199	2929
805.341	2956
805.483	3074
805.626	3001
805.768	2994
805.91	3074
806.052	3055
806.194	3009
806.336	3249
806.478	2986
806.62	2948
806.762	2975
806.904	3070
807.046	3180
807.188	2956
807.33	2895
807.472	2963
807.614	2902
807.756	2967
807.898	2948
808.04	2872
808.182	2971
808.324	2952
808.465	2887
808.607	2853
808.749	2804
808.891	2826
809.033	2948
809.174	2971
809.316	2883
809.458	2880
809.6	2739
809.741	2727
809.883	2739
810.025	2853
810.166	2853
810.308	2842
810.45	2842
810.591	2796
810.733	2769
810.875	2842
811.016	2762
811.158	2781
811.299	2804
811.441	2929
811.582	2902
811.724	2838
811.865	2838
812.007	2914
812.148	2887
812.29	2849
812.431	2895
812.573	2944
812.714	2971
812.855	3077
812.997	3043
813.138	3104
813.279	3032
813.421	2982
813.562	2967
813.703	2891
813.845	2868
813.986	2758
814.127	2746
814.268	2792
814.41	2872
814.551	2804
814.692	2872
814.833	2823
814.974	2887
815.115	2948
815.256	2823
815.397	2796
815.539	2838
815.68	2777
815.821	2800
815.962	2960
816.103	2944
816.244	2891
816.385	2842
816.526	2948
816.666	2937
816.807	2758
816.948	2872
817.089	2872
817.23	2849
817.371	2788
817.512	2777
817.653	2842
817.793	2849
817.934	2902
818.075	3005
818.216	2998
818.356	3005
818.497	2872
818.638	2773
818.778	2826
818.919	2819
819.06	2727
819.2	2883
819.341	2777
819.481	2788
819.622	2914
819.762	3077
819.903	3039
820.043	2925
820.184	2891
820.324	2902
820.465	3001
820.605	2990
820.746	3013
820.886	2895
821.026	3089
821.167	3165
821.307	3226
821.447	3287
821.588	3272
821.728	3165
821.868	3154
822.008	3074
822.149	3169
822.289	3214
822.429	3085
822.569	3093
822.709	3173
822.849	3001
822.99	3058
823.13	3173
823.27	3180
823.41	3097
823.55	3138
823.69	3127
823.83	3188
823.97	3100
824.11	3001
824.25	3020
824.389	3055
824.529	3100
824.669	3047
824.809	3157
824.949	3233
825.089	3173
825.228	3157
825.368	3013
825.508	2975
825.648	2956
825.787	2979
825.927	3001
826.067	2975
826.206	2956
826.346	3058
826.485	3100
826.625	3108
826.765	3283
826.904	3222
827.044	2948
827.183	2963
827.323	2861
827.462	2979
827.601	2902
827.741	2929
827.88	2967
828.02	2872
828.159	2963
828.298	3036
828.437	3116
828.577	3051
828.716	3199
828.855	3070
828.994	2967
829.134	2876
829.273	2914
829.412	2891
829.551	2876
829.69	2887
829.829	2982
829.968	3085
830.107	3013
830.246	2998
830.385	2895
830.524	2876
830.663	2834
830.802	2735
830.941	2651
831.08	2632
831.219	2769
831.357	2769
831.496	2937
831.635	2731
831.774	2655
831.913	2689
832.051	2549
832.19	2571
832.329	2670
832.467	2552
832.606	2488
832.744	2575
832.883	2606
833.022	2583
833.16	2648
833.299	2674
833.437	2693
833.576	2716
833.714	2727
833.852	2796
833.991	2762
834.129	2788
834.267	2823
834.406	2785
834.544	2838
834.682	2842
834.821	2864
834.959	3043
835.097	2880
835.235	3043
835.373	2963
835.511	2994
835.65	2979
835.788	2944
835.926	2830
836.064	2796
836.202	2838
836.34	3089
836.478	3108
836.615	3058
836.753	3135
836.891	3157
837.029	3161
837.167	3089
837.305	3066
837.443	3020
837.58	2979
837.718	3112
837.856	3051
837.993	3055
838.131	3108
838.269	3127
838.406	3116
838.544	3070
838.681	2937
838.819	2895
838.956	2807
839.094	2823
839.231	2910
839.369	2990
839.506	3351
839.643	3245
839.781	3051
839.918	2922
840.055	3017
840.193	3020
840.33	3039
840.467	3093
840.604	3138
840.742	3447
840.879	3043
841.016	3047
841.153	3097
841.29	3344
841.427	3283
841.564	3253
841.701	3325
841.838	3192
841.975	3165
842.112	3241
842.249	3123
842.385	3051
842.522	3249
842.659	3032
842.796	3043
842.933	3100
843.069	3036
843.206	3039
843.343	3195
843.479	3157
843.616	3146
843.752	2918
843.889	2861
844.025	3066
844.162	2864
844.298	3058
844.435	2944
844.571	2887
844.708	3081
844.844	3203
844.98	3214
845.117	3192
845.253	3028
845.389	2990
845.525	3123
845.661	3058
845.798	3020
845.934	3123
846.07	3043
846.206	3184
846.342	3287
846.478	3241
846.614	3077
846.75	3039
846.886	2986
847.022	3233
847.158	3123
847.294	3176
847.429	3226
847.565	3207
847.701	3469
847.837	3039
847.972	2963
848.108	3161
848.244	3116
848.379	2994
848.515	2956
848.65	2914
848.786	2979
848.921	2971
849.057	3108
849.192	3112
849.328	3081
849.463	3127
849.598	3036
849.734	3005
849.869	3001
850.004	2895
850.14	2967
850.275	2864
850.41	2849
850.545	2933
850.68	2948
850.815	2952
850.95	2929
851.085	3157
851.22	3085
851.355	3032
851.49	2960
851.625	3032
851.76	3020
851.895	2933
852.03	2948
852.165	2967
852.299	3070
852.434	3199
852.569	3127
852.703	3199
852.838	3264
852.973	3321
853.107	3298
853.242	3173
853.376	3104
853.511	2979
853.645	3028
853.78	3211
853.914	3131
854.048	3089
854.183	3085
854.317	3077
854.451	3287
854.585	3135
854.72	3066
854.854	3214
854.988	3097
855.122	3058
855.256	2956
855.39	3135
855.524	3233
855.658	3165
855.792	3154
855.926	3169
856.06	3226
856.194	3253
856.327	3157
856.461	3093
856.595	3062
856.729	3089
856.862	3192
856.996	3119
857.13	3176
857.263	3207
857.397	3260
857.53	3131
857.664	3199
857.797	3245
857.931	3226
858.064	3192
858.197	3188
858.331	3146
858.464	3108
858.597	3017
858.731	3112
858.864	3154
858.997	3074
859.13	3165
859.263	3176
859.396	3207
859.529	3077
859.662	3093
859.795	3001
859.928	3135
860.061	3291
860.194	3230
860.327	3119
860.46	3043
860.592	3211
860.725	3249
860.858	3230
860.99	3123
861.123	3047
861.256	3017
861.388	3112
861.521	3850
861.653	3013
861.786	2982
861.918	2998
862.05	3089
862.183	3085
862.315	3161
862.447	3180
862.58	3077
862.712	2918
862.844	2861
862.976	2975
863.108	2986
863.24	3279
863.372	2872
863.504	2971
863.636	2906
863.768	2990
863.9	2941
864.032	2929
864.164	2956
864.296	3017
864.428	3089
864.559	3123
864.691	3070
864.823	3055
864.954	3047
865.086	3047
865.217	2979
865.349	2982
865.48	2979
865.612	3028
865.743	3119
865.875	3009
866.006	2937
866.137	2971
866.269	2933
866.4	2956
866.531	2925
866.662	2845
866.793	2880
866.924	2895
867.055	2925
867.186	2922
867.317	2895
867.448	2864
867.579	2838
867.71	2842
867.841	2811
867.972	2914
868.103	2864
868.233	2887
868.364	2872
868.495	2929
868.625	3077
868.756	3169
868.886	2979
869.017	2982
869.147	3146
869.278	3131
869.408	3047
869.539	3009
869.669	3066
869.799	3005
869.929	3150
870.06	3100
870.19	3317
870.32	3275
870.45	3275
870.58	3370
870.71	3428
870.84	3443
870.97	3317
871.1	3230
871.23	3477
871.36	3412
871.489	3348
871.619	3420
871.749	3431
871.879	3367
872.008	3488
872.138	3321
872.267	3253
872.397	3146
872.526	3085
872.656	2986
872.785	3093
872.915	3214
873.044	3321
873.173	3222
873.303	3207
873.432	3260
873.561	3245
873.69	3123
873.819	3112
873.948	3161
874.077	3047
874.206	3036
874.335	3062
874.464	3249
874.593	3306
874.722	3233
874.851	3367
874.979	3370
875.108	3317
875.237	3188
875.365	3146
875.494	3135
875.623	3241
875.751	3081
875.88	3119
876.008	3226
876.136	3207
876.265	3389
876.393	3526
876.521	3412
876.65	3401
876.778	3332
876.906	3268
877.034	3184
877.162	3222
877.29	3188
877.418	3233
877.546	3218
877.674	3222
877.802	3218
877.93	3260
878.058	3127
878.185	3062
878.313	3173
878.441	3211
878.568	3077
878.696	3154
878.824	3207
878.951	3321
879.079	3454
879.206	3614
879.333	3386
879.461	3313
879.588	3367
879.715	3458
879.842	3580
879.97	3416
880.097	3135
880.224	3127
880.351	3188
880.478	3230
880.605	3230
880.732	3161
880.859	3481
880.986	3294
881.112	3348
881.239	3199
881.366	3077
881.493	3017
881.619	2994
881.746	3058
881.872	3085
881.999	3116
882.125	3165
882.252	3272
882.378	3306
882.505	3405
882.631	3275
882.757	3135
882.883	3211
883.01	3237
883.136	3108
883.262	3089
883.388	3119
883.514	3317
883.64	3367
883.766	3298
883.892	3199
884.018	3207
884.143	3431
884.269	3580
884.395	3230
884.52	3157
884.646	3169
884.772	3131
884.897	3055
885.023	3161
885.148	3294
885.274	3420
885.399	3344
885.524	3264
885.65	3275
885.775	3332
885.9	3275
886.025	3409
886.15	3363
886.275	3332
886.4	3222
886.525	3313
886.65	3275
886.775	3317
886.9	3526
887.025	3652
887.149	3412
887.274	3222
887.399	3192
887.523	3207
887.648	3173
887.773	3176
887.897	3374
888.021	3397
888.146	3249
888.27	3393
888.395	3530
888.519	3428
888.643	3447
888.767	3462
888.891	3329
889.015	3275
889.139	3291
889.263	3256
889.387	3393
889.511	3496
889.635	3473
889.759	3245
889.883	3302
890.006	3382
890.13	3466
890.254	3249
890.377	3302
890.501	3211
890.624	3180
890.748	3287
890.871	3161
890.995	3119
891.118	3062
891.241	3203
891.364	3195
891.488	3310
891.611	3161
891.734	3233
891.857	3291
891.98	3249
892.103	3298
892.226	3230
892.349	3218
892.471	3074
892.594	3256
892.717	3268
892.839	3275
892.962	3268
893.085	3344
893.207	3260
893.33	3112
893.452	3157
893.575	3363
893.697	3256
893.819	3431
893.941	3504
894.064	3409
894.186	3260
894.308	3245
894.43	3462
894.552	3572
894.674	3492
894.796	3245
894.918	3275
895.04	3275
895.161	3439
895.283	3348
895.405	3298
895.526	3370
895.648	3393
895.769	3447
895.891	3450
896.012	3431
896.134	3447
896.255	3416
896.376	3374
896.498	3348
896.619	3435
896.74	3378
896.861	3386
896.982	3682
897.103	3838
897.224	3591
897.345	3504
897.466	3428
897.587	3485
897.708	3576
897.828	3603
897.949	3439
898.07	3298
898.19	3374
898.311	3568
898.431	3511
898.552	3496
898.672	3580
898.792	3584
898.913	3481
899.033	3416
899.153	3306
899.273	3226
899.393	3264
899.513	3302
899.633	3291
899.753	3340
899.873	3306
899.993	3332
900.113	3310
900.232	3386
900.352	3332
900.472	3298
900.591	3188
900.711	3291
900.83	3199
900.95	3435
901.069	3538
901.189	3374
901.308	3173
901.427	3119
901.546	3188
901.665	3279
901.784	3313
901.904	3214
902.023	3077
902.141	2963
902.26	2990
902.379	3119
902.498	3043
902.617	3062
902.735	3188
902.854	3241
902.973	3207
903.091	3024
903.21	3039
903.328	3127
903.446	3131
903.565	3104
903.683	3203
903.801	3100
903.919	3211
904.038	3291
904.156	3169
904.274	3264
904.392	3245
904.51	3272
904.627	3291
904.745	3405
904.863	3519
904.981	3241
905.098	3157
905.216	3207
905.334	3287
905.451	3294
905.569	3268
905.686	3405
905.803	3454
905.921	3272
906.038	3435
906.155	3370
906.272	3253
906.389	3298
906.506	3188
906.623	3253
906.74	3272
906.857	3157
906.974	3275
907.091	3447
907.208	3557
907.324	3454
907.441	3351
907.557	3180
907.674	3211
907.79	3184
907.907	3256
908.023	3374
908.139	3351
908.256	3294
908.372	3401
908.488	3355
908.604	3226
908.72	3233
908.836	3264
908.952	3249
909.068	3325
909.184	3492
909.3	3393
909.415	3477
909.531	3405
909.647	3241
909.762	3306
909.878	3256
909.993	3367
910.108	3329
910.224	3306
910.339	3397
910.454	3359
910.57	3260
910.685	3275
910.8	3526
910.915	3549
911.03	3405
911.145	3226
911.259	3291
911.374	3256
911.489	3211
911.604	3237
911.718	3135
911.833	3161
911.947	3028
912.062	2952
912.176	3154
912.291	3226
912.405	3184
912.519	3416
912.633	3466
912.748	3317
912.862	3222
912.976	3161
913.09	3093
913.204	3112
913.318	3199
913.431	3321
913.545	3310
913.659	3370
913.772	3298
913.886	3188
914	3222
914.113	3306
914.226	3431
914.34	3332
914.453	3176
914.566	3382
914.68	3306
914.793	3321
914.906	3131
915.019	3108
915.132	3051
915.245	3131
915.358	3173
915.47	3256
915.583	3249
915.696	3264
915.809	3405
915.921	3431
916.034	3291
916.146	3237
916.259	3253
916.371	3409
916.483	3367
916.595	3283
916.708	3344
916.82	3363
916.932	3359
917.044	3378
917.156	3351
917.268	3245
917.38	3344
917.491	3275
917.603	3393
917.715	3454
917.826	3458
917.938	3397
918.049	3283
918.161	3443
918.272	3633
918.384	3610
918.495	3523
918.606	3355
918.717	3287
918.828	3382
918.939	3428
919.05	3351
919.161	3405
919.272	3214
919.383	3310
919.494	3523
919.604	3713
919.715	3523
919.826	3454
919.936	3485
920.047	3614
920.157	3584
920.267	3793
920.378	3633
920.488	3622
920.598	3827
920.708	3991
920.818	3896
920.928	3861
921.038	3983
921.148	4063
921.258	3705
921.368	3656
921.477	3633
921.587	3549
921.697	3488
921.806	3682
921.916	3561
922.025	3447
922.134	3393
922.244	3344
922.353	3466
922.462	3291
922.571	3249
922.68	3150
922.789	3108
922.898	3192
923.007	3142
923.116	3241
923.224	3211
923.333	3214
923.442	3097
923.55	3116
923.659	3184
923.767	3268
923.876	3165
923.984	3275
924.092	3157
924.201	3230
924.309	3283
924.417	3298
924.525	3245
924.633	3294
924.741	4211
924.849	3070
924.956	3279
925.064	3161
925.172	3100
925.279	3097
925.387	3207
925.494	3230
925.602	3367
925.709	3336
925.816	3249
925.924	3313
926.031	3466
926.138	3355
926.245	3420
926.352	3298
926.459	3462
926.566	3488
926.673	3359
926.779	3321
926.886	3294
926.993	3184
927.099	3203
927.206	3173
927.312	3154
927.419	3249
927.525	3256
927.631	3294
927.737	3195
927.843	3146
927.95	3074
928.056	3203
928.162	3180
928.267	3317
928.373	3816
928.479	3329
928.585	3116
928.69	3245
928.796	3317
928.901	3161
929.007	3116
929.112	3218
929.218	3222
929.323	3195
929.428	3157
929.533	3332
929.638	3127
929.743	3180
929.848	3272
929.953	3272
930.058	3207
930.163	3032
930.267	3112
930.372	3230
930.477	3043
930.581	3348
930.685	3188
930.79	3093
930.894	3188
930.998	3154
931.103	3348
931.207	2979
931.311	2979
931.415	2944
931.519	2830
931.623	2845
