Data from test_V78500241_1149.txt Node
Date: Fri Mar 25 16:23:09 CST 2022
User: usil
Spectrometer: V785-0024
Trigger mode: 0
Integration Time (sec): 4.000000E-1
Scans to average: 1
Nonlinearity correction enabled: false
Boxcar width: 0
Storing dark spectrum: false
XAxis mode: Wavelengths
Number of Pixels in Spectrum: 1024
>>>>>Begin Spectral Data<<<<<
801.071	2922
801.214	2963
801.356	2876
801.499	2861
801.641	2861
801.783	2914
801.926	3032
802.068	2967
802.211	2982
802.353	3028
802.496	2994
802.638	3039
802.78	3017
802.923	3055
803.065	3024
803.208	2883
803.35	2925
803.492	2906
803.635	2899
803.777	2758
803.919	2834
804.061	3176
804.204	2933
804.346	2891
804.488	2830
804.63	2979
804.773	2849
804.915	2861
805.057	3081
805.199	2910
805.341	2944
805.483	3013
805.626	2990
805.768	2937
805.91	3066
806.052	3074
806.194	3036
806.336	3245
806.478	3036
806.62	2941
806.762	2960
806.904	3074
807.046	3154
807.188	2982
807.33	2944
807.472	2929
807.614	2914
807.756	2982
807.898	2944
808.04	2887
808.182	2922
808.324	2941
808.465	2883
808.607	2883
808.749	2777
808.891	2811
809.033	2979
809.174	2948
809.316	2887
809.458	2910
809.6	2758
809.741	2785
809.883	2739
810.025	2845
810.166	2842
810.308	2811
810.45	2853
810.591	2758
810.733	2781
810.875	2834
811.016	2796
811.158	2724
811.299	2811
811.441	2937
811.582	2899
811.724	2807
811.865	2811
812.007	2906
812.148	2868
812.29	2849
812.431	2895
812.573	2948
812.714	2967
812.855	3005
812.997	3043
813.138	3116
813.279	3047
813.421	2948
813.562	2944
813.703	2887
813.845	2887
813.986	2769
814.127	2712
814.268	2845
814.41	2830
814.551	2777
814.692	2857
814.833	2811
814.974	2887
815.115	2918
815.256	2823
815.397	2777
815.539	2834
815.68	2746
815.821	2777
815.962	2952
816.103	2941
816.244	2868
816.385	2902
816.526	2956
816.666	2941
816.807	2720
816.948	2876
817.089	2880
817.23	2853
817.371	2777
817.512	2766
817.653	2807
817.793	2811
817.934	2868
818.075	2952
818.216	2944
818.356	3036
818.497	2883
818.638	2754
818.778	2811
818.919	2785
819.06	2743
819.2	2883
819.341	2830
819.481	2792
819.622	2941
819.762	3089
819.903	3055
820.043	2937
820.184	2887
820.324	2899
820.465	2975
820.605	3028
820.746	3028
820.886	2918
821.026	3085
821.167	3138
821.307	3241
821.447	3272
821.588	3260
821.728	3203
821.868	3142
822.008	3062
822.149	3161
822.289	3176
822.429	3058
822.569	3116
822.709	3176
822.849	2990
822.99	3055
823.13	3138
823.27	3169
823.41	3119
823.55	3123
823.69	3154
823.83	3195
823.97	3093
824.11	2963
824.25	2979
824.389	3058
824.529	3089
824.669	3081
824.809	3195
824.949	3298
825.089	3203
825.228	3127
825.368	2994
825.508	2960
825.648	2994
825.787	3024
825.927	3043
826.067	2960
826.206	2929
826.346	3013
826.485	3066
826.625	3081
826.765	3233
826.904	3214
827.044	2982
827.183	2914
827.323	2857
827.462	3017
827.601	2902
827.741	2910
827.88	2918
828.02	2842
828.159	2963
828.298	3024
828.437	3123
828.577	3074
828.716	3245
828.855	3100
828.994	2929
829.134	2864
829.273	2895
829.412	2883
829.551	2864
829.69	2876
829.829	2971
829.968	3119
830.107	2982
830.246	3028
830.385	2918
830.524	2872
830.663	2819
830.802	2689
830.941	2621
831.08	2629
831.219	2750
831.357	2750
831.496	2956
831.635	2716
831.774	2663
831.913	2667
832.051	2537
832.19	2575
832.329	2708
832.467	2537
832.606	2495
832.744	2590
832.883	2579
833.022	2606
833.16	2644
833.299	2682
833.437	2689
833.576	2674
833.714	2739
833.852	2720
833.991	2724
834.129	2819
834.267	2800
834.406	2785
834.544	2861
834.682	2861
834.821	2857
834.959	3062
835.097	2910
835.235	3070
835.373	3009
835.511	3005
835.65	2967
835.788	2948
835.926	2815
836.064	2834
836.202	2857
836.34	3062
836.478	3161
836.615	3043
836.753	3146
836.891	3176
837.029	3119
837.167	3081
837.305	3077
837.443	3036
837.58	2979
837.718	3108
837.856	3074
837.993	3020
838.131	3081
838.269	3097
838.406	3074
838.544	3074
838.681	2922
838.819	2895
838.956	2807
839.094	2796
839.231	2876
839.369	3020
839.506	3344
839.643	3165
839.781	3039
839.918	2918
840.055	3047
840.193	3043
840.33	3127
840.467	3081
840.604	3157
840.742	3382
840.879	3074
841.016	3013
841.153	3119
841.29	3332
841.427	3283
841.564	3233
841.701	3294
841.838	3214
841.975	3176
842.112	3180
842.249	3062
842.385	3039
842.522	3253
842.659	3055
842.796	3070
842.933	3081
843.069	3058
843.206	3024
843.343	3157
843.479	3074
843.616	3104
843.752	2853
843.889	2838
844.025	3081
844.162	2853
844.298	3062
844.435	2952
844.571	2963
844.708	3028
844.844	3184
844.98	3214
845.117	3161
845.253	3047
845.389	3001
845.525	3074
845.661	3093
845.798	2971
845.934	3154
846.07	3055
846.206	3268
846.342	3268
846.478	3249
846.614	3036
846.75	3043
846.886	3001
847.022	3253
847.158	3123
847.294	3184
847.429	3211
847.565	3165
847.701	3439
847.837	3013
847.972	2975
848.108	3173
848.244	3131
848.379	2971
848.515	2941
848.65	2922
848.786	2929
848.921	2975
849.057	3131
849.192	3135
849.328	3055
849.463	3066
849.598	3062
849.734	3020
849.869	2998
850.004	2922
850.14	2967
850.275	2918
850.41	2838
850.545	2853
850.68	2941
850.815	2975
850.95	2956
851.085	3169
851.22	3081
851.355	3039
851.49	2963
851.625	2971
851.76	3005
851.895	2914
852.03	2902
852.165	3032
852.299	3123
852.434	3154
852.569	3119
852.703	3176
852.838	3195
852.973	3359
853.107	3294
853.242	3123
853.376	3077
853.511	2956
853.645	3032
853.78	3233
853.914	3142
854.048	3077
854.183	3089
854.317	3154
854.451	3260
854.585	3127
854.72	3081
854.854	3222
854.988	3001
855.122	3062
855.256	2982
855.39	3066
855.524	3245
855.658	3135
855.792	3123
855.926	3176
856.06	3214
856.194	3272
856.327	3146
856.461	3058
856.595	3058
856.729	3108
856.862	3211
856.996	3173
857.13	3188
857.263	3237
857.397	3306
857.53	3119
857.664	3188
857.797	3233
857.931	3241
858.064	3157
858.197	3195
858.331	3100
858.464	3055
858.597	2963
858.731	3123
858.864	3146
858.997	3085
859.13	3165
859.263	3169
859.396	3203
859.529	3097
859.662	3058
859.795	3036
859.928	3112
860.061	3226
860.194	3294
860.327	3154
860.46	3074
860.592	3245
860.725	3241
860.858	3237
860.99	3108
861.123	3024
861.256	3032
861.388	3119
861.521	3759
861.653	2986
861.786	2948
861.918	2979
862.05	3093
862.183	3093
862.315	3142
862.447	3218
862.58	3085
862.712	2994
862.844	2864
862.976	3005
863.108	3001
863.24	3298
863.372	2880
863.504	2941
863.636	2933
863.768	3036
863.9	2994
864.032	2902
864.164	2941
864.296	3051
864.428	3081
864.559	3142
864.691	3051
864.823	3093
864.954	3001
865.086	3039
865.217	3009
865.349	2948
865.48	2960
865.612	2982
865.743	3161
865.875	2967
866.006	2922
866.137	3009
866.269	2929
866.4	2880
866.531	2914
866.662	2918
866.793	2883
866.924	2906
867.055	2967
867.186	2929
867.317	2899
867.448	2807
867.579	2811
867.71	2823
867.841	2807
867.972	2895
868.103	2941
868.233	2891
868.364	2872
868.495	2872
868.625	3051
868.756	3150
868.886	2952
869.017	3017
869.147	3154
869.278	3150
869.408	3020
869.539	3017
869.669	3097
869.799	3032
869.929	3116
870.06	3142
870.19	3306
870.32	3256
870.45	3294
870.58	3397
870.71	3424
870.84	3454
870.97	3256
871.1	3256
871.23	3485
871.36	3431
871.489	3367
871.619	3386
871.749	3412
871.879	3469
872.008	3481
872.138	3363
872.267	3237
872.397	3146
872.526	3074
872.656	3036
872.785	3077
872.915	3249
873.044	3302
873.173	3211
873.303	3211
873.432	3245
873.561	3222
873.69	3165
873.819	3157
873.948	3188
874.077	3081
874.206	3058
874.335	3093
874.464	3199
874.593	3313
874.722	3256
874.851	3370
874.979	3340
875.108	3332
875.237	3222
875.365	3135
875.494	3173
875.623	3230
875.751	3112
875.88	3127
876.008	3165
876.136	3233
876.265	3355
876.393	3542
876.521	3378
876.65	3382
876.778	3348
876.906	3249
877.034	3203
877.162	3237
877.29	3214
877.418	3237
877.546	3192
877.674	3256
877.802	3249
877.93	3226
878.058	3154
878.185	3081
878.313	3142
878.441	3211
878.568	3062
878.696	3146
878.824	3264
878.951	3302
879.079	3405
879.206	3568
879.333	3431
879.461	3325
879.588	3310
879.715	3469
879.842	3576
879.97	3355
880.097	3165
880.224	3127
880.351	3211
880.478	3203
880.605	3218
880.732	3173
880.859	3435
880.986	3313
881.112	3313
881.239	3180
881.366	3100
881.493	3051
881.619	3013
881.746	3085
881.872	3055
881.999	3070
882.125	3081
882.252	3256
882.378	3329
882.505	3420
882.631	3241
882.757	3123
882.883	3199
883.01	3180
883.136	3154
883.262	3074
883.388	3112
883.514	3313
883.64	3367
883.766	3298
883.892	3192
884.018	3211
884.143	3389
884.269	3545
884.395	3184
884.52	3180
884.646	3161
884.772	3119
884.897	3108
885.023	3211
885.148	3336
885.274	3397
885.399	3336
885.524	3249
885.65	3253
885.775	3302
885.9	3272
886.025	3409
886.15	3329
886.275	3294
886.4	3211
886.525	3294
886.65	3256
886.775	3253
886.9	3488
887.025	3599
887.149	3401
887.274	3245
887.399	3154
887.523	3199
887.648	3176
887.773	3173
887.897	3374
888.021	3382
888.146	3283
888.27	3428
888.395	3545
888.519	3428
888.643	3454
888.767	3466
888.891	3329
889.015	3245
889.139	3272
889.263	3253
889.387	3439
889.511	3481
889.635	3428
889.759	3310
889.883	3298
890.006	3378
890.13	3500
890.254	3275
890.377	3340
890.501	3169
890.624	3131
890.748	3283
890.871	3192
890.995	3112
891.118	3036
891.241	3207
891.364	3214
891.488	3332
891.611	3131
891.734	3199
891.857	3313
891.98	3222
892.103	3348
892.226	3256
892.349	3207
892.471	3085
892.594	3241
892.717	3321
892.839	3268
892.962	3329
893.085	3370
893.207	3313
893.33	3146
893.452	3199
893.575	3325
893.697	3237
893.819	3447
893.941	3523
894.064	3428
894.186	3287
894.308	3249
894.43	3439
894.552	3526
894.674	3458
894.796	3298
894.918	3313
895.04	3302
895.161	3416
895.283	3378
895.405	3283
895.526	3405
895.648	3363
895.769	3382
895.891	3450
896.012	3443
896.134	3462
896.255	3412
896.376	3386
896.498	3389
896.619	3416
896.74	3359
896.861	3355
896.982	3675
897.103	3835
897.224	3591
897.345	3526
897.466	3420
897.587	3443
897.708	3652
897.828	3564
897.949	3439
898.07	3359
898.19	3386
898.311	3591
898.431	3447
898.552	3504
898.672	3641
898.792	3538
898.913	3515
899.033	3439
899.153	3306
899.273	3256
899.393	3253
899.513	3321
899.633	3283
899.753	3336
899.873	3294
899.993	3332
900.113	3332
900.232	3363
900.352	3325
900.472	3298
900.591	3195
900.711	3283
900.83	3256
900.95	3397
901.069	3507
901.189	3329
901.308	3154
901.427	3131
901.546	3188
901.665	3253
901.784	3329
901.904	3218
902.023	3108
902.141	3013
902.26	2971
902.379	3119
902.498	3089
902.617	3062
902.735	3214
902.854	3218
902.973	3176
903.091	3028
903.21	3051
903.328	3150
903.446	3097
903.565	3108
903.683	3199
903.801	3127
903.919	3218
904.038	3260
904.156	3131
904.274	3302
904.392	3233
904.51	3249
904.627	3340
904.745	3447
904.863	3485
904.981	3275
905.098	3135
905.216	3226
905.334	3291
905.451	3249
905.569	3351
905.686	3382
905.803	3424
905.921	3264
906.038	3428
906.155	3313
906.272	3249
906.389	3351
906.506	3226
906.623	3264
906.74	3275
906.857	3195
906.974	3226
907.091	3443
907.208	3523
907.324	3473
907.441	3363
907.557	3230
907.674	3218
907.79	3199
907.907	3264
908.023	3378
908.139	3378
908.256	3325
908.372	3409
908.488	3332
908.604	3249
908.72	3249
908.836	3260
908.952	3260
909.068	3329
909.184	3496
909.3	3370
909.415	3477
909.531	3458
909.647	3260
909.762	3272
909.878	3256
909.993	3340
910.108	3340
910.224	3348
910.339	3386
910.454	3348
910.57	3298
910.685	3245
910.8	3591
910.915	3511
911.03	3424
911.145	3268
911.259	3302
911.374	3332
911.489	3241
911.604	3237
911.718	3097
911.833	3119
911.947	3047
912.062	2948
912.176	3173
912.291	3203
912.405	3203
912.519	3431
912.633	3435
912.748	3329
912.862	3237
912.976	3142
913.09	3051
913.204	3135
913.318	3207
913.431	3325
913.545	3336
913.659	3428
913.772	3283
913.886	3214
914	3233
914.113	3367
914.226	3428
914.34	3317
914.453	3211
914.566	3382
914.68	3306
914.793	3283
914.906	3165
915.019	3127
915.132	3104
915.245	3119
915.358	3173
915.47	3211
915.583	3279
915.696	3291
915.809	3405
915.921	3405
916.034	3291
916.146	3272
916.259	3214
916.371	3405
916.483	3363
916.595	3302
916.708	3302
916.82	3351
916.932	3359
917.044	3340
917.156	3344
917.268	3256
917.38	3275
917.491	3260
917.603	3344
917.715	3466
917.826	3439
917.938	3363
918.049	3272
918.161	3435
918.272	3591
918.384	3557
918.495	3481
918.606	3317
918.717	3245
918.828	3359
918.939	3397
919.05	3332
919.161	3386
919.272	3176
919.383	3275
919.494	3488
919.604	3690
919.715	3511
919.826	3473
919.936	3473
920.047	3614
920.157	3549
920.267	3762
920.378	3637
920.488	3549
920.598	3785
920.708	3949
920.818	3812
920.928	3838
921.038	4006
921.148	4017
921.258	3686
921.368	3595
921.477	3595
921.587	3549
921.697	3481
921.806	3606
921.916	3507
922.025	3378
922.134	3370
922.244	3272
922.353	3386
922.462	3253
922.571	3218
922.68	3074
922.789	3039
922.898	3127
923.007	3108
923.116	3173
923.224	3154
923.333	3195
923.442	3104
923.55	3097
923.659	3131
923.767	3226
923.876	3051
923.984	3233
924.092	3123
924.201	3192
924.309	3180
924.417	3268
924.525	3188
924.633	3214
924.741	4029
924.849	3070
924.956	3268
925.064	3104
925.172	3066
925.279	3131
925.387	3184
925.494	3192
925.602	3310
925.709	3287
925.816	3211
925.924	3275
926.031	3378
926.138	3363
926.245	3374
926.352	3253
926.459	3420
926.566	3443
926.673	3264
926.779	3226
926.886	3233
926.993	3142
927.099	3097
927.206	3119
927.312	3154
927.419	3253
927.525	3214
927.631	3253
927.737	3157
927.843	3131
927.95	2990
928.056	3138
928.162	3146
928.267	3256
928.373	3857
928.479	3291
928.585	3028
928.69	3222
928.796	3264
928.901	3135
929.007	3024
929.112	3161
929.218	3150
929.323	3173
929.428	3135
929.533	3302
929.638	3085
929.743	3173
929.848	3275
929.953	3176
930.058	3131
930.163	2986
930.267	3051
930.372	3222
930.477	3005
930.581	3279
930.685	3173
930.79	3009
930.894	3108
930.998	3093
931.103	3275
931.207	2960
931.311	2899
931.415	2979
931.519	2830
931.623	2781
