Data from test_V78500241_948.txt Node
Date: Fri Mar 25 16:21:46 CST 2022
User: usil
Spectrometer: V785-0024
Trigger mode: 0
Integration Time (sec): 4.000000E-1
Scans to average: 1
Nonlinearity correction enabled: false
Boxcar width: 0
Storing dark spectrum: false
XAxis mode: Wavelengths
Number of Pixels in Spectrum: 1024
>>>>>Begin Spectral Data<<<<<
801.071	2883
801.214	2929
801.356	2830
801.499	2872
801.641	2861
801.783	2906
801.926	3058
802.068	2963
802.211	2967
802.353	2998
802.496	2967
802.638	2990
802.78	3051
802.923	3070
803.065	2998
803.208	2887
803.35	2895
803.492	2933
803.635	2899
803.777	2769
803.919	2834
804.061	3169
804.204	2925
804.346	2906
804.488	2830
804.63	2906
804.773	2864
804.915	2914
805.057	3089
805.199	2922
805.341	2956
805.483	3028
805.626	2971
805.768	2960
805.91	3093
806.052	3047
806.194	3009
806.336	3203
806.478	2994
806.62	2922
806.762	2979
806.904	3036
807.046	3154
807.188	3020
807.33	2902
807.472	2994
807.614	2891
807.756	2960
807.898	2910
808.04	2922
808.182	2948
808.324	2929
808.465	2868
808.607	2826
808.749	2788
808.891	2830
809.033	2967
809.174	2952
809.316	2899
809.458	2880
809.6	2750
809.741	2773
809.883	2754
810.025	2849
810.166	2834
810.308	2853
810.45	2883
810.591	2762
810.733	2766
810.875	2834
811.016	2735
811.158	2758
811.299	2785
811.441	2929
811.582	2925
811.724	2819
811.865	2826
812.007	2883
812.148	2830
812.29	2804
812.431	2895
812.573	2929
812.714	2960
812.855	3039
812.997	3032
813.138	3127
813.279	2990
813.421	2967
813.562	2937
813.703	2887
813.845	2868
813.986	2743
814.127	2727
814.268	2800
814.41	2826
814.551	2857
814.692	2861
814.833	2804
814.974	2895
815.115	2910
815.256	2861
815.397	2807
815.539	2861
815.68	2743
815.821	2800
815.962	2910
816.103	2902
816.244	2849
816.385	2872
816.526	2956
816.666	2895
816.807	2727
816.948	2906
817.089	2925
817.23	2811
817.371	2781
817.512	2769
817.653	2830
817.793	2788
817.934	2853
818.075	2922
818.216	2998
818.356	3020
818.497	2906
818.638	2781
818.778	2792
818.919	2766
819.06	2735
819.2	2864
819.341	2804
819.481	2807
819.622	2925
819.762	3093
819.903	3039
820.043	2868
820.184	2872
820.324	2914
820.465	3005
820.605	3032
820.746	3043
820.886	2899
821.026	3116
821.167	3184
821.307	3287
821.447	3268
821.588	3230
821.728	3154
821.868	3192
822.008	3100
822.149	3203
822.289	3203
822.429	3097
822.569	3074
822.709	3161
822.849	3043
822.99	3089
823.13	3131
823.27	3180
823.41	3138
823.55	3135
823.69	3146
823.83	3195
823.97	3119
824.11	2963
824.25	2998
824.389	3047
824.529	3097
824.669	3047
824.809	3157
824.949	3233
825.089	3173
825.228	3146
825.368	2982
825.508	2922
825.648	2929
825.787	2963
825.927	3013
826.067	2967
826.206	2986
826.346	3020
826.485	3062
826.625	3119
826.765	3222
826.904	3203
827.044	2971
827.183	2933
827.323	2849
827.462	2979
827.601	2960
827.741	2925
827.88	2941
828.02	2819
828.159	2937
828.298	3017
828.437	3085
828.577	3024
828.716	3222
828.855	3051
828.994	2914
829.134	2895
829.273	2902
829.412	2864
829.551	2880
829.69	2872
829.829	2960
829.968	3123
830.107	3001
830.246	3020
830.385	2902
830.524	2864
830.663	2804
830.802	2720
830.941	2613
831.08	2632
831.219	2743
831.357	2754
831.496	2944
831.635	2670
831.774	2644
831.913	2644
832.051	2556
832.19	2571
832.329	2629
832.467	2533
832.606	2465
832.744	2556
832.883	2549
833.022	2629
833.16	2678
833.299	2708
833.437	2667
833.576	2708
833.714	2689
833.852	2708
833.991	2762
834.129	2819
834.267	2804
834.406	2754
834.544	2872
834.682	2868
834.821	2880
834.959	3024
835.097	2868
835.235	3058
835.373	3005
835.511	2994
835.65	2963
835.788	2937
835.926	2792
836.064	2811
836.202	2830
836.34	3047
836.478	3116
836.615	3047
836.753	3150
836.891	3188
837.029	3123
837.167	3089
837.305	3081
837.443	3036
837.58	2963
837.718	3138
837.856	3070
837.993	3017
838.131	3074
838.269	3089
838.406	3062
838.544	3097
838.681	2933
838.819	2880
838.956	2815
839.094	2811
839.231	2864
839.369	2998
839.506	3313
839.643	3176
839.781	3009
839.918	2952
840.055	3009
840.193	3032
840.33	3024
840.467	3108
840.604	3131
840.742	3397
840.879	3036
841.016	3009
841.153	3100
841.29	3298
841.427	3268
841.564	3245
841.701	3325
841.838	3203
841.975	3169
842.112	3165
842.249	3036
842.385	3009
842.522	3211
842.659	3047
842.796	3043
842.933	3081
843.069	3013
843.206	3017
843.343	3157
843.479	3093
843.616	3135
843.752	2891
843.889	2826
844.025	3039
844.162	2868
844.298	3043
844.435	2899
844.571	2925
844.708	3112
844.844	3142
844.98	3241
845.117	3161
845.253	3036
845.389	3013
845.525	3127
845.661	3104
845.798	3017
845.934	3104
846.07	3043
846.206	3253
846.342	3298
846.478	3245
846.614	3089
846.75	3085
846.886	3024
847.022	3260
847.158	3199
847.294	3222
847.429	3253
847.565	3241
847.701	3523
847.837	3066
847.972	3032
848.108	3161
848.244	3150
848.379	2990
848.515	2971
848.65	2952
848.786	3001
848.921	3028
849.057	3131
849.192	3169
849.328	3081
849.463	3135
849.598	3085
849.734	3070
849.869	3001
850.004	2960
850.14	3028
850.275	2944
850.41	2887
850.545	2918
850.68	2956
850.815	2982
850.95	3001
851.085	3207
851.22	3123
851.355	3062
851.49	2986
851.625	3032
851.76	3051
851.895	2990
852.03	2963
852.165	3047
852.299	3123
852.434	3203
852.569	3214
852.703	3169
852.838	3294
852.973	3405
853.107	3409
853.242	3169
853.376	3131
853.511	3009
853.645	3093
853.78	3253
853.914	3138
854.048	3157
854.183	3119
854.317	3195
854.451	3321
854.585	3131
854.72	3135
854.854	3245
854.988	3097
855.122	3123
855.256	2994
855.39	3188
855.524	3260
855.658	3188
855.792	3157
855.926	3199
856.06	3268
856.194	3287
856.327	3180
856.461	3100
856.595	3112
856.729	3131
856.862	3253
856.996	3184
857.13	3222
857.263	3268
857.397	3329
857.53	3180
857.664	3237
857.797	3233
857.931	3287
858.064	3188
858.197	3230
858.331	3169
858.464	3119
858.597	3013
858.731	3138
858.864	3131
858.997	3119
859.13	3203
859.263	3226
859.396	3237
859.529	3123
859.662	3097
859.795	3077
859.928	3161
860.061	3298
860.194	3325
860.327	3135
860.46	3142
860.592	3302
860.725	3264
860.858	3283
860.99	3142
861.123	3032
861.256	3097
861.388	3173
861.521	3846
861.653	3070
861.786	3043
861.918	3058
862.05	3070
862.183	3116
862.315	3180
862.447	3218
862.58	3116
862.712	2963
862.844	2887
862.976	3036
863.108	3032
863.24	3454
863.372	2906
863.504	2994
863.636	2986
863.768	3062
863.9	3013
864.032	2948
864.164	2994
864.296	3081
864.428	3116
864.559	3157
864.691	3119
864.823	3085
864.954	3062
865.086	3047
865.217	3039
865.349	2967
865.48	3017
865.612	3013
865.743	3207
865.875	3028
866.006	2979
866.137	3020
866.269	2975
866.4	2990
866.531	2937
866.662	2922
866.793	2891
866.924	2895
867.055	2986
867.186	2922
867.317	2918
867.448	2861
867.579	2861
867.71	2868
867.841	2826
867.972	2990
868.103	2952
868.233	2933
868.364	2902
868.495	2937
868.625	3085
868.756	3230
868.886	3009
869.017	3013
869.147	3214
869.278	3173
869.408	3089
869.539	3055
869.669	3142
869.799	3074
869.929	3135
870.06	3131
870.19	3367
870.32	3329
870.45	3329
870.58	3367
870.71	3488
870.84	3458
870.97	3340
871.1	3287
871.23	3519
871.36	3477
871.489	3378
871.619	3431
871.749	3397
871.879	3496
872.008	3538
872.138	3374
872.267	3279
872.397	3188
872.526	3165
872.656	3043
872.785	3108
872.915	3253
873.044	3332
873.173	3237
873.303	3264
873.432	3253
873.561	3279
873.69	3173
873.819	3154
873.948	3241
874.077	3131
874.206	3085
874.335	3112
874.464	3211
874.593	3359
874.722	3279
874.851	3435
874.979	3370
875.108	3359
875.237	3199
875.365	3157
875.494	3173
875.623	3279
875.751	3123
875.88	3131
876.008	3192
876.136	3260
876.265	3405
876.393	3530
876.521	3473
876.65	3412
876.778	3332
876.906	3253
877.034	3233
877.162	3253
877.29	3195
877.418	3294
877.546	3275
877.674	3283
877.802	3268
877.93	3260
878.058	3195
878.185	3142
878.313	3245
878.441	3233
878.568	3116
878.696	3146
878.824	3313
878.951	3321
879.079	3450
879.206	3644
879.333	3466
879.461	3389
879.588	3336
879.715	3511
879.842	3587
879.97	3393
880.097	3226
880.224	3157
880.351	3195
880.478	3256
880.605	3226
880.732	3199
880.859	3473
880.986	3336
881.112	3382
881.239	3188
881.366	3138
881.493	3062
881.619	3009
881.746	3081
881.872	3108
881.999	3104
882.125	3176
882.252	3279
882.378	3321
882.505	3454
882.631	3317
882.757	3211
882.883	3218
883.01	3260
883.136	3176
883.262	3146
883.388	3142
883.514	3336
883.64	3424
883.766	3325
883.892	3195
884.018	3283
884.143	3443
884.269	3561
884.395	3260
884.52	3161
884.646	3214
884.772	3154
884.897	3154
885.023	3222
885.148	3336
885.274	3435
885.399	3378
885.524	3279
885.65	3222
885.775	3336
885.9	3275
886.025	3401
886.15	3382
886.275	3294
886.4	3291
886.525	3294
886.65	3279
886.775	3321
886.9	3466
887.025	3667
887.149	3428
887.274	3268
887.399	3211
887.523	3230
887.648	3192
887.773	3214
887.897	3458
888.021	3469
888.146	3336
888.27	3481
888.395	3584
888.519	3496
888.643	3511
888.767	3450
888.891	3355
889.015	3195
889.139	3325
889.263	3279
889.387	3435
889.511	3496
889.635	3511
889.759	3294
889.883	3321
890.006	3382
890.13	3519
890.254	3283
890.377	3355
890.501	3233
890.624	3203
890.748	3313
890.871	3169
890.995	3112
891.118	3104
891.241	3195
891.364	3237
891.488	3306
891.611	3207
891.734	3260
891.857	3294
891.98	3298
892.103	3359
892.226	3291
892.349	3207
892.471	3146
892.594	3222
892.717	3313
892.839	3291
892.962	3298
893.085	3389
893.207	3287
893.33	3165
893.452	3237
893.575	3397
893.697	3310
893.819	3511
893.941	3488
894.064	3477
894.186	3306
894.308	3302
894.43	3458
894.552	3542
894.674	3492
894.796	3291
894.918	3329
895.04	3321
895.161	3454
895.283	3420
895.405	3348
895.526	3374
895.648	3462
895.769	3428
895.891	3443
896.012	3507
896.134	3481
896.255	3443
896.376	3386
896.498	3351
896.619	3435
896.74	3355
896.861	3420
896.982	3701
897.103	3899
897.224	3606
897.345	3526
897.466	3435
897.587	3496
897.708	3625
897.828	3568
897.949	3473
898.07	3321
898.19	3447
898.311	3610
898.431	3477
898.552	3542
898.672	3599
898.792	3576
898.913	3507
899.033	3439
899.153	3294
899.273	3226
899.393	3310
899.513	3355
899.633	3298
899.753	3370
899.873	3344
899.993	3397
900.113	3367
900.232	3378
900.352	3359
900.472	3291
900.591	3195
900.711	3287
900.83	3279
900.95	3424
901.069	3492
901.189	3378
901.308	3161
901.427	3150
901.546	3237
901.665	3302
901.784	3325
901.904	3245
902.023	3150
902.141	3043
902.26	2994
902.379	3157
902.498	3062
902.617	3097
902.735	3214
902.854	3253
902.973	3253
903.091	3074
903.21	3081
903.328	3169
903.446	3097
903.565	3089
903.683	3188
903.801	3138
903.919	3256
904.038	3298
904.156	3169
904.274	3268
904.392	3310
904.51	3291
904.627	3344
904.745	3412
904.863	3488
904.981	3249
905.098	3173
905.216	3199
905.334	3332
905.451	3340
905.569	3310
905.686	3420
905.803	3428
905.921	3291
906.038	3443
906.155	3344
906.272	3268
906.389	3340
906.506	3237
906.623	3310
906.74	3298
906.857	3176
906.974	3272
907.091	3519
907.208	3564
907.324	3469
907.441	3420
907.557	3233
907.674	3275
907.79	3214
907.907	3298
908.023	3370
908.139	3382
908.256	3317
908.372	3382
908.488	3370
908.604	3245
908.72	3260
908.836	3321
908.952	3275
909.068	3351
909.184	3454
909.3	3416
909.415	3496
909.531	3450
909.647	3351
909.762	3302
909.878	3283
909.993	3409
910.108	3355
910.224	3348
910.339	3397
910.454	3329
910.57	3340
910.685	3218
910.8	3580
910.915	3553
911.03	3450
911.145	3245
911.259	3272
911.374	3321
911.489	3249
911.604	3256
911.718	3138
911.833	3169
911.947	3032
912.062	2998
912.176	3184
912.291	3207
912.405	3192
912.519	3473
912.633	3458
912.748	3355
912.862	3294
912.976	3214
913.09	3085
913.204	3135
913.318	3230
913.431	3298
913.545	3340
913.659	3386
913.772	3351
913.886	3260
914	3241
914.113	3374
914.226	3435
914.34	3367
914.453	3211
914.566	3412
914.68	3272
914.793	3310
914.906	3188
915.019	3138
915.132	3062
915.245	3154
915.358	3222
915.47	3253
915.583	3272
915.696	3313
915.809	3424
915.921	3473
916.034	3272
916.146	3283
916.259	3294
916.371	3431
916.483	3405
916.595	3302
916.708	3351
916.82	3389
916.932	3374
917.044	3382
917.156	3389
917.268	3313
917.38	3340
917.491	3317
917.603	3386
917.715	3447
917.826	3523
917.938	3462
918.049	3298
918.161	3469
918.272	3606
918.384	3614
918.495	3549
918.606	3374
918.717	3332
918.828	3431
918.939	3454
919.05	3340
919.161	3481
919.272	3249
919.383	3310
919.494	3515
919.604	3785
919.715	3553
919.826	3462
919.936	3530
920.047	3648
920.157	3580
920.267	3827
920.378	3679
920.488	3614
920.598	3797
920.708	4006
920.818	3857
920.928	3892
921.038	4086
921.148	4086
921.258	3751
921.368	3671
921.477	3584
921.587	3576
921.697	3481
921.806	3694
921.916	3564
922.025	3409
922.134	3428
922.244	3325
922.353	3485
922.462	3275
922.571	3272
922.68	3131
922.789	3081
922.898	3173
923.007	3154
923.116	3272
923.224	3230
923.333	3199
923.442	3161
923.55	3093
923.659	3146
923.767	3283
923.876	3184
923.984	3268
924.092	3131
924.201	3218
924.309	3233
924.417	3317
924.525	3237
924.633	3264
924.741	4166
924.849	3081
924.956	3291
925.064	3154
925.172	3047
925.279	3142
925.387	3199
925.494	3237
925.602	3386
925.709	3374
925.816	3249
925.924	3310
926.031	3393
926.138	3378
926.245	3431
926.352	3275
926.459	3466
926.566	3511
926.673	3363
926.779	3294
926.886	3313
926.993	3233
927.099	3176
927.206	3146
927.312	3165
927.419	3287
927.525	3249
927.631	3291
927.737	3195
927.843	3233
927.95	3032
928.056	3165
928.162	3233
928.267	3291
928.373	3918
928.479	3313
928.585	3112
928.69	3237
928.796	3325
928.901	3237
929.007	3051
929.112	3207
929.218	3199
929.323	3195
929.428	3188
929.533	3386
929.638	3192
929.743	3233
929.848	3294
929.953	3222
930.058	3188
930.163	2994
930.267	3100
930.372	3233
930.477	3097
930.581	3321
930.685	3195
930.79	3081
930.894	3146
930.998	3154
931.103	3336
931.207	2944
931.311	2998
931.415	2960
931.519	2788
931.623	2853
