Data from test_V78500241_888.txt Node
Date: Fri Mar 25 16:21:21 CST 2022
User: usil
Spectrometer: V785-0024
Trigger mode: 0
Integration Time (sec): 4.000000E-1
Scans to average: 1
Nonlinearity correction enabled: false
Boxcar width: 0
Storing dark spectrum: false
XAxis mode: Wavelengths
Number of Pixels in Spectrum: 1024
>>>>>Begin Spectral Data<<<<<
801.071	2914
801.214	2948
801.356	2857
801.499	2887
801.641	2845
801.783	2899
801.926	3047
802.068	2960
802.211	2998
802.353	3051
802.496	2967
802.638	3024
802.78	3020
802.923	3070
803.065	3005
803.208	2906
803.35	2937
803.492	2918
803.635	2944
803.777	2762
803.919	2842
804.061	3237
804.204	2975
804.346	2914
804.488	2872
804.63	2971
804.773	2872
804.915	2948
805.057	3116
805.199	2918
805.341	2956
805.483	3017
805.626	2994
805.768	2982
805.91	3127
806.052	3127
806.194	3032
806.336	3245
806.478	2982
806.62	2982
806.762	2963
806.904	3081
807.046	3192
807.188	2986
807.33	2914
807.472	2975
807.614	2891
807.756	2990
807.898	2899
808.04	2895
808.182	2937
808.324	2944
808.465	2880
808.607	2857
808.749	2800
808.891	2834
809.033	2990
809.174	2929
809.316	2857
809.458	2899
809.6	2762
809.741	2766
809.883	2739
810.025	2853
810.166	2861
810.308	2811
810.45	2853
810.591	2754
810.733	2743
810.875	2834
811.016	2743
811.158	2758
811.299	2815
811.441	2933
811.582	2906
811.724	2830
811.865	2849
812.007	2895
812.148	2864
812.29	2845
812.431	2872
812.573	2887
812.714	2986
812.855	3024
812.997	3047
813.138	3127
813.279	2990
813.421	3001
813.562	2975
813.703	2834
813.845	2891
813.986	2807
814.127	2708
814.268	2800
814.41	2842
814.551	2785
814.692	2925
814.833	2811
814.974	2880
815.115	2960
815.256	2849
815.397	2781
815.539	2887
815.68	2739
815.821	2819
815.962	2929
816.103	2944
816.244	2853
816.385	2849
816.526	2982
816.666	2922
816.807	2754
816.948	2883
817.089	2906
817.23	2853
817.371	2766
817.512	2804
817.653	2815
817.793	2815
817.934	2872
818.075	2967
818.216	2979
818.356	3055
818.497	2891
818.638	2807
818.778	2804
818.919	2777
819.06	2731
819.2	2899
819.341	2792
819.481	2819
819.622	2941
819.762	3093
819.903	3062
820.043	2883
820.184	2891
820.324	2891
820.465	3017
820.605	2998
820.746	2990
820.886	2929
821.026	3077
821.167	3119
821.307	3260
821.447	3279
821.588	3245
821.728	3211
821.868	3184
822.008	3081
822.149	3188
822.289	3245
822.429	3104
822.569	3070
822.709	3161
822.849	3032
822.99	3055
823.13	3142
823.27	3230
823.41	3093
823.55	3131
823.69	3146
823.83	3211
823.97	3100
824.11	3013
824.25	2990
824.389	3058
824.529	3150
824.669	3085
824.809	3157
824.949	3192
825.089	3195
825.228	3123
825.368	2982
825.508	2918
825.648	2982
825.787	3001
825.927	3047
826.067	2975
826.206	2948
826.346	3047
826.485	3062
826.625	3108
826.765	3279
826.904	3207
827.044	2967
827.183	2922
827.323	2876
827.462	2975
827.601	2891
827.741	2918
827.88	2929
828.02	2842
828.159	3001
828.298	3013
828.437	3119
828.577	3055
828.716	3211
828.855	3085
828.994	2952
829.134	2883
829.273	2910
829.412	2845
829.551	2861
829.69	2868
829.829	3001
829.968	3104
830.107	3032
830.246	2998
830.385	2941
830.524	2887
830.663	2823
830.802	2731
830.941	2636
831.08	2640
831.219	2762
831.357	2746
831.496	2925
831.635	2708
831.774	2651
831.913	2636
832.051	2530
832.19	2575
832.329	2689
832.467	2560
832.606	2427
832.744	2571
832.883	2587
833.022	2552
833.16	2689
833.299	2670
833.437	2663
833.576	2716
833.714	2693
833.852	2758
833.991	2769
834.129	2804
834.267	2838
834.406	2792
834.544	2864
834.682	2876
834.821	2864
834.959	3081
835.097	2880
835.235	3051
835.373	2986
835.511	3013
835.65	2952
835.788	2937
835.926	2826
836.064	2807
836.202	2834
836.34	3097
836.478	3112
836.615	3047
836.753	3097
836.891	3188
837.029	3188
837.167	3131
837.305	3066
837.443	2994
837.58	2975
837.718	3074
837.856	3077
837.993	3013
838.131	3157
838.269	3116
838.406	3119
838.544	3051
838.681	2906
838.819	2910
838.956	2796
839.094	2819
839.231	2872
839.369	3009
839.506	3344
839.643	3214
839.781	2994
839.918	2975
840.055	3013
840.193	3043
840.33	3077
840.467	3085
840.604	3127
840.742	3370
840.879	3032
841.016	3043
841.153	3119
841.29	3325
841.427	3310
841.564	3302
841.701	3298
841.838	3180
841.975	3169
842.112	3184
842.249	3070
842.385	3051
842.522	3294
842.659	3077
842.796	3066
842.933	3077
843.069	3055
843.206	3017
843.343	3188
843.479	3066
843.616	3123
843.752	2910
843.889	2845
844.025	3077
844.162	2845
844.298	3074
844.435	2933
844.571	2883
844.708	3093
844.844	3161
844.98	3253
845.117	3207
845.253	3043
845.389	2998
845.525	3104
845.661	3119
845.798	3024
845.934	3104
846.07	3081
846.206	3214
846.342	3329
846.478	3226
846.614	3100
846.75	3024
846.886	2975
847.022	3226
847.158	3146
847.294	3203
847.429	3249
847.565	3214
847.701	3481
847.837	3024
847.972	3039
848.108	3161
848.244	3146
848.379	2971
848.515	2933
848.65	2975
848.786	2971
848.921	3009
849.057	3108
849.192	3131
849.328	3077
849.463	3123
849.598	3039
849.734	3043
849.869	3009
850.004	2910
850.14	2944
850.275	2937
850.41	2826
850.545	2872
850.68	2925
850.815	2937
850.95	2994
851.085	3199
851.22	3093
851.355	3001
851.49	2963
851.625	2994
851.76	2967
851.895	2933
852.03	2910
852.165	3024
852.299	3108
852.434	3150
852.569	3127
852.703	3169
852.838	3241
852.973	3302
853.107	3313
853.242	3104
853.376	3097
853.511	2960
853.645	3032
853.78	3192
853.914	3104
854.048	3116
854.183	3077
854.317	3131
854.451	3272
854.585	3131
854.72	3089
854.854	3203
854.988	3020
855.122	3100
855.256	2956
855.39	3131
855.524	3207
855.658	3146
855.792	3184
855.926	3176
856.06	3165
856.194	3260
856.327	3127
856.461	3062
856.595	3074
856.729	3116
856.862	3222
856.996	3157
857.13	3169
857.263	3203
857.397	3287
857.53	3100
857.664	3199
857.797	3222
857.931	3241
858.064	3165
858.197	3230
858.331	3116
858.464	3093
858.597	2979
858.731	3100
858.864	3135
858.997	3085
859.13	3131
859.263	3169
859.396	3180
859.529	3085
859.662	3062
859.795	3055
859.928	3142
860.061	3264
860.194	3275
860.327	3146
860.46	3093
860.592	3233
860.725	3226
860.858	3214
860.99	3055
861.123	3013
861.256	3051
861.388	3085
861.521	3812
861.653	3043
861.786	2990
861.918	2998
862.05	3036
862.183	3085
862.315	3142
862.447	3222
862.58	3097
862.712	2914
862.844	2830
862.976	3017
863.108	2994
863.24	3329
863.372	2872
863.504	2975
863.636	2967
863.768	2998
863.9	2929
864.032	2906
864.164	2948
864.296	3001
864.428	3047
864.559	3055
864.691	3074
864.823	3070
864.954	3036
865.086	3058
865.217	2994
865.349	2967
865.48	2979
865.612	3013
865.743	3150
865.875	3009
866.006	2929
866.137	2952
866.269	2910
866.4	2963
866.531	2933
866.662	2868
866.793	2895
866.924	2880
867.055	2982
867.186	2914
867.317	2914
867.448	2864
867.579	2853
867.71	2834
867.841	2758
867.972	2853
868.103	2948
868.233	2811
868.364	2857
868.495	2922
868.625	3070
868.756	3157
868.886	2967
869.017	3024
869.147	3142
869.278	3157
869.408	3013
869.539	2979
869.669	3058
869.799	3055
869.929	3142
870.06	3116
870.19	3287
870.32	3294
870.45	3306
870.58	3340
870.71	3416
870.84	3447
870.97	3298
871.1	3203
871.23	3450
871.36	3447
871.489	3310
871.619	3431
871.749	3412
871.879	3420
872.008	3454
872.138	3325
872.267	3302
872.397	3119
872.526	3097
872.656	2986
872.785	3100
872.915	3237
873.044	3313
873.173	3249
873.303	3230
873.432	3233
873.561	3233
873.69	3169
873.819	3135
873.948	3169
874.077	3089
874.206	3089
874.335	3081
874.464	3188
874.593	3317
874.722	3245
874.851	3348
874.979	3355
875.108	3317
875.237	3203
875.365	3146
875.494	3161
875.623	3256
875.751	3097
875.88	3097
876.008	3161
876.136	3207
876.265	3340
876.393	3515
876.521	3428
876.65	3344
876.778	3317
876.906	3245
877.034	3184
877.162	3207
877.29	3150
877.418	3253
877.546	3264
877.674	3253
877.802	3260
877.93	3199
878.058	3150
878.185	3055
878.313	3211
878.441	3176
878.568	3070
878.696	3142
878.824	3237
878.951	3306
879.079	3424
879.206	3622
879.333	3496
879.461	3348
879.588	3351
879.715	3462
879.842	3599
879.97	3367
880.097	3138
880.224	3123
880.351	3195
880.478	3237
880.605	3211
880.732	3195
880.859	3515
880.986	3291
881.112	3336
881.239	3169
881.366	3112
881.493	3017
881.619	2982
881.746	3074
881.872	3077
881.999	3104
882.125	3173
882.252	3226
882.378	3272
882.505	3473
882.631	3291
882.757	3142
882.883	3199
883.01	3195
883.136	3108
883.262	3085
883.388	3127
883.514	3355
883.64	3370
883.766	3302
883.892	3203
884.018	3199
884.143	3382
884.269	3519
884.395	3188
884.52	3154
884.646	3188
884.772	3108
884.897	3093
885.023	3233
885.148	3310
885.274	3401
885.399	3321
885.524	3264
885.65	3214
885.775	3302
885.9	3264
886.025	3428
886.15	3359
886.275	3298
886.4	3237
886.525	3291
886.65	3260
886.775	3218
886.9	3507
887.025	3625
887.149	3386
887.274	3241
887.399	3146
887.523	3233
887.648	3176
887.773	3241
887.897	3363
888.021	3374
888.146	3302
888.27	3435
888.395	3488
888.519	3424
888.643	3469
888.767	3435
888.891	3302
889.015	3211
889.139	3283
889.263	3241
889.387	3401
889.511	3534
889.635	3431
889.759	3291
889.883	3291
890.006	3367
890.13	3443
890.254	3291
890.377	3310
890.501	3233
890.624	3169
890.748	3321
890.871	3154
890.995	3116
891.118	3074
891.241	3165
891.364	3226
891.488	3298
891.611	3188
891.734	3199
891.857	3279
891.98	3226
892.103	3321
892.226	3294
892.349	3203
892.471	3116
892.594	3214
892.717	3237
892.839	3275
892.962	3264
893.085	3321
893.207	3287
893.33	3169
893.452	3214
893.575	3321
893.697	3253
893.819	3450
893.941	3477
894.064	3462
894.186	3268
894.308	3268
894.43	3462
894.552	3557
894.674	3485
894.796	3264
894.918	3264
895.04	3287
895.161	3431
895.283	3351
895.405	3325
895.526	3332
895.648	3367
895.769	3397
895.891	3458
896.012	3458
896.134	3416
896.255	3389
896.376	3389
896.498	3336
896.619	3428
896.74	3348
896.861	3412
896.982	3633
897.103	3835
897.224	3610
897.345	3496
897.466	3431
897.587	3458
897.708	3648
897.828	3530
897.949	3473
898.07	3321
898.19	3412
898.311	3591
898.431	3443
898.552	3504
898.672	3572
898.792	3553
898.913	3511
899.033	3416
899.153	3287
899.273	3207
899.393	3245
899.513	3329
899.633	3310
899.753	3389
899.873	3336
899.993	3310
900.113	3348
900.232	3409
900.352	3348
900.472	3256
900.591	3199
900.711	3298
900.83	3264
900.95	3447
901.069	3492
901.189	3340
901.308	3157
901.427	3123
901.546	3176
901.665	3283
901.784	3325
901.904	3211
902.023	3104
902.141	2998
902.26	2975
902.379	3108
902.498	3089
902.617	3062
902.735	3249
902.854	3237
902.973	3195
903.091	3047
903.21	3093
903.328	3138
903.446	3089
903.565	3066
903.683	3173
903.801	3154
903.919	3245
904.038	3291
904.156	3169
904.274	3264
904.392	3268
904.51	3325
904.627	3317
904.745	3397
904.863	3511
904.981	3268
905.098	3199
905.216	3230
905.334	3264
905.451	3298
905.569	3291
905.686	3401
905.803	3409
905.921	3268
906.038	3439
906.155	3329
906.272	3249
906.389	3306
906.506	3253
906.623	3256
906.74	3233
906.857	3192
906.974	3253
907.091	3450
907.208	3557
907.324	3485
907.441	3416
907.557	3195
907.674	3241
907.79	3165
907.907	3283
908.023	3386
908.139	3378
908.256	3310
908.372	3325
908.488	3332
908.604	3245
908.72	3226
908.836	3291
908.952	3264
909.068	3317
909.184	3500
909.3	3363
909.415	3469
909.531	3462
909.647	3241
909.762	3272
909.878	3268
909.993	3348
910.108	3306
910.224	3340
910.339	3424
910.454	3363
910.57	3260
910.685	3218
910.8	3614
910.915	3507
911.03	3409
911.145	3233
911.259	3256
911.374	3336
911.489	3237
911.604	3207
911.718	3119
911.833	3119
911.947	3013
912.062	2963
912.176	3131
912.291	3199
912.405	3226
912.519	3409
912.633	3439
912.748	3321
912.862	3283
912.976	3161
913.09	3058
913.204	3100
913.318	3222
913.431	3340
913.545	3329
913.659	3447
913.772	3332
913.886	3211
914	3207
914.113	3325
914.226	3405
914.34	3370
914.453	3184
914.566	3405
914.68	3260
914.793	3283
914.906	3138
915.019	3104
915.132	3032
915.245	3154
915.358	3195
915.47	3226
915.583	3230
915.696	3291
915.809	3389
915.921	3378
916.034	3233
916.146	3233
916.259	3230
916.371	3348
916.483	3386
916.595	3233
916.708	3325
916.82	3344
916.932	3283
917.044	3302
917.156	3287
917.268	3245
917.38	3283
917.491	3268
917.603	3351
917.715	3428
917.826	3443
917.938	3378
918.049	3291
918.161	3389
918.272	3553
918.384	3572
918.495	3458
918.606	3321
918.717	3283
918.828	3405
918.939	3405
919.05	3287
919.161	3348
919.272	3195
919.383	3287
919.494	3488
919.604	3679
919.715	3496
919.826	3405
919.936	3458
920.047	3576
920.157	3564
920.267	3743
920.378	3652
920.488	3568
920.598	3789
920.708	3983
920.818	3835
920.928	3854
921.038	4048
921.148	4010
921.258	3740
921.368	3622
921.477	3614
921.587	3568
921.697	3462
921.806	3648
921.916	3515
922.025	3386
922.134	3389
922.244	3359
922.353	3431
922.462	3306
922.571	3245
922.68	3157
922.789	3116
922.898	3150
923.007	3123
923.116	3233
923.224	3226
923.333	3245
923.442	3100
923.55	3169
923.659	3199
923.767	3253
923.876	3123
923.984	3291
924.092	3150
924.201	3237
924.309	3253
924.417	3264
924.525	3241
924.633	3272
924.741	4162
924.849	3081
924.956	3302
925.064	3142
925.172	3085
925.279	3142
925.387	3249
925.494	3245
925.602	3389
925.709	3374
925.816	3233
925.924	3336
926.031	3412
926.138	3382
926.245	3393
926.352	3279
926.459	3481
926.566	3515
926.673	3344
926.779	3287
926.886	3283
926.993	3176
927.099	3199
927.206	3184
927.312	3195
927.419	3230
927.525	3256
927.631	3302
927.737	3214
927.843	3154
927.95	3108
928.056	3146
928.162	3233
928.267	3302
928.373	3903
928.479	3363
928.585	3123
928.69	3233
928.796	3310
928.901	3199
929.007	3085
929.112	3233
929.218	3218
929.323	3180
929.428	3188
929.533	3310
929.638	3176
929.743	3195
929.848	3317
929.953	3256
930.058	3192
930.163	3005
930.267	3100
930.372	3249
930.477	3074
930.581	3355
930.685	3226
930.79	3104
930.894	3176
930.998	3131
931.103	3321
931.207	2944
931.311	2963
931.415	2967
931.519	2792
931.623	2845
