Data from test_V78500241_386.txt Node
Date: Fri Mar 25 16:17:52 CST 2022
User: usil
Spectrometer: V785-0024
Trigger mode: 0
Integration Time (sec): 4.000000E-1
Scans to average: 1
Nonlinearity correction enabled: false
Boxcar width: 0
Storing dark spectrum: false
XAxis mode: Wavelengths
Number of Pixels in Spectrum: 1024
>>>>>Begin Spectral Data<<<<<
801.071	2956
801.214	2963
801.356	2918
801.499	2929
801.641	2910
801.783	2933
801.926	3081
802.068	2975
802.211	3070
802.353	3032
802.496	2967
802.638	3024
802.78	3009
802.923	3093
803.065	3032
803.208	2883
803.35	2960
803.492	2990
803.635	2944
803.777	2823
803.919	2880
804.061	3169
804.204	2956
804.346	2929
804.488	2853
804.63	2990
804.773	2887
804.915	2922
805.057	3062
805.199	2975
805.341	2986
805.483	3070
805.626	2990
805.768	2967
805.91	3097
806.052	3104
806.194	3077
806.336	3256
806.478	3055
806.62	2963
806.762	2998
806.904	3020
807.046	3180
807.188	3013
807.33	2960
807.472	3017
807.614	2941
807.756	2994
807.898	2937
808.04	2918
808.182	2975
808.324	2956
808.465	2922
808.607	2845
808.749	2796
808.891	2880
809.033	2994
809.174	2998
809.316	2868
809.458	2906
809.6	2773
809.741	2754
809.883	2788
810.025	2853
810.166	2895
810.308	2880
810.45	2876
810.591	2800
810.733	2743
810.875	2849
811.016	2849
811.158	2758
811.299	2792
811.441	2967
811.582	2948
811.724	2823
811.865	2826
812.007	2929
812.148	2914
812.29	2845
812.431	2929
812.573	2929
812.714	2975
812.855	3051
812.997	3043
813.138	3146
813.279	3058
813.421	3001
813.562	2941
813.703	2895
813.845	2880
813.986	2800
814.127	2701
814.268	2830
814.41	2842
814.551	2823
814.692	2876
814.833	2830
814.974	2910
815.115	2975
815.256	2823
815.397	2807
815.539	2895
815.68	2773
815.821	2807
815.962	2960
816.103	2895
816.244	2868
816.385	2857
816.526	2994
816.666	2929
816.807	2750
816.948	2895
817.089	2891
817.23	2861
817.371	2781
817.512	2785
817.653	2842
817.793	2842
817.934	2899
818.075	2994
818.216	3001
818.356	3005
818.497	2918
818.638	2815
818.778	2830
818.919	2788
819.06	2800
819.2	2883
819.341	2796
819.481	2811
819.622	2948
819.762	3074
819.903	3024
820.043	2914
820.184	2914
820.324	2906
820.465	3051
820.605	3020
820.746	2998
820.886	2948
821.026	3081
821.167	3184
821.307	3275
821.447	3306
821.588	3260
821.728	3218
821.868	3199
822.008	3100
822.149	3203
822.289	3241
822.429	3081
822.569	3123
822.709	3184
822.849	3051
822.99	3058
823.13	3184
823.27	3192
823.41	3123
823.55	3135
823.69	3157
823.83	3157
823.97	3104
824.11	2998
824.25	3020
824.389	3074
824.529	3127
824.669	3081
824.809	3173
824.949	3275
825.089	3195
825.228	3188
825.368	3009
825.508	2967
825.648	2960
825.787	2998
825.927	3032
826.067	2990
826.206	2982
826.346	3070
826.485	3085
826.625	3119
826.765	3268
826.904	3184
827.044	3024
827.183	2956
827.323	2842
827.462	3009
827.601	2929
827.741	2895
827.88	2960
828.02	2861
828.159	2986
828.298	3051
828.437	3127
828.577	3013
828.716	3249
828.855	3066
828.994	2933
829.134	2868
829.273	2963
829.412	2891
829.551	2872
829.69	2883
829.829	3009
829.968	3146
830.107	3005
830.246	3013
830.385	2914
830.524	2891
830.663	2826
830.802	2754
830.941	2636
831.08	2648
831.219	2766
831.357	2773
831.496	2941
831.635	2697
831.774	2659
831.913	2689
832.051	2564
832.19	2613
832.329	2682
832.467	2537
832.606	2503
832.744	2560
832.883	2568
833.022	2606
833.16	2651
833.299	2697
833.437	2712
833.576	2716
833.714	2724
833.852	2727
833.991	2754
834.129	2830
834.267	2819
834.406	2815
834.544	2872
834.682	2876
834.821	2918
834.959	3051
835.097	2906
835.235	3047
835.373	3005
835.511	3058
835.65	2986
835.788	2937
835.926	2883
836.064	2826
836.202	2868
836.34	3066
836.478	3138
836.615	3020
836.753	3123
836.891	3207
837.029	3165
837.167	3077
837.305	3051
837.443	3036
837.58	2975
837.718	3119
837.856	3013
837.993	2994
838.131	3104
838.269	3089
838.406	3081
838.544	3074
838.681	2944
838.819	2944
838.956	2823
839.094	2849
839.231	2887
839.369	3001
839.506	3329
839.643	3226
839.781	3017
839.918	2986
840.055	3066
840.193	3024
840.33	3051
840.467	3131
840.604	3173
840.742	3409
840.879	3055
841.016	3066
841.153	3112
841.29	3348
841.427	3283
841.564	3272
841.701	3310
841.838	3199
841.975	3135
842.112	3214
842.249	3055
842.385	2998
842.522	3256
842.659	3104
842.796	3043
842.933	3104
843.069	3024
843.206	3066
843.343	3203
843.479	3123
843.616	3116
843.752	2887
843.889	2876
844.025	3062
844.162	2872
844.298	3089
844.435	2922
844.571	2925
844.708	3104
844.844	3161
844.98	3211
845.117	3180
845.253	3017
845.389	3028
845.525	3146
845.661	3093
845.798	3001
845.934	3112
846.07	3047
846.206	3222
846.342	3306
846.478	3199
846.614	3093
846.75	3043
846.886	2998
847.022	3260
847.158	3100
847.294	3195
847.429	3249
847.565	3245
847.701	3545
847.837	3055
847.972	3039
848.108	3188
848.244	3135
848.379	2994
848.515	2948
848.65	2925
848.786	2979
848.921	3020
849.057	3119
849.192	3146
849.328	3070
849.463	3116
849.598	3047
849.734	3036
849.869	2998
850.004	2887
850.14	2975
850.275	2933
850.41	2845
850.545	2883
850.68	2948
850.815	2941
850.95	2982
851.085	3188
851.22	3138
851.355	3009
851.49	2956
851.625	2975
851.76	3032
851.895	2933
852.03	2925
852.165	3017
852.299	3119
852.434	3188
852.569	3169
852.703	3176
852.838	3233
852.973	3336
853.107	3378
853.242	3138
853.376	3066
853.511	2971
853.645	3047
853.78	3237
853.914	3127
854.048	3058
854.183	3123
854.317	3142
854.451	3306
854.585	3108
854.72	3051
854.854	3230
854.988	3062
855.122	3055
855.256	2971
855.39	3112
855.524	3260
855.658	3195
855.792	3150
855.926	3199
856.06	3211
856.194	3222
856.327	3131
856.461	3036
856.595	3081
856.729	3100
856.862	3192
856.996	3173
857.13	3222
857.263	3241
857.397	3264
857.53	3112
857.664	3192
857.797	3233
857.931	3245
858.064	3203
858.197	3226
858.331	3123
858.464	3112
858.597	3028
858.731	3077
858.864	3146
858.997	3100
859.13	3131
859.263	3161
859.396	3195
859.529	3058
859.662	3081
859.795	3043
859.928	3108
860.061	3237
860.194	3241
860.327	3127
860.46	3058
860.592	3249
860.725	3249
860.858	3256
860.99	3116
861.123	3020
861.256	3036
861.388	3100
861.521	3846
861.653	2990
861.786	3009
861.918	3017
862.05	3070
862.183	3119
862.315	3127
862.447	3188
862.58	3100
862.712	2941
862.844	2891
862.976	3005
863.108	3017
863.24	3393
863.372	2861
863.504	2933
863.636	2963
863.768	3013
863.9	2960
864.032	2868
864.164	2933
864.296	2994
864.428	3100
864.559	3154
864.691	3108
864.823	3070
864.954	3005
865.086	3055
865.217	2986
865.349	2963
865.48	2994
865.612	3013
865.743	3165
865.875	3001
866.006	2937
866.137	3005
866.269	2967
866.4	2960
866.531	2933
866.662	2929
866.793	2910
866.924	2887
867.055	3001
867.186	2895
867.317	2876
867.448	2842
867.579	2842
867.71	2845
867.841	2823
867.972	2922
868.103	2902
868.233	2880
868.364	2864
868.495	2891
868.625	3093
868.756	3146
868.886	3001
869.017	2986
869.147	3184
869.278	3135
869.408	3051
869.539	3032
869.669	3077
869.799	3039
869.929	3135
870.06	3074
870.19	3329
870.32	3268
870.45	3302
870.58	3378
870.71	3469
870.84	3409
870.97	3332
871.1	3233
871.23	3519
871.36	3447
871.489	3370
871.619	3416
871.749	3397
871.879	3428
872.008	3450
872.138	3374
872.267	3287
872.397	3154
872.526	3070
872.656	3005
872.785	3112
872.915	3245
873.044	3298
873.173	3192
873.303	3279
873.432	3275
873.561	3230
873.69	3165
873.819	3154
873.948	3195
874.077	3100
874.206	3055
874.335	3085
874.464	3222
874.593	3344
874.722	3233
874.851	3393
874.979	3317
875.108	3336
875.237	3207
875.365	3188
875.494	3180
875.623	3245
875.751	3093
875.88	3112
876.008	3199
876.136	3195
876.265	3374
876.393	3507
876.521	3450
876.65	3424
876.778	3344
876.906	3264
877.034	3226
877.162	3253
877.29	3150
877.418	3264
877.546	3260
877.674	3253
877.802	3233
877.93	3207
878.058	3138
878.185	3100
878.313	3237
878.441	3192
878.568	3070
878.696	3123
878.824	3260
878.951	3321
879.079	3496
879.206	3625
879.333	3466
879.461	3325
879.588	3344
879.715	3466
879.842	3614
879.97	3355
880.097	3169
880.224	3192
880.351	3203
880.478	3230
880.605	3195
880.732	3188
880.859	3488
880.986	3256
881.112	3287
881.239	3199
881.366	3108
881.493	3017
881.619	3024
881.746	3085
881.872	3077
881.999	3085
882.125	3119
882.252	3249
882.378	3287
882.505	3431
882.631	3298
882.757	3165
882.883	3211
883.01	3199
883.136	3176
883.262	3097
883.388	3119
883.514	3321
883.64	3370
883.766	3321
883.892	3207
884.018	3272
884.143	3409
884.269	3519
884.395	3233
884.52	3157
884.646	3233
884.772	3135
884.897	3089
885.023	3207
885.148	3355
885.274	3416
885.399	3405
885.524	3313
885.65	3253
885.775	3275
885.9	3294
886.025	3401
886.15	3321
886.275	3268
886.4	3199
886.525	3302
886.65	3264
886.775	3260
886.9	3496
887.025	3625
887.149	3382
887.274	3237
887.399	3207
887.523	3176
887.648	3180
887.773	3214
887.897	3409
888.021	3351
888.146	3260
888.27	3450
888.395	3511
888.519	3450
888.643	3458
888.767	3420
888.891	3302
889.015	3218
889.139	3298
889.263	3249
889.387	3389
889.511	3515
889.635	3454
889.759	3260
889.883	3302
890.006	3382
890.13	3477
890.254	3272
890.377	3298
890.501	3199
890.624	3169
890.748	3287
890.871	3199
890.995	3074
891.118	3032
891.241	3245
891.364	3207
891.488	3275
891.611	3176
891.734	3195
891.857	3275
891.98	3222
892.103	3351
892.226	3294
892.349	3165
892.471	3062
892.594	3253
892.717	3325
892.839	3241
892.962	3283
893.085	3397
893.207	3321
893.33	3157
893.452	3195
893.575	3325
893.697	3226
893.819	3477
893.941	3477
894.064	3450
894.186	3260
894.308	3218
894.43	3401
894.552	3511
894.674	3481
894.796	3230
894.918	3298
895.04	3272
895.161	3397
895.283	3401
895.405	3325
895.526	3393
895.648	3409
895.769	3424
895.891	3466
896.012	3469
896.134	3469
896.255	3412
896.376	3332
896.498	3363
896.619	3454
896.74	3329
896.861	3401
896.982	3698
897.103	3846
897.224	3625
897.345	3515
897.466	3405
897.587	3485
897.708	3610
897.828	3534
897.949	3462
898.07	3344
898.19	3428
898.311	3610
898.431	3397
898.552	3469
898.672	3587
898.792	3591
898.913	3534
899.033	3431
899.153	3306
899.273	3218
899.393	3275
899.513	3329
899.633	3302
899.753	3313
899.873	3302
899.993	3359
900.113	3306
900.232	3386
900.352	3355
900.472	3302
900.591	3192
900.711	3329
900.83	3237
900.95	3386
901.069	3477
901.189	3340
901.308	3180
901.427	3127
901.546	3176
901.665	3279
901.784	3370
901.904	3218
902.023	3138
902.141	3013
902.26	2998
902.379	3138
902.498	3070
902.617	3055
902.735	3207
902.854	3222
902.973	3176
903.091	3058
903.21	3066
903.328	3165
903.446	3116
903.565	3097
903.683	3222
903.801	3104
903.919	3203
904.038	3287
904.156	3150
904.274	3268
904.392	3207
904.51	3283
904.627	3332
904.745	3420
904.863	3473
904.981	3275
905.098	3100
905.216	3241
905.334	3317
905.451	3336
905.569	3313
905.686	3416
905.803	3477
905.921	3272
906.038	3424
906.155	3351
906.272	3241
906.389	3336
906.506	3203
906.623	3218
906.74	3264
906.857	3203
906.974	3249
907.091	3458
907.208	3530
907.324	3458
907.441	3412
907.557	3226
907.674	3188
907.79	3241
907.907	3253
908.023	3389
908.139	3374
908.256	3363
908.372	3389
908.488	3329
908.604	3237
908.72	3199
908.836	3294
908.952	3306
909.068	3355
909.184	3473
909.3	3393
909.415	3439
909.531	3523
909.647	3306
909.762	3241
909.878	3260
909.993	3359
910.108	3348
910.224	3336
910.339	3409
910.454	3329
910.57	3325
910.685	3264
910.8	3591
910.915	3542
911.03	3450
911.145	3256
911.259	3253
911.374	3344
911.489	3218
911.604	3203
911.718	3116
911.833	3150
911.947	3005
912.062	3043
912.176	3146
912.291	3184
912.405	3180
912.519	3382
912.633	3469
912.748	3302
912.862	3253
912.976	3154
913.09	3085
913.204	3123
913.318	3169
913.431	3351
913.545	3378
913.659	3401
913.772	3283
913.886	3176
914	3214
914.113	3344
914.226	3409
914.34	3370
914.453	3184
914.566	3420
914.68	3310
914.793	3321
914.906	3154
915.019	3150
915.132	3070
915.245	3192
915.358	3188
915.47	3222
915.583	3241
915.696	3283
915.809	3428
915.921	3443
916.034	3268
916.146	3260
916.259	3222
916.371	3386
916.483	3355
916.595	3233
916.708	3313
916.82	3310
916.932	3313
917.044	3340
917.156	3378
917.268	3256
917.38	3313
917.491	3298
917.603	3378
917.715	3428
917.826	3507
917.938	3367
918.049	3302
918.161	3439
918.272	3549
918.384	3538
918.495	3454
918.606	3310
918.717	3306
918.828	3378
918.939	3367
919.05	3310
919.161	3389
919.272	3180
919.383	3233
919.494	3496
919.604	3713
919.715	3462
919.826	3389
919.936	3462
920.047	3591
920.157	3572
920.267	3781
920.378	3591
920.488	3580
920.598	3785
920.708	3937
920.818	3816
920.928	3789
921.038	4093
921.148	3987
921.258	3724
921.368	3667
921.477	3629
921.587	3572
921.697	3450
921.806	3610
921.916	3538
922.025	3363
922.134	3363
922.244	3348
922.353	3409
922.462	3294
922.571	3237
922.68	3123
922.789	3097
922.898	3116
923.007	3123
923.116	3211
923.224	3146
923.333	3203
923.442	3116
923.55	3058
923.659	3150
923.767	3173
923.876	3108
923.984	3241
924.092	3100
924.201	3211
924.309	3233
924.417	3241
924.525	3180
924.633	3260
924.741	4215
924.849	3058
924.956	3253
925.064	3077
925.172	3062
925.279	3077
925.387	3192
925.494	3214
925.602	3344
925.709	3325
925.816	3157
925.924	3268
926.031	3374
926.138	3298
926.245	3351
926.352	3294
926.459	3428
926.566	3473
926.673	3332
926.779	3222
926.886	3230
926.993	3104
927.099	3157
927.206	3100
927.312	3123
927.419	3237
927.525	3176
927.631	3260
927.737	3188
927.843	3074
927.95	3058
928.056	3127
928.162	3154
928.267	3291
928.373	3861
928.479	3317
928.585	3058
928.69	3199
928.796	3256
928.901	3150
929.007	3066
929.112	3211
929.218	3184
929.323	3169
929.428	3169
929.533	3317
929.638	3127
929.743	3150
929.848	3230
929.953	3214
930.058	3154
930.163	2979
930.267	3077
930.372	3184
930.477	2998
930.581	3291
930.685	3176
930.79	3058
930.894	3074
930.998	3104
931.103	3249
931.207	2941
931.311	2929
931.415	2922
931.519	2781
931.623	2815
