Data from test_V78500241_1286.txt Node
Date: Fri Mar 25 16:24:06 CST 2022
User: usil
Spectrometer: V785-0024
Trigger mode: 0
Integration Time (sec): 4.000000E-1
Scans to average: 1
Nonlinearity correction enabled: false
Boxcar width: 0
Storing dark spectrum: false
XAxis mode: Wavelengths
Number of Pixels in Spectrum: 1024
>>>>>Begin Spectral Data<<<<<
801.071	2899
801.214	2948
801.356	2918
801.499	2952
801.641	2880
801.783	2929
801.926	3062
802.068	2979
802.211	2979
802.353	3062
802.496	2967
802.638	2998
802.78	3024
802.923	3097
803.065	3051
803.208	2925
803.35	2941
803.492	2948
803.635	2922
803.777	2758
803.919	2887
804.061	3211
804.204	2956
804.346	2880
804.488	2872
804.63	2990
804.773	2872
804.915	2918
805.057	3123
805.199	2922
805.341	2971
805.483	3062
805.626	2967
805.768	2960
805.91	3077
806.052	3146
806.194	3017
806.336	3256
806.478	3009
806.62	2941
806.762	2944
806.904	3104
807.046	3154
807.188	2960
807.33	2902
807.472	3017
807.614	2906
807.756	2963
807.898	2929
808.04	2899
808.182	2933
808.324	2963
808.465	2857
808.607	2880
808.749	2819
808.891	2872
809.033	2986
809.174	2944
809.316	2895
809.458	2887
809.6	2731
809.741	2754
809.883	2762
810.025	2823
810.166	2807
810.308	2842
810.45	2861
810.591	2754
810.733	2754
810.875	2796
811.016	2777
811.158	2750
811.299	2766
811.441	2941
811.582	2868
811.724	2834
811.865	2811
812.007	2914
812.148	2883
812.29	2857
812.431	2906
812.573	2910
812.714	2986
812.855	3017
812.997	3024
813.138	3142
813.279	3017
813.421	2948
813.562	2971
813.703	2861
813.845	2891
813.986	2743
814.127	2701
814.268	2788
814.41	2842
814.551	2781
814.692	2864
814.833	2807
814.974	2868
815.115	2922
815.256	2815
815.397	2823
815.539	2815
815.68	2766
815.821	2807
815.962	2914
816.103	2941
816.244	2883
816.385	2845
816.526	2960
816.666	2922
816.807	2750
816.948	2864
817.089	2880
817.23	2861
817.371	2815
817.512	2758
817.653	2838
817.793	2849
817.934	2899
818.075	2956
818.216	2941
818.356	2979
818.497	2899
818.638	2773
818.778	2823
818.919	2788
819.06	2746
819.2	2864
819.341	2811
819.481	2796
819.622	2895
819.762	3097
819.903	3036
820.043	2925
820.184	2906
820.324	2876
820.465	3028
820.605	3062
820.746	3032
820.886	2937
821.026	3131
821.167	3142
821.307	3279
821.447	3264
821.588	3241
821.728	3237
821.868	3199
822.008	3093
822.149	3184
822.289	3245
822.429	3089
822.569	3089
822.709	3195
822.849	2986
822.99	3074
823.13	3184
823.27	3245
823.41	3138
823.55	3207
823.69	3180
823.83	3173
823.97	3142
824.11	3013
824.25	3043
824.389	3108
824.529	3138
824.669	3108
824.809	3237
824.949	3302
825.089	3279
825.228	3203
825.368	3039
825.508	2994
825.648	3039
825.787	3055
825.927	3036
826.067	3024
826.206	2990
826.346	3112
826.485	3081
826.625	3180
826.765	3317
826.904	3253
827.044	3024
827.183	2998
827.323	2891
827.462	3013
827.601	2944
827.741	2956
827.88	2998
828.02	2887
828.159	3009
828.298	3077
828.437	3150
828.577	3062
828.716	3291
828.855	3135
828.994	2933
829.134	2922
829.273	2933
829.412	2880
829.551	2906
829.69	2941
829.829	2998
829.968	3135
830.107	3070
830.246	3058
830.385	2929
830.524	2952
830.663	2849
830.802	2773
830.941	2682
831.08	2663
831.219	2762
831.357	2792
831.496	2975
831.635	2758
831.774	2705
831.913	2693
832.051	2571
832.19	2636
832.329	2697
832.467	2583
832.606	2533
832.744	2621
832.883	2613
833.022	2655
833.16	2678
833.299	2708
833.437	2708
833.576	2712
833.714	2766
833.852	2777
833.991	2785
834.129	2883
834.267	2880
834.406	2838
834.544	2941
834.682	2910
834.821	2895
834.959	3108
835.097	2895
835.235	3097
835.373	3043
835.511	3013
835.65	2998
835.788	3009
835.926	2880
836.064	2830
836.202	2891
836.34	3100
836.478	3176
836.615	3074
836.753	3165
836.891	3260
837.029	3146
837.167	3161
837.305	3100
837.443	3074
837.58	2990
837.718	3135
837.856	3097
837.993	3051
838.131	3157
838.269	3093
838.406	3142
838.544	3116
838.681	2948
838.819	2956
838.956	2819
839.094	2883
839.231	2910
839.369	3036
839.506	3439
839.643	3241
839.781	3039
839.918	2994
840.055	3097
840.193	3077
840.33	3074
840.467	3116
840.604	3180
840.742	3458
840.879	3081
841.016	3081
841.153	3135
841.29	3344
841.427	3294
841.564	3272
841.701	3317
841.838	3241
841.975	3207
842.112	3233
842.249	3093
842.385	3062
842.522	3283
842.659	3123
842.796	3089
842.933	3131
843.069	3119
843.206	3077
843.343	3195
843.479	3116
843.616	3157
843.752	2918
843.889	2902
844.025	3108
844.162	2937
844.298	3108
844.435	2975
844.571	2922
844.708	3108
844.844	3233
844.98	3272
845.117	3241
845.253	3070
845.389	2975
845.525	3157
845.661	3123
845.798	3017
845.934	3108
846.07	3074
846.206	3253
846.342	3336
846.478	3275
846.614	3100
846.75	3085
846.886	3009
847.022	3245
847.158	3176
847.294	3260
847.429	3275
847.565	3245
847.701	3515
847.837	3047
847.972	3017
848.108	3188
848.244	3184
848.379	2994
848.515	2937
848.65	2948
848.786	2960
848.921	3009
849.057	3116
849.192	3184
849.328	3108
849.463	3142
849.598	3077
849.734	3081
849.869	2979
850.004	2948
850.14	3013
850.275	2925
850.41	2868
850.545	2891
850.68	2967
850.815	3020
850.95	2979
851.085	3199
851.22	3135
851.355	3043
851.49	3009
851.625	3043
851.76	3036
851.895	2963
852.03	2922
852.165	3055
852.299	3123
852.434	3195
852.569	3154
852.703	3237
852.838	3249
852.973	3336
853.107	3370
853.242	3199
853.376	3146
853.511	3036
853.645	3089
853.78	3245
853.914	3104
854.048	3116
854.183	3119
854.317	3188
854.451	3317
854.585	3157
854.72	3112
854.854	3260
854.988	3039
855.122	3131
855.256	2994
855.39	3165
855.524	3264
855.658	3176
855.792	3214
855.926	3207
856.06	3222
856.194	3264
856.327	3214
856.461	3089
856.595	3093
856.729	3085
856.862	3237
856.996	3199
857.13	3237
857.263	3226
857.397	3275
857.53	3116
857.664	3214
857.797	3253
857.931	3260
858.064	3214
858.197	3218
858.331	3169
858.464	3135
858.597	3009
858.731	3157
858.864	3131
858.997	3127
859.13	3218
859.263	3192
859.396	3207
859.529	3146
859.662	3123
859.795	3066
859.928	3157
860.061	3302
860.194	3302
860.327	3165
860.46	3123
860.592	3237
860.725	3241
860.858	3222
860.99	3131
861.123	3070
861.256	3081
861.388	3123
861.521	3690
861.653	3013
861.786	2998
861.918	3020
862.05	3093
862.183	3131
862.315	3195
862.447	3230
862.58	3119
862.712	2975
862.844	2914
862.976	3028
863.108	3043
863.24	3321
863.372	2887
863.504	2941
863.636	2948
863.768	3055
863.9	2994
864.032	2956
864.164	2971
864.296	3013
864.428	3104
864.559	3104
864.691	3097
864.823	3047
864.954	3055
865.086	3055
865.217	2994
865.349	2990
865.48	3036
865.612	3024
865.743	3157
865.875	2982
866.006	2952
866.137	3017
866.269	2990
866.4	2956
866.531	2922
866.662	2918
866.793	2941
866.924	2941
867.055	2971
867.186	2952
867.317	2906
867.448	2857
867.579	2834
867.71	2864
867.841	2811
867.972	2883
868.103	2906
868.233	2906
868.364	2899
868.495	2910
868.625	3070
868.756	3157
868.886	2986
869.017	3074
869.147	3218
869.278	3233
869.408	3058
869.539	3024
869.669	3093
869.799	3077
869.929	3127
870.06	3112
870.19	3370
870.32	3294
870.45	3291
870.58	3393
870.71	3450
870.84	3435
870.97	3321
871.1	3264
871.23	3488
871.36	3443
871.489	3370
871.619	3435
871.749	3420
871.879	3443
872.008	3469
872.138	3359
872.267	3291
872.397	3146
872.526	3131
872.656	3017
872.785	3123
872.915	3253
873.044	3351
873.173	3233
873.303	3256
873.432	3230
873.561	3256
873.69	3150
873.819	3169
873.948	3214
874.077	3100
874.206	3051
874.335	3081
874.464	3211
874.593	3386
874.722	3253
874.851	3412
874.979	3378
875.108	3302
875.237	3199
875.365	3173
875.494	3184
875.623	3207
875.751	3138
875.88	3085
876.008	3199
876.136	3207
876.265	3412
876.393	3511
876.521	3428
876.65	3401
876.778	3344
876.906	3245
877.034	3211
877.162	3233
877.29	3192
877.418	3245
877.546	3256
877.674	3256
877.802	3272
877.93	3260
878.058	3192
878.185	3108
878.313	3218
878.441	3233
878.568	3104
878.696	3176
878.824	3226
878.951	3329
879.079	3462
879.206	3629
879.333	3454
879.461	3310
879.588	3363
879.715	3473
879.842	3587
879.97	3378
880.097	3165
880.224	3123
880.351	3165
880.478	3207
880.605	3169
880.732	3184
880.859	3492
880.986	3306
881.112	3378
881.239	3192
881.366	3097
881.493	3039
881.619	3028
881.746	3104
881.872	3104
881.999	3131
882.125	3165
882.252	3287
882.378	3325
882.505	3435
882.631	3313
882.757	3154
882.883	3203
883.01	3211
883.136	3169
883.262	3104
883.388	3123
883.514	3321
883.64	3401
883.766	3302
883.892	3192
884.018	3230
884.143	3401
884.269	3564
884.395	3226
884.52	3169
884.646	3161
884.772	3138
884.897	3146
885.023	3226
885.148	3317
885.274	3420
885.399	3363
885.524	3237
885.65	3230
885.775	3302
885.9	3325
886.025	3389
886.15	3340
886.275	3283
886.4	3241
886.525	3310
886.65	3272
886.775	3256
886.9	3477
887.025	3637
887.149	3424
887.274	3241
887.399	3211
887.523	3253
887.648	3176
887.773	3188
887.897	3374
888.021	3382
888.146	3325
888.27	3469
888.395	3553
888.519	3435
888.643	3454
888.767	3458
888.891	3310
889.015	3275
889.139	3302
889.263	3253
889.387	3405
889.511	3526
889.635	3477
889.759	3287
889.883	3317
890.006	3389
890.13	3488
890.254	3256
890.377	3359
890.501	3230
890.624	3199
890.748	3313
890.871	3176
890.995	3104
891.118	3081
891.241	3230
891.364	3241
891.488	3329
891.611	3195
891.734	3268
891.857	3298
891.98	3203
892.103	3313
892.226	3275
892.349	3241
892.471	3116
892.594	3230
892.717	3306
892.839	3260
892.962	3268
893.085	3351
893.207	3287
893.33	3192
893.452	3222
893.575	3370
893.697	3268
893.819	3458
893.941	3557
894.064	3439
894.186	3329
894.308	3268
894.43	3420
894.552	3568
894.674	3450
894.796	3237
894.918	3336
895.04	3275
895.161	3439
895.283	3405
895.405	3348
895.526	3370
895.648	3401
895.769	3412
895.891	3428
896.012	3481
896.134	3458
896.255	3435
896.376	3393
896.498	3378
896.619	3431
896.74	3370
896.861	3412
896.982	3690
897.103	3876
897.224	3587
897.345	3526
897.466	3450
897.587	3481
897.708	3622
897.828	3534
897.949	3477
898.07	3317
898.19	3416
898.311	3610
898.431	3443
898.552	3519
898.672	3614
898.792	3595
898.913	3538
899.033	3401
899.153	3317
899.273	3222
899.393	3260
899.513	3321
899.633	3287
899.753	3348
899.873	3336
899.993	3397
900.113	3359
900.232	3367
900.352	3348
900.472	3310
900.591	3203
900.711	3310
900.83	3214
900.95	3401
901.069	3523
901.189	3355
901.308	3192
901.427	3138
901.546	3245
901.665	3283
901.784	3332
901.904	3245
902.023	3176
902.141	3032
902.26	3028
902.379	3131
902.498	3066
902.617	3039
902.735	3222
902.854	3245
902.973	3192
903.091	3024
903.21	3043
903.328	3199
903.446	3104
903.565	3081
903.683	3214
903.801	3157
903.919	3233
904.038	3275
904.156	3169
904.274	3298
904.392	3226
904.51	3321
904.627	3329
904.745	3424
904.863	3481
904.981	3253
905.098	3169
905.216	3237
905.334	3283
905.451	3260
905.569	3313
905.686	3405
905.803	3428
905.921	3291
906.038	3401
906.155	3340
906.272	3291
906.389	3355
906.506	3203
906.623	3237
906.74	3268
906.857	3192
906.974	3253
907.091	3469
907.208	3534
907.324	3450
907.441	3359
907.557	3207
907.674	3214
907.79	3214
907.907	3230
908.023	3317
908.139	3351
908.256	3344
908.372	3367
908.488	3336
908.604	3279
908.72	3230
908.836	3279
908.952	3256
909.068	3344
909.184	3481
909.3	3389
909.415	3492
909.531	3500
909.647	3287
909.762	3306
909.878	3272
909.993	3370
910.108	3329
910.224	3340
910.339	3401
910.454	3298
910.57	3268
910.685	3253
910.8	3599
910.915	3542
911.03	3420
911.145	3253
911.259	3283
911.374	3317
911.489	3207
911.604	3207
911.718	3097
911.833	3157
911.947	3005
912.062	3009
912.176	3142
912.291	3203
912.405	3222
912.519	3447
912.633	3450
912.748	3329
912.862	3268
912.976	3161
913.09	3039
913.204	3161
913.318	3245
913.431	3359
913.545	3348
913.659	3435
913.772	3340
913.886	3245
914	3195
914.113	3374
914.226	3382
914.34	3367
914.453	3192
914.566	3405
914.68	3310
914.793	3321
914.906	3093
915.019	3146
915.132	3062
915.245	3161
915.358	3222
915.47	3222
915.583	3253
915.696	3306
915.809	3435
915.921	3443
916.034	3245
916.146	3241
916.259	3199
916.371	3378
916.483	3374
916.595	3294
916.708	3344
916.82	3283
916.932	3370
917.044	3374
917.156	3378
917.268	3199
917.38	3317
917.491	3287
917.603	3370
917.715	3443
917.826	3435
917.938	3336
918.049	3264
918.161	3412
918.272	3568
918.384	3572
918.495	3462
918.606	3340
918.717	3260
918.828	3386
918.939	3401
919.05	3310
919.161	3351
919.272	3169
919.383	3249
919.494	3492
919.604	3663
919.715	3481
919.826	3420
919.936	3469
920.047	3606
920.157	3561
920.267	3732
920.378	3663
920.488	3542
920.598	3781
920.708	3937
920.818	3838
920.928	3781
921.038	4032
921.148	3998
921.258	3720
921.368	3633
921.477	3584
921.587	3519
921.697	3466
921.806	3618
921.916	3542
922.025	3351
922.134	3363
922.244	3313
922.353	3450
922.462	3291
922.571	3207
922.68	3077
922.789	3127
922.898	3173
923.007	3093
923.116	3218
923.224	3180
923.333	3150
923.442	3074
923.55	3097
923.659	3154
923.767	3237
923.876	3135
923.984	3226
924.092	3131
924.201	3173
924.309	3226
924.417	3249
924.525	3146
924.633	3218
924.741	3998
924.849	3070
924.956	3230
925.064	3116
925.172	3039
925.279	3116
925.387	3180
925.494	3195
925.602	3359
925.709	3336
925.816	3173
925.924	3298
926.031	3374
926.138	3325
926.245	3329
926.352	3253
926.459	3386
926.566	3443
926.673	3313
926.779	3264
926.886	3226
926.993	3173
927.099	3138
927.206	3070
927.312	3116
927.419	3222
927.525	3214
927.631	3253
927.737	3150
927.843	3142
927.95	3017
928.056	3131
928.162	3173
928.267	3226
928.373	3911
928.479	3294
928.585	3058
928.69	3203
928.796	3249
928.901	3165
929.007	3032
929.112	3203
929.218	3195
929.323	3184
929.428	3146
929.533	3313
929.638	3097
929.743	3165
929.848	3233
929.953	3195
930.058	3127
930.163	3017
930.267	3017
930.372	3180
930.477	3009
930.581	3329
930.685	3188
930.79	3043
930.894	3138
930.998	3074
931.103	3287
931.207	2952
931.311	2941
931.415	2929
931.519	2785
931.623	2830
