Data from test_V78500241_572.txt Node
Date: Fri Mar 25 16:19:09 CST 2022
User: usil
Spectrometer: V785-0024
Trigger mode: 0
Integration Time (sec): 4.000000E-1
Scans to average: 1
Nonlinearity correction enabled: false
Boxcar width: 0
Storing dark spectrum: false
XAxis mode: Wavelengths
Number of Pixels in Spectrum: 1024
>>>>>Begin Spectral Data<<<<<
801.071	2891
801.214	2952
801.356	2876
801.499	2887
801.641	2872
801.783	2899
801.926	3036
802.068	2956
802.211	2998
802.353	3024
802.496	2960
802.638	3032
802.78	3055
802.923	3100
803.065	2967
803.208	2845
803.35	2883
803.492	2933
803.635	2895
803.777	2720
803.919	2864
804.061	3192
804.204	2952
804.346	2883
804.488	2838
804.63	3013
804.773	2864
804.915	2883
805.057	3089
805.199	2944
805.341	2982
805.483	3043
805.626	3013
805.768	2960
805.91	3039
806.052	3100
806.194	3039
806.336	3237
806.478	3039
806.62	2956
806.762	3001
806.904	3043
807.046	3173
807.188	2963
807.33	2918
807.472	3020
807.614	2910
807.756	2979
807.898	2910
808.04	2872
808.182	2952
808.324	2941
808.465	2895
808.607	2883
808.749	2769
808.891	2830
809.033	2986
809.174	2971
809.316	2861
809.458	2922
809.6	2788
809.741	2792
809.883	2792
810.025	2830
810.166	2845
810.308	2811
810.45	2857
810.591	2773
810.733	2762
810.875	2819
811.016	2785
811.158	2766
811.299	2796
811.441	2914
811.582	2902
811.724	2838
811.865	2857
812.007	2899
812.148	2857
812.29	2849
812.431	2880
812.573	2937
812.714	2956
812.855	3032
812.997	3039
813.138	3142
813.279	2990
813.421	2994
813.562	2971
813.703	2861
813.845	2876
813.986	2769
814.127	2724
814.268	2792
814.41	2857
814.551	2800
814.692	2861
814.833	2773
814.974	2891
815.115	2952
815.256	2823
815.397	2815
815.539	2853
815.68	2769
815.821	2830
815.962	2960
816.103	2933
816.244	2872
816.385	2868
816.526	2982
816.666	2929
816.807	2716
816.948	2891
817.089	2918
817.23	2823
817.371	2739
817.512	2796
817.653	2830
817.793	2845
817.934	2902
818.075	2902
818.216	2998
818.356	3032
818.497	2910
818.638	2800
818.778	2826
818.919	2777
819.06	2807
819.2	2880
819.341	2800
819.481	2819
819.622	2899
819.762	3085
819.903	3051
820.043	2941
820.184	2895
820.324	2925
820.465	2994
820.605	3036
820.746	3009
820.886	2925
821.026	3093
821.167	3135
821.307	3272
821.447	3302
821.588	3222
821.728	3214
821.868	3226
822.008	3097
822.149	3195
822.289	3218
822.429	3093
822.569	3081
822.709	3199
822.849	3028
822.99	3074
823.13	3173
823.27	3218
823.41	3100
823.55	3123
823.69	3146
823.83	3199
823.97	3116
824.11	2994
824.25	3009
824.389	3032
824.529	3138
824.669	3074
824.809	3150
824.949	3203
825.089	3211
825.228	3142
825.368	2975
825.508	2929
825.648	2963
825.787	3017
825.927	2971
826.067	2963
826.206	2937
826.346	3020
826.485	3043
826.625	3085
826.765	3237
826.904	3192
827.044	2956
827.183	2887
827.323	2883
827.462	2956
827.601	2899
827.741	2922
827.88	2975
828.02	2842
828.159	2975
828.298	3020
828.437	3112
828.577	3020
828.716	3230
828.855	3058
828.994	2902
829.134	2872
829.273	2906
829.412	2849
829.551	2872
829.69	2914
829.829	2971
829.968	3150
830.107	2982
830.246	3028
830.385	2952
830.524	2918
830.663	2811
830.802	2727
830.941	2598
831.08	2648
831.219	2746
831.357	2712
831.496	2956
831.635	2708
831.774	2632
831.913	2636
832.051	2541
832.19	2610
832.329	2663
832.467	2537
832.606	2480
832.744	2571
832.883	2575
833.022	2556
833.16	2663
833.299	2674
833.437	2697
833.576	2705
833.714	2731
833.852	2739
833.991	2750
834.129	2826
834.267	2811
834.406	2777
834.544	2864
834.682	2864
834.821	2834
834.959	3074
835.097	2933
835.235	3058
835.373	2986
835.511	3024
835.65	2967
835.788	2960
835.926	2845
836.064	2830
836.202	2842
836.34	3097
836.478	3138
836.615	3055
836.753	3108
836.891	3195
837.029	3127
837.167	3100
837.305	3013
837.443	2975
837.58	2937
837.718	3127
837.856	3066
837.993	3051
838.131	3135
838.269	3104
838.406	3104
838.544	3108
838.681	2929
838.819	2887
838.956	2823
839.094	2834
839.231	2918
839.369	2998
839.506	3393
839.643	3173
839.781	2986
839.918	2963
840.055	3070
840.193	3005
840.33	3062
840.467	3070
840.604	3127
840.742	3378
840.879	3036
841.016	3074
841.153	3085
841.29	3291
841.427	3275
841.564	3253
841.701	3351
841.838	3214
841.975	3169
842.112	3241
842.249	3051
842.385	3058
842.522	3260
842.659	3066
842.796	3013
842.933	3097
843.069	3001
843.206	3024
843.343	3188
843.479	3089
843.616	3165
843.752	2880
843.889	2849
844.025	3070
844.162	2849
844.298	3058
844.435	2967
844.571	2861
844.708	3093
844.844	3180
844.98	3230
845.117	3157
845.253	3058
845.389	3017
845.525	3051
845.661	3108
845.798	3005
845.934	3127
846.07	3066
846.206	3176
846.342	3287
846.478	3184
846.614	3089
846.75	3097
846.886	3013
847.022	3207
847.158	3146
847.294	3214
847.429	3211
847.565	3192
847.701	3496
847.837	3032
847.972	2967
848.108	3146
848.244	3131
848.379	2982
848.515	2933
848.65	2914
848.786	2979
848.921	3024
849.057	3047
849.192	3154
849.328	3100
849.463	3089
849.598	3058
849.734	2990
849.869	2960
850.004	2906
850.14	2948
850.275	2895
850.41	2853
850.545	2868
850.68	2906
850.815	2948
850.95	2948
851.085	3180
851.22	3100
851.355	3024
851.49	2937
851.625	2990
851.76	3028
851.895	2929
852.03	2899
852.165	2998
852.299	3104
852.434	3176
852.569	3142
852.703	3169
852.838	3222
852.973	3329
853.107	3310
853.242	3161
853.376	3093
853.511	2994
853.645	3009
853.78	3222
853.914	3097
854.048	3055
854.183	3047
854.317	3150
854.451	3264
854.585	3123
854.72	3077
854.854	3165
854.988	2994
855.122	3081
855.256	2944
855.39	3116
855.524	3260
855.658	3169
855.792	3195
855.926	3199
856.06	3192
856.194	3287
856.327	3169
856.461	3074
856.595	3093
856.729	3074
856.862	3207
856.996	3173
857.13	3165
857.263	3203
857.397	3275
857.53	3142
857.664	3207
857.797	3207
857.931	3211
858.064	3146
858.197	3237
858.331	3112
858.464	3058
858.597	2986
858.731	3127
858.864	3150
858.997	3112
859.13	3165
859.263	3165
859.396	3169
859.529	3104
859.662	3047
859.795	3047
859.928	3116
860.061	3272
860.194	3275
860.327	3100
860.46	3077
860.592	3253
860.725	3256
860.858	3214
860.99	3127
861.123	2994
861.256	3047
861.388	3119
861.521	3694
861.653	3066
861.786	2994
861.918	2998
862.05	3097
862.183	3119
862.315	3123
862.447	3188
862.58	3097
862.712	2941
862.844	2830
862.976	3028
863.108	3032
863.24	3370
863.372	2876
863.504	3009
863.636	2918
863.768	3043
863.9	2990
864.032	2922
864.164	2971
864.296	3001
864.428	3089
864.559	3108
864.691	3058
864.823	3051
864.954	3055
865.086	3051
865.217	2998
865.349	2944
865.48	2967
865.612	3017
865.743	3165
865.875	2967
866.006	2918
866.137	2986
866.269	2925
866.4	2929
866.531	2925
866.662	2880
866.793	2922
866.924	2910
867.055	2952
867.186	2883
867.317	2883
867.448	2830
867.579	2849
867.71	2834
867.841	2819
867.972	2929
868.103	2922
868.233	2868
868.364	2906
868.495	2872
868.625	3039
868.756	3142
868.886	2979
869.017	2998
869.147	3161
869.278	3176
869.408	3039
869.539	2982
869.669	3074
869.799	3028
869.929	3131
870.06	3123
870.19	3321
870.32	3298
870.45	3302
870.58	3393
870.71	3412
870.84	3458
870.97	3268
871.1	3195
871.23	3428
871.36	3485
871.489	3325
871.619	3424
871.749	3378
871.879	3359
872.008	3424
872.138	3382
872.267	3256
872.397	3138
872.526	3089
872.656	3013
872.785	3051
872.915	3245
873.044	3321
873.173	3218
873.303	3291
873.432	3264
873.561	3275
873.69	3157
873.819	3150
873.948	3188
874.077	3085
874.206	3017
874.335	3100
874.464	3253
874.593	3344
874.722	3245
874.851	3370
874.979	3370
875.108	3272
875.237	3184
875.365	3173
875.494	3165
875.623	3222
875.751	3089
875.88	3135
876.008	3180
876.136	3214
876.265	3363
876.393	3523
876.521	3428
876.65	3351
876.778	3344
876.906	3226
877.034	3176
877.162	3203
877.29	3195
877.418	3237
877.546	3268
877.674	3214
877.802	3214
877.93	3233
878.058	3127
878.185	3085
878.313	3195
878.441	3211
878.568	3047
878.696	3154
878.824	3241
878.951	3310
879.079	3420
879.206	3603
879.333	3420
879.461	3310
879.588	3367
879.715	3462
879.842	3553
879.97	3389
880.097	3138
880.224	3150
880.351	3218
880.478	3222
880.605	3184
880.732	3157
880.859	3435
880.986	3317
881.112	3325
881.239	3203
881.366	3089
881.493	3039
881.619	2986
881.746	3074
881.872	3093
881.999	3108
882.125	3146
882.252	3218
882.378	3268
882.505	3409
882.631	3245
882.757	3146
882.883	3176
883.01	3192
883.136	3157
883.262	3089
883.388	3097
883.514	3317
883.64	3348
883.766	3294
883.892	3195
884.018	3287
884.143	3397
884.269	3576
884.395	3226
884.52	3161
884.646	3180
884.772	3112
884.897	3108
885.023	3211
885.148	3302
885.274	3401
885.399	3382
885.524	3291
885.65	3253
885.775	3283
885.9	3283
886.025	3416
886.15	3363
886.275	3291
886.4	3253
886.525	3313
886.65	3245
886.775	3287
886.9	3477
887.025	3629
887.149	3389
887.274	3226
887.399	3180
887.523	3195
887.648	3154
887.773	3214
887.897	3367
888.021	3393
888.146	3302
888.27	3416
888.395	3534
888.519	3458
888.643	3435
888.767	3428
888.891	3336
889.015	3226
889.139	3294
889.263	3253
889.387	3405
889.511	3519
889.635	3431
889.759	3291
889.883	3287
890.006	3378
890.13	3439
890.254	3256
890.377	3294
890.501	3165
890.624	3184
890.748	3272
890.871	3176
890.995	3058
891.118	3081
891.241	3207
891.364	3222
891.488	3298
891.611	3180
891.734	3203
891.857	3260
891.98	3245
892.103	3310
892.226	3249
892.349	3192
892.471	3116
892.594	3207
892.717	3302
892.839	3264
892.962	3287
893.085	3344
893.207	3283
893.33	3157
893.452	3195
893.575	3363
893.697	3230
893.819	3458
893.941	3492
894.064	3443
894.186	3272
894.308	3245
894.43	3469
894.552	3553
894.674	3466
894.796	3294
894.918	3291
895.04	3302
895.161	3412
895.283	3405
895.405	3336
895.526	3351
895.648	3389
895.769	3424
895.891	3450
896.012	3473
896.134	3481
896.255	3424
896.376	3378
896.498	3355
896.619	3447
896.74	3359
896.861	3374
896.982	3663
897.103	3831
897.224	3561
897.345	3492
897.466	3428
897.587	3504
897.708	3603
897.828	3545
897.949	3458
898.07	3348
898.19	3416
898.311	3595
898.431	3393
898.552	3458
898.672	3614
898.792	3572
898.913	3568
899.033	3397
899.153	3302
899.273	3230
899.393	3287
899.513	3283
899.633	3329
899.753	3298
899.873	3275
899.993	3393
900.113	3329
900.232	3393
900.352	3336
900.472	3325
900.591	3226
900.711	3256
900.83	3268
900.95	3454
901.069	3488
901.189	3321
901.308	3203
901.427	3146
901.546	3199
901.665	3306
901.784	3336
901.904	3203
902.023	3116
902.141	3055
902.26	3028
902.379	3131
902.498	3070
902.617	3047
902.735	3230
902.854	3218
902.973	3199
903.091	3047
903.21	3089
903.328	3154
903.446	3085
903.565	3077
903.683	3184
903.801	3127
903.919	3226
904.038	3226
904.156	3154
904.274	3294
904.392	3218
904.51	3279
904.627	3359
904.745	3416
904.863	3530
904.981	3260
905.098	3154
905.216	3233
905.334	3310
905.451	3310
905.569	3329
905.686	3450
905.803	3424
905.921	3245
906.038	3420
906.155	3355
906.272	3264
906.389	3317
906.506	3260
906.623	3249
906.74	3272
906.857	3237
906.974	3249
907.091	3416
907.208	3561
907.324	3496
907.441	3409
907.557	3226
907.674	3199
907.79	3207
907.907	3268
908.023	3386
908.139	3363
908.256	3294
908.372	3382
908.488	3355
908.604	3264
908.72	3233
908.836	3310
908.952	3294
909.068	3367
909.184	3462
909.3	3370
909.415	3469
909.531	3420
909.647	3249
909.762	3283
909.878	3253
909.993	3325
910.108	3332
910.224	3374
910.339	3412
910.454	3344
910.57	3298
910.685	3237
910.8	3599
910.915	3557
911.03	3424
911.145	3294
911.259	3260
911.374	3306
911.489	3199
911.604	3218
911.718	3104
911.833	3154
911.947	3009
912.062	2982
912.176	3169
912.291	3188
912.405	3207
912.519	3450
912.633	3462
912.748	3351
912.862	3260
912.976	3161
913.09	3036
913.204	3127
913.318	3214
913.431	3363
913.545	3336
913.659	3378
913.772	3348
913.886	3207
914	3165
914.113	3359
914.226	3424
914.34	3336
914.453	3199
914.566	3420
914.68	3256
914.793	3321
914.906	3142
915.019	3135
915.132	3070
915.245	3157
915.358	3233
915.47	3211
915.583	3253
915.696	3256
915.809	3424
915.921	3412
916.034	3268
916.146	3211
916.259	3218
916.371	3412
916.483	3325
916.595	3272
916.708	3355
916.82	3302
916.932	3348
917.044	3329
917.156	3378
917.268	3241
917.38	3329
917.491	3294
917.603	3393
917.715	3481
917.826	3492
917.938	3405
918.049	3233
918.161	3382
918.272	3576
918.384	3572
918.495	3466
918.606	3340
918.717	3275
918.828	3397
918.939	3386
919.05	3317
919.161	3336
919.272	3184
919.383	3287
919.494	3496
919.604	3667
919.715	3488
919.826	3443
919.936	3462
920.047	3587
920.157	3507
920.267	3747
920.378	3572
920.488	3561
920.598	3808
920.708	3953
920.818	3842
920.928	3804
921.038	4040
921.148	3991
921.258	3663
921.368	3603
921.477	3622
921.587	3530
921.697	3481
921.806	3648
921.916	3519
922.025	3344
922.134	3389
922.244	3321
922.353	3466
922.462	3256
922.571	3176
922.68	3089
922.789	3081
922.898	3146
923.007	3077
923.116	3249
923.224	3169
923.333	3169
923.442	3089
923.55	3070
923.659	3119
923.767	3192
923.876	3070
923.984	3207
924.092	3097
924.201	3180
924.309	3226
924.417	3245
924.525	3169
924.633	3230
924.741	4017
924.849	3066
924.956	3245
925.064	3085
925.172	3039
925.279	3074
925.387	3192
925.494	3203
925.602	3374
925.709	3310
925.816	3176
925.924	3264
926.031	3359
926.138	3310
926.245	3370
926.352	3241
926.459	3409
926.566	3458
926.673	3332
926.779	3241
926.886	3241
926.993	3123
927.099	3127
927.206	3097
927.312	3119
927.419	3211
927.525	3199
927.631	3264
927.737	3138
927.843	3081
927.95	3036
928.056	3154
928.162	3138
928.267	3241
928.373	3804
928.479	3310
928.585	3062
928.69	3203
928.796	3306
928.901	3184
929.007	3028
929.112	3214
929.218	3165
929.323	3127
929.428	3173
929.533	3302
929.638	3085
929.743	3161
929.848	3249
929.953	3180
930.058	3142
930.163	2990
930.267	3058
930.372	3214
930.477	3032
930.581	3336
930.685	3188
930.79	3020
930.894	3138
930.998	3116
931.103	3260
931.207	2952
931.311	2944
931.415	2899
931.519	2788
931.623	2785
