Data from test_V78500241_208.txt Node
Date: Fri Mar 25 16:16:38 CST 2022
User: usil
Spectrometer: V785-0024
Trigger mode: 0
Integration Time (sec): 4.000000E-1
Scans to average: 1
Nonlinearity correction enabled: false
Boxcar width: 0
Storing dark spectrum: false
XAxis mode: Wavelengths
Number of Pixels in Spectrum: 1024
>>>>>Begin Spectral Data<<<<<
801.071	2975
801.214	2963
801.356	2861
801.499	2925
801.641	2941
801.783	2967
801.926	3043
802.068	3001
802.211	2986
802.353	3055
802.496	2986
802.638	3028
802.78	3051
802.923	3058
803.065	3066
803.208	2887
803.35	2937
803.492	2979
803.635	2902
803.777	2796
803.919	2887
804.061	3214
804.204	2982
804.346	2922
804.488	2853
804.63	3009
804.773	2906
804.915	2899
805.057	3108
805.199	2937
805.341	3013
805.483	3074
805.626	3005
805.768	2975
805.91	3104
806.052	3154
806.194	3089
806.336	3260
806.478	3020
806.62	2975
806.762	2971
806.904	3089
807.046	3188
807.188	3070
807.33	2933
807.472	3013
807.614	2933
807.756	3005
807.898	2918
808.04	2918
808.182	3013
808.324	3005
808.465	2906
808.607	2929
808.749	2819
808.891	2849
809.033	3013
809.174	3017
809.316	2899
809.458	2929
809.6	2792
809.741	2788
809.883	2788
810.025	2864
810.166	2902
810.308	2868
810.45	2895
810.591	2796
810.733	2769
810.875	2853
811.016	2826
811.158	2785
811.299	2845
811.441	2937
811.582	2922
811.724	2804
811.865	2872
812.007	2929
812.148	2872
812.29	2838
812.431	2880
812.573	2960
812.714	3020
812.855	3047
812.997	3066
813.138	3100
813.279	3020
813.421	2975
813.562	2925
813.703	2895
813.845	2883
813.986	2773
814.127	2746
814.268	2842
814.41	2872
814.551	2823
814.692	2880
814.833	2792
814.974	2914
815.115	2994
815.256	2807
815.397	2826
815.539	2880
815.68	2819
815.821	2838
815.962	2941
816.103	2956
816.244	2883
816.385	2883
816.526	2956
816.666	2933
816.807	2785
816.948	2910
817.089	2914
817.23	2887
817.371	2769
817.512	2823
817.653	2857
817.793	2864
817.934	2861
818.075	3001
818.216	3047
818.356	3036
818.497	2876
818.638	2819
818.778	2811
818.919	2823
819.06	2773
819.2	2872
819.341	2830
819.481	2826
819.622	2929
819.762	3135
819.903	3077
820.043	2952
820.184	2944
820.324	2922
820.465	3028
820.605	3039
820.746	3058
820.886	2922
821.026	3116
821.167	3214
821.307	3272
821.447	3317
821.588	3253
821.728	3180
821.868	3233
822.008	3131
822.149	3222
822.289	3272
822.429	3127
822.569	3097
822.709	3195
822.849	3055
822.99	3119
823.13	3222
823.27	3272
823.41	3157
823.55	3180
823.69	3161
823.83	3230
823.97	3138
824.11	3036
824.25	3017
824.389	3100
824.529	3157
824.669	3123
824.809	3237
824.949	3302
825.089	3245
825.228	3211
825.368	3055
825.508	3024
825.648	3020
825.787	3055
825.927	3123
826.067	2994
826.206	2982
826.346	3108
826.485	3123
826.625	3161
826.765	3351
826.904	3256
827.044	3051
827.183	2986
827.323	2902
827.462	3051
827.601	2960
827.741	2982
827.88	2982
828.02	2899
828.159	3036
828.298	3097
828.437	3173
828.577	3089
828.716	3325
828.855	3150
828.994	2956
829.134	2941
829.273	2956
829.412	2918
829.551	2899
829.69	2963
829.829	3081
829.968	3199
830.107	3070
830.246	3062
830.385	2986
830.524	2937
830.663	2937
830.802	2781
830.941	2701
831.08	2667
831.219	2785
831.357	2796
831.496	2998
831.635	2781
831.774	2705
831.913	2712
832.051	2579
832.19	2625
832.329	2743
832.467	2594
832.606	2564
832.744	2636
832.883	2629
833.022	2655
833.16	2746
833.299	2735
833.437	2735
833.576	2762
833.714	2758
833.852	2804
833.991	2819
834.129	2914
834.267	2891
834.406	2842
834.544	2906
834.682	2906
834.821	2933
834.959	3100
835.097	2941
835.235	3100
835.373	3051
835.511	3074
835.65	2994
835.788	3020
835.926	2925
836.064	2834
836.202	2895
836.34	3119
836.478	3192
836.615	3085
836.753	3180
836.891	3268
837.029	3218
837.167	3195
837.305	3150
837.443	3131
837.58	2952
837.718	3169
837.856	3108
837.993	3066
838.131	3192
838.269	3195
838.406	3150
838.544	3123
838.681	2971
838.819	2975
838.956	2857
839.094	2857
839.231	2971
839.369	3024
839.506	3412
839.643	3256
839.781	3070
839.918	2994
840.055	3081
840.193	3093
840.33	3127
840.467	3127
840.604	3184
840.742	3431
840.879	3123
841.016	3116
841.153	3173
841.29	3370
841.427	3329
841.564	3332
841.701	3389
841.838	3279
841.975	3211
842.112	3230
842.249	3131
842.385	3097
842.522	3317
842.659	3157
842.796	3131
842.933	3161
843.069	3089
843.206	3074
843.343	3214
843.479	3119
843.616	3180
843.752	2906
843.889	2895
844.025	3161
844.162	2933
844.298	3127
844.435	3005
844.571	2975
844.708	3127
844.844	3264
844.98	3294
845.117	3222
845.253	3097
845.389	3013
845.525	3123
845.661	3150
845.798	3047
845.934	3131
846.07	3100
846.206	3260
846.342	3363
846.478	3302
846.614	3154
846.75	3066
846.886	3051
847.022	3253
847.158	3176
847.294	3249
847.429	3264
847.565	3268
847.701	3534
847.837	3062
847.972	3043
848.108	3199
848.244	3188
848.379	3036
848.515	2979
848.65	2948
848.786	2994
848.921	3051
849.057	3165
849.192	3207
849.328	3093
849.463	3135
849.598	3112
849.734	3051
849.869	3013
850.004	2929
850.14	2994
850.275	2925
850.41	2906
850.545	2948
850.68	2971
850.815	3036
850.95	3013
851.085	3211
851.22	3165
851.355	3070
851.49	2982
851.625	3055
851.76	3047
851.895	2990
852.03	2956
852.165	3074
852.299	3142
852.434	3256
852.569	3188
852.703	3253
852.838	3306
852.973	3424
853.107	3405
853.242	3180
853.376	3142
853.511	3043
853.645	3100
853.78	3287
853.914	3138
854.048	3154
854.183	3142
854.317	3173
854.451	3344
854.585	3173
854.72	3146
854.854	3230
854.988	3104
855.122	3093
855.256	2998
855.39	3135
855.524	3264
855.658	3233
855.792	3157
855.926	3241
856.06	3283
856.194	3310
856.327	3165
856.461	3085
856.595	3119
856.729	3131
856.862	3291
856.996	3192
857.13	3233
857.263	3249
857.397	3340
857.53	3135
857.664	3241
857.797	3260
857.931	3321
858.064	3233
858.197	3237
858.331	3169
858.464	3138
858.597	3047
858.731	3154
858.864	3180
858.997	3116
859.13	3199
859.263	3199
859.396	3249
859.529	3104
859.662	3112
859.795	3104
859.928	3199
860.061	3310
860.194	3298
860.327	3146
860.46	3131
860.592	3294
860.725	3287
860.858	3275
860.99	3146
861.123	3116
861.256	3077
861.388	3222
861.521	3884
861.653	3066
861.786	3024
861.918	3055
862.05	3093
862.183	3146
862.315	3169
862.447	3218
862.58	3135
862.712	2986
862.844	2922
862.976	3055
863.108	3077
863.24	3389
863.372	2906
863.504	2990
863.636	2975
863.768	3077
863.9	3013
864.032	2963
864.164	3020
864.296	3043
864.428	3142
864.559	3112
864.691	3127
864.823	3089
864.954	3093
865.086	3051
865.217	3058
865.349	3005
865.48	3039
865.612	3070
865.743	3165
865.875	3062
866.006	2986
866.137	3017
866.269	2986
866.4	2982
866.531	2975
866.662	2929
866.793	2922
866.924	2925
867.055	3058
867.186	2948
867.317	2929
867.448	2887
867.579	2887
867.71	2906
867.841	2891
867.972	2922
868.103	2937
868.233	2963
868.364	2899
868.495	2933
868.625	3135
868.756	3199
868.886	2998
869.017	3047
869.147	3199
869.278	3195
869.408	3097
869.539	3039
869.669	3142
869.799	3089
869.929	3157
870.06	3108
870.19	3405
870.32	3348
870.45	3363
870.58	3424
870.71	3469
870.84	3466
870.97	3344
871.1	3233
871.23	3469
871.36	3488
871.489	3355
871.619	3405
871.749	3435
871.879	3496
872.008	3538
872.138	3401
872.267	3291
872.397	3165
872.526	3142
872.656	3043
872.785	3127
872.915	3279
873.044	3344
873.173	3264
873.303	3279
873.432	3283
873.561	3218
873.69	3176
873.819	3184
873.948	3211
874.077	3112
874.206	3081
874.335	3131
874.464	3241
874.593	3363
874.722	3283
874.851	3473
874.979	3348
875.108	3401
875.237	3195
875.365	3207
875.494	3199
875.623	3306
875.751	3104
875.88	3150
876.008	3260
876.136	3249
876.265	3348
876.393	3553
876.521	3428
876.65	3401
876.778	3325
876.906	3287
877.034	3233
877.162	3279
877.29	3214
877.418	3264
877.546	3275
877.674	3283
877.802	3279
877.93	3253
878.058	3192
878.185	3169
878.313	3245
878.441	3249
878.568	3123
878.696	3180
878.824	3268
878.951	3321
879.079	3477
879.206	3671
879.333	3462
879.461	3344
879.588	3416
879.715	3523
879.842	3633
879.97	3397
880.097	3211
880.224	3157
880.351	3165
880.478	3256
880.605	3214
880.732	3195
880.859	3496
880.986	3351
881.112	3317
881.239	3237
881.366	3138
881.493	3085
881.619	3062
881.746	3112
881.872	3135
881.999	3146
882.125	3195
882.252	3287
882.378	3294
882.505	3424
882.631	3317
882.757	3195
882.883	3287
883.01	3218
883.136	3192
883.262	3161
883.388	3150
883.514	3374
883.64	3439
883.766	3363
883.892	3192
884.018	3283
884.143	3435
884.269	3599
884.395	3237
884.52	3173
884.646	3237
884.772	3146
884.897	3142
885.023	3256
885.148	3348
885.274	3443
885.399	3428
885.524	3306
885.65	3264
885.775	3340
885.9	3317
886.025	3469
886.15	3344
886.275	3325
886.4	3249
886.525	3374
886.65	3313
886.775	3332
886.9	3557
887.025	3644
887.149	3393
887.274	3332
887.399	3237
887.523	3237
887.648	3195
887.773	3241
887.897	3393
888.021	3393
888.146	3359
888.27	3428
888.395	3591
888.519	3458
888.643	3496
888.767	3473
888.891	3321
889.015	3256
889.139	3302
889.263	3325
889.387	3477
889.511	3549
889.635	3485
889.759	3348
889.883	3310
890.006	3386
890.13	3526
890.254	3306
890.377	3367
890.501	3207
890.624	3233
890.748	3363
890.871	3207
890.995	3104
891.118	3116
891.241	3222
891.364	3214
891.488	3386
891.611	3192
891.734	3264
891.857	3275
891.98	3260
892.103	3386
892.226	3306
892.349	3245
892.471	3150
892.594	3260
892.717	3298
892.839	3332
892.962	3321
893.085	3389
893.207	3344
893.33	3195
893.452	3245
893.575	3351
893.697	3287
893.819	3507
893.941	3511
894.064	3431
894.186	3283
894.308	3264
894.43	3469
894.552	3545
894.674	3485
894.796	3317
894.918	3329
895.04	3272
895.161	3462
895.283	3424
895.405	3287
895.526	3424
895.648	3462
895.769	3466
895.891	3523
896.012	3496
896.134	3466
896.255	3450
896.376	3409
896.498	3393
896.619	3454
896.74	3412
896.861	3443
896.982	3720
897.103	3884
897.224	3629
897.345	3542
897.466	3431
897.587	3481
897.708	3656
897.828	3561
897.949	3458
898.07	3393
898.19	3477
898.311	3629
898.431	3511
898.552	3530
898.672	3641
898.792	3625
898.913	3534
899.033	3454
899.153	3310
899.273	3237
899.393	3279
899.513	3351
899.633	3340
899.753	3351
899.873	3279
899.993	3397
900.113	3348
900.232	3450
900.352	3386
900.472	3306
900.591	3222
900.711	3317
900.83	3260
900.95	3416
901.069	3519
901.189	3351
901.308	3176
901.427	3135
901.546	3222
901.665	3321
901.784	3313
901.904	3253
902.023	3157
902.141	3051
902.26	3020
902.379	3154
902.498	3093
902.617	3100
902.735	3237
902.854	3249
902.973	3256
903.091	3066
903.21	3077
903.328	3173
903.446	3150
903.565	3123
903.683	3180
903.801	3154
903.919	3279
904.038	3332
904.156	3230
904.274	3275
904.392	3291
904.51	3321
904.627	3355
904.745	3450
904.863	3523
904.981	3291
905.098	3207
905.216	3264
905.334	3321
905.451	3336
905.569	3291
905.686	3450
905.803	3485
905.921	3321
906.038	3462
906.155	3386
906.272	3268
906.389	3348
906.506	3253
906.623	3264
906.74	3275
906.857	3199
906.974	3256
907.091	3500
907.208	3568
907.324	3473
907.441	3393
907.557	3275
907.674	3245
907.79	3214
907.907	3310
908.023	3367
908.139	3386
908.256	3378
908.372	3386
908.488	3355
908.604	3310
908.72	3260
908.836	3332
908.952	3294
909.068	3378
909.184	3488
909.3	3435
909.415	3530
909.531	3504
909.647	3302
909.762	3302
909.878	3279
909.993	3348
910.108	3367
910.224	3363
910.339	3462
910.454	3374
910.57	3310
910.685	3260
910.8	3606
910.915	3584
911.03	3443
911.145	3291
911.259	3340
911.374	3321
911.489	3253
911.604	3245
911.718	3173
911.833	3142
911.947	3058
912.062	3047
912.176	3161
912.291	3192
912.405	3256
912.519	3469
912.633	3473
912.748	3386
912.862	3336
912.976	3154
913.09	3097
913.204	3138
913.318	3237
913.431	3374
913.545	3389
913.659	3409
913.772	3321
913.886	3253
914	3207
914.113	3370
914.226	3412
914.34	3374
914.453	3241
914.566	3454
914.68	3313
914.793	3340
914.906	3173
915.019	3108
915.132	3116
915.245	3237
915.358	3233
915.47	3241
915.583	3268
915.696	3325
915.809	3469
915.921	3424
916.034	3302
916.146	3287
916.259	3237
916.371	3409
916.483	3359
916.595	3321
916.708	3351
916.82	3344
916.932	3359
917.044	3359
917.156	3386
917.268	3226
917.38	3298
917.491	3310
917.603	3393
917.715	3500
917.826	3469
917.938	3428
918.049	3294
918.161	3504
918.272	3622
918.384	3606
918.495	3504
918.606	3317
918.717	3294
918.828	3412
918.939	3435
919.05	3332
919.161	3420
919.272	3195
919.383	3291
919.494	3530
919.604	3667
919.715	3511
919.826	3458
919.936	3462
920.047	3595
920.157	3557
920.267	3781
920.378	3679
920.488	3568
920.598	3831
920.708	3922
920.818	3888
920.928	3804
921.038	4025
921.148	4010
921.258	3720
921.368	3641
921.477	3595
921.587	3584
921.697	3485
921.806	3652
921.916	3580
922.025	3367
922.134	3363
922.244	3340
922.353	3435
922.462	3275
922.571	3245
922.68	3135
922.789	3085
922.898	3165
923.007	3097
923.116	3211
923.224	3146
923.333	3211
923.442	3116
923.55	3104
923.659	3173
923.767	3226
923.876	3157
923.984	3264
924.092	3112
924.201	3233
924.309	3237
924.417	3264
924.525	3211
924.633	3226
924.741	4177
924.849	3066
924.956	3272
925.064	3100
925.172	3097
925.279	3108
925.387	3173
925.494	3195
925.602	3378
925.709	3329
925.816	3214
925.924	3313
926.031	3389
926.138	3348
926.245	3397
926.352	3260
926.459	3439
926.566	3496
926.673	3325
926.779	3230
926.886	3256
926.993	3184
927.099	3154
927.206	3112
927.312	3131
927.419	3264
927.525	3241
927.631	3268
927.737	3180
927.843	3112
927.95	3066
928.056	3165
928.162	3192
928.267	3253
928.373	3876
928.479	3378
928.585	3093
928.69	3226
928.796	3287
928.901	3203
929.007	3077
929.112	3233
929.218	3173
929.323	3157
929.428	3131
929.533	3344
929.638	3123
929.743	3173
929.848	3264
929.953	3241
930.058	3161
930.163	3020
930.267	3077
930.372	3233
930.477	3036
930.581	3344
930.685	3180
930.79	3070
930.894	3123
930.998	3100
931.103	3275
931.207	2975
931.311	2941
931.415	2933
931.519	2773
931.623	2807
