Data from test_V78500241_38.txt Node
Date: Fri Mar 25 16:15:28 CST 2022
User: usil
Spectrometer: V785-0024
Trigger mode: 0
Integration Time (sec): 4.000000E-1
Scans to average: 1
Nonlinearity correction enabled: false
Boxcar width: 0
Storing dark spectrum: false
XAxis mode: Wavelengths
Number of Pixels in Spectrum: 1024
>>>>>Begin Spectral Data<<<<<
801.071	2975
801.214	2979
801.356	2899
801.499	2937
801.641	2895
801.783	2960
801.926	3077
802.068	2998
802.211	3036
802.353	3051
802.496	2986
802.638	3024
802.78	3081
802.923	3116
803.065	3024
803.208	2937
803.35	2925
803.492	2937
803.635	2994
803.777	2834
803.919	2937
804.061	3233
804.204	2986
804.346	2941
804.488	2883
804.63	3009
804.773	2910
804.915	2986
805.057	3142
805.199	2956
805.341	2990
805.483	3070
805.626	3039
805.768	2967
805.91	3100
806.052	3146
806.194	3036
806.336	3268
806.478	3066
806.62	3020
806.762	3055
806.904	3066
807.046	3211
807.188	2998
807.33	2956
807.472	3017
807.614	2956
807.756	3017
807.898	2914
808.04	2941
808.182	2982
808.324	2998
808.465	2925
808.607	2929
808.749	2830
808.891	2895
809.033	3020
809.174	2990
809.316	2918
809.458	2922
809.6	2807
809.741	2777
809.883	2815
810.025	2864
810.166	2914
810.308	2876
810.45	2895
810.591	2838
810.733	2826
810.875	2834
811.016	2800
811.158	2800
811.299	2857
811.441	2975
811.582	2933
811.724	2838
811.865	2895
812.007	2922
812.148	2899
812.29	2868
812.431	2941
812.573	2960
812.714	2998
812.855	3036
812.997	3081
813.138	3123
813.279	3009
813.421	2967
813.562	3001
813.703	2861
813.845	2914
813.986	2746
814.127	2720
814.268	2842
814.41	2826
814.551	2834
814.692	2918
814.833	2864
814.974	2925
815.115	3001
815.256	2819
815.397	2834
815.539	2880
815.68	2815
815.821	2826
815.962	2982
816.103	2971
816.244	2887
816.385	2914
816.526	2990
816.666	2933
816.807	2769
816.948	2929
817.089	2925
817.23	2895
817.371	2838
817.512	2804
817.653	2868
817.793	2845
817.934	2880
818.075	3028
818.216	3024
818.356	3058
818.497	2925
818.638	2807
818.778	2864
818.919	2864
819.06	2781
819.2	2883
819.341	2845
819.481	2826
819.622	2963
819.762	3165
819.903	3093
820.043	2971
820.184	2937
820.324	2944
820.465	3081
820.605	3062
820.746	3085
820.886	3009
821.026	3165
821.167	3203
821.307	3317
821.447	3325
821.588	3310
821.728	3317
821.868	3233
822.008	3150
822.149	3256
822.289	3336
822.429	3173
822.569	3161
822.709	3237
822.849	3093
822.99	3146
823.13	3233
823.27	3272
823.41	3161
823.55	3211
823.69	3245
823.83	3275
823.97	3207
824.11	3062
824.25	3085
824.389	3135
824.529	3192
824.669	3169
824.809	3249
824.949	3340
825.089	3310
825.228	3214
825.368	3104
825.508	3020
825.648	3062
825.787	3104
825.927	3116
826.067	3028
826.206	3036
826.346	3112
826.485	3169
826.625	3203
826.765	3382
826.904	3287
827.044	3066
827.183	3013
827.323	2933
827.462	3070
827.601	3013
827.741	3009
827.88	3039
828.02	2929
828.159	3043
828.298	3108
828.437	3192
828.577	3119
828.716	3344
828.855	3199
828.994	3024
829.134	2967
829.273	3051
829.412	2944
829.551	2937
829.69	2952
829.829	3097
829.968	3222
830.107	3097
830.246	3108
830.385	3036
830.524	2986
830.663	2895
830.802	2769
830.941	2708
831.08	2727
831.219	2819
831.357	2853
831.496	3009
831.635	2830
831.774	2724
831.913	2731
832.051	2629
832.19	2655
832.329	2800
832.467	2610
832.606	2552
832.744	2648
832.883	2655
833.022	2636
833.16	2743
833.299	2777
833.437	2773
833.576	2800
833.714	2796
833.852	2811
833.991	2861
834.129	2910
834.267	2906
834.406	2887
834.544	2925
834.682	2948
834.821	2933
834.959	3138
835.097	2986
835.235	3135
835.373	3058
835.511	3119
835.65	3047
835.788	2998
835.926	2887
836.064	2868
836.202	2925
836.34	3184
836.478	3192
836.615	3116
836.753	3207
836.891	3279
837.029	3233
837.167	3211
837.305	3127
837.443	3131
837.58	3032
837.718	3169
837.856	3131
837.993	3051
838.131	3195
838.269	3169
838.406	3184
838.544	3123
838.681	3028
838.819	2975
838.956	2902
839.094	2864
839.231	2994
839.369	3093
839.506	3443
839.643	3279
839.781	3085
839.918	3055
840.055	3123
840.193	3123
840.33	3146
840.467	3169
840.604	3237
840.742	3504
840.879	3154
841.016	3165
841.153	3199
841.29	3412
841.427	3370
841.564	3363
841.701	3428
841.838	3287
841.975	3241
842.112	3268
842.249	3138
842.385	3127
842.522	3317
842.659	3108
842.796	3146
842.933	3180
843.069	3116
843.206	3116
843.343	3264
843.479	3180
843.616	3222
843.752	2979
843.889	2948
844.025	3154
844.162	2979
844.298	3119
844.435	3032
844.571	2982
844.708	3127
844.844	3272
844.98	3287
845.117	3245
845.253	3123
845.389	3085
845.525	3214
845.661	3173
845.798	3085
845.934	3233
846.07	3123
846.206	3279
846.342	3416
846.478	3336
846.614	3173
846.75	3142
846.886	3085
847.022	3340
847.158	3169
847.294	3279
847.429	3336
847.565	3272
847.701	3572
847.837	3036
847.972	3062
848.108	3218
848.244	3226
848.379	3077
848.515	3013
848.65	3001
848.786	3047
848.921	3104
849.057	3127
849.192	3222
849.328	3131
849.463	3203
849.598	3077
849.734	3093
849.869	3032
850.004	3032
850.14	3070
850.275	2986
850.41	2918
850.545	2929
850.68	2994
850.815	3043
850.95	3036
851.085	3256
851.22	3180
851.355	3138
851.49	3020
851.625	3058
851.76	3100
851.895	2960
852.03	2990
852.165	3108
852.299	3195
852.434	3275
852.569	3218
852.703	3245
852.838	3325
852.973	3405
853.107	3416
853.242	3218
853.376	3165
853.511	3024
853.645	3119
853.78	3313
853.914	3195
854.048	3157
854.183	3161
854.317	3279
854.451	3351
854.585	3188
854.72	3180
854.854	3287
854.988	3116
855.122	3161
855.256	3051
855.39	3211
855.524	3294
855.658	3275
855.792	3233
855.926	3230
856.06	3283
856.194	3332
856.327	3214
856.461	3131
856.595	3131
856.729	3173
856.862	3283
856.996	3207
857.13	3245
857.263	3306
857.397	3378
857.53	3207
857.664	3253
857.797	3287
857.931	3332
858.064	3256
858.197	3283
858.331	3180
858.464	3169
858.597	3036
858.731	3180
858.864	3207
858.997	3154
859.13	3245
859.263	3245
859.396	3260
859.529	3165
859.662	3119
859.795	3097
859.928	3237
860.061	3348
860.194	3340
860.327	3214
860.46	3165
860.592	3287
860.725	3321
860.858	3317
860.99	3157
861.123	3097
861.256	3112
861.388	3192
861.521	3896
861.653	3089
861.786	3005
861.918	3070
862.05	3131
862.183	3142
862.315	3214
862.447	3245
862.58	3180
862.712	3005
862.844	2963
862.976	3093
863.108	3081
863.24	3519
863.372	2948
863.504	3005
863.636	3005
863.768	3074
863.9	3024
864.032	3009
864.164	3009
864.296	3062
864.428	3150
864.559	3169
864.691	3131
864.823	3161
864.954	3062
865.086	3097
865.217	3066
865.349	3024
865.48	3047
865.612	3085
865.743	3207
865.875	3077
866.006	3005
866.137	3051
866.269	2971
866.4	2975
866.531	2975
866.662	2979
866.793	2971
866.924	2963
867.055	3051
867.186	2986
867.317	2944
867.448	2937
867.579	2910
867.71	2941
867.841	2891
867.972	3001
868.103	2937
868.233	2963
868.364	2963
868.495	2933
868.625	3135
868.756	3214
868.886	3009
869.017	3043
869.147	3192
869.278	3230
869.408	3127
869.539	3112
869.669	3154
869.799	3093
869.929	3188
870.06	3127
870.19	3397
870.32	3367
870.45	3374
870.58	3424
870.71	3511
870.84	3530
870.97	3359
871.1	3310
871.23	3564
871.36	3519
871.489	3416
871.619	3431
871.749	3466
871.879	3542
872.008	3534
872.138	3382
872.267	3340
872.397	3211
872.526	3188
872.656	3081
872.785	3165
872.915	3294
873.044	3378
873.173	3321
873.303	3306
873.432	3310
873.561	3306
873.69	3207
873.819	3222
873.948	3272
874.077	3150
874.206	3116
874.335	3123
874.464	3279
874.593	3412
874.722	3275
874.851	3458
874.979	3397
875.108	3355
875.237	3249
875.365	3218
875.494	3230
875.623	3294
875.751	3112
875.88	3207
876.008	3256
876.136	3283
876.265	3450
876.393	3557
876.521	3477
876.65	3504
876.778	3409
876.906	3294
877.034	3268
877.162	3283
877.29	3233
877.418	3332
877.546	3313
877.674	3325
877.802	3313
877.93	3272
878.058	3195
878.185	3173
878.313	3302
878.441	3291
878.568	3108
878.696	3230
878.824	3317
878.951	3355
879.079	3519
879.206	3667
879.333	3564
879.461	3374
879.588	3424
879.715	3530
879.842	3648
879.97	3428
880.097	3218
880.224	3214
880.351	3256
880.478	3279
880.605	3272
880.732	3256
880.859	3538
880.986	3359
881.112	3351
881.239	3279
881.366	3138
881.493	3062
881.619	3077
881.746	3127
881.872	3154
881.999	3165
882.125	3199
882.252	3294
882.378	3382
882.505	3530
882.631	3344
882.757	3214
882.883	3260
883.01	3283
883.136	3218
883.262	3165
883.388	3192
883.514	3389
883.64	3443
883.766	3397
883.892	3260
884.018	3260
884.143	3447
884.269	3614
884.395	3283
884.52	3272
884.646	3264
884.772	3165
884.897	3165
885.023	3287
885.148	3374
885.274	3458
885.399	3416
885.524	3325
885.65	3344
885.775	3397
885.9	3374
886.025	3530
886.15	3447
886.275	3401
886.4	3256
886.525	3332
886.65	3332
886.775	3378
886.9	3564
887.025	3701
887.149	3473
887.274	3306
887.399	3260
887.523	3264
887.648	3245
887.773	3214
887.897	3401
888.021	3488
888.146	3367
888.27	3485
888.395	3576
888.519	3477
888.643	3545
888.767	3538
888.891	3386
889.015	3310
889.139	3370
889.263	3325
889.387	3450
889.511	3568
889.635	3511
889.759	3363
889.883	3294
890.006	3477
890.13	3568
890.254	3321
890.377	3374
890.501	3253
890.624	3211
890.748	3374
890.871	3192
890.995	3192
891.118	3085
891.241	3268
891.364	3294
891.488	3374
891.611	3260
891.734	3279
891.857	3378
891.98	3302
892.103	3409
892.226	3325
892.349	3253
892.471	3169
892.594	3310
892.717	3355
892.839	3313
892.962	3329
893.085	3412
893.207	3348
893.33	3230
893.452	3287
893.575	3412
893.697	3332
893.819	3530
893.941	3538
894.064	3496
894.186	3340
894.308	3344
894.43	3485
894.552	3606
894.674	3545
894.796	3329
894.918	3378
895.04	3283
895.161	3507
895.283	3450
895.405	3393
895.526	3424
895.648	3507
895.769	3488
895.891	3542
896.012	3519
896.134	3534
896.255	3466
896.376	3454
896.498	3424
896.619	3492
896.74	3416
896.861	3450
896.982	3762
897.103	3972
897.224	3625
897.345	3545
897.466	3504
897.587	3496
897.708	3675
897.828	3637
897.949	3515
898.07	3412
898.19	3485
898.311	3656
898.431	3496
898.552	3580
898.672	3663
898.792	3675
898.913	3599
899.033	3477
899.153	3382
899.273	3294
899.393	3363
899.513	3348
899.633	3374
899.753	3363
899.873	3386
899.993	3435
900.113	3393
900.232	3458
900.352	3409
900.472	3370
900.591	3199
900.711	3340
900.83	3317
900.95	3481
901.069	3530
901.189	3389
901.308	3249
901.427	3161
901.546	3260
901.665	3374
901.784	3355
901.904	3245
902.023	3249
902.141	3047
902.26	3062
902.379	3173
902.498	3116
902.617	3081
902.735	3237
902.854	3264
902.973	3291
903.091	3093
903.21	3123
903.328	3203
903.446	3199
903.565	3161
903.683	3222
903.801	3173
903.919	3298
904.038	3325
904.156	3218
904.274	3367
904.392	3329
904.51	3321
904.627	3405
904.745	3538
904.863	3599
904.981	3313
905.098	3226
905.216	3306
905.334	3367
905.451	3386
905.569	3382
905.686	3507
905.803	3526
905.921	3359
906.038	3473
906.155	3405
906.272	3302
906.389	3409
906.506	3279
906.623	3306
906.74	3382
906.857	3222
906.974	3302
907.091	3553
907.208	3625
907.324	3507
907.441	3496
907.557	3291
907.674	3313
907.79	3287
907.907	3370
908.023	3443
908.139	3409
908.256	3405
908.372	3447
908.488	3447
908.604	3302
908.72	3302
908.836	3329
908.952	3344
909.068	3382
909.184	3545
909.3	3447
909.415	3587
909.531	3534
909.647	3336
909.762	3378
909.878	3332
909.993	3416
910.108	3397
910.224	3389
910.339	3469
910.454	3420
910.57	3363
910.685	3329
910.8	3652
910.915	3564
911.03	3519
911.145	3321
911.259	3275
911.374	3351
911.489	3298
911.604	3283
911.718	3154
911.833	3237
911.947	3093
912.062	3036
912.176	3241
912.291	3245
912.405	3272
912.519	3488
912.633	3488
912.748	3389
912.862	3310
912.976	3245
913.09	3112
913.204	3195
913.318	3260
913.431	3355
913.545	3428
913.659	3488
913.772	3386
913.886	3268
914	3272
914.113	3397
914.226	3443
914.34	3420
914.453	3264
914.566	3500
914.68	3363
914.793	3348
914.906	3195
915.019	3180
915.132	3146
915.245	3249
915.358	3230
915.47	3260
915.583	3272
915.696	3363
915.809	3504
915.921	3481
916.034	3321
916.146	3287
916.259	3241
916.371	3401
916.483	3431
916.595	3370
916.708	3397
916.82	3393
916.932	3389
917.044	3401
917.156	3378
917.268	3313
917.38	3351
917.491	3340
917.603	3409
917.715	3488
917.826	3523
917.938	3424
918.049	3332
918.161	3526
918.272	3633
918.384	3614
918.495	3561
918.606	3378
918.717	3389
918.828	3450
918.939	3504
919.05	3386
919.161	3435
919.272	3230
919.383	3317
919.494	3564
919.604	3762
919.715	3534
919.826	3458
919.936	3564
920.047	3641
920.157	3576
920.267	3793
920.378	3622
920.488	3610
920.598	3816
920.708	4036
920.818	3911
920.928	3835
921.038	4101
921.148	4017
921.258	3789
921.368	3709
921.477	3606
921.587	3599
921.697	3534
921.806	3682
921.916	3599
922.025	3389
922.134	3416
922.244	3348
922.353	3473
922.462	3313
922.571	3256
922.68	3154
922.789	3097
922.898	3195
923.007	3169
923.116	3233
923.224	3218
923.333	3256
923.442	3165
923.55	3142
923.659	3195
923.767	3245
923.876	3146
923.984	3310
924.092	3150
924.201	3237
924.309	3291
924.417	3317
924.525	3203
924.633	3302
924.741	4246
924.849	3112
924.956	3302
925.064	3104
925.172	3066
925.279	3154
925.387	3283
925.494	3249
925.602	3435
925.709	3389
925.816	3230
925.924	3325
926.031	3439
926.138	3393
926.245	3397
926.352	3313
926.459	3469
926.566	3515
926.673	3359
926.779	3317
926.886	3279
926.993	3188
927.099	3211
927.206	3146
927.312	3169
927.419	3325
927.525	3268
927.631	3332
927.737	3192
927.843	3176
927.95	3104
928.056	3222
928.162	3211
928.267	3283
928.373	3774
928.479	3370
928.585	3119
928.69	3253
928.796	3313
928.901	3230
929.007	3104
929.112	3233
929.218	3211
929.323	3195
929.428	3146
929.533	3374
929.638	3192
929.743	3256
929.848	3302
929.953	3260
930.058	3173
930.163	3001
930.267	3093
930.372	3226
930.477	3089
930.581	3386
930.685	3222
930.79	3093
930.894	3131
930.998	3123
931.103	3325
931.207	2994
931.311	3001
931.415	2948
931.519	2819
931.623	2838
