Data from test_V78500241_355.txt Node
Date: Fri Mar 25 16:17:39 CST 2022
User: usil
Spectrometer: V785-0024
Trigger mode: 0
Integration Time (sec): 4.000000E-1
Scans to average: 1
Nonlinearity correction enabled: false
Boxcar width: 0
Storing dark spectrum: false
XAxis mode: Wavelengths
Number of Pixels in Spectrum: 1024
>>>>>Begin Spectral Data<<<<<
801.071	2941
801.214	2971
801.356	2906
801.499	2937
801.641	2902
801.783	2941
801.926	3081
802.068	2979
802.211	2979
802.353	3058
802.496	2990
802.638	3070
802.78	3055
802.923	3108
803.065	3009
803.208	2868
803.35	2948
803.492	2925
803.635	2948
803.777	2792
803.919	2864
804.061	3218
804.204	2944
804.346	2910
804.488	2853
804.63	3009
804.773	2902
804.915	2941
805.057	3066
805.199	2944
805.341	3001
805.483	3058
805.626	3005
805.768	2948
805.91	3081
806.052	3131
806.194	2994
806.336	3291
806.478	3024
806.62	2975
806.762	2971
806.904	3062
807.046	3230
807.188	3009
807.33	2933
807.472	3036
807.614	2925
807.756	3001
807.898	2963
808.04	2906
808.182	3001
808.324	2963
808.465	2910
808.607	2922
808.749	2785
808.891	2857
809.033	3001
809.174	2986
809.316	2914
809.458	2914
809.6	2804
809.741	2773
809.883	2777
810.025	2872
810.166	2857
810.308	2823
810.45	2864
810.591	2800
810.733	2781
810.875	2883
811.016	2807
811.158	2781
811.299	2800
811.441	2914
811.582	2906
811.724	2853
811.865	2842
812.007	2952
812.148	2910
812.29	2834
812.431	2937
812.573	2910
812.714	2979
812.855	3036
812.997	3077
813.138	3135
813.279	3013
813.421	3005
813.562	2952
813.703	2891
813.845	2906
813.986	2743
814.127	2739
814.268	2857
814.41	2830
814.551	2842
814.692	2868
814.833	2826
814.974	2925
815.115	2994
815.256	2880
815.397	2781
815.539	2895
815.68	2819
815.821	2823
815.962	2952
816.103	2967
816.244	2876
816.385	2891
816.526	3001
816.666	2910
816.807	2743
816.948	2891
817.089	2914
817.23	2880
817.371	2785
817.512	2826
817.653	2830
817.793	2804
817.934	2883
818.075	2990
818.216	3001
818.356	3020
818.497	2899
818.638	2830
818.778	2815
818.919	2777
819.06	2769
819.2	2853
819.341	2823
819.481	2826
819.622	2929
819.762	3131
819.903	3024
820.043	2925
820.184	2899
820.324	2960
820.465	3032
820.605	2986
820.746	3013
820.886	2941
821.026	3116
821.167	3165
821.307	3279
821.447	3291
821.588	3260
821.728	3233
821.868	3203
822.008	3074
822.149	3214
822.289	3256
822.429	3081
822.569	3112
822.709	3203
822.849	3020
822.99	3070
823.13	3173
823.27	3222
823.41	3116
823.55	3131
823.69	3123
823.83	3199
823.97	3112
824.11	3062
824.25	2979
824.389	3077
824.529	3097
824.669	3062
824.809	3184
824.949	3264
825.089	3222
825.228	3180
825.368	3032
825.508	2963
825.648	2979
825.787	3032
825.927	3039
826.067	2967
826.206	2960
826.346	3020
826.485	3104
826.625	3097
826.765	3287
826.904	3256
827.044	3001
827.183	2899
827.323	2891
827.462	2979
827.601	2895
827.741	2960
827.88	2982
828.02	2864
828.159	2994
828.298	3085
828.437	3123
828.577	3017
828.716	3272
828.855	3074
828.994	2944
829.134	2853
829.273	2899
829.412	2845
829.551	2887
829.69	2895
829.829	3017
829.968	3173
830.107	3047
830.246	3017
830.385	2914
830.524	2883
830.663	2807
830.802	2731
830.941	2689
831.08	2648
831.219	2781
831.357	2769
831.496	2956
831.635	2686
831.774	2682
831.913	2686
832.051	2575
832.19	2594
832.329	2712
832.467	2549
832.606	2492
832.744	2583
832.883	2579
833.022	2598
833.16	2648
833.299	2689
833.437	2689
833.576	2712
833.714	2727
833.852	2727
833.991	2758
834.129	2826
834.267	2853
834.406	2777
834.544	2891
834.682	2876
834.821	2887
834.959	3081
835.097	2902
835.235	3093
835.373	2956
835.511	3047
835.65	2922
835.788	2948
835.926	2842
836.064	2819
836.202	2853
836.34	3093
836.478	3146
836.615	3047
836.753	3169
836.891	3195
837.029	3207
837.167	3127
837.305	3055
837.443	3028
837.58	2922
837.718	3150
837.856	3077
837.993	3039
838.131	3097
838.269	3119
838.406	3100
838.544	3089
838.681	2948
838.819	2922
838.956	2838
839.094	2876
839.231	2941
839.369	3036
839.506	3378
839.643	3207
839.781	2960
839.918	2960
840.055	3058
840.193	3055
840.33	3077
840.467	3085
840.604	3165
840.742	3405
840.879	3066
841.016	3043
841.153	3123
841.29	3306
841.427	3310
841.564	3298
841.701	3336
841.838	3256
841.975	3195
842.112	3207
842.249	3081
842.385	3081
842.522	3272
842.659	3138
842.796	3093
842.933	3135
843.069	3058
843.206	3051
843.343	3203
843.479	3123
843.616	3093
843.752	2914
843.889	2853
844.025	3081
844.162	2891
844.298	3047
844.435	2994
844.571	2914
844.708	3093
844.844	3245
844.98	3253
845.117	3214
845.253	3039
845.389	3009
845.525	3104
845.661	3089
845.798	2998
845.934	3123
846.07	3009
846.206	3214
846.342	3329
846.478	3218
846.614	3077
846.75	3077
846.886	3047
847.022	3226
847.158	3123
847.294	3214
847.429	3195
847.565	3203
847.701	3504
847.837	3032
847.972	2986
848.108	3173
848.244	3131
848.379	2990
848.515	2952
848.65	2944
848.786	2948
848.921	3009
849.057	3116
849.192	3165
849.328	3066
849.463	3104
849.598	3081
849.734	3039
849.869	2975
850.004	2960
850.14	2967
850.275	2891
850.41	2815
850.545	2880
850.68	2979
850.815	2933
850.95	2994
851.085	3226
851.22	3100
851.355	3058
851.49	2979
851.625	2998
851.76	3013
851.895	2937
852.03	2899
852.165	3047
852.299	3112
852.434	3195
852.569	3150
852.703	3192
852.838	3230
852.973	3370
853.107	3287
853.242	3138
853.376	3074
853.511	2948
853.645	3032
853.78	3249
853.914	3097
854.048	3112
854.183	3081
854.317	3184
854.451	3298
854.585	3131
854.72	3089
854.854	3192
854.988	3047
855.122	3081
855.256	3001
855.39	3100
855.524	3245
855.658	3203
855.792	3131
855.926	3203
856.06	3218
856.194	3291
856.327	3085
856.461	3028
856.595	3093
856.729	3047
856.862	3211
856.996	3146
857.13	3192
857.263	3214
857.397	3264
857.53	3119
857.664	3173
857.797	3253
857.931	3245
858.064	3146
858.197	3207
858.331	3074
858.464	3104
858.597	3005
858.731	3112
858.864	3116
858.997	3058
859.13	3154
859.263	3142
859.396	3184
859.529	3112
859.662	3085
859.795	3036
859.928	3150
860.061	3298
860.194	3260
860.327	3154
860.46	3104
860.592	3249
860.725	3275
860.858	3233
860.99	3116
861.123	3051
861.256	3039
861.388	3165
861.521	3762
861.653	3013
861.786	3005
861.918	3039
862.05	3058
862.183	3100
862.315	3142
862.447	3199
862.58	3066
862.712	2941
862.844	2895
862.976	3009
863.108	3024
863.24	3428
863.372	2868
863.504	2960
863.636	2982
863.768	3039
863.9	3005
864.032	2895
864.164	2975
864.296	3013
864.428	3074
864.559	3077
864.691	3062
864.823	3097
864.954	3009
865.086	3047
865.217	3009
865.349	2986
865.48	2941
865.612	3051
865.743	3165
865.875	3001
866.006	2925
866.137	2944
866.269	2944
866.4	2914
866.531	2937
866.662	2842
866.793	2895
866.924	2868
867.055	2960
867.186	2960
867.317	2845
867.448	2842
867.579	2823
867.71	2857
867.841	2857
867.972	2914
868.103	2910
868.233	2849
868.364	2876
868.495	2883
868.625	3070
868.756	3127
868.886	2963
869.017	2975
869.147	3150
869.278	3142
869.408	3058
869.539	2994
869.669	3104
869.799	3047
869.929	3116
870.06	3112
870.19	3302
870.32	3298
870.45	3287
870.58	3340
870.71	3481
870.84	3439
870.97	3283
871.1	3230
871.23	3458
871.36	3409
871.489	3351
871.619	3386
871.749	3382
871.879	3405
872.008	3488
872.138	3321
872.267	3287
872.397	3142
872.526	3081
872.656	2979
872.785	3116
872.915	3253
873.044	3306
873.173	3226
873.303	3249
873.432	3268
873.561	3237
873.69	3119
873.819	3150
873.948	3184
874.077	3154
874.206	3043
874.335	3062
874.464	3233
874.593	3306
874.722	3279
874.851	3378
874.979	3310
875.108	3355
875.237	3184
875.365	3161
875.494	3184
875.623	3230
875.751	3074
875.88	3108
876.008	3188
876.136	3230
876.265	3332
876.393	3488
876.521	3428
876.65	3374
876.778	3298
876.906	3233
877.034	3195
877.162	3241
877.29	3226
877.418	3245
877.546	3233
877.674	3230
877.802	3272
877.93	3226
878.058	3165
878.185	3119
878.313	3180
878.441	3173
878.568	3074
878.696	3123
878.824	3253
878.951	3302
879.079	3431
879.206	3618
879.333	3424
879.461	3306
879.588	3321
879.715	3507
879.842	3603
879.97	3344
880.097	3146
880.224	3116
880.351	3203
880.478	3218
880.605	3192
880.732	3154
880.859	3492
880.986	3287
881.112	3287
881.239	3211
881.366	3074
881.493	3020
881.619	2994
881.746	3070
881.872	3043
881.999	3116
882.125	3104
882.252	3249
882.378	3283
882.505	3405
882.631	3253
882.757	3112
882.883	3245
883.01	3272
883.136	3176
883.262	3074
883.388	3119
883.514	3329
883.64	3393
883.766	3302
883.892	3184
884.018	3230
884.143	3428
884.269	3481
884.395	3192
884.52	3176
884.646	3173
884.772	3119
884.897	3112
885.023	3188
885.148	3313
885.274	3450
885.399	3344
885.524	3272
885.65	3226
885.775	3302
885.9	3279
886.025	3420
886.15	3370
886.275	3283
886.4	3233
886.525	3317
886.65	3287
886.775	3264
886.9	3507
887.025	3633
887.149	3389
887.274	3222
887.399	3154
887.523	3207
887.648	3203
887.773	3188
887.897	3401
888.021	3389
888.146	3287
888.27	3412
888.395	3526
888.519	3424
888.643	3428
888.767	3450
888.891	3302
889.015	3283
889.139	3302
889.263	3260
889.387	3374
889.511	3481
889.635	3420
889.759	3279
889.883	3321
890.006	3393
890.13	3454
890.254	3249
890.377	3329
890.501	3218
890.624	3192
890.748	3283
890.871	3146
890.995	3081
891.118	3047
891.241	3195
891.364	3222
891.488	3321
891.611	3188
891.734	3188
891.857	3287
891.98	3241
892.103	3325
892.226	3241
892.349	3214
892.471	3100
892.594	3275
892.717	3249
892.839	3241
892.962	3321
893.085	3355
893.207	3306
893.33	3180
893.452	3211
893.575	3355
893.697	3279
893.819	3466
893.941	3511
894.064	3458
894.186	3287
894.308	3253
894.43	3420
894.552	3519
894.674	3477
894.796	3264
894.918	3332
895.04	3287
895.161	3397
895.283	3370
895.405	3313
895.526	3355
895.648	3397
895.769	3458
895.891	3504
896.012	3477
896.134	3454
896.255	3378
896.376	3416
896.498	3386
896.619	3454
896.74	3355
896.861	3401
896.982	3690
897.103	3827
897.224	3595
897.345	3519
897.466	3431
897.587	3485
897.708	3622
897.828	3542
897.949	3435
898.07	3344
898.19	3409
898.311	3584
898.431	3443
898.552	3519
898.672	3614
898.792	3580
898.913	3492
899.033	3389
899.153	3298
899.273	3211
899.393	3249
899.513	3317
899.633	3302
899.753	3355
899.873	3321
899.993	3367
900.113	3374
900.232	3401
900.352	3340
900.472	3264
900.591	3222
900.711	3306
900.83	3233
900.95	3389
901.069	3492
901.189	3355
901.308	3123
901.427	3116
901.546	3184
901.665	3291
901.784	3351
901.904	3226
902.023	3093
902.141	3036
902.26	2975
902.379	3138
902.498	3051
902.617	3020
902.735	3199
902.854	3184
902.973	3169
903.091	3047
903.21	3070
903.328	3192
903.446	3104
903.565	3081
903.683	3165
903.801	3146
903.919	3283
904.038	3230
904.156	3119
904.274	3313
904.392	3294
904.51	3317
904.627	3317
904.745	3435
904.863	3500
904.981	3264
905.098	3176
905.216	3245
905.334	3268
905.451	3321
905.569	3310
905.686	3458
905.803	3447
905.921	3256
906.038	3416
906.155	3332
906.272	3253
906.389	3317
906.506	3207
906.623	3237
906.74	3279
906.857	3165
906.974	3256
907.091	3416
907.208	3557
907.324	3485
907.441	3355
907.557	3233
907.674	3226
907.79	3195
907.907	3264
908.023	3367
908.139	3370
908.256	3336
908.372	3374
908.488	3367
908.604	3256
908.72	3237
908.836	3298
908.952	3245
909.068	3302
909.184	3519
909.3	3363
909.415	3496
909.531	3412
909.647	3253
909.762	3310
909.878	3272
909.993	3355
910.108	3351
910.224	3310
910.339	3424
910.454	3340
910.57	3279
910.685	3214
910.8	3606
910.915	3496
911.03	3420
911.145	3237
911.259	3275
911.374	3325
911.489	3218
911.604	3245
911.718	3104
911.833	3154
911.947	3036
912.062	2963
912.176	3146
912.291	3207
912.405	3203
912.519	3412
912.633	3435
912.748	3348
912.862	3283
912.976	3161
913.09	3070
913.204	3131
913.318	3230
913.431	3332
913.545	3313
913.659	3424
913.772	3332
913.886	3203
914	3150
914.113	3370
914.226	3386
914.34	3355
914.453	3226
914.566	3397
914.68	3233
914.793	3287
914.906	3157
915.019	3108
915.132	3081
915.245	3195
915.358	3264
915.47	3256
915.583	3268
915.696	3264
915.809	3412
915.921	3466
916.034	3211
916.146	3256
916.259	3222
916.371	3412
916.483	3382
916.595	3260
916.708	3332
916.82	3302
916.932	3332
917.044	3359
917.156	3344
917.268	3214
917.38	3283
917.491	3329
917.603	3382
917.715	3466
917.826	3488
917.938	3428
918.049	3260
918.161	3462
918.272	3584
918.384	3572
918.495	3469
918.606	3351
918.717	3260
918.828	3397
918.939	3401
919.05	3302
919.161	3363
919.272	3161
919.383	3287
919.494	3542
919.604	3705
919.715	3492
919.826	3389
919.936	3507
920.047	3603
920.157	3572
920.267	3766
920.378	3644
920.488	3584
920.598	3762
920.708	3953
920.818	3819
920.928	3857
921.038	4010
921.148	3960
921.258	3690
921.368	3610
921.477	3564
921.587	3534
921.697	3492
921.806	3637
921.916	3526
922.025	3344
922.134	3344
922.244	3283
922.353	3378
922.462	3268
922.571	3268
922.68	3100
922.789	3085
922.898	3127
923.007	3077
923.116	3218
923.224	3169
923.333	3169
923.442	3108
923.55	3108
923.659	3116
923.767	3233
923.876	3100
923.984	3203
924.092	3085
924.201	3233
924.309	3214
924.417	3241
924.525	3165
924.633	3245
924.741	4200
924.849	3043
924.956	3325
925.064	3089
925.172	3055
925.279	3150
925.387	3214
925.494	3222
925.602	3367
925.709	3355
925.816	3218
925.924	3264
926.031	3378
926.138	3325
926.245	3336
926.352	3264
926.459	3405
926.566	3477
926.673	3287
926.779	3237
926.886	3211
926.993	3161
927.099	3093
927.206	3100
927.312	3089
927.419	3230
927.525	3226
927.631	3298
927.737	3127
927.843	3127
927.95	3005
928.056	3093
928.162	3150
928.267	3260
928.373	3903
928.479	3332
928.585	3089
928.69	3226
928.796	3272
928.901	3150
929.007	3028
929.112	3211
929.218	3203
929.323	3123
929.428	3157
929.533	3302
929.638	3119
929.743	3192
929.848	3268
929.953	3203
930.058	3142
930.163	3009
930.267	3089
930.372	3195
930.477	3047
930.581	3329
930.685	3195
930.79	3070
930.894	3138
930.998	3108
931.103	3268
931.207	2956
931.311	2902
931.415	2906
931.519	2766
931.623	2796
