Data from test_V78500241_1245.txt Node
Date: Fri Mar 25 16:23:49 CST 2022
User: usil
Spectrometer: V785-0024
Trigger mode: 0
Integration Time (sec): 4.000000E-1
Scans to average: 1
Nonlinearity correction enabled: false
Boxcar width: 0
Storing dark spectrum: false
XAxis mode: Wavelengths
Number of Pixels in Spectrum: 1024
>>>>>Begin Spectral Data<<<<<
801.071	2922
801.214	2952
801.356	2872
801.499	2902
801.641	2861
801.783	2922
801.926	3036
802.068	2982
802.211	3017
802.353	3036
802.496	2986
802.638	2975
802.78	3074
802.923	3104
803.065	3020
803.208	2906
803.35	2967
803.492	2971
803.635	2944
803.777	2766
803.919	2887
804.061	3237
804.204	2967
804.346	2933
804.488	2857
804.63	2990
804.773	2864
804.915	2914
805.057	3081
805.199	2922
805.341	3013
805.483	3077
805.626	3005
805.768	2971
805.91	3104
806.052	3097
806.194	3039
806.336	3272
806.478	3036
806.62	3005
806.762	2998
806.904	3070
807.046	3165
807.188	3020
807.33	2937
807.472	2948
807.614	2902
807.756	3013
807.898	2937
808.04	2925
808.182	2979
808.324	2982
808.465	2899
808.607	2880
808.749	2830
808.891	2876
809.033	2982
809.174	2979
809.316	2902
809.458	2887
809.6	2777
809.741	2762
809.883	2804
810.025	2880
810.166	2864
810.308	2853
810.45	2861
810.591	2804
810.733	2781
810.875	2864
811.016	2800
811.158	2773
811.299	2792
811.441	2918
811.582	2887
811.724	2849
811.865	2838
812.007	2906
812.148	2914
812.29	2838
812.431	2902
812.573	2944
812.714	2933
812.855	3032
812.997	3085
813.138	3112
813.279	3043
813.421	2963
813.562	2967
813.703	2876
813.845	2910
813.986	2766
814.127	2750
814.268	2811
814.41	2861
814.551	2777
814.692	2872
814.833	2845
814.974	2895
815.115	2963
815.256	2864
815.397	2815
815.539	2883
815.68	2766
815.821	2807
815.962	2922
816.103	2933
816.244	2872
816.385	2845
816.526	2952
816.666	2925
816.807	2735
816.948	2883
817.089	2933
817.23	2883
817.371	2785
817.512	2777
817.653	2819
817.793	2811
817.934	2914
818.075	2941
818.216	2975
818.356	3013
818.497	2876
818.638	2823
818.778	2804
818.919	2804
819.06	2785
819.2	2830
819.341	2804
819.481	2811
819.622	2929
819.762	3116
819.903	3032
820.043	2929
820.184	2899
820.324	2906
820.465	3032
820.605	3005
820.746	3058
820.886	2952
821.026	3104
821.167	3176
821.307	3279
821.447	3283
821.588	3253
821.728	3237
821.868	3176
822.008	3112
822.149	3188
822.289	3199
822.429	3081
822.569	3100
822.709	3169
822.849	3051
822.99	3085
823.13	3157
823.27	3173
823.41	3127
823.55	3146
823.69	3116
823.83	3222
823.97	3131
824.11	2982
824.25	2975
824.389	3116
824.529	3089
824.669	3062
824.809	3188
824.949	3249
825.089	3214
825.228	3169
825.368	3036
825.508	2982
825.648	2963
825.787	3017
825.927	3058
826.067	2960
826.206	2998
826.346	3043
826.485	3085
826.625	3119
826.765	3264
826.904	3237
827.044	3028
827.183	2925
827.323	2872
827.462	2933
827.601	2899
827.741	2937
827.88	2963
828.02	2830
828.159	2963
828.298	3062
828.437	3100
828.577	3024
828.716	3241
828.855	3074
828.994	2914
829.134	2891
829.273	2922
829.412	2830
829.551	2872
829.69	2902
829.829	2982
829.968	3146
830.107	3066
830.246	3013
830.385	2948
830.524	2895
830.663	2819
830.802	2762
830.941	2629
831.08	2621
831.219	2777
831.357	2743
831.496	2967
831.635	2701
831.774	2651
831.913	2659
832.051	2522
832.19	2583
832.329	2697
832.467	2533
832.606	2507
832.744	2602
832.883	2598
833.022	2598
833.16	2644
833.299	2678
833.437	2712
833.576	2678
833.714	2735
833.852	2758
833.991	2766
834.129	2838
834.267	2838
834.406	2807
834.544	2880
834.682	2857
834.821	2891
834.959	3051
835.097	2914
835.235	3039
835.373	3009
835.511	3036
835.65	2944
835.788	2994
835.926	2830
836.064	2811
836.202	2853
836.34	3074
836.478	3176
836.615	3062
836.753	3123
836.891	3207
837.029	3192
837.167	3097
837.305	3036
837.443	3001
837.58	2960
837.718	3131
837.856	3070
837.993	3024
838.131	3146
838.269	3104
838.406	3104
838.544	3066
838.681	2956
838.819	2902
838.956	2815
839.094	2830
839.231	2910
839.369	3036
839.506	3382
839.643	3264
839.781	3009
839.918	2948
840.055	3032
840.193	3051
840.33	3039
840.467	3085
840.604	3127
840.742	3412
840.879	3062
841.016	3081
841.153	3116
841.29	3351
841.427	3279
841.564	3226
841.701	3313
841.838	3241
841.975	3207
842.112	3199
842.249	3081
842.385	3024
842.522	3272
842.659	3077
842.796	3108
842.933	3138
843.069	3009
843.206	3074
843.343	3199
843.479	3135
843.616	3150
843.752	2922
843.889	2883
844.025	3051
844.162	2887
844.298	3047
844.435	2963
844.571	2910
844.708	3070
844.844	3226
844.98	3241
845.117	3195
845.253	3047
845.389	3005
845.525	3116
845.661	3119
845.798	3028
845.934	3161
846.07	3036
846.206	3218
846.342	3291
846.478	3218
846.614	3108
846.75	3055
846.886	3036
847.022	3211
847.158	3150
847.294	3218
847.429	3233
847.565	3188
847.701	3469
847.837	3081
847.972	2998
848.108	3127
848.244	3150
848.379	3009
848.515	2952
848.65	2925
848.786	2967
848.921	3036
849.057	3123
849.192	3165
849.328	3043
849.463	3108
849.598	3047
849.734	3024
849.869	2971
850.004	2922
850.14	2960
850.275	2895
850.41	2864
850.545	2895
850.68	2910
850.815	2952
850.95	2975
851.085	3207
851.22	3093
851.355	3028
851.49	2971
851.625	3017
851.76	2986
851.895	2963
852.03	2925
852.165	3055
852.299	3146
852.434	3195
852.569	3150
852.703	3203
852.838	3245
852.973	3344
853.107	3268
853.242	3146
853.376	3116
853.511	2975
853.645	3043
853.78	3241
853.914	3119
854.048	3097
854.183	3104
854.317	3123
854.451	3302
854.585	3135
854.72	3093
854.854	3207
854.988	3074
855.122	3085
855.256	2967
855.39	3093
855.524	3226
855.658	3207
855.792	3195
855.926	3188
856.06	3222
856.194	3260
856.327	3119
856.461	3066
856.595	3036
856.729	3089
856.862	3226
856.996	3154
857.13	3230
857.263	3207
857.397	3279
857.53	3157
857.664	3207
857.797	3199
857.931	3249
858.064	3150
858.197	3218
858.331	3154
858.464	3077
858.597	3009
858.731	3112
858.864	3131
858.997	3097
859.13	3188
859.263	3211
859.396	3226
859.529	3085
859.662	3039
859.795	2994
859.928	3119
860.061	3256
860.194	3291
860.327	3108
860.46	3066
860.592	3253
860.725	3256
860.858	3249
860.99	3116
861.123	3058
861.256	3055
861.388	3154
861.521	3698
861.653	2982
861.786	2975
861.918	2998
862.05	3070
862.183	3104
862.315	3173
862.447	3203
862.58	3108
862.712	2929
862.844	2838
862.976	3039
863.108	3039
863.24	3302
863.372	2864
863.504	2956
863.636	2960
863.768	3043
863.9	2971
864.032	2887
864.164	2929
864.296	3009
864.428	3055
864.559	3135
864.691	3074
864.823	3089
864.954	3036
865.086	3055
865.217	2998
865.349	2899
865.48	2998
865.612	3032
865.743	3142
865.875	2960
866.006	2960
866.137	2971
866.269	2925
866.4	2941
866.531	2960
866.662	2883
866.793	2861
866.924	2880
867.055	2948
867.186	2902
867.317	2883
867.448	2796
867.579	2830
867.71	2804
867.841	2773
867.972	2937
868.103	2895
868.233	2925
868.364	2842
868.495	2902
868.625	3070
868.756	3135
868.886	2933
869.017	3017
869.147	3161
869.278	3173
869.408	3036
869.539	3055
869.669	3062
869.799	3047
869.929	3070
870.06	3112
870.19	3302
870.32	3291
870.45	3291
870.58	3355
870.71	3409
870.84	3454
870.97	3253
871.1	3233
871.23	3466
871.36	3466
871.489	3336
871.619	3420
871.749	3382
871.879	3462
872.008	3450
872.138	3351
872.267	3260
872.397	3104
872.526	3104
872.656	3009
872.785	3081
872.915	3272
873.044	3306
873.173	3226
873.303	3222
873.432	3245
873.561	3260
873.69	3127
873.819	3176
873.948	3161
874.077	3112
874.206	3062
874.335	3077
874.464	3184
874.593	3325
874.722	3245
874.851	3424
874.979	3359
875.108	3283
875.237	3180
875.365	3180
875.494	3131
875.623	3268
875.751	3085
875.88	3093
876.008	3161
876.136	3195
876.265	3359
876.393	3466
876.521	3405
876.65	3367
876.778	3321
876.906	3256
877.034	3211
877.162	3211
877.29	3184
877.418	3256
877.546	3237
877.674	3241
877.802	3218
877.93	3203
878.058	3123
878.185	3100
878.313	3211
878.441	3218
878.568	3066
878.696	3108
878.824	3245
878.951	3310
879.079	3458
879.206	3603
879.333	3386
879.461	3321
879.588	3348
879.715	3428
879.842	3538
879.97	3367
880.097	3150
880.224	3097
880.351	3199
880.478	3195
880.605	3195
880.732	3180
880.859	3462
880.986	3302
881.112	3298
881.239	3207
881.366	3089
881.493	3043
881.619	3005
881.746	3039
881.872	3112
881.999	3081
882.125	3123
882.252	3253
882.378	3317
882.505	3424
882.631	3283
882.757	3093
882.883	3230
883.01	3222
883.136	3157
883.262	3089
883.388	3119
883.514	3329
883.64	3325
883.766	3306
883.892	3211
884.018	3211
884.143	3382
884.269	3534
884.395	3207
884.52	3165
884.646	3188
884.772	3108
884.897	3104
885.023	3195
885.148	3317
885.274	3439
885.399	3382
885.524	3294
885.65	3268
885.775	3279
885.9	3283
886.025	3435
886.15	3340
886.275	3298
886.4	3211
886.525	3298
886.65	3253
886.775	3275
886.9	3496
887.025	3595
887.149	3393
887.274	3249
887.399	3203
887.523	3199
887.648	3203
887.773	3176
887.897	3359
888.021	3409
888.146	3268
888.27	3443
888.395	3538
888.519	3397
888.643	3447
888.767	3412
888.891	3302
889.015	3272
889.139	3279
889.263	3275
889.387	3393
889.511	3488
889.635	3466
889.759	3332
889.883	3283
890.006	3363
890.13	3492
890.254	3253
890.377	3367
890.501	3199
890.624	3222
890.748	3294
890.871	3142
890.995	3146
891.118	3070
891.241	3173
891.364	3218
891.488	3283
891.611	3150
891.734	3214
891.857	3256
891.98	3218
892.103	3332
892.226	3279
892.349	3253
892.471	3112
892.594	3241
892.717	3275
892.839	3260
892.962	3291
893.085	3355
893.207	3329
893.33	3119
893.452	3207
893.575	3351
893.697	3249
893.819	3462
893.941	3488
894.064	3439
894.186	3283
894.308	3287
894.43	3428
894.552	3519
894.674	3462
894.796	3237
894.918	3317
895.04	3283
895.161	3401
895.283	3389
895.405	3317
895.526	3393
895.648	3405
895.769	3416
895.891	3462
896.012	3500
896.134	3458
896.255	3420
896.376	3370
896.498	3336
896.619	3431
896.74	3393
896.861	3424
896.982	3652
897.103	3827
897.224	3610
897.345	3481
897.466	3393
897.587	3485
897.708	3622
897.828	3526
897.949	3386
898.07	3317
898.19	3363
898.311	3580
898.431	3431
898.552	3519
898.672	3603
898.792	3523
898.913	3526
899.033	3412
899.153	3294
899.273	3188
899.393	3249
899.513	3272
899.633	3275
899.753	3332
899.873	3279
899.993	3386
900.113	3344
900.232	3405
900.352	3382
900.472	3294
900.591	3195
900.711	3298
900.83	3241
900.95	3401
901.069	3488
901.189	3344
901.308	3173
901.427	3135
901.546	3214
901.665	3291
901.784	3336
901.904	3192
902.023	3119
902.141	3024
902.26	3005
902.379	3195
902.498	3074
902.617	3020
902.735	3218
902.854	3214
902.973	3184
903.091	3028
903.21	3062
903.328	3131
903.446	3104
903.565	3116
903.683	3214
903.801	3142
903.919	3249
904.038	3268
904.156	3146
904.274	3260
904.392	3237
904.51	3264
904.627	3329
904.745	3393
904.863	3447
904.981	3291
905.098	3173
905.216	3226
905.334	3310
905.451	3302
905.569	3294
905.686	3386
905.803	3439
905.921	3260
906.038	3412
906.155	3344
906.272	3260
906.389	3321
906.506	3230
906.623	3214
906.74	3268
906.857	3192
906.974	3272
907.091	3416
907.208	3576
907.324	3462
907.441	3363
907.557	3249
907.674	3272
907.79	3203
907.907	3268
908.023	3351
908.139	3370
908.256	3317
908.372	3363
908.488	3367
908.604	3260
908.72	3275
908.836	3264
908.952	3294
909.068	3313
909.184	3488
909.3	3397
909.415	3523
909.531	3450
909.647	3283
909.762	3279
909.878	3272
909.993	3344
910.108	3298
910.224	3344
910.339	3363
910.454	3321
910.57	3272
910.685	3253
910.8	3545
910.915	3526
911.03	3428
911.145	3249
911.259	3245
911.374	3291
911.489	3218
911.604	3207
911.718	3131
911.833	3131
911.947	3036
912.062	2971
912.176	3165
912.291	3176
912.405	3211
912.519	3412
912.633	3458
912.748	3325
912.862	3291
912.976	3142
913.09	3047
913.204	3135
913.318	3249
913.431	3336
913.545	3321
913.659	3389
913.772	3340
913.886	3211
914	3195
914.113	3351
914.226	3389
914.34	3386
914.453	3218
914.566	3401
914.68	3321
914.793	3310
914.906	3131
915.019	3104
915.132	3097
915.245	3150
915.358	3192
915.47	3218
915.583	3287
915.696	3302
915.809	3416
915.921	3397
916.034	3226
916.146	3233
916.259	3226
916.371	3355
916.483	3344
916.595	3272
916.708	3329
916.82	3351
916.932	3325
917.044	3348
917.156	3348
917.268	3237
917.38	3294
917.491	3279
917.603	3374
917.715	3431
917.826	3469
917.938	3409
918.049	3275
918.161	3431
918.272	3542
918.384	3595
918.495	3473
918.606	3321
918.717	3275
918.828	3336
918.939	3435
919.05	3283
919.161	3355
919.272	3157
919.383	3233
919.494	3481
919.604	3682
919.715	3511
919.826	3393
919.936	3466
920.047	3584
920.157	3515
920.267	3762
920.378	3572
920.488	3553
920.598	3778
920.708	3953
920.818	3831
920.928	3838
921.038	4036
921.148	4021
921.258	3694
921.368	3641
921.477	3549
921.587	3530
921.697	3443
921.806	3641
921.916	3549
922.025	3374
922.134	3344
922.244	3374
922.353	3447
922.462	3279
922.571	3192
922.68	3123
922.789	3112
922.898	3138
923.007	3104
923.116	3226
923.224	3188
923.333	3192
923.442	3058
923.55	3058
923.659	3093
923.767	3199
923.876	3150
923.984	3268
924.092	3093
924.201	3211
924.309	3203
924.417	3222
924.525	3169
924.633	3268
924.741	4002
924.849	3051
924.956	3275
925.064	3085
925.172	3036
925.279	3123
925.387	3195
925.494	3180
925.602	3348
925.709	3294
925.816	3199
925.924	3207
926.031	3332
926.138	3370
926.245	3344
926.352	3264
926.459	3424
926.566	3469
926.673	3310
926.779	3268
926.886	3249
926.993	3188
927.099	3142
927.206	3127
927.312	3100
927.419	3230
927.525	3214
927.631	3279
927.737	3157
927.843	3104
927.95	3028
928.056	3135
928.162	3146
928.267	3249
928.373	3865
928.479	3283
928.585	3081
928.69	3214
928.796	3260
928.901	3157
929.007	3066
929.112	3199
929.218	3161
929.323	3161
929.428	3104
929.533	3298
929.638	3142
929.743	3176
929.848	3245
929.953	3184
930.058	3184
930.163	2979
930.267	3001
930.372	3192
930.477	3017
930.581	3348
930.685	3157
930.79	3047
930.894	3100
930.998	3062
931.103	3253
931.207	3017
931.311	2948
931.415	2902
931.519	2743
931.623	2811
