Data from test_V78500241_641.txt Node
Date: Fri Mar 25 16:19:38 CST 2022
User: usil
Spectrometer: V785-0024
Trigger mode: 0
Integration Time (sec): 4.000000E-1
Scans to average: 1
Nonlinearity correction enabled: false
Boxcar width: 0
Storing dark spectrum: false
XAxis mode: Wavelengths
Number of Pixels in Spectrum: 1024
>>>>>Begin Spectral Data<<<<<
801.071	2975
801.214	2994
801.356	2910
801.499	2944
801.641	2914
801.783	2971
801.926	3085
802.068	3009
802.211	2994
802.353	3062
802.496	2986
802.638	3039
802.78	3108
802.923	3097
803.065	3032
803.208	2948
803.35	2925
803.492	3013
803.635	2941
803.777	2785
803.919	2861
804.061	3222
804.204	3005
804.346	2944
804.488	2868
804.63	3039
804.773	2895
804.915	2998
805.057	3108
805.199	2963
805.341	3013
805.483	3066
805.626	3013
805.768	2998
805.91	3131
806.052	3173
806.194	3085
806.336	3256
806.478	3081
806.62	2982
806.762	3017
806.904	3161
807.046	3157
807.188	3032
807.33	2967
807.472	2994
807.614	2922
807.756	3017
807.898	2963
808.04	2956
808.182	2994
808.324	2975
808.465	2918
808.607	2849
808.749	2849
808.891	2880
809.033	3043
809.174	3020
809.316	2941
809.458	2952
809.6	2804
809.741	2788
809.883	2800
810.025	2864
810.166	2899
810.308	2880
810.45	2849
810.591	2800
810.733	2811
810.875	2864
811.016	2811
811.158	2781
811.299	2845
811.441	2979
811.582	2906
811.724	2838
811.865	2830
812.007	2948
812.148	2906
812.29	2883
812.431	2918
812.573	2967
812.714	2986
812.855	3074
812.997	3051
813.138	3157
813.279	3032
813.421	2994
813.562	2986
813.703	2910
813.845	2876
813.986	2777
814.127	2773
814.268	2830
814.41	2876
814.551	2853
814.692	2929
814.833	2853
814.974	2914
815.115	2975
815.256	2853
815.397	2815
815.539	2883
815.68	2811
815.821	2823
815.962	2998
816.103	2975
816.244	2933
816.385	2887
816.526	2971
816.666	2948
816.807	2781
816.948	2952
817.089	2868
817.23	2891
817.371	2815
817.512	2792
817.653	2857
817.793	2857
817.934	2922
818.075	2979
818.216	2998
818.356	3009
818.497	2910
818.638	2777
818.778	2838
818.919	2807
819.06	2785
819.2	2891
819.341	2842
819.481	2762
819.622	2929
819.762	3119
819.903	3047
820.043	2929
820.184	2899
820.324	2910
820.465	3058
820.605	3055
820.746	3074
820.886	2971
821.026	3093
821.167	3161
821.307	3268
821.447	3298
821.588	3218
821.728	3230
821.868	3237
822.008	3089
822.149	3184
822.289	3226
822.429	3127
822.569	3104
822.709	3199
822.849	3024
822.99	3108
823.13	3169
823.27	3188
823.41	3112
823.55	3180
823.69	3192
823.83	3195
823.97	3131
824.11	3024
824.25	3024
824.389	3089
824.529	3112
824.669	3112
824.809	3230
824.949	3283
825.089	3241
825.228	3165
825.368	3032
825.508	2986
825.648	3001
825.787	2994
825.927	3005
826.067	3017
826.206	2975
826.346	3051
826.485	3058
826.625	3085
826.765	3310
826.904	3211
827.044	3036
827.183	2975
827.323	2891
827.462	2979
827.601	2941
827.741	2941
827.88	2944
828.02	2857
828.159	3001
828.298	3039
828.437	3135
828.577	3047
828.716	3268
828.855	3074
828.994	2922
829.134	2933
829.273	2922
829.412	2864
829.551	2899
829.69	2906
829.829	3005
829.968	3123
830.107	3028
830.246	3055
830.385	2967
830.524	2864
830.663	2838
830.802	2739
830.941	2667
831.08	2621
831.219	2788
831.357	2762
831.496	2971
831.635	2746
831.774	2644
831.913	2701
832.051	2568
832.19	2594
832.329	2720
832.467	2571
832.606	2495
832.744	2632
832.883	2594
833.022	2610
833.16	2689
833.299	2708
833.437	2708
833.576	2708
833.714	2792
833.852	2743
833.991	2788
834.129	2857
834.267	2849
834.406	2785
834.544	2895
834.682	2864
834.821	2929
834.959	3062
835.097	2918
835.235	3051
835.373	3066
835.511	3028
835.65	2971
835.788	2941
835.926	2853
836.064	2823
836.202	2864
836.34	3146
836.478	3142
836.615	3066
836.753	3150
836.891	3241
837.029	3199
837.167	3119
837.305	3089
837.443	3043
837.58	2967
837.718	3154
837.856	3055
837.993	3104
838.131	3157
838.269	3112
838.406	3135
838.544	3055
838.681	2948
838.819	2922
838.956	2826
839.094	2834
839.231	2944
839.369	3028
839.506	3393
839.643	3226
839.781	3005
839.918	2975
840.055	3032
840.193	3062
840.33	3058
840.467	3081
840.604	3142
840.742	3397
840.879	3055
841.016	3074
841.153	3116
841.29	3359
841.427	3351
841.564	3264
841.701	3317
841.838	3195
841.975	3176
842.112	3256
842.249	3097
842.385	3085
842.522	3279
842.659	3070
842.796	3062
842.933	3173
843.069	3093
843.206	3058
843.343	3226
843.479	3138
843.616	3173
843.752	2922
843.889	2891
844.025	3081
844.162	2895
844.298	3089
844.435	2979
844.571	2914
844.708	3085
844.844	3173
844.98	3222
845.117	3214
845.253	3070
845.389	3051
845.525	3123
845.661	3081
845.798	3009
845.934	3123
846.07	3066
846.206	3222
846.342	3298
846.478	3253
846.614	3085
846.75	3070
846.886	3009
847.022	3222
847.158	3146
847.294	3214
847.429	3264
847.565	3260
847.701	3500
847.837	3039
847.972	2990
848.108	3176
848.244	3135
848.379	2990
848.515	2952
848.65	2937
848.786	2967
848.921	3013
849.057	3108
849.192	3157
849.328	3085
849.463	3116
849.598	3058
849.734	3036
849.869	2990
850.004	2948
850.14	3024
850.275	2906
850.41	2861
850.545	2895
850.68	2902
850.815	2998
850.95	2975
851.085	3222
851.22	3119
851.355	3058
851.49	3005
851.625	3001
851.76	3051
851.895	2937
852.03	2918
852.165	3036
852.299	3108
852.434	3188
852.569	3165
852.703	3192
852.838	3264
852.973	3325
853.107	3363
853.242	3173
853.376	3116
853.511	2979
853.645	3055
853.78	3256
853.914	3135
854.048	3100
854.183	3112
854.317	3154
854.451	3302
854.585	3135
854.72	3047
854.854	3180
854.988	3089
855.122	3104
855.256	2986
855.39	3119
855.524	3256
855.658	3173
855.792	3142
855.926	3222
856.06	3268
856.194	3291
856.327	3173
856.461	3112
856.595	3066
856.729	3104
856.862	3245
856.996	3184
857.13	3233
857.263	3192
857.397	3275
857.53	3100
857.664	3199
857.797	3226
857.931	3256
858.064	3176
858.197	3233
858.331	3112
858.464	3100
858.597	3001
858.731	3127
858.864	3138
858.997	3077
859.13	3165
859.263	3192
859.396	3214
859.529	3066
859.662	3081
859.795	3055
859.928	3127
860.061	3313
860.194	3272
860.327	3146
860.46	3093
860.592	3233
860.725	3253
860.858	3256
860.99	3093
861.123	3104
861.256	3032
861.388	3116
861.521	3975
861.653	3013
861.786	2937
861.918	3017
862.05	3108
862.183	3108
862.315	3135
862.447	3173
862.58	3085
862.712	2967
862.844	2864
862.976	3039
863.108	2990
863.24	3412
863.372	2918
863.504	2929
863.636	2952
863.768	3089
863.9	2990
864.032	2910
864.164	2948
864.296	3009
864.428	3085
864.559	3146
864.691	3047
864.823	3074
864.954	3028
865.086	3028
865.217	3013
865.349	2967
865.48	2994
865.612	3013
865.743	3161
865.875	3001
866.006	2941
866.137	2948
866.269	2941
866.4	2979
866.531	2895
866.662	2914
866.793	2922
866.924	2899
867.055	3005
867.186	2925
867.317	2918
867.448	2845
867.579	2845
867.71	2861
867.841	2838
867.972	2929
868.103	2914
868.233	2887
868.364	2887
868.495	2918
868.625	3074
868.756	3142
868.886	2937
869.017	2994
869.147	3169
869.278	3161
869.408	3062
869.539	2979
869.669	3066
869.799	3036
869.929	3127
870.06	3097
870.19	3340
870.32	3268
870.45	3268
870.58	3351
870.71	3462
870.84	3412
870.97	3294
871.1	3253
871.23	3469
871.36	3477
871.489	3363
871.619	3397
871.749	3424
871.879	3420
872.008	3462
872.138	3363
872.267	3264
872.397	3161
872.526	3051
872.656	3005
872.785	3070
872.915	3226
873.044	3321
873.173	3195
873.303	3233
873.432	3264
873.561	3249
873.69	3123
873.819	3135
873.948	3199
874.077	3085
874.206	3070
874.335	3085
874.464	3207
874.593	3317
874.722	3264
874.851	3416
874.979	3321
875.108	3298
875.237	3184
875.365	3157
875.494	3165
875.623	3211
875.751	3104
875.88	3123
876.008	3195
876.136	3233
876.265	3374
876.393	3485
876.521	3393
876.65	3363
876.778	3355
876.906	3260
877.034	3203
877.162	3222
877.29	3188
877.418	3264
877.546	3245
877.674	3245
877.802	3241
877.93	3241
878.058	3154
878.185	3055
878.313	3218
878.441	3226
878.568	3077
878.696	3119
878.824	3222
878.951	3287
879.079	3447
879.206	3587
879.333	3473
879.461	3340
879.588	3332
879.715	3492
879.842	3564
879.97	3329
880.097	3142
880.224	3093
880.351	3218
880.478	3241
880.605	3157
880.732	3188
880.859	3492
880.986	3283
881.112	3325
881.239	3203
881.366	3066
881.493	3017
881.619	3005
881.746	3104
881.872	3066
881.999	3100
882.125	3146
882.252	3241
882.378	3283
882.505	3435
882.631	3291
882.757	3131
882.883	3207
883.01	3214
883.136	3127
883.262	3077
883.388	3119
883.514	3302
883.64	3378
883.766	3272
883.892	3222
884.018	3241
884.143	3386
884.269	3538
884.395	3211
884.52	3157
884.646	3165
884.772	3119
884.897	3066
885.023	3180
885.148	3340
885.274	3420
885.399	3386
885.524	3310
885.65	3272
885.775	3340
885.9	3268
886.025	3462
886.15	3332
886.275	3287
886.4	3226
886.525	3279
886.65	3275
886.775	3283
886.9	3466
887.025	3610
887.149	3428
887.274	3302
887.399	3161
887.523	3222
887.648	3195
887.773	3165
887.897	3363
888.021	3405
888.146	3344
888.27	3454
888.395	3568
888.519	3420
888.643	3466
888.767	3401
888.891	3306
889.015	3245
889.139	3279
889.263	3275
889.387	3397
889.511	3469
889.635	3428
889.759	3294
889.883	3264
890.006	3424
890.13	3481
890.254	3294
890.377	3359
890.501	3222
890.624	3180
890.748	3310
890.871	3165
890.995	3108
891.118	3043
891.241	3135
891.364	3230
891.488	3283
891.611	3195
891.734	3253
891.857	3306
891.98	3283
892.103	3313
892.226	3283
892.349	3237
892.471	3093
892.594	3253
892.717	3245
892.839	3264
892.962	3294
893.085	3351
893.207	3291
893.33	3150
893.452	3211
893.575	3344
893.697	3245
893.819	3439
893.941	3477
894.064	3435
894.186	3256
894.308	3253
894.43	3450
894.552	3519
894.674	3469
894.796	3279
894.918	3325
895.04	3260
895.161	3409
895.283	3393
895.405	3313
895.526	3351
895.648	3416
895.769	3431
895.891	3481
896.012	3473
896.134	3462
896.255	3431
896.376	3378
896.498	3351
896.619	3458
896.74	3321
896.861	3378
896.982	3671
897.103	3808
897.224	3549
897.345	3496
897.466	3458
897.587	3488
897.708	3618
897.828	3538
897.949	3431
898.07	3336
898.19	3420
898.311	3618
898.431	3431
898.552	3511
898.672	3603
898.792	3564
898.913	3526
899.033	3454
899.153	3272
899.273	3207
899.393	3253
899.513	3310
899.633	3313
899.753	3283
899.873	3298
899.993	3382
900.113	3313
900.232	3363
900.352	3359
900.472	3279
900.591	3207
900.711	3275
900.83	3253
900.95	3412
901.069	3515
901.189	3336
901.308	3169
901.427	3119
901.546	3154
901.665	3264
901.784	3348
901.904	3222
902.023	3142
902.141	3017
902.26	2963
902.379	3116
902.498	3104
902.617	3066
902.735	3184
902.854	3283
902.973	3264
903.091	3055
903.21	3036
903.328	3112
903.446	3100
903.565	3093
903.683	3161
903.801	3135
903.919	3241
904.038	3306
904.156	3119
904.274	3291
904.392	3264
904.51	3279
904.627	3348
904.745	3447
904.863	3488
904.981	3272
905.098	3142
905.216	3233
905.334	3283
905.451	3321
905.569	3287
905.686	3435
905.803	3462
905.921	3279
906.038	3416
906.155	3332
906.272	3260
906.389	3344
906.506	3233
906.623	3230
906.74	3275
906.857	3165
906.974	3211
907.091	3462
907.208	3530
907.324	3466
907.441	3397
907.557	3218
907.674	3237
907.79	3203
907.907	3275
908.023	3386
908.139	3393
908.256	3321
908.372	3321
908.488	3348
908.604	3241
908.72	3260
908.836	3283
908.952	3313
909.068	3370
909.184	3469
909.3	3393
909.415	3504
909.531	3454
909.647	3245
909.762	3298
909.878	3241
909.993	3336
910.108	3283
910.224	3329
910.339	3439
910.454	3329
910.57	3317
910.685	3264
910.8	3591
910.915	3542
911.03	3439
911.145	3291
911.259	3264
911.374	3253
911.489	3245
911.604	3218
911.718	3127
911.833	3138
911.947	3036
912.062	2971
912.176	3165
912.291	3218
912.405	3241
912.519	3416
912.633	3458
912.748	3332
912.862	3302
912.976	3173
913.09	3051
913.204	3142
913.318	3222
913.431	3325
913.545	3325
913.659	3397
913.772	3317
913.886	3275
914	3192
914.113	3321
914.226	3409
914.34	3405
914.453	3253
914.566	3412
914.68	3272
914.793	3291
914.906	3127
915.019	3108
915.132	3047
915.245	3173
915.358	3184
915.47	3237
915.583	3249
915.696	3260
915.809	3431
915.921	3420
916.034	3302
916.146	3233
916.259	3203
916.371	3374
916.483	3374
916.595	3279
916.708	3302
916.82	3351
916.932	3317
917.044	3340
917.156	3336
917.268	3287
917.38	3310
917.491	3237
917.603	3412
917.715	3458
917.826	3447
917.938	3386
918.049	3298
918.161	3416
918.272	3511
918.384	3580
918.495	3504
918.606	3363
918.717	3287
918.828	3389
918.939	3420
919.05	3310
919.161	3378
919.272	3222
919.383	3268
919.494	3504
919.604	3679
919.715	3477
919.826	3435
919.936	3439
920.047	3564
920.157	3534
920.267	3781
920.378	3580
920.488	3553
920.598	3751
920.708	3960
920.818	3819
920.928	3842
921.038	4025
921.148	3960
921.258	3713
921.368	3625
921.477	3606
921.587	3538
921.697	3435
921.806	3652
921.916	3523
922.025	3367
922.134	3291
922.244	3298
922.353	3454
922.462	3233
922.571	3237
922.68	3138
922.789	3100
922.898	3142
923.007	3112
923.116	3207
923.224	3150
923.333	3211
923.442	3127
923.55	3097
923.659	3169
923.767	3211
923.876	3093
923.984	3211
924.092	3093
924.201	3199
924.309	3253
924.417	3256
924.525	3154
924.633	3253
924.741	3991
924.849	3032
924.956	3279
925.064	3119
925.172	3001
925.279	3104
925.387	3188
925.494	3214
925.602	3298
925.709	3340
925.816	3207
925.924	3306
926.031	3386
926.138	3321
926.245	3386
926.352	3256
926.459	3378
926.566	3428
926.673	3298
926.779	3233
926.886	3233
926.993	3146
927.099	3112
927.206	3104
927.312	3146
927.419	3214
927.525	3199
927.631	3249
927.737	3154
927.843	3093
927.95	3001
928.056	3116
928.162	3184
928.267	3260
928.373	3789
928.479	3294
928.585	3047
928.69	3192
928.796	3253
928.901	3150
929.007	3020
929.112	3214
929.218	3192
929.323	3127
929.428	3138
929.533	3306
929.638	3116
929.743	3176
929.848	3226
929.953	3154
930.058	3157
930.163	2975
930.267	3070
930.372	3233
930.477	3043
930.581	3287
930.685	3173
930.79	3032
930.894	3104
930.998	3104
931.103	3233
931.207	2956
931.311	2937
931.415	2925
931.519	2777
931.623	2792
