Data from test_V78500241_15.txt Node
Date: Fri Mar 25 16:15:18 CST 2022
User: usil
Spectrometer: V785-0024
Trigger mode: 0
Integration Time (sec): 4.000000E-1
Scans to average: 1
Nonlinearity correction enabled: false
Boxcar width: 0
Storing dark spectrum: false
XAxis mode: Wavelengths
Number of Pixels in Spectrum: 1024
>>>>>Begin Spectral Data<<<<<
801.071	2929
801.214	2963
801.356	2887
801.499	2922
801.641	2895
801.783	2944
801.926	3062
802.068	3005
802.211	3043
802.353	3081
802.496	3039
802.638	3077
802.78	3058
802.923	3127
803.065	3024
803.208	2979
803.35	2956
803.492	2963
803.635	2975
803.777	2807
803.919	2902
804.061	3275
804.204	2982
804.346	2979
804.488	2944
804.63	3005
804.773	2910
804.915	2982
805.057	3116
805.199	2971
805.341	2990
805.483	3097
805.626	2994
805.768	3017
805.91	3116
806.052	3161
806.194	3058
806.336	3272
806.478	3062
806.62	3009
806.762	3047
806.904	3116
807.046	3211
807.188	3001
807.33	2963
807.472	3017
807.614	2975
807.756	3001
807.898	2986
808.04	2872
808.182	3005
808.324	3024
808.465	2933
808.607	2937
808.749	2834
808.891	2880
809.033	2998
809.174	3066
809.316	2933
809.458	2922
809.6	2804
809.741	2800
809.883	2811
810.025	2895
810.166	2902
810.308	2887
810.45	2910
810.591	2826
810.733	2796
810.875	2861
811.016	2838
811.158	2811
811.299	2857
811.441	3017
811.582	2925
811.724	2883
811.865	2883
812.007	2967
812.148	2956
812.29	2868
812.431	2944
812.573	2979
812.714	3005
812.855	3066
812.997	3100
813.138	3192
813.279	3070
813.421	3062
813.562	3001
813.703	2910
813.845	2941
813.986	2826
814.127	2785
814.268	2872
814.41	2902
814.551	2857
814.692	2933
814.833	2823
814.974	2971
815.115	3028
815.256	2918
815.397	2842
815.539	2876
815.68	2823
815.821	2838
815.962	3009
816.103	2967
816.244	2922
816.385	2933
816.526	3039
816.666	2956
816.807	2807
816.948	2944
817.089	2941
817.23	2899
817.371	2819
817.512	2849
817.653	2872
817.793	2853
817.934	2922
818.075	2971
818.216	3032
818.356	3074
818.497	2914
818.638	2842
818.778	2910
818.919	2845
819.06	2788
819.2	2929
819.341	2857
819.481	2830
819.622	2960
819.762	3157
819.903	3123
820.043	2967
820.184	2929
820.324	2929
820.465	3077
820.605	3062
820.746	3100
820.886	3005
821.026	3161
821.167	3279
821.307	3306
821.447	3302
821.588	3302
821.728	3264
821.868	3203
822.008	3135
822.149	3222
822.289	3283
822.429	3150
822.569	3180
822.709	3211
822.849	3077
822.99	3108
823.13	3230
823.27	3233
823.41	3180
823.55	3199
823.69	3211
823.83	3275
823.97	3161
824.11	3036
824.25	3058
824.389	3089
824.529	3154
824.669	3074
824.809	3268
824.949	3268
825.089	3272
825.228	3245
825.368	3039
825.508	2979
825.648	3013
825.787	3020
825.927	3051
826.067	2990
826.206	3036
826.346	3070
826.485	3131
826.625	3127
826.765	3317
826.904	3294
827.044	3028
827.183	2986
827.323	2899
827.462	3032
827.601	2967
827.741	2971
827.88	3005
828.02	2872
828.159	3036
828.298	3104
828.437	3165
828.577	3062
828.716	3344
828.855	3112
828.994	2979
829.134	2910
829.273	2979
829.412	2910
829.551	2906
829.69	2944
829.829	3039
829.968	3169
830.107	3074
830.246	3081
830.385	2986
830.524	2906
830.663	2868
830.802	2777
830.941	2663
831.08	2678
831.219	2800
831.357	2785
831.496	2990
831.635	2762
831.774	2670
831.913	2697
832.051	2606
832.19	2617
832.329	2708
832.467	2575
832.606	2514
832.744	2602
832.883	2632
833.022	2632
833.16	2682
833.299	2724
833.437	2727
833.576	2727
833.714	2746
833.852	2743
833.991	2811
834.129	2876
834.267	2895
834.406	2804
834.544	2899
834.682	2922
834.821	2906
834.959	3142
835.097	2933
835.235	3062
835.373	3028
835.511	3089
835.65	3013
835.788	2967
835.926	2902
836.064	2864
836.202	2880
836.34	3146
836.478	3173
836.615	3104
836.753	3195
836.891	3230
837.029	3218
837.167	3214
837.305	3127
837.443	3081
837.58	3005
837.718	3173
837.856	3089
837.993	3074
838.131	3199
838.269	3138
838.406	3157
838.544	3135
838.681	3020
838.819	3001
838.956	2868
839.094	2857
839.231	2994
839.369	3100
839.506	3424
839.643	3283
839.781	3058
839.918	3055
840.055	3081
840.193	3074
840.33	3116
840.467	3165
840.604	3203
840.742	3447
840.879	3077
841.016	3093
841.153	3116
841.29	3351
841.427	3317
841.564	3325
841.701	3412
841.838	3325
841.975	3241
842.112	3264
842.249	3138
842.385	3097
842.522	3313
842.659	3165
842.796	3135
842.933	3138
843.069	3112
843.206	3135
843.343	3294
843.479	3157
843.616	3203
843.752	2971
843.889	2906
844.025	3104
844.162	2906
844.298	3119
844.435	2971
844.571	2937
844.708	3131
844.844	3222
844.98	3275
845.117	3249
845.253	3127
845.389	3028
845.525	3135
845.661	3135
845.798	3066
845.934	3192
846.07	3089
846.206	3279
846.342	3363
846.478	3268
846.614	3146
846.75	3093
846.886	3055
847.022	3298
847.158	3154
847.294	3260
847.429	3294
847.565	3249
847.701	3507
847.837	3074
847.972	3066
848.108	3207
848.244	3188
848.379	3028
848.515	3013
848.65	2975
848.786	3028
848.921	3051
849.057	3150
849.192	3214
849.328	3104
849.463	3150
849.598	3089
849.734	3066
849.869	3024
850.004	2937
850.14	2982
850.275	2948
850.41	2891
850.545	2918
850.68	2986
850.815	2998
850.95	2952
851.085	3249
851.22	3138
851.355	3066
851.49	3039
851.625	3074
851.76	3009
851.895	2967
852.03	3001
852.165	3055
852.299	3169
852.434	3188
852.569	3226
852.703	3226
852.838	3321
852.973	3401
853.107	3386
853.242	3188
853.376	3142
853.511	3032
853.645	3020
853.78	3310
853.914	3173
854.048	3176
854.183	3131
854.317	3195
854.451	3359
854.585	3157
854.72	3135
854.854	3256
854.988	3085
855.122	3123
855.256	2979
855.39	3192
855.524	3283
855.658	3195
855.792	3195
855.926	3230
856.06	3249
856.194	3321
856.327	3214
856.461	3116
856.595	3176
856.729	3173
856.862	3291
856.996	3184
857.13	3241
857.263	3283
857.397	3313
857.53	3131
857.664	3226
857.797	3268
857.931	3298
858.064	3195
858.197	3241
858.331	3157
858.464	3154
858.597	3032
858.731	3165
858.864	3173
858.997	3123
859.13	3199
859.263	3222
859.396	3245
859.529	3108
859.662	3108
859.795	3097
859.928	3116
860.061	3325
860.194	3329
860.327	3199
860.46	3157
860.592	3298
860.725	3325
860.858	3298
860.99	3154
861.123	3119
861.256	3104
861.388	3222
861.521	3785
861.653	3085
861.786	3047
861.918	3039
862.05	3089
862.183	3142
862.315	3222
862.447	3264
862.58	3169
862.712	2998
862.844	2899
862.976	3066
863.108	3070
863.24	3435
863.372	2914
863.504	2990
863.636	3009
863.768	3066
863.9	3024
864.032	2952
864.164	2994
864.296	3055
864.428	3150
864.559	3146
864.691	3161
864.823	3100
864.954	3077
865.086	3081
865.217	3028
865.349	2971
865.48	3032
865.612	3081
865.743	3253
865.875	3013
866.006	2994
866.137	2994
866.269	2967
866.4	2990
866.531	2967
866.662	2899
866.793	2952
866.924	2967
867.055	3013
867.186	2937
867.317	2918
867.448	2918
867.579	2899
867.71	2883
867.841	2830
867.972	2941
868.103	2979
868.233	2925
868.364	2918
868.495	2925
868.625	3123
868.756	3169
868.886	3020
869.017	3074
869.147	3218
869.278	3199
869.408	3077
869.539	3097
869.669	3169
869.799	3097
869.929	3176
870.06	3146
870.19	3397
870.32	3313
870.45	3359
870.58	3393
870.71	3477
870.84	3496
870.97	3359
871.1	3272
871.23	3492
871.36	3530
871.489	3428
871.619	3458
871.749	3469
871.879	3519
872.008	3549
872.138	3409
872.267	3325
872.397	3218
872.526	3161
872.656	3055
872.785	3138
872.915	3298
873.044	3374
873.173	3214
873.303	3298
873.432	3329
873.561	3275
873.69	3195
873.819	3188
873.948	3241
874.077	3184
874.206	3051
874.335	3150
874.464	3279
874.593	3405
874.722	3253
874.851	3401
874.979	3439
875.108	3389
875.237	3237
875.365	3214
875.494	3214
875.623	3317
875.751	3150
875.88	3180
876.008	3207
876.136	3268
876.265	3458
876.393	3576
876.521	3519
876.65	3424
876.778	3386
876.906	3306
877.034	3283
877.162	3332
877.29	3203
877.418	3317
877.546	3283
877.674	3283
877.802	3272
877.93	3226
878.058	3241
878.185	3138
878.313	3283
878.441	3279
878.568	3112
878.696	3203
878.824	3302
878.951	3313
879.079	3549
879.206	3728
879.333	3477
879.461	3412
879.588	3439
879.715	3538
879.842	3629
879.97	3466
880.097	3207
880.224	3135
880.351	3207
880.478	3264
880.605	3256
880.732	3184
880.859	3542
880.986	3374
881.112	3382
881.239	3249
881.366	3157
881.493	3097
881.619	3058
881.746	3112
881.872	3135
881.999	3161
882.125	3214
882.252	3317
882.378	3401
882.505	3473
882.631	3336
882.757	3207
882.883	3214
883.01	3279
883.136	3237
883.262	3173
883.388	3116
883.514	3378
883.64	3412
883.766	3355
883.892	3245
884.018	3298
884.143	3458
884.269	3603
884.395	3245
884.52	3237
884.646	3233
884.772	3150
884.897	3138
885.023	3275
885.148	3420
885.274	3477
885.399	3370
885.524	3329
885.65	3340
885.775	3374
885.9	3329
886.025	3492
886.15	3428
886.275	3302
886.4	3279
886.525	3340
886.65	3310
886.775	3313
886.9	3549
887.025	3705
887.149	3469
887.274	3291
887.399	3260
887.523	3253
887.648	3241
887.773	3279
887.897	3458
888.021	3492
888.146	3359
888.27	3485
888.395	3576
888.519	3549
888.643	3481
888.767	3534
888.891	3348
889.015	3302
889.139	3344
889.263	3291
889.387	3443
889.511	3576
889.635	3519
889.759	3344
889.883	3332
890.006	3424
890.13	3519
890.254	3302
890.377	3405
890.501	3275
890.624	3230
890.748	3389
890.871	3211
890.995	3138
891.118	3127
891.241	3253
891.364	3222
891.488	3344
891.611	3218
891.734	3279
891.857	3325
891.98	3332
892.103	3386
892.226	3370
892.349	3287
892.471	3154
892.594	3291
892.717	3355
892.839	3321
892.962	3370
893.085	3420
893.207	3348
893.33	3192
893.452	3260
893.575	3367
893.697	3302
893.819	3545
893.941	3553
894.064	3488
894.186	3329
894.308	3374
894.43	3481
894.552	3595
894.674	3523
894.796	3351
894.918	3389
895.04	3355
895.161	3496
895.283	3416
895.405	3367
895.526	3420
895.648	3477
895.769	3477
895.891	3481
896.012	3519
896.134	3507
896.255	3477
896.376	3466
896.498	3439
896.619	3500
896.74	3401
896.861	3412
896.982	3770
897.103	3873
897.224	3675
897.345	3595
897.466	3462
897.587	3557
897.708	3679
897.828	3622
897.949	3485
898.07	3409
898.19	3469
898.311	3660
898.431	3485
898.552	3561
898.672	3652
898.792	3671
898.913	3580
899.033	3443
899.153	3344
899.273	3275
899.393	3367
899.513	3374
899.633	3344
899.753	3424
899.873	3363
899.993	3458
900.113	3424
900.232	3469
900.352	3401
900.472	3302
900.591	3260
900.711	3325
900.83	3294
900.95	3485
901.069	3561
901.189	3416
901.308	3253
901.427	3192
901.546	3230
901.665	3374
901.784	3363
901.904	3287
902.023	3176
902.141	3066
902.26	3058
902.379	3184
902.498	3131
902.617	3116
902.735	3260
902.854	3298
902.973	3230
903.091	3081
903.21	3119
903.328	3188
903.446	3119
903.565	3146
903.683	3260
903.801	3169
903.919	3302
904.038	3359
904.156	3226
904.274	3336
904.392	3340
904.51	3340
904.627	3367
904.745	3507
904.863	3526
904.981	3298
905.098	3176
905.216	3317
905.334	3348
905.451	3374
905.569	3370
905.686	3469
905.803	3477
905.921	3340
906.038	3530
906.155	3389
906.272	3355
906.389	3386
906.506	3317
906.623	3249
906.74	3332
906.857	3233
906.974	3325
907.091	3500
907.208	3652
907.324	3576
907.441	3450
907.557	3294
907.674	3291
907.79	3241
907.907	3294
908.023	3424
908.139	3458
908.256	3367
908.372	3416
908.488	3412
908.604	3336
908.72	3306
908.836	3329
908.952	3306
909.068	3412
909.184	3549
909.3	3473
909.415	3523
909.531	3561
909.647	3313
909.762	3363
909.878	3302
909.993	3450
910.108	3397
910.224	3382
910.339	3485
910.454	3363
910.57	3348
910.685	3298
910.8	3622
910.915	3584
911.03	3526
911.145	3325
911.259	3321
911.374	3363
911.489	3317
911.604	3291
911.718	3207
911.833	3214
911.947	3077
912.062	3020
912.176	3207
912.291	3279
912.405	3275
912.519	3511
912.633	3549
912.748	3374
912.862	3344
912.976	3226
913.09	3150
913.204	3203
913.318	3268
913.431	3374
913.545	3374
913.659	3405
913.772	3435
913.886	3230
914	3241
914.113	3382
914.226	3458
914.34	3431
914.453	3279
914.566	3492
914.68	3313
914.793	3348
914.906	3165
915.019	3157
915.132	3142
915.245	3272
915.358	3268
915.47	3279
915.583	3329
915.696	3321
915.809	3492
915.921	3492
916.034	3321
916.146	3329
916.259	3268
916.371	3409
916.483	3458
916.595	3344
916.708	3386
916.82	3359
916.932	3405
917.044	3424
917.156	3363
917.268	3310
917.38	3393
917.491	3344
917.603	3401
917.715	3458
917.826	3511
917.938	3405
918.049	3355
918.161	3466
918.272	3675
918.384	3591
918.495	3549
918.606	3359
918.717	3302
918.828	3424
918.939	3511
919.05	3389
919.161	3450
919.272	3245
919.383	3325
919.494	3576
919.604	3751
919.715	3526
919.826	3447
919.936	3580
920.047	3625
920.157	3591
920.267	3823
920.378	3663
920.488	3656
920.598	3797
920.708	4006
920.818	3892
920.928	3907
921.038	4120
921.148	4071
921.258	3743
921.368	3724
921.477	3682
921.587	3606
921.697	3557
921.806	3660
921.916	3553
922.025	3393
922.134	3382
922.244	3397
922.353	3481
922.462	3321
922.571	3256
922.68	3138
922.789	3127
922.898	3176
923.007	3081
923.116	3256
923.224	3253
923.333	3222
923.442	3184
923.55	3142
923.659	3173
923.767	3268
923.876	3188
923.984	3291
924.092	3169
924.201	3287
924.309	3317
924.417	3321
924.525	3272
924.633	3298
924.741	4249
924.849	3100
924.956	3291
925.064	3127
925.172	3097
925.279	3135
925.387	3241
925.494	3264
925.602	3424
925.709	3348
925.816	3230
925.924	3332
926.031	3424
926.138	3397
926.245	3431
926.352	3294
926.459	3473
926.566	3530
926.673	3386
926.779	3298
926.886	3268
926.993	3222
927.099	3188
927.206	3184
927.312	3176
927.419	3275
927.525	3233
927.631	3367
927.737	3222
927.843	3192
927.95	3116
928.056	3188
928.162	3218
928.267	3298
928.373	3873
928.479	3367
928.585	3116
928.69	3287
928.796	3340
928.901	3207
929.007	3081
929.112	3279
929.218	3245
929.323	3192
929.428	3161
929.533	3332
929.638	3157
929.743	3203
929.848	3279
929.953	3291
930.058	3218
930.163	3036
930.267	3104
930.372	3245
930.477	3100
930.581	3359
930.685	3279
930.79	3066
930.894	3165
930.998	3169
931.103	3325
931.207	3001
931.311	3009
931.415	2960
931.519	2811
931.623	2872
