Data from test_V78500241_1577.txt Node
Date: Fri Mar 25 16:26:07 CST 2022
User: usil
Spectrometer: V785-0024
Trigger mode: 0
Integration Time (sec): 4.000000E-1
Scans to average: 1
Nonlinearity correction enabled: false
Boxcar width: 0
Storing dark spectrum: false
XAxis mode: Wavelengths
Number of Pixels in Spectrum: 1024
>>>>>Begin Spectral Data<<<<<
801.071	2925
801.214	2944
801.356	2872
801.499	2922
801.641	2872
801.783	2941
801.926	3074
802.068	2986
802.211	2998
802.353	3055
802.496	2975
802.638	3020
802.78	3070
802.923	3070
803.065	3051
803.208	2948
803.35	2910
803.492	2929
803.635	2944
803.777	2796
803.919	2883
804.061	3180
804.204	2925
804.346	2914
804.488	2861
804.63	3001
804.773	2853
804.915	2933
805.057	3097
805.199	2948
805.341	2971
805.483	3066
805.626	2990
805.768	2982
805.91	3097
806.052	3108
806.194	3081
806.336	3268
806.478	3058
806.62	2994
806.762	3005
806.904	3112
807.046	3184
807.188	3020
807.33	2933
807.472	2990
807.614	2914
807.756	3001
807.898	2960
808.04	2876
808.182	2971
808.324	2960
808.465	2899
808.607	2876
808.749	2807
808.891	2872
809.033	2952
809.174	2998
809.316	2944
809.458	2910
809.6	2800
809.741	2773
809.883	2743
810.025	2849
810.166	2899
810.308	2838
810.45	2830
810.591	2796
810.733	2792
810.875	2842
811.016	2773
811.158	2754
811.299	2781
811.441	2944
811.582	2929
811.724	2811
811.865	2876
812.007	2910
812.148	2895
812.29	2868
812.431	2918
812.573	2937
812.714	2948
812.855	3009
812.997	3017
813.138	3123
813.279	2982
813.421	3009
813.562	2963
813.703	2872
813.845	2918
813.986	2792
814.127	2735
814.268	2815
814.41	2876
814.551	2815
814.692	2876
814.833	2838
814.974	2880
815.115	2963
815.256	2853
815.397	2815
815.539	2880
815.68	2773
815.821	2830
815.962	2971
816.103	2906
816.244	2864
816.385	2880
816.526	2986
816.666	2914
816.807	2758
816.948	2899
817.089	2929
817.23	2891
817.371	2804
817.512	2807
817.653	2861
817.793	2826
817.934	2929
818.075	2967
818.216	2967
818.356	3070
818.497	2864
818.638	2811
818.778	2823
818.919	2792
819.06	2735
819.2	2902
819.341	2807
819.481	2834
819.622	2933
819.762	3089
819.903	3047
820.043	2933
820.184	2922
820.324	2922
820.465	3036
820.605	3001
820.746	3024
820.886	2918
821.026	3100
821.167	3195
821.307	3253
821.447	3294
821.588	3256
821.728	3180
821.868	3199
822.008	3093
822.149	3157
822.289	3245
822.429	3070
822.569	3089
822.709	3157
822.849	3032
822.99	3077
823.13	3188
823.27	3253
823.41	3116
823.55	3142
823.69	3157
823.83	3169
823.97	3142
824.11	3001
824.25	3005
824.389	3062
824.529	3112
824.669	3062
824.809	3218
824.949	3260
825.089	3245
825.228	3165
825.368	3013
825.508	2960
825.648	2971
825.787	3028
825.927	3001
826.067	2971
826.206	2948
826.346	3066
826.485	3047
826.625	3085
826.765	3283
826.904	3203
827.044	2982
827.183	2971
827.323	2868
827.462	3001
827.601	2914
827.741	2956
827.88	2960
828.02	2830
828.159	3005
828.298	3009
828.437	3116
828.577	3062
828.716	3275
828.855	3081
828.994	2937
829.134	2883
829.273	2941
829.412	2853
829.551	2861
829.69	2906
829.829	2986
829.968	3119
830.107	3051
830.246	3013
830.385	2925
830.524	2872
830.663	2830
830.802	2769
830.941	2655
831.08	2625
831.219	2724
831.357	2743
831.496	2948
831.635	2746
831.774	2629
831.913	2682
832.051	2526
832.19	2590
832.329	2701
832.467	2587
832.606	2514
832.744	2606
832.883	2568
833.022	2598
833.16	2644
833.299	2705
833.437	2693
833.576	2693
833.714	2731
833.852	2788
833.991	2777
834.129	2868
834.267	2845
834.406	2815
834.544	2868
834.682	2895
834.821	2864
834.959	3051
835.097	2891
835.235	3055
835.373	3005
835.511	3024
835.65	2944
835.788	2933
835.926	2838
836.064	2823
836.202	2830
836.34	3093
836.478	3131
836.615	3074
836.753	3154
836.891	3192
837.029	3157
837.167	3116
837.305	3077
837.443	3070
837.58	2963
837.718	3146
837.856	3081
837.993	3043
838.131	3154
838.269	3093
838.406	3112
838.544	3089
838.681	2906
838.819	2929
838.956	2845
839.094	2876
839.231	2937
839.369	3036
839.506	3389
839.643	3211
839.781	3032
839.918	3001
840.055	3077
840.193	3032
840.33	3100
840.467	3119
840.604	3146
840.742	3405
840.879	3093
841.016	3055
841.153	3112
841.29	3332
841.427	3291
841.564	3306
841.701	3321
841.838	3256
841.975	3173
842.112	3188
842.249	3089
842.385	3017
842.522	3279
842.659	3104
842.796	3047
842.933	3112
843.069	3062
843.206	3032
843.343	3180
843.479	3097
843.616	3142
843.752	2910
843.889	2883
844.025	3062
844.162	2891
844.298	3100
844.435	2952
844.571	2933
844.708	3055
844.844	3203
844.98	3237
845.117	3211
845.253	3020
845.389	3001
845.525	3112
845.661	3119
845.798	3043
845.934	3138
846.07	3074
846.206	3192
846.342	3363
846.478	3218
846.614	3085
846.75	3089
846.886	2986
847.022	3260
847.158	3127
847.294	3195
847.429	3233
847.565	3222
847.701	3477
847.837	3017
847.972	3001
848.108	3184
848.244	3150
848.379	3001
848.515	2960
848.65	2948
848.786	2979
848.921	3017
849.057	3142
849.192	3116
849.328	3085
849.463	3093
849.598	3089
849.734	3074
849.869	2979
850.004	2925
850.14	2952
850.275	2918
850.41	2838
850.545	2914
850.68	2922
850.815	2922
850.95	2986
851.085	3169
851.22	3089
851.355	3017
851.49	2963
851.625	2960
851.76	3028
851.895	2937
852.03	2914
852.165	3028
852.299	3131
852.434	3184
852.569	3161
852.703	3199
852.838	3233
852.973	3340
853.107	3317
853.242	3123
853.376	3081
853.511	2986
853.645	3089
853.78	3222
853.914	3142
854.048	3066
854.183	3085
854.317	3165
854.451	3268
854.585	3119
854.72	3119
854.854	3180
854.988	3009
855.122	3097
855.256	2994
855.39	3142
855.524	3226
855.658	3165
855.792	3180
855.926	3188
856.06	3211
856.194	3245
856.327	3165
856.461	3043
856.595	3070
856.729	3062
856.862	3211
856.996	3169
857.13	3161
857.263	3207
857.397	3291
857.53	3100
857.664	3199
857.797	3241
857.931	3203
858.064	3154
858.197	3195
858.331	3097
858.464	3058
858.597	3028
858.731	3142
858.864	3097
858.997	3085
859.13	3169
859.263	3165
859.396	3214
859.529	3123
859.662	3108
859.795	3100
859.928	3154
860.061	3291
860.194	3291
860.327	3157
860.46	3097
860.592	3230
860.725	3211
860.858	3264
860.99	3127
861.123	3024
861.256	3055
861.388	3146
861.521	3816
861.653	3017
861.786	2979
861.918	3020
862.05	3058
862.183	3081
862.315	3135
862.447	3192
862.58	3116
862.712	2956
862.844	2899
862.976	3020
863.108	2982
863.24	3363
863.372	2910
863.504	2967
863.636	2914
863.768	3020
863.9	2982
864.032	2910
864.164	2952
864.296	3013
864.428	3100
864.559	3116
864.691	3062
864.823	3055
864.954	2982
865.086	3039
865.217	3028
865.349	2960
865.48	2986
865.612	3001
865.743	3165
865.875	2994
866.006	2910
866.137	2982
866.269	2967
866.4	2918
866.531	2880
866.662	2925
866.793	2853
866.924	2899
867.055	2994
867.186	2941
867.317	2906
867.448	2819
867.579	2864
867.71	2823
867.841	2830
867.972	2887
868.103	2960
868.233	2880
868.364	2880
868.495	2922
868.625	3051
868.756	3173
868.886	2967
869.017	3039
869.147	3195
869.278	3173
869.408	3066
869.539	3024
869.669	3161
869.799	3013
869.929	3127
870.06	3093
870.19	3310
870.32	3287
870.45	3264
870.58	3359
870.71	3473
870.84	3458
870.97	3287
871.1	3226
871.23	3466
871.36	3424
871.489	3340
871.619	3370
871.749	3389
871.879	3481
872.008	3431
872.138	3359
872.267	3237
872.397	3146
872.526	3108
872.656	3009
872.785	3119
872.915	3222
873.044	3283
873.173	3233
873.303	3226
873.432	3233
873.561	3237
873.69	3154
873.819	3161
873.948	3203
874.077	3112
874.206	3055
874.335	3074
874.464	3184
874.593	3348
874.722	3272
874.851	3424
874.979	3325
875.108	3310
875.237	3211
875.365	3161
875.494	3150
875.623	3253
875.751	3058
875.88	3074
876.008	3176
876.136	3169
876.265	3374
876.393	3504
876.521	3412
876.65	3367
876.778	3332
876.906	3207
877.034	3226
877.162	3272
877.29	3173
877.418	3260
877.546	3275
877.674	3214
877.802	3218
877.93	3222
878.058	3150
878.185	3062
878.313	3241
878.441	3188
878.568	3058
878.696	3176
878.824	3256
878.951	3279
879.079	3447
879.206	3587
879.333	3450
879.461	3367
879.588	3374
879.715	3469
879.842	3633
879.97	3363
880.097	3188
880.224	3138
880.351	3188
880.478	3226
880.605	3211
880.732	3176
880.859	3435
880.986	3283
881.112	3329
881.239	3203
881.366	3085
881.493	3036
881.619	2994
881.746	3070
881.872	3070
881.999	3077
882.125	3097
882.252	3245
882.378	3329
882.505	3431
882.631	3264
882.757	3154
882.883	3226
883.01	3222
883.136	3173
883.262	3081
883.388	3104
883.514	3272
883.64	3386
883.766	3283
883.892	3207
884.018	3218
884.143	3424
884.269	3492
884.395	3207
884.52	3146
884.646	3157
884.772	3104
884.897	3077
885.023	3199
885.148	3340
885.274	3447
885.399	3393
885.524	3298
885.65	3283
885.775	3306
885.9	3298
886.025	3416
886.15	3363
886.275	3302
886.4	3214
886.525	3317
886.65	3298
886.775	3253
886.9	3496
887.025	3622
887.149	3401
887.274	3241
887.399	3173
887.523	3199
887.648	3169
887.773	3192
887.897	3386
888.021	3382
888.146	3291
888.27	3428
888.395	3504
888.519	3443
888.643	3428
888.767	3454
888.891	3321
889.015	3222
889.139	3279
889.263	3272
889.387	3351
889.511	3534
889.635	3378
889.759	3275
889.883	3268
890.006	3382
890.13	3500
890.254	3294
890.377	3329
890.501	3207
890.624	3195
890.748	3298
890.871	3157
890.995	3116
891.118	3032
891.241	3138
891.364	3207
891.488	3317
891.611	3180
891.734	3195
891.857	3302
891.98	3237
892.103	3332
892.226	3321
892.349	3218
892.471	3116
892.594	3268
892.717	3283
892.839	3272
892.962	3272
893.085	3348
893.207	3302
893.33	3165
893.452	3195
893.575	3355
893.697	3253
893.819	3454
893.941	3504
894.064	3462
894.186	3283
894.308	3260
894.43	3393
894.552	3542
894.674	3458
894.796	3287
894.918	3329
895.04	3249
895.161	3443
895.283	3420
895.405	3298
895.526	3317
895.648	3443
895.769	3393
895.891	3454
896.012	3481
896.134	3447
896.255	3412
896.376	3363
896.498	3397
896.619	3454
896.74	3370
896.861	3412
896.982	3682
897.103	3808
897.224	3595
897.345	3447
897.466	3435
897.587	3488
897.708	3656
897.828	3584
897.949	3443
898.07	3306
898.19	3428
898.311	3599
898.431	3447
898.552	3511
898.672	3591
898.792	3622
898.913	3549
899.033	3466
899.153	3325
899.273	3214
899.393	3283
899.513	3355
899.633	3302
899.753	3348
899.873	3283
899.993	3374
900.113	3344
900.232	3386
900.352	3355
900.472	3260
900.591	3195
900.711	3310
900.83	3214
900.95	3389
901.069	3530
901.189	3386
901.308	3165
901.427	3127
901.546	3214
901.665	3253
901.784	3291
901.904	3214
902.023	3176
902.141	3047
902.26	3024
902.379	3150
902.498	3104
902.617	3058
902.735	3203
902.854	3249
902.973	3169
903.091	3051
903.21	3051
903.328	3123
903.446	3070
903.565	3081
903.683	3218
903.801	3127
903.919	3203
904.038	3260
904.156	3173
904.274	3256
904.392	3249
904.51	3264
904.627	3351
904.745	3439
904.863	3450
904.981	3226
905.098	3154
905.216	3241
905.334	3310
905.451	3298
905.569	3306
905.686	3424
905.803	3466
905.921	3294
906.038	3401
906.155	3355
906.272	3272
906.389	3348
906.506	3211
906.623	3275
906.74	3241
906.857	3161
906.974	3279
907.091	3469
907.208	3542
907.324	3466
907.441	3367
907.557	3207
907.674	3241
907.79	3203
907.907	3310
908.023	3351
908.139	3363
908.256	3332
908.372	3340
908.488	3363
908.604	3256
908.72	3214
908.836	3287
908.952	3268
909.068	3306
909.184	3481
909.3	3439
909.415	3477
909.531	3458
909.647	3268
909.762	3268
909.878	3272
909.993	3374
910.108	3351
910.224	3367
910.339	3393
910.454	3325
910.57	3310
910.685	3214
910.8	3606
910.915	3511
911.03	3405
911.145	3268
911.259	3264
911.374	3279
911.489	3272
911.604	3222
911.718	3146
911.833	3138
911.947	3039
912.062	3005
912.176	3165
912.291	3176
912.405	3199
912.519	3416
912.633	3439
912.748	3336
912.862	3272
912.976	3165
913.09	3085
913.204	3131
913.318	3203
913.431	3313
913.545	3332
913.659	3416
913.772	3355
913.886	3249
914	3211
914.113	3332
914.226	3428
914.34	3370
914.453	3226
914.566	3378
914.68	3275
914.793	3279
914.906	3157
915.019	3104
915.132	3074
915.245	3150
915.358	3195
915.47	3222
915.583	3237
915.696	3268
915.809	3370
915.921	3374
916.034	3298
916.146	3249
916.259	3230
916.371	3389
916.483	3340
916.595	3264
916.708	3332
916.82	3336
916.932	3317
917.044	3367
917.156	3313
917.268	3283
917.38	3283
917.491	3306
917.603	3386
917.715	3431
917.826	3481
917.938	3389
918.049	3260
918.161	3424
918.272	3580
918.384	3606
918.495	3492
918.606	3329
918.717	3340
918.828	3355
918.939	3458
919.05	3325
919.161	3363
919.272	3161
919.383	3283
919.494	3496
919.604	3698
919.715	3488
919.826	3382
919.936	3447
920.047	3584
920.157	3561
920.267	3831
920.378	3549
920.488	3542
920.598	3770
920.708	3926
920.818	3819
920.928	3861
921.038	4025
921.148	3979
921.258	3694
921.368	3648
921.477	3599
921.587	3523
921.697	3443
921.806	3618
921.916	3492
922.025	3348
922.134	3382
922.244	3329
922.353	3420
922.462	3275
922.571	3192
922.68	3116
922.789	3077
922.898	3161
923.007	3070
923.116	3176
923.224	3127
923.333	3173
923.442	3127
923.55	3108
923.659	3131
923.767	3222
923.876	3097
923.984	3207
924.092	3116
924.201	3211
924.309	3207
924.417	3241
924.525	3207
924.633	3237
924.741	4192
924.849	3077
924.956	3256
925.064	3074
925.172	3051
925.279	3108
925.387	3207
925.494	3199
925.602	3348
925.709	3317
925.816	3169
925.924	3279
926.031	3389
926.138	3329
926.245	3344
926.352	3226
926.459	3393
926.566	3450
926.673	3317
926.779	3264
926.886	3214
926.993	3146
927.099	3165
927.206	3089
927.312	3108
927.419	3211
927.525	3173
927.631	3287
927.737	3138
927.843	3131
927.95	2975
928.056	3119
928.162	3176
928.267	3260
928.373	3915
928.479	3302
928.585	3081
928.69	3222
928.796	3260
928.901	3188
929.007	3058
929.112	3195
929.218	3184
929.323	3165
929.428	3150
929.533	3294
929.638	3157
929.743	3173
929.848	3218
929.953	3249
930.058	3116
930.163	2994
930.267	3047
930.372	3203
930.477	3024
930.581	3306
930.685	3169
930.79	3085
930.894	3150
930.998	3074
931.103	3272
931.207	2956
931.311	2956
931.415	2948
931.519	2792
931.623	2842
