Data from test_V78500241_732.txt Node
Date: Fri Mar 25 16:20:16 CST 2022
User: usil
Spectrometer: V785-0024
Trigger mode: 0
Integration Time (sec): 4.000000E-1
Scans to average: 1
Nonlinearity correction enabled: false
Boxcar width: 0
Storing dark spectrum: false
XAxis mode: Wavelengths
Number of Pixels in Spectrum: 1024
>>>>>Begin Spectral Data<<<<<
801.071	2914
801.214	2910
801.356	2925
801.499	2887
801.641	2899
801.783	2937
801.926	3081
802.068	2998
802.211	3005
802.353	3020
802.496	2975
802.638	3001
802.78	3028
802.923	3085
803.065	3055
803.208	2902
803.35	2963
803.492	2937
803.635	2910
803.777	2785
803.919	2845
804.061	3180
804.204	2963
804.346	2914
804.488	2823
804.63	2986
804.773	2887
804.915	2868
805.057	3100
805.199	2925
805.341	2956
805.483	3043
805.626	2994
805.768	2971
805.91	3089
806.052	3070
806.194	3036
806.336	3233
806.478	3020
806.62	2899
806.762	2979
806.904	3062
807.046	3135
807.188	3001
807.33	2937
807.472	2982
807.614	2929
807.756	2975
807.898	2899
808.04	2922
808.182	2963
808.324	2967
808.465	2895
808.607	2868
808.749	2769
808.891	2861
809.033	2986
809.174	2960
809.316	2895
809.458	2906
809.6	2724
809.741	2720
809.883	2785
810.025	2861
810.166	2853
810.308	2807
810.45	2853
810.591	2762
810.733	2762
810.875	2815
811.016	2766
811.158	2746
811.299	2815
811.441	2925
811.582	2902
811.724	2819
811.865	2807
812.007	2925
812.148	2887
812.29	2864
812.431	2872
812.573	2948
812.714	2937
812.855	3036
812.997	3051
813.138	3104
813.279	3036
813.421	3032
813.562	2960
813.703	2853
813.845	2906
813.986	2785
814.127	2762
814.268	2788
814.41	2857
814.551	2826
814.692	2906
814.833	2811
814.974	2876
815.115	2952
815.256	2819
815.397	2834
815.539	2868
815.68	2804
815.821	2819
815.962	2925
816.103	2933
816.244	2899
816.385	2864
816.526	3005
816.666	2883
816.807	2727
816.948	2864
817.089	2925
817.23	2849
817.371	2762
817.512	2766
817.653	2849
817.793	2849
817.934	2864
818.075	2975
818.216	2971
818.356	3074
818.497	2895
818.638	2800
818.778	2834
818.919	2785
819.06	2697
819.2	2864
819.341	2796
819.481	2823
819.622	2960
819.762	3104
819.903	3036
820.043	2914
820.184	2948
820.324	2922
820.465	3005
820.605	3009
820.746	3009
820.886	2967
821.026	3112
821.167	3157
821.307	3256
821.447	3256
821.588	3237
821.728	3241
821.868	3169
822.008	3097
822.149	3230
822.289	3283
822.429	3104
822.569	3112
822.709	3195
822.849	3062
822.99	3074
823.13	3169
823.27	3214
823.41	3161
823.55	3199
823.69	3199
823.83	3222
823.97	3123
824.11	3009
824.25	3032
824.389	3135
824.529	3150
824.669	3085
824.809	3218
824.949	3294
825.089	3264
825.228	3203
825.368	3032
825.508	2982
825.648	3009
825.787	3039
825.927	3074
826.067	3005
826.206	3009
826.346	3108
826.485	3127
826.625	3161
826.765	3317
826.904	3253
827.044	3013
827.183	2967
827.323	2918
827.462	2998
827.601	2971
827.741	2941
827.88	2971
828.02	2906
828.159	3005
828.298	3089
828.437	3146
828.577	3097
828.716	3283
828.855	3157
828.994	2960
829.134	2963
829.273	2918
829.412	2918
829.551	2914
829.69	2937
829.829	3005
829.968	3165
830.107	3058
830.246	3039
830.385	2967
830.524	2929
830.663	2899
830.802	2769
830.941	2720
831.08	2689
831.219	2792
831.357	2826
831.496	3017
831.635	2758
831.774	2686
831.913	2674
832.051	2617
832.19	2629
832.329	2670
832.467	2556
832.606	2511
832.744	2613
832.883	2617
833.022	2613
833.16	2689
833.299	2731
833.437	2724
833.576	2727
833.714	2750
833.852	2746
833.991	2785
834.129	2876
834.267	2857
834.406	2823
834.544	2922
834.682	2902
834.821	2887
834.959	3066
835.097	2922
835.235	3070
835.373	3020
835.511	3062
835.65	3005
835.788	3001
835.926	2868
836.064	2861
836.202	2849
836.34	3157
836.478	3157
836.615	3100
836.753	3135
836.891	3192
837.029	3169
837.167	3116
837.305	3116
837.443	3047
837.58	2998
837.718	3169
837.856	3127
837.993	3070
838.131	3184
838.269	3173
838.406	3135
838.544	3116
838.681	2933
838.819	2971
838.956	2853
839.094	2853
839.231	2914
839.369	3043
839.506	3393
839.643	3237
839.781	3009
839.918	3043
840.055	3089
840.193	3039
840.33	3058
840.467	3146
840.604	3199
840.742	3420
840.879	3097
841.016	3112
841.153	3142
841.29	3344
841.427	3321
841.564	3279
841.701	3363
841.838	3260
841.975	3180
842.112	3279
842.249	3089
842.385	3066
842.522	3256
842.659	3104
842.796	3066
842.933	3104
843.069	3058
843.206	3074
843.343	3195
843.479	3123
843.616	3165
843.752	2910
843.889	2891
844.025	3119
844.162	2906
844.298	3119
844.435	2956
844.571	2929
844.708	3081
844.844	3226
844.98	3275
845.117	3195
845.253	3100
845.389	3020
845.525	3100
845.661	3100
845.798	3066
845.934	3116
846.07	3066
846.206	3291
846.342	3351
846.478	3214
846.614	3100
846.75	3032
846.886	3047
847.022	3272
847.158	3142
847.294	3211
847.429	3272
847.565	3253
847.701	3530
847.837	3051
847.972	3017
848.108	3207
848.244	3180
848.379	3032
848.515	2979
848.65	2960
848.786	3020
848.921	3032
849.057	3119
849.192	3157
849.328	3062
849.463	3123
849.598	3112
849.734	3077
849.869	2975
850.004	2948
850.14	2975
850.275	2948
850.41	2845
850.545	2914
850.68	2960
850.815	2986
850.95	3005
851.085	3218
851.22	3131
851.355	3036
851.49	3017
851.625	2990
851.76	3043
851.895	2960
852.03	2967
852.165	3077
852.299	3138
852.434	3233
852.569	3169
852.703	3211
852.838	3298
852.973	3370
853.107	3344
853.242	3161
853.376	3108
853.511	3024
853.645	3066
853.78	3298
853.914	3104
854.048	3150
854.183	3085
854.317	3154
854.451	3348
854.585	3165
854.72	3066
854.854	3237
854.988	3062
855.122	3123
855.256	2979
855.39	3119
855.524	3264
855.658	3176
855.792	3207
855.926	3218
856.06	3253
856.194	3298
856.327	3211
856.461	3093
856.595	3055
856.729	3123
856.862	3249
856.996	3184
857.13	3192
857.263	3253
857.397	3294
857.53	3123
857.664	3253
857.797	3279
857.931	3260
858.064	3150
858.197	3230
858.331	3127
858.464	3135
858.597	3051
858.731	3142
858.864	3169
858.997	3123
859.13	3165
859.263	3230
859.396	3207
859.529	3131
859.662	3066
859.795	3039
859.928	3180
860.061	3310
860.194	3313
860.327	3180
860.46	3108
860.592	3275
860.725	3287
860.858	3264
860.99	3165
861.123	3085
861.256	3066
861.388	3154
861.521	3854
861.653	3058
861.786	3017
861.918	3005
862.05	3043
862.183	3100
862.315	3142
862.447	3245
862.58	3127
862.712	3017
862.844	2895
862.976	3081
863.108	3009
863.24	3443
863.372	2891
863.504	2967
863.636	2952
863.768	3043
863.9	3005
864.032	2975
864.164	2929
864.296	3013
864.428	3093
864.559	3119
864.691	3051
864.823	3104
864.954	3066
865.086	3062
865.217	3009
865.349	2979
865.48	3024
865.612	3043
865.743	3180
865.875	2979
866.006	2937
866.137	2975
866.269	2963
866.4	2971
866.531	2925
866.662	2906
866.793	2902
866.924	2971
867.055	2979
867.186	2941
867.317	2918
867.448	2849
867.579	2864
867.71	2876
867.841	2823
867.972	2918
868.103	2910
868.233	2872
868.364	2895
868.495	2944
868.625	3142
868.756	3184
868.886	3013
869.017	3066
869.147	3176
869.278	3146
869.408	3066
869.539	3077
869.669	3089
869.799	3051
869.929	3150
870.06	3097
870.19	3340
870.32	3283
870.45	3336
870.58	3405
870.71	3496
870.84	3477
870.97	3329
871.1	3275
871.23	3507
871.36	3481
871.489	3382
871.619	3397
871.749	3431
871.879	3447
872.008	3545
872.138	3393
872.267	3298
872.397	3165
872.526	3116
872.656	3028
872.785	3116
872.915	3287
873.044	3313
873.173	3230
873.303	3233
873.432	3302
873.561	3272
873.69	3180
873.819	3146
873.948	3214
874.077	3119
874.206	3077
874.335	3131
874.464	3195
874.593	3386
874.722	3279
874.851	3401
874.979	3370
875.108	3332
875.237	3203
875.365	3192
875.494	3142
875.623	3253
875.751	3123
875.88	3066
876.008	3222
876.136	3233
876.265	3401
876.393	3530
876.521	3462
876.65	3412
876.778	3374
876.906	3249
877.034	3233
877.162	3226
877.29	3207
877.418	3256
877.546	3192
877.674	3253
877.802	3233
877.93	3245
878.058	3161
878.185	3119
878.313	3207
878.441	3184
878.568	3108
878.696	3173
878.824	3275
878.951	3317
879.079	3469
879.206	3656
879.333	3450
879.461	3332
879.588	3351
879.715	3538
879.842	3587
879.97	3370
880.097	3192
880.224	3104
880.351	3203
880.478	3211
880.605	3226
880.732	3169
880.859	3538
880.986	3294
881.112	3321
881.239	3253
881.366	3127
881.493	3074
881.619	3070
881.746	3100
881.872	3070
881.999	3097
882.125	3138
882.252	3283
882.378	3291
882.505	3420
882.631	3268
882.757	3154
882.883	3256
883.01	3226
883.136	3214
883.262	3135
883.388	3146
883.514	3317
883.64	3439
883.766	3302
883.892	3180
884.018	3272
884.143	3397
884.269	3564
884.395	3256
884.52	3169
884.646	3176
884.772	3157
884.897	3108
885.023	3245
885.148	3412
885.274	3397
885.399	3382
885.524	3340
885.65	3264
885.775	3336
885.9	3294
886.025	3428
886.15	3393
886.275	3264
886.4	3279
886.525	3298
886.65	3268
886.775	3268
886.9	3473
887.025	3618
887.149	3370
887.274	3253
887.399	3184
887.523	3245
887.648	3199
887.773	3226
887.897	3393
888.021	3412
888.146	3298
888.27	3454
888.395	3526
888.519	3466
888.643	3443
888.767	3466
888.891	3359
889.015	3275
889.139	3264
889.263	3245
889.387	3378
889.511	3519
889.635	3420
889.759	3298
889.883	3302
890.006	3355
890.13	3488
890.254	3256
890.377	3325
890.501	3192
890.624	3169
890.748	3294
890.871	3184
890.995	3089
891.118	3089
891.241	3195
891.364	3203
891.488	3325
891.611	3188
891.734	3233
891.857	3283
891.98	3260
892.103	3355
892.226	3279
892.349	3230
892.471	3085
892.594	3260
892.717	3329
892.839	3302
892.962	3306
893.085	3378
893.207	3313
893.33	3142
893.452	3180
893.575	3374
893.697	3241
893.819	3496
893.941	3530
894.064	3504
894.186	3264
894.308	3241
894.43	3447
894.552	3568
894.674	3447
894.796	3298
894.918	3325
895.04	3302
895.161	3428
895.283	3416
895.405	3306
895.526	3389
895.648	3412
895.769	3431
895.891	3496
896.012	3473
896.134	3401
896.255	3428
896.376	3386
896.498	3370
896.619	3450
896.74	3359
896.861	3382
896.982	3648
897.103	3838
897.224	3587
897.345	3542
897.466	3477
897.587	3466
897.708	3576
897.828	3530
897.949	3428
898.07	3355
898.19	3401
898.311	3625
898.431	3443
898.552	3545
898.672	3603
898.792	3599
898.913	3500
899.033	3428
899.153	3237
899.273	3222
899.393	3283
899.513	3313
899.633	3306
899.753	3348
899.873	3298
899.993	3397
900.113	3329
900.232	3412
900.352	3389
900.472	3306
900.591	3230
900.711	3325
900.83	3230
900.95	3443
901.069	3507
901.189	3363
901.308	3199
901.427	3108
901.546	3180
901.665	3272
901.784	3302
901.904	3230
902.023	3112
902.141	3017
902.26	2979
902.379	3146
902.498	3093
902.617	3051
902.735	3176
902.854	3203
902.973	3188
903.091	3077
903.21	3097
903.328	3142
903.446	3116
903.565	3112
903.683	3203
903.801	3100
903.919	3214
904.038	3321
904.156	3188
904.274	3275
904.392	3264
904.51	3283
904.627	3302
904.745	3473
904.863	3511
904.981	3256
905.098	3100
905.216	3230
905.334	3291
905.451	3325
905.569	3291
905.686	3431
905.803	3447
905.921	3256
906.038	3416
906.155	3348
906.272	3310
906.389	3294
906.506	3199
906.623	3294
906.74	3233
906.857	3203
906.974	3256
907.091	3439
907.208	3576
907.324	3473
907.441	3386
907.557	3211
907.674	3207
907.79	3207
907.907	3260
908.023	3363
908.139	3355
908.256	3355
908.372	3378
908.488	3382
908.604	3237
908.72	3222
908.836	3302
908.952	3287
909.068	3348
909.184	3515
909.3	3367
909.415	3507
909.531	3473
909.647	3256
909.762	3306
909.878	3230
909.993	3370
910.108	3348
910.224	3325
910.339	3397
910.454	3336
910.57	3279
910.685	3237
910.8	3591
910.915	3545
911.03	3450
911.145	3256
911.259	3344
911.374	3298
911.489	3249
911.604	3241
911.718	3085
911.833	3165
911.947	3024
912.062	3017
912.176	3169
912.291	3192
912.405	3176
912.519	3412
912.633	3450
912.748	3306
912.862	3260
912.976	3173
913.09	3077
913.204	3093
913.318	3188
913.431	3294
913.545	3332
913.659	3401
913.772	3389
913.886	3165
914	3211
914.113	3340
914.226	3431
914.34	3363
914.453	3199
914.566	3409
914.68	3287
914.793	3336
914.906	3176
915.019	3100
915.132	3055
915.245	3131
915.358	3207
915.47	3256
915.583	3256
915.696	3279
915.809	3435
915.921	3450
916.034	3249
916.146	3249
916.259	3245
916.371	3359
916.483	3355
916.595	3287
916.708	3310
916.82	3287
916.932	3325
917.044	3325
917.156	3363
917.268	3192
917.38	3294
917.491	3275
917.603	3351
917.715	3466
917.826	3492
917.938	3401
918.049	3279
918.161	3450
918.272	3572
918.384	3553
918.495	3469
918.606	3336
918.717	3264
918.828	3355
918.939	3420
919.05	3317
919.161	3321
919.272	3157
919.383	3298
919.494	3511
919.604	3671
919.715	3481
919.826	3409
919.936	3428
920.047	3603
920.157	3584
920.267	3751
920.378	3641
920.488	3549
920.598	3781
920.708	3975
920.818	3816
920.928	3812
921.038	4013
921.148	3975
921.258	3660
921.368	3644
921.477	3584
921.587	3568
921.697	3492
921.806	3660
921.916	3564
922.025	3344
922.134	3428
922.244	3298
922.353	3428
922.462	3264
922.571	3192
922.68	3093
922.789	3062
922.898	3150
923.007	3081
923.116	3214
923.224	3165
923.333	3180
923.442	3108
923.55	3066
923.659	3116
923.767	3237
923.876	3127
923.984	3272
924.092	3100
924.201	3192
924.309	3218
924.417	3256
924.525	3173
924.633	3245
924.741	4185
924.849	3024
924.956	3287
925.064	3077
925.172	3070
925.279	3085
925.387	3173
925.494	3184
925.602	3359
925.709	3340
925.816	3188
925.924	3287
926.031	3393
926.138	3325
926.245	3321
926.352	3249
926.459	3428
926.566	3454
926.673	3294
926.779	3233
926.886	3237
926.993	3146
927.099	3112
927.206	3077
927.312	3119
927.419	3207
927.525	3173
927.631	3302
927.737	3154
927.843	3108
927.95	3013
928.056	3119
928.162	3150
928.267	3233
928.373	3884
928.479	3317
928.585	3089
928.69	3222
928.796	3249
928.901	3157
929.007	3039
929.112	3199
929.218	3157
929.323	3146
929.428	3146
929.533	3298
929.638	3089
929.743	3184
929.848	3245
929.953	3207
930.058	3142
930.163	2963
930.267	3028
930.372	3207
930.477	3043
930.581	3348
930.685	3188
930.79	3047
930.894	3116
930.998	3104
931.103	3283
931.207	2933
931.311	2899
931.415	2944
931.519	2792
931.623	2811
