Data from test_V78500241_278.txt Node
Date: Fri Mar 25 16:17:07 CST 2022
User: usil
Spectrometer: V785-0024
Trigger mode: 0
Integration Time (sec): 4.000000E-1
Scans to average: 1
Nonlinearity correction enabled: false
Boxcar width: 0
Storing dark spectrum: false
XAxis mode: Wavelengths
Number of Pixels in Spectrum: 1024
>>>>>Begin Spectral Data<<<<<
801.071	2887
801.214	2906
801.356	2880
801.499	2902
801.641	2922
801.783	2906
801.926	3039
802.068	2956
802.211	2979
802.353	3028
802.496	2906
802.638	2960
802.78	3055
802.923	3058
803.065	3013
803.208	2872
803.35	2914
803.492	2922
803.635	2929
803.777	2777
803.919	2880
804.061	3173
804.204	2979
804.346	2933
804.488	2796
804.63	2990
804.773	2864
804.915	2895
805.057	3074
805.199	2933
805.341	2963
805.483	3047
805.626	3028
805.768	2979
805.91	3081
806.052	3093
806.194	3070
806.336	3237
806.478	3005
806.62	2944
806.762	2986
806.904	3043
807.046	3146
807.188	3009
807.33	2941
807.472	2979
807.614	2910
807.756	2960
807.898	2925
808.04	2895
808.182	3001
808.324	2933
808.465	2906
808.607	2880
808.749	2758
808.891	2864
809.033	2971
809.174	2971
809.316	2880
809.458	2906
809.6	2746
809.741	2804
809.883	2739
810.025	2849
810.166	2895
810.308	2864
810.45	2857
810.591	2773
810.733	2746
810.875	2830
811.016	2762
811.158	2773
811.299	2849
811.441	2944
811.582	2895
811.724	2823
811.865	2823
812.007	2929
812.148	2861
812.29	2823
812.431	2883
812.573	2914
812.714	2963
812.855	3062
812.997	3039
813.138	3070
813.279	3013
813.421	2994
813.562	2963
813.703	2842
813.845	2853
813.986	2739
814.127	2708
814.268	2811
814.41	2819
814.551	2823
814.692	2853
814.833	2830
814.974	2880
815.115	2967
815.256	2826
815.397	2785
815.539	2891
815.68	2762
815.821	2826
815.962	2971
816.103	2944
816.244	2868
816.385	2864
816.526	2971
816.666	2937
816.807	2743
816.948	2925
817.089	2910
817.23	2819
817.371	2762
817.512	2823
817.653	2830
817.793	2800
817.934	2883
818.075	2990
818.216	2975
818.356	3028
818.497	2891
818.638	2800
818.778	2807
818.919	2800
819.06	2788
819.2	2868
819.341	2811
819.481	2804
819.622	2952
819.762	3089
819.903	3047
820.043	2914
820.184	2922
820.324	2883
820.465	3017
820.605	3017
820.746	3051
820.886	2952
821.026	3085
821.167	3154
821.307	3275
821.447	3283
821.588	3253
821.728	3184
821.868	3165
822.008	3039
822.149	3131
822.289	3222
822.429	3020
822.569	3089
822.709	3211
822.849	3017
822.99	3074
823.13	3142
823.27	3199
823.41	3108
823.55	3142
823.69	3173
823.83	3195
823.97	3066
824.11	3020
824.25	3013
824.389	3062
824.529	3077
824.669	3085
824.809	3199
824.949	3272
825.089	3188
825.228	3142
825.368	3009
825.508	2941
825.648	2963
825.787	3005
825.927	3024
826.067	2960
826.206	2967
826.346	3028
826.485	3066
826.625	3119
826.765	3218
826.904	3237
827.044	2994
827.183	2948
827.323	2853
827.462	2998
827.601	2914
827.741	2925
827.88	2941
828.02	2853
828.159	2948
828.298	3043
828.437	3138
828.577	3062
828.716	3249
828.855	3058
828.994	2906
829.134	2883
829.273	2918
829.412	2895
829.551	2857
829.69	2895
829.829	3001
829.968	3131
830.107	3013
830.246	3013
830.385	2895
830.524	2872
830.663	2811
830.802	2735
830.941	2651
831.08	2636
831.219	2769
831.357	2762
831.496	2971
831.635	2716
831.774	2613
831.913	2708
832.051	2522
832.19	2587
832.329	2670
832.467	2526
832.606	2495
832.744	2568
832.883	2590
833.022	2560
833.16	2625
833.299	2697
833.437	2697
833.576	2701
833.714	2724
833.852	2735
833.991	2769
834.129	2842
834.267	2788
834.406	2777
834.544	2857
834.682	2834
834.821	2876
834.959	3058
835.097	2880
835.235	3074
835.373	2979
835.511	3028
835.65	2941
835.788	2960
835.926	2819
836.064	2800
836.202	2842
836.34	3138
836.478	3146
836.615	3066
836.753	3131
836.891	3268
837.029	3142
837.167	3116
837.305	3066
837.443	3020
837.58	2925
837.718	3123
837.856	3093
837.993	3066
838.131	3081
838.269	3089
838.406	3085
838.544	3043
838.681	2906
838.819	2910
838.956	2788
839.094	2826
839.231	2944
839.369	2960
839.506	3313
839.643	3203
839.781	3013
839.918	2933
840.055	3028
840.193	3039
840.33	3070
840.467	3097
840.604	3131
840.742	3386
840.879	3039
841.016	3055
841.153	3131
841.29	3332
841.427	3291
841.564	3275
841.701	3279
841.838	3192
841.975	3169
842.112	3195
842.249	3070
842.385	3070
842.522	3241
842.659	3081
842.796	3058
842.933	3058
843.069	3077
843.206	3036
843.343	3188
843.479	3089
843.616	3108
843.752	2868
843.889	2861
844.025	3062
844.162	2857
844.298	3066
844.435	2956
844.571	2883
844.708	3062
844.844	3169
844.98	3237
845.117	3188
845.253	3062
845.389	3020
845.525	3089
845.661	3108
845.798	3017
845.934	3066
846.07	3070
846.206	3188
846.342	3302
846.478	3218
846.614	3112
846.75	3104
846.886	3036
847.022	3222
847.158	3135
847.294	3207
847.429	3241
847.565	3131
847.701	3481
847.837	3024
847.972	2990
848.108	3154
848.244	3150
848.379	2998
848.515	2899
848.65	2918
848.786	2967
848.921	3005
849.057	3093
849.192	3135
849.328	3074
849.463	3097
849.598	3058
849.734	3017
849.869	2937
850.004	2929
850.14	2967
850.275	2944
850.41	2834
850.545	2857
850.68	2952
850.815	2906
850.95	2967
851.085	3173
851.22	3093
851.355	3013
851.49	2971
851.625	3017
851.76	3001
851.895	2918
852.03	2925
852.165	3039
852.299	3116
852.434	3184
852.569	3123
852.703	3176
852.838	3222
852.973	3332
853.107	3321
853.242	3135
853.376	3070
853.511	3001
853.645	3036
853.78	3195
853.914	3119
854.048	3119
854.183	3066
854.317	3127
854.451	3264
854.585	3142
854.72	3089
854.854	3207
854.988	3051
855.122	3081
855.256	2967
855.39	3138
855.524	3226
855.658	3188
855.792	3176
855.926	3176
856.06	3211
856.194	3233
856.327	3146
856.461	3074
856.595	3058
856.729	3104
856.862	3211
856.996	3169
857.13	3184
857.263	3237
857.397	3298
857.53	3119
857.664	3180
857.797	3226
857.931	3249
858.064	3119
858.197	3207
858.331	3085
858.464	3039
858.597	3001
858.731	3150
858.864	3146
858.997	3085
859.13	3157
859.263	3173
859.396	3222
859.529	3104
859.662	3077
859.795	3032
859.928	3131
860.061	3264
860.194	3294
860.327	3112
860.46	3074
860.592	3260
860.725	3222
860.858	3214
860.99	3085
861.123	3009
861.256	3017
861.388	3154
861.521	3884
861.653	3032
861.786	3009
861.918	3005
862.05	3043
862.183	3024
862.315	3119
862.447	3218
862.58	3077
862.712	2933
862.844	2883
862.976	3020
863.108	2990
863.24	3302
863.372	2857
863.504	2941
863.636	2906
863.768	3055
863.9	2922
864.032	2910
864.164	2925
864.296	2998
864.428	3032
864.559	3081
864.691	3036
864.823	3051
864.954	3009
865.086	3047
865.217	2979
865.349	2952
865.48	2967
865.612	3005
865.743	3135
865.875	2986
866.006	2918
866.137	2967
866.269	2922
866.4	2944
866.531	2944
866.662	2902
866.793	2861
866.924	2925
867.055	3017
867.186	2914
867.317	2891
867.448	2845
867.579	2883
867.71	2880
867.841	2826
867.972	2933
868.103	2883
868.233	2883
868.364	2895
868.495	2906
868.625	3089
868.756	3180
868.886	2982
869.017	3028
869.147	3188
869.278	3146
869.408	3055
869.539	3036
869.669	3123
869.799	3039
869.929	3119
870.06	3123
870.19	3351
870.32	3329
870.45	3291
870.58	3431
870.71	3477
870.84	3504
870.97	3340
871.1	3241
871.23	3564
871.36	3481
871.489	3386
871.619	3439
871.749	3435
871.879	3481
872.008	3545
872.138	3378
872.267	3340
872.397	3188
872.526	3123
872.656	3058
872.785	3150
872.915	3279
873.044	3393
873.173	3294
873.303	3287
873.432	3306
873.561	3245
873.69	3207
873.819	3169
873.948	3260
874.077	3142
874.206	3089
874.335	3104
874.464	3249
874.593	3409
874.722	3275
874.851	3431
874.979	3401
875.108	3325
875.237	3207
875.365	3211
875.494	3241
875.623	3313
875.751	3119
875.88	3123
876.008	3233
876.136	3241
876.265	3439
876.393	3534
876.521	3462
876.65	3416
876.778	3409
876.906	3253
877.034	3264
877.162	3275
877.29	3195
877.418	3306
877.546	3329
877.674	3226
877.802	3294
877.93	3241
878.058	3176
878.185	3112
878.313	3237
878.441	3230
878.568	3131
878.696	3203
878.824	3310
878.951	3348
879.079	3500
879.206	3663
879.333	3473
879.461	3401
879.588	3405
879.715	3511
879.842	3644
879.97	3420
880.097	3245
880.224	3195
880.351	3218
880.478	3256
880.605	3230
880.732	3237
880.859	3534
880.986	3340
881.112	3374
881.239	3249
881.366	3127
881.493	3093
881.619	3074
881.746	3146
881.872	3131
881.999	3138
882.125	3180
882.252	3294
882.378	3287
882.505	3443
882.631	3310
882.757	3195
882.883	3260
883.01	3279
883.136	3184
883.262	3123
883.388	3161
883.514	3374
883.64	3401
883.766	3348
883.892	3249
884.018	3264
884.143	3439
884.269	3572
884.395	3230
884.52	3195
884.646	3226
884.772	3142
884.897	3157
885.023	3260
885.148	3344
885.274	3435
885.399	3420
885.524	3275
885.65	3317
885.775	3359
885.9	3310
886.025	3447
886.15	3409
886.275	3351
886.4	3279
886.525	3298
886.65	3294
886.775	3294
886.9	3553
887.025	3652
887.149	3416
887.274	3294
887.399	3230
887.523	3264
887.648	3203
887.773	3249
887.897	3378
888.021	3416
888.146	3332
888.27	3431
888.395	3538
888.519	3473
888.643	3504
888.767	3481
888.891	3344
889.015	3249
889.139	3317
889.263	3264
889.387	3443
889.511	3519
889.635	3424
889.759	3325
889.883	3306
890.006	3435
890.13	3477
890.254	3298
890.377	3382
890.501	3241
890.624	3264
890.748	3329
890.871	3222
890.995	3161
891.118	3123
891.241	3241
891.364	3249
891.488	3355
891.611	3184
891.734	3256
891.857	3310
891.98	3306
892.103	3382
892.226	3321
892.349	3241
892.471	3157
892.594	3279
892.717	3306
892.839	3302
892.962	3313
893.085	3378
893.207	3325
893.33	3195
893.452	3245
893.575	3393
893.697	3298
893.819	3504
893.941	3515
894.064	3469
894.186	3332
894.308	3245
894.43	3496
894.552	3580
894.674	3511
894.796	3317
894.918	3321
895.04	3317
895.161	3504
895.283	3428
895.405	3313
895.526	3401
895.648	3454
895.769	3424
895.891	3488
896.012	3542
896.134	3530
896.255	3439
896.376	3382
896.498	3397
896.619	3447
896.74	3370
896.861	3485
896.982	3736
897.103	3850
897.224	3663
897.345	3538
897.466	3466
897.587	3545
897.708	3644
897.828	3549
897.949	3450
898.07	3336
898.19	3431
898.311	3629
898.431	3504
898.552	3538
898.672	3648
898.792	3633
898.913	3561
899.033	3405
899.153	3321
899.273	3249
899.393	3302
899.513	3351
899.633	3348
899.753	3351
899.873	3336
899.993	3405
900.113	3325
900.232	3443
900.352	3370
900.472	3298
900.591	3249
900.711	3329
900.83	3317
900.95	3431
901.069	3496
901.189	3378
901.308	3237
901.427	3173
901.546	3268
901.665	3332
901.784	3329
901.904	3211
902.023	3192
902.141	3028
902.26	3055
902.379	3138
902.498	3112
902.617	3093
902.735	3249
902.854	3233
902.973	3203
903.091	3074
903.21	3127
903.328	3165
903.446	3100
903.565	3135
903.683	3218
903.801	3154
903.919	3287
904.038	3298
904.156	3192
904.274	3336
904.392	3298
904.51	3325
904.627	3405
904.745	3443
904.863	3557
904.981	3268
905.098	3169
905.216	3249
905.334	3313
905.451	3336
905.569	3332
905.686	3466
905.803	3496
905.921	3351
906.038	3447
906.155	3389
906.272	3317
906.389	3355
906.506	3253
906.623	3321
906.74	3306
906.857	3203
906.974	3302
907.091	3447
907.208	3591
907.324	3462
907.441	3431
907.557	3214
907.674	3283
907.79	3203
907.907	3283
908.023	3389
908.139	3405
908.256	3325
908.372	3397
908.488	3389
908.604	3287
908.72	3268
908.836	3306
908.952	3302
909.068	3370
909.184	3485
909.3	3393
909.415	3564
909.531	3500
909.647	3313
909.762	3325
909.878	3256
909.993	3431
910.108	3348
910.224	3363
910.339	3454
910.454	3332
910.57	3340
910.685	3279
910.8	3641
910.915	3549
911.03	3488
911.145	3310
911.259	3245
911.374	3359
911.489	3249
911.604	3272
911.718	3161
911.833	3188
911.947	3108
912.062	2975
912.176	3207
912.291	3207
912.405	3241
912.519	3496
912.633	3481
912.748	3359
912.862	3287
912.976	3203
913.09	3104
913.204	3169
913.318	3264
913.431	3317
913.545	3382
913.659	3431
913.772	3344
913.886	3233
914	3226
914.113	3370
914.226	3454
914.34	3378
914.453	3287
914.566	3454
914.68	3317
914.793	3317
914.906	3150
915.019	3108
915.132	3100
915.245	3230
915.358	3253
915.47	3226
915.583	3317
915.696	3340
915.809	3416
915.921	3435
916.034	3351
916.146	3279
916.259	3310
916.371	3462
916.483	3397
916.595	3287
916.708	3351
916.82	3355
916.932	3359
917.044	3393
917.156	3393
917.268	3253
917.38	3298
917.491	3317
917.603	3382
917.715	3431
917.826	3500
917.938	3367
918.049	3306
918.161	3443
918.272	3564
918.384	3610
918.495	3500
918.606	3340
918.717	3294
918.828	3416
918.939	3443
919.05	3329
919.161	3382
919.272	3169
919.383	3310
919.494	3534
919.604	3694
919.715	3545
919.826	3462
919.936	3450
920.047	3572
920.157	3599
920.267	3759
920.378	3644
920.488	3580
920.598	3785
920.708	3983
920.818	3873
920.928	3857
921.038	4067
921.148	3975
921.258	3694
921.368	3694
921.477	3591
921.587	3549
921.697	3488
921.806	3652
921.916	3500
922.025	3325
922.134	3397
922.244	3332
922.353	3420
922.462	3275
922.571	3260
922.68	3127
922.789	3104
922.898	3131
923.007	3127
923.116	3199
923.224	3237
923.333	3226
923.442	3138
923.55	3097
923.659	3154
923.767	3218
923.876	3146
923.984	3287
924.092	3127
924.201	3233
924.309	3207
924.417	3245
924.525	3241
924.633	3222
924.741	4200
924.849	3077
924.956	3310
925.064	3154
925.172	3039
925.279	3119
925.387	3214
925.494	3214
925.602	3393
925.709	3340
925.816	3207
925.924	3256
926.031	3359
926.138	3370
926.245	3389
926.352	3279
926.459	3420
926.566	3477
926.673	3313
926.779	3283
926.886	3264
926.993	3157
927.099	3165
927.206	3138
927.312	3150
927.419	3241
927.525	3173
927.631	3294
927.737	3161
927.843	3138
927.95	3024
928.056	3169
928.162	3207
928.267	3275
928.373	3865
928.479	3310
928.585	3051
928.69	3233
928.796	3283
928.901	3199
929.007	3051
929.112	3188
929.218	3199
929.323	3150
929.428	3180
929.533	3332
929.638	3207
929.743	3207
929.848	3283
929.953	3195
930.058	3173
930.163	3009
930.267	3104
930.372	3176
930.477	3032
930.581	3332
930.685	3199
930.79	3097
930.894	3135
930.998	3093
931.103	3283
931.207	2960
931.311	2963
931.415	2944
931.519	2796
931.623	2819
