Data from test_V78500241_1184.txt Node
Date: Fri Mar 25 16:23:24 CST 2022
User: usil
Spectrometer: V785-0024
Trigger mode: 0
Integration Time (sec): 4.000000E-1
Scans to average: 1
Nonlinearity correction enabled: false
Boxcar width: 0
Storing dark spectrum: false
XAxis mode: Wavelengths
Number of Pixels in Spectrum: 1024
>>>>>Begin Spectral Data<<<<<
801.071	2933
801.214	2914
801.356	2876
801.499	2895
801.641	2895
801.783	2960
801.926	3081
802.068	2998
802.211	2998
802.353	3051
802.496	2990
802.638	3036
802.78	3039
802.923	3051
803.065	2994
803.208	2925
803.35	2906
803.492	2910
803.635	2929
803.777	2762
803.919	2872
804.061	3211
804.204	2986
804.346	2899
804.488	2849
804.63	2971
804.773	2880
804.915	2891
805.057	3100
805.199	2925
805.341	2948
805.483	3047
805.626	2975
805.768	2956
805.91	3081
806.052	3150
806.194	3055
806.336	3203
806.478	3024
806.62	2986
806.762	2971
806.904	3047
807.046	3199
807.188	3009
807.33	2960
807.472	3013
807.614	2906
807.756	3001
807.898	2925
808.04	2922
808.182	2979
808.324	2982
808.465	2857
808.607	2891
808.749	2815
808.891	2849
809.033	2975
809.174	2956
809.316	2891
809.458	2918
809.6	2769
809.741	2781
809.883	2781
810.025	2899
810.166	2849
810.308	2845
810.45	2876
810.591	2781
810.733	2788
810.875	2823
811.016	2792
811.158	2785
811.299	2815
811.441	2933
811.582	2914
811.724	2819
811.865	2823
812.007	2906
812.148	2902
812.29	2849
812.431	2895
812.573	2952
812.714	2994
812.855	3051
812.997	3085
813.138	3131
813.279	3020
813.421	2986
813.562	2979
813.703	2845
813.845	2891
813.986	2788
814.127	2735
814.268	2811
814.41	2834
814.551	2823
814.692	2826
814.833	2842
814.974	2868
815.115	3005
815.256	2826
815.397	2811
815.539	2845
815.68	2762
815.821	2811
815.962	2914
816.103	2952
816.244	2864
816.385	2845
816.526	2960
816.666	2918
816.807	2739
816.948	2864
817.089	2925
817.23	2838
817.371	2766
817.512	2804
817.653	2845
817.793	2811
817.934	2819
818.075	2937
818.216	2963
818.356	2986
818.497	2857
818.638	2811
818.778	2792
818.919	2781
819.06	2766
819.2	2910
819.341	2785
819.481	2796
819.622	2902
819.762	3077
819.903	3043
820.043	2891
820.184	2902
820.324	2876
820.465	3013
820.605	3055
820.746	3005
820.886	2948
821.026	3097
821.167	3093
821.307	3256
821.447	3275
821.588	3245
821.728	3207
821.868	3230
822.008	3055
822.149	3207
822.289	3207
822.429	3055
822.569	3100
822.709	3199
822.849	3051
822.99	3028
823.13	3154
823.27	3222
823.41	3135
823.55	3131
823.69	3154
823.83	3195
823.97	3146
824.11	3013
824.25	3001
824.389	3077
824.529	3097
824.669	3089
824.809	3192
824.949	3272
825.089	3230
825.228	3169
825.368	2994
825.508	2960
825.648	2986
825.787	2998
825.927	3028
826.067	2986
826.206	2944
826.346	3070
826.485	3085
826.625	3112
826.765	3264
826.904	3233
827.044	2990
827.183	2948
827.323	2887
827.462	3013
827.601	2910
827.741	2906
827.88	2929
828.02	2857
828.159	2952
828.298	3024
828.437	3119
828.577	3047
828.716	3237
828.855	3081
828.994	2918
829.134	2891
829.273	2922
829.412	2861
829.551	2864
829.69	2914
829.829	2975
829.968	3100
830.107	2986
830.246	3013
830.385	2887
830.524	2868
830.663	2823
830.802	2739
830.941	2655
831.08	2636
831.219	2746
831.357	2746
831.496	2952
831.635	2724
831.774	2659
831.913	2678
832.051	2552
832.19	2571
832.329	2678
832.467	2552
832.606	2488
832.744	2522
832.883	2602
833.022	2575
833.16	2655
833.299	2659
833.437	2689
833.576	2693
833.714	2724
833.852	2705
833.991	2754
834.129	2861
834.267	2838
834.406	2781
834.544	2857
834.682	2868
834.821	2853
834.959	3070
835.097	2899
835.235	3055
835.373	2952
835.511	3024
835.65	2933
835.788	2941
835.926	2834
836.064	2785
836.202	2842
836.34	3081
836.478	3116
836.615	3009
836.753	3093
836.891	3146
837.029	3188
837.167	3100
837.305	3051
837.443	3036
837.58	2967
837.718	3169
837.856	3077
837.993	3020
838.131	3108
838.269	3104
838.406	3085
838.544	3081
838.681	2933
838.819	2918
838.956	2823
839.094	2815
839.231	2891
839.369	3036
839.506	3382
839.643	3188
839.781	2982
839.918	2963
840.055	3043
840.193	3062
840.33	3066
840.467	3055
840.604	3150
840.742	3370
840.879	3058
841.016	3036
841.153	3119
841.29	3325
841.427	3279
841.564	3237
841.701	3298
841.838	3222
841.975	3173
842.112	3230
842.249	3070
842.385	3020
842.522	3233
842.659	3051
842.796	3047
842.933	3119
843.069	3070
843.206	3028
843.343	3154
843.479	3085
843.616	3116
843.752	2861
843.889	2853
844.025	3047
844.162	2899
844.298	3066
844.435	2941
844.571	2899
844.708	3104
844.844	3169
844.98	3241
845.117	3211
845.253	3039
845.389	2971
845.525	3108
845.661	3077
845.798	3017
845.934	3135
846.07	3051
846.206	3192
846.342	3298
846.478	3180
846.614	3058
846.75	3047
846.886	3017
847.022	3241
847.158	3116
847.294	3195
847.429	3230
847.565	3218
847.701	3500
847.837	3039
847.972	3009
848.108	3192
848.244	3127
848.379	2982
848.515	2929
848.65	2910
848.786	2948
848.921	3024
849.057	3108
849.192	3127
849.328	3039
849.463	3097
849.598	3077
849.734	3017
849.869	2986
850.004	2910
850.14	2956
850.275	2929
850.41	2845
850.545	2880
850.68	2929
850.815	2944
850.95	2975
851.085	3157
851.22	3131
851.355	3055
851.49	2979
851.625	3024
851.76	3032
851.895	2933
852.03	2910
852.165	3039
852.299	3070
852.434	3203
852.569	3119
852.703	3116
852.838	3214
852.973	3348
853.107	3294
853.242	3154
853.376	3146
853.511	2994
853.645	3001
853.78	3222
853.914	3100
854.048	3146
854.183	3051
854.317	3138
854.451	3275
854.585	3123
854.72	3058
854.854	3211
854.988	3028
855.122	3077
855.256	2952
855.39	3127
855.524	3226
855.658	3180
855.792	3169
855.926	3131
856.06	3195
856.194	3237
856.327	3169
856.461	3047
856.595	3051
856.729	3066
856.862	3230
856.996	3161
857.13	3211
857.263	3237
857.397	3268
857.53	3108
857.664	3157
857.797	3233
857.931	3207
858.064	3146
858.197	3268
858.331	3184
858.464	3074
858.597	3001
858.731	3100
858.864	3127
858.997	3085
859.13	3093
859.263	3161
859.396	3176
859.529	3097
859.662	3085
859.795	3058
859.928	3108
860.061	3294
860.194	3279
860.327	3146
860.46	3104
860.592	3226
860.725	3207
860.858	3241
860.99	3085
861.123	3043
861.256	3062
861.388	3123
861.521	3724
861.653	2990
861.786	2990
861.918	3009
862.05	3066
862.183	3085
862.315	3123
862.447	3203
862.58	3074
862.712	2944
862.844	2880
862.976	3009
863.108	2990
863.24	3351
863.372	2872
863.504	2925
863.636	2967
863.768	3055
863.9	2975
864.032	2902
864.164	2960
864.296	3005
864.428	3108
864.559	3104
864.691	3074
864.823	3074
864.954	3032
865.086	3013
865.217	2994
865.349	2941
865.48	2994
865.612	3066
865.743	3119
865.875	2994
866.006	2967
866.137	2956
866.269	2910
866.4	2941
866.531	2868
866.662	2906
866.793	2883
866.924	2872
867.055	2956
867.186	2899
867.317	2857
867.448	2861
867.579	2834
867.71	2845
867.841	2830
867.972	2902
868.103	2925
868.233	2883
868.364	2883
868.495	2883
868.625	3104
868.756	3169
868.886	2963
869.017	2952
869.147	3146
869.278	3154
869.408	3077
869.539	2994
869.669	3066
869.799	3024
869.929	3123
870.06	3119
870.19	3306
870.32	3272
870.45	3344
870.58	3393
870.71	3428
870.84	3416
870.97	3310
871.1	3222
871.23	3466
871.36	3488
871.489	3291
871.619	3401
871.749	3397
871.879	3431
872.008	3462
872.138	3378
872.267	3287
872.397	3142
872.526	3089
872.656	3032
872.785	3093
872.915	3245
873.044	3317
873.173	3199
873.303	3237
873.432	3222
873.561	3207
873.69	3150
873.819	3127
873.948	3188
874.077	3104
874.206	3039
874.335	3081
874.464	3184
874.593	3351
874.722	3241
874.851	3412
874.979	3287
875.108	3329
875.237	3184
875.365	3138
875.494	3154
875.623	3230
875.751	3116
875.88	3112
876.008	3165
876.136	3211
876.265	3386
876.393	3500
876.521	3401
876.65	3405
876.778	3310
876.906	3249
877.034	3184
877.162	3207
877.29	3192
877.418	3264
877.546	3218
877.674	3222
877.802	3233
877.93	3207
878.058	3154
878.185	3097
878.313	3150
878.441	3207
878.568	3081
878.696	3165
878.824	3256
878.951	3272
879.079	3435
879.206	3595
879.333	3416
879.461	3283
879.588	3355
879.715	3454
879.842	3580
879.97	3405
880.097	3161
880.224	3089
880.351	3150
880.478	3180
880.605	3157
880.732	3161
880.859	3450
880.986	3279
881.112	3294
881.239	3222
881.366	3062
881.493	3055
881.619	2956
881.746	3055
881.872	3077
881.999	3100
882.125	3108
882.252	3249
882.378	3287
882.505	3435
882.631	3302
882.757	3135
882.883	3222
883.01	3226
883.136	3138
883.262	3116
883.388	3077
883.514	3332
883.64	3367
883.766	3302
883.892	3195
884.018	3233
884.143	3447
884.269	3523
884.395	3150
884.52	3184
884.646	3173
884.772	3104
884.897	3089
885.023	3150
885.148	3302
885.274	3439
885.399	3348
885.524	3253
885.65	3241
885.775	3332
885.9	3275
886.025	3424
886.15	3287
886.275	3306
886.4	3249
886.525	3340
886.65	3268
886.775	3294
886.9	3507
887.025	3606
887.149	3386
887.274	3226
887.399	3180
887.523	3195
887.648	3222
887.773	3195
887.897	3416
888.021	3397
888.146	3294
888.27	3405
888.395	3538
888.519	3420
888.643	3466
888.767	3428
888.891	3291
889.015	3237
889.139	3279
889.263	3260
889.387	3443
889.511	3500
889.635	3428
889.759	3310
889.883	3245
890.006	3370
890.13	3496
890.254	3237
890.377	3321
890.501	3195
890.624	3203
890.748	3249
890.871	3184
890.995	3085
891.118	3066
891.241	3188
891.364	3184
891.488	3306
891.611	3157
891.734	3237
891.857	3237
891.98	3237
892.103	3313
892.226	3256
892.349	3230
892.471	3100
892.594	3241
892.717	3321
892.839	3268
892.962	3310
893.085	3378
893.207	3310
893.33	3142
893.452	3233
893.575	3306
893.697	3260
893.819	3469
893.941	3454
894.064	3393
894.186	3245
894.308	3260
894.43	3416
894.552	3526
894.674	3462
894.796	3256
894.918	3294
895.04	3260
895.161	3424
895.283	3389
895.405	3325
895.526	3378
895.648	3412
895.769	3424
895.891	3450
896.012	3435
896.134	3504
896.255	3412
896.376	3367
896.498	3393
896.619	3454
896.74	3344
896.861	3367
896.982	3652
897.103	3842
897.224	3534
897.345	3492
897.466	3466
897.587	3450
897.708	3606
897.828	3580
897.949	3409
898.07	3264
898.19	3405
898.311	3599
898.431	3386
898.552	3511
898.672	3603
898.792	3561
898.913	3492
899.033	3382
899.153	3264
899.273	3173
899.393	3298
899.513	3325
899.633	3321
899.753	3321
899.873	3264
899.993	3367
900.113	3294
900.232	3340
900.352	3367
900.472	3272
900.591	3203
900.711	3249
900.83	3245
900.95	3428
901.069	3511
901.189	3344
901.308	3150
901.427	3112
901.546	3173
901.665	3294
901.784	3351
901.904	3203
902.023	3138
902.141	3013
902.26	2975
902.379	3165
902.498	3081
902.617	3028
902.735	3207
902.854	3199
902.973	3207
903.091	3055
903.21	3039
903.328	3138
903.446	3077
903.565	3097
903.683	3214
903.801	3135
903.919	3207
904.038	3298
904.156	3176
904.274	3321
904.392	3245
904.51	3291
904.627	3310
904.745	3435
904.863	3469
904.981	3237
905.098	3184
905.216	3230
905.334	3287
905.451	3287
905.569	3283
905.686	3431
905.803	3443
905.921	3283
906.038	3420
906.155	3363
906.272	3268
906.389	3359
906.506	3207
906.623	3241
906.74	3256
906.857	3214
906.974	3256
907.091	3458
907.208	3564
907.324	3504
907.441	3386
907.557	3245
907.674	3237
907.79	3226
907.907	3310
908.023	3325
908.139	3344
908.256	3332
908.372	3409
908.488	3344
908.604	3264
908.72	3279
908.836	3253
908.952	3336
909.068	3317
909.184	3466
909.3	3424
909.415	3519
909.531	3477
909.647	3298
909.762	3268
909.878	3279
909.993	3332
910.108	3336
910.224	3389
910.339	3420
910.454	3321
910.57	3237
910.685	3218
910.8	3595
910.915	3557
911.03	3439
911.145	3222
911.259	3260
911.374	3329
911.489	3237
911.604	3218
911.718	3108
911.833	3138
911.947	3017
912.062	2979
912.176	3176
912.291	3169
912.405	3188
912.519	3405
912.633	3466
912.748	3302
912.862	3249
912.976	3135
913.09	3066
913.204	3108
913.318	3214
913.431	3329
913.545	3344
913.659	3393
913.772	3363
913.886	3226
914	3233
914.113	3344
914.226	3412
914.34	3382
914.453	3207
914.566	3393
914.68	3298
914.793	3317
914.906	3157
915.019	3108
915.132	3058
915.245	3161
915.358	3203
915.47	3230
915.583	3260
915.696	3283
915.809	3397
915.921	3424
916.034	3268
916.146	3260
916.259	3211
916.371	3401
916.483	3405
916.595	3214
916.708	3355
916.82	3325
916.932	3344
917.044	3321
917.156	3317
917.268	3245
917.38	3317
917.491	3321
917.603	3386
917.715	3481
917.826	3462
917.938	3355
918.049	3264
918.161	3435
918.272	3587
918.384	3557
918.495	3473
918.606	3370
918.717	3313
918.828	3370
918.939	3428
919.05	3291
919.161	3405
919.272	3176
919.383	3264
919.494	3485
919.604	3648
919.715	3488
919.826	3416
919.936	3473
920.047	3553
920.157	3580
920.267	3747
920.378	3534
920.488	3576
920.598	3819
920.708	3930
920.818	3838
920.928	3854
921.038	4010
921.148	3998
921.258	3660
921.368	3625
921.477	3542
921.587	3530
921.697	3435
921.806	3633
921.916	3504
922.025	3351
922.134	3344
922.244	3291
922.353	3420
922.462	3253
922.571	3199
922.68	3089
922.789	3062
922.898	3116
923.007	3097
923.116	3203
923.224	3146
923.333	3188
923.442	3081
923.55	3108
923.659	3169
923.767	3214
923.876	3127
923.984	3222
924.092	3112
924.201	3203
924.309	3230
924.417	3237
924.525	3173
924.633	3245
924.741	4021
924.849	3036
924.956	3279
925.064	3108
925.172	3058
925.279	3119
925.387	3214
925.494	3176
925.602	3321
925.709	3336
925.816	3195
925.924	3287
926.031	3393
926.138	3321
926.245	3363
926.352	3249
926.459	3386
926.566	3481
926.673	3325
926.779	3264
926.886	3237
926.993	3165
927.099	3131
927.206	3127
927.312	3135
927.419	3165
927.525	3188
927.631	3260
927.737	3138
927.843	3112
927.95	3013
928.056	3104
928.162	3165
928.267	3203
928.373	3819
928.479	3329
928.585	3055
928.69	3211
928.796	3283
928.901	3165
929.007	3024
929.112	3214
929.218	3157
929.323	3154
929.428	3154
929.533	3336
929.638	3097
929.743	3142
929.848	3291
929.953	3211
930.058	3131
930.163	2982
930.267	3039
930.372	3173
930.477	3043
930.581	3298
930.685	3150
930.79	3039
930.894	3135
930.998	3066
931.103	3291
931.207	2933
931.311	2971
931.415	2929
931.519	2815
931.623	2800
