Data from test_V78500241_642.txt Node
Date: Fri Mar 25 16:19:39 CST 2022
User: usil
Spectrometer: V785-0024
Trigger mode: 0
Integration Time (sec): 4.000000E-1
Scans to average: 1
Nonlinearity correction enabled: false
Boxcar width: 0
Storing dark spectrum: false
XAxis mode: Wavelengths
Number of Pixels in Spectrum: 1024
>>>>>Begin Spectral Data<<<<<
801.071	2914
801.214	2941
801.356	2868
801.499	2883
801.641	2853
801.783	2910
801.926	3024
802.068	2952
802.211	2986
802.353	3009
802.496	2941
802.638	2971
802.78	2998
802.923	3055
803.065	3024
803.208	2899
803.35	2960
803.492	2914
803.635	2937
803.777	2769
803.919	2845
804.061	3165
804.204	2979
804.346	2914
804.488	2887
804.63	2960
804.773	2868
804.915	2918
805.057	3100
805.199	2910
805.341	2982
805.483	3036
805.626	3009
805.768	2944
805.91	3070
806.052	3097
806.194	3013
806.336	3245
806.478	3036
806.62	2948
806.762	2963
806.904	3013
807.046	3173
807.188	2994
807.33	2906
807.472	2960
807.614	2922
807.756	2986
807.898	2876
808.04	2910
808.182	2944
808.324	2914
808.465	2914
808.607	2883
808.749	2804
808.891	2857
809.033	2971
809.174	2956
809.316	2883
809.458	2868
809.6	2766
809.741	2758
809.883	2766
810.025	2838
810.166	2872
810.308	2838
810.45	2834
810.591	2785
810.733	2785
810.875	2845
811.016	2788
811.158	2781
811.299	2792
811.441	2895
811.582	2914
811.724	2857
811.865	2788
812.007	2956
812.148	2902
812.29	2845
812.431	2895
812.573	2952
812.714	2956
812.855	3058
812.997	3074
813.138	3100
813.279	2975
813.421	2944
813.562	2948
813.703	2842
813.845	2899
813.986	2792
814.127	2712
814.268	2838
814.41	2853
814.551	2788
814.692	2880
814.833	2819
814.974	2872
815.115	2975
815.256	2864
815.397	2773
815.539	2849
815.68	2792
815.821	2785
815.962	2967
816.103	2922
816.244	2853
816.385	2853
816.526	2960
816.666	2914
816.807	2735
816.948	2902
817.089	2899
817.23	2849
817.371	2792
817.512	2792
817.653	2815
817.793	2838
817.934	2887
818.075	2960
818.216	2956
818.356	3020
818.497	2876
818.638	2762
818.778	2785
818.919	2727
819.06	2758
819.2	2868
819.341	2823
819.481	2815
819.622	2925
819.762	3097
819.903	3043
820.043	2910
820.184	2880
820.324	2910
820.465	3001
820.605	3009
820.746	3017
820.886	2941
821.026	3131
821.167	3173
821.307	3253
821.447	3241
821.588	3218
821.728	3211
821.868	3154
822.008	3062
822.149	3188
822.289	3214
822.429	3108
822.569	3081
822.709	3169
822.849	3013
822.99	3062
823.13	3165
823.27	3203
823.41	3074
823.55	3154
823.69	3169
823.83	3199
823.97	3066
824.11	2990
824.25	2994
824.389	3081
824.529	3131
824.669	3062
824.809	3173
824.949	3207
825.089	3211
825.228	3157
825.368	2971
825.508	2963
825.648	2967
825.787	3013
825.927	3028
826.067	2922
826.206	2929
826.346	3036
826.485	3074
826.625	3058
826.765	3253
826.904	3165
827.044	2979
827.183	2906
827.323	2880
827.462	2960
827.601	2902
827.741	2925
827.88	2982
828.02	2830
828.159	2948
828.298	3047
828.437	3112
828.577	3024
828.716	3226
828.855	3081
828.994	2906
829.134	2853
829.273	2902
829.412	2845
829.551	2830
829.69	2883
829.829	2960
829.968	3112
830.107	3017
830.246	3001
830.385	2906
830.524	2861
830.663	2807
830.802	2701
830.941	2697
831.08	2636
831.219	2750
831.357	2720
831.496	2952
831.635	2720
831.774	2617
831.913	2640
832.051	2537
832.19	2587
832.329	2651
832.467	2507
832.606	2503
832.744	2590
832.883	2571
833.022	2552
833.16	2636
833.299	2663
833.437	2682
833.576	2686
833.714	2689
833.852	2693
833.991	2743
834.129	2830
834.267	2773
834.406	2762
834.544	2857
834.682	2819
834.821	2845
834.959	3039
835.097	2857
835.235	3051
835.373	2998
835.511	3001
835.65	2952
835.788	2937
835.926	2811
836.064	2800
836.202	2826
836.34	3062
836.478	3112
836.615	3009
836.753	3089
836.891	3180
837.029	3150
837.167	3100
837.305	3013
837.443	2986
837.58	2941
837.718	3123
837.856	3032
837.993	3020
838.131	3100
838.269	3116
838.406	3100
838.544	3081
838.681	2910
838.819	2902
838.956	2815
839.094	2823
839.231	2864
839.369	3028
839.506	3370
839.643	3241
839.781	3032
839.918	2948
840.055	3070
840.193	3062
840.33	3062
840.467	3093
840.604	3138
840.742	3370
840.879	3062
841.016	2994
841.153	3070
841.29	3355
841.427	3283
841.564	3275
841.701	3306
841.838	3188
841.975	3169
842.112	3214
842.249	3062
842.385	3039
842.522	3272
842.659	3081
842.796	3028
842.933	3077
843.069	2998
843.206	2994
843.343	3176
843.479	3112
843.616	3097
843.752	2868
843.889	2838
844.025	3104
844.162	2872
844.298	3024
844.435	2918
844.571	2883
844.708	3051
844.844	3203
844.98	3249
845.117	3157
845.253	3066
845.389	2990
845.525	3116
845.661	3074
845.798	3017
845.934	3116
846.07	3058
846.206	3180
846.342	3310
846.478	3241
846.614	3077
846.75	3051
846.886	2975
847.022	3211
847.158	3154
847.294	3180
847.429	3233
847.565	3207
847.701	3454
847.837	3047
847.972	2990
848.108	3146
848.244	3161
848.379	3005
848.515	2956
848.65	2937
848.786	2963
848.921	2975
849.057	3070
849.192	3104
849.328	3009
849.463	3119
849.598	3043
849.734	3043
849.869	2967
850.004	2902
850.14	2925
850.275	2929
850.41	2815
850.545	2872
850.68	2944
850.815	2925
850.95	2986
851.085	3184
851.22	3089
851.355	3005
851.49	2960
851.625	2960
851.76	3020
851.895	2918
852.03	2891
852.165	3005
852.299	3089
852.434	3176
852.569	3119
852.703	3138
852.838	3226
852.973	3344
853.107	3325
853.242	3123
853.376	3081
853.511	2990
853.645	3058
853.78	3218
853.914	3119
854.048	3112
854.183	3081
854.317	3135
854.451	3287
854.585	3119
854.72	3104
854.854	3192
854.988	3020
855.122	3066
855.256	2982
855.39	3131
855.524	3237
855.658	3138
855.792	3127
855.926	3176
856.06	3233
856.194	3253
856.327	3142
856.461	3070
856.595	3070
856.729	3100
856.862	3207
856.996	3154
857.13	3176
857.263	3195
857.397	3249
857.53	3123
857.664	3199
857.797	3233
857.931	3237
858.064	3173
858.197	3218
858.331	3112
858.464	3100
858.597	3017
858.731	3108
858.864	3104
858.997	3062
859.13	3127
859.263	3188
859.396	3195
859.529	3077
859.662	3043
859.795	3013
859.928	3085
860.061	3230
860.194	3298
860.327	3085
860.46	3055
860.592	3207
860.725	3199
860.858	3207
860.99	3100
861.123	3024
861.256	3024
861.388	3138
861.521	3896
861.653	2986
861.786	2956
861.918	2994
862.05	3001
862.183	3081
862.315	3138
862.447	3142
862.58	3081
862.712	2933
862.844	2876
862.976	3017
863.108	2994
863.24	3389
863.372	2845
863.504	2941
863.636	2952
863.768	2979
863.9	2941
864.032	2868
864.164	2937
864.296	2975
864.428	3074
864.559	3104
864.691	3058
864.823	3032
864.954	3032
865.086	3009
865.217	2975
865.349	2963
865.48	2960
865.612	3043
865.743	3135
865.875	2967
866.006	2933
866.137	2971
866.269	2944
866.4	2925
866.531	2922
866.662	2887
866.793	2876
866.924	2906
867.055	3005
867.186	2941
867.317	2883
867.448	2842
867.579	2880
867.71	2830
867.841	2868
867.972	2906
868.103	2906
868.233	2918
868.364	2887
868.495	2929
868.625	3074
868.756	3203
868.886	2986
869.017	3058
869.147	3176
869.278	3211
869.408	3093
869.539	3085
869.669	3131
869.799	3062
869.929	3146
870.06	3157
870.19	3348
870.32	3310
870.45	3317
870.58	3409
870.71	3526
870.84	3549
870.97	3332
871.1	3275
871.23	3488
871.36	3469
871.489	3336
871.619	3431
871.749	3504
871.879	3492
872.008	3526
872.138	3389
872.267	3294
872.397	3192
872.526	3131
872.656	3093
872.785	3116
872.915	3253
873.044	3332
873.173	3256
873.303	3283
873.432	3283
873.561	3249
873.69	3176
873.819	3211
873.948	3199
874.077	3138
874.206	3074
874.335	3150
874.464	3237
874.593	3348
874.722	3283
874.851	3416
874.979	3412
875.108	3351
875.237	3226
875.365	3207
875.494	3203
875.623	3302
875.751	3123
875.88	3176
876.008	3230
876.136	3256
876.265	3405
876.393	3545
876.521	3420
876.65	3409
876.778	3389
876.906	3237
877.034	3237
877.162	3260
877.29	3184
877.418	3268
877.546	3298
877.674	3283
877.802	3268
877.93	3241
878.058	3169
878.185	3142
878.313	3222
878.441	3230
878.568	3074
878.696	3188
878.824	3272
878.951	3294
879.079	3443
879.206	3660
879.333	3424
879.461	3374
879.588	3397
879.715	3492
879.842	3618
879.97	3397
880.097	3173
880.224	3169
880.351	3233
880.478	3253
880.605	3226
880.732	3230
880.859	3469
880.986	3351
881.112	3336
881.239	3256
881.366	3135
881.493	3047
881.619	3089
881.746	3138
881.872	3100
881.999	3138
882.125	3154
882.252	3245
882.378	3332
882.505	3477
882.631	3279
882.757	3199
882.883	3245
883.01	3241
883.136	3180
883.262	3116
883.388	3062
883.514	3325
883.64	3389
883.766	3351
883.892	3222
884.018	3256
884.143	3485
884.269	3580
884.395	3195
884.52	3169
884.646	3207
884.772	3169
884.897	3085
885.023	3226
885.148	3378
885.274	3397
885.399	3405
885.524	3325
885.65	3272
885.775	3351
885.9	3321
886.025	3447
886.15	3359
886.275	3306
886.4	3237
886.525	3325
886.65	3287
886.775	3287
886.9	3507
887.025	3690
887.149	3450
887.274	3332
887.399	3222
887.523	3184
887.648	3203
887.773	3222
887.897	3428
888.021	3424
888.146	3344
888.27	3439
888.395	3561
888.519	3435
888.643	3462
888.767	3488
888.891	3348
889.015	3310
889.139	3344
889.263	3313
889.387	3412
889.511	3564
889.635	3485
889.759	3336
889.883	3351
890.006	3363
890.13	3511
890.254	3294
890.377	3409
890.501	3218
890.624	3192
890.748	3355
890.871	3180
890.995	3165
891.118	3097
891.241	3214
891.364	3256
891.488	3351
891.611	3218
891.734	3260
891.857	3310
891.98	3275
892.103	3363
892.226	3306
892.349	3264
892.471	3138
892.594	3268
892.717	3351
892.839	3275
892.962	3344
893.085	3382
893.207	3329
893.33	3203
893.452	3199
893.575	3370
893.697	3287
893.819	3500
893.941	3507
894.064	3477
894.186	3325
894.308	3325
894.43	3477
894.552	3568
894.674	3519
894.796	3340
894.918	3351
895.04	3306
895.161	3466
895.283	3424
895.405	3294
895.526	3393
895.648	3469
895.769	3435
895.891	3492
896.012	3504
896.134	3477
896.255	3469
896.376	3401
896.498	3405
896.619	3462
896.74	3443
896.861	3409
896.982	3663
897.103	3854
897.224	3656
897.345	3515
897.466	3473
897.587	3492
897.708	3656
897.828	3557
897.949	3462
898.07	3351
898.19	3428
898.311	3629
898.431	3488
898.552	3545
898.672	3648
898.792	3564
898.913	3542
899.033	3435
899.153	3291
899.273	3279
899.393	3302
899.513	3317
899.633	3348
899.753	3321
899.873	3355
899.993	3389
900.113	3359
900.232	3424
900.352	3359
900.472	3317
900.591	3199
900.711	3317
900.83	3291
900.95	3424
901.069	3515
901.189	3355
901.308	3207
901.427	3142
901.546	3188
901.665	3348
901.784	3348
901.904	3226
902.023	3195
902.141	3058
902.26	3009
902.379	3169
902.498	3108
902.617	3100
902.735	3260
902.854	3245
902.973	3192
903.091	3051
903.21	3093
903.328	3154
903.446	3157
903.565	3131
903.683	3207
903.801	3108
903.919	3260
904.038	3287
904.156	3226
904.274	3313
904.392	3302
904.51	3310
904.627	3386
904.745	3443
904.863	3496
904.981	3302
905.098	3214
905.216	3253
905.334	3268
905.451	3313
905.569	3317
905.686	3469
905.803	3473
905.921	3287
906.038	3447
906.155	3420
906.272	3302
906.389	3374
906.506	3249
906.623	3329
906.74	3283
906.857	3214
906.974	3260
907.091	3481
907.208	3595
907.324	3515
907.441	3462
907.557	3253
907.674	3253
907.79	3230
907.907	3256
908.023	3397
908.139	3409
908.256	3367
908.372	3439
908.488	3367
908.604	3272
908.72	3256
908.836	3313
908.952	3317
909.068	3367
909.184	3492
909.3	3405
909.415	3564
909.531	3466
909.647	3283
909.762	3287
909.878	3272
909.993	3367
910.108	3329
910.224	3367
910.339	3393
910.454	3329
910.57	3321
910.685	3260
910.8	3603
910.915	3496
911.03	3450
911.145	3279
911.259	3260
911.374	3313
911.489	3249
911.604	3249
911.718	3127
911.833	3135
911.947	3020
912.062	3032
912.176	3203
912.291	3207
912.405	3237
912.519	3443
912.633	3466
912.748	3367
912.862	3279
912.976	3184
913.09	3047
913.204	3131
913.318	3207
913.431	3374
913.545	3367
913.659	3382
913.772	3291
913.886	3241
914	3218
914.113	3393
914.226	3450
914.34	3329
914.453	3249
914.566	3420
914.68	3291
914.793	3325
914.906	3157
915.019	3131
915.132	3066
915.245	3188
915.358	3192
915.47	3279
915.583	3302
915.696	3302
915.809	3454
915.921	3409
916.034	3279
916.146	3260
916.259	3256
916.371	3389
916.483	3405
916.595	3279
916.708	3348
916.82	3321
916.932	3367
917.044	3363
917.156	3363
917.268	3279
917.38	3306
917.491	3348
917.603	3370
917.715	3481
917.826	3511
917.938	3401
918.049	3275
918.161	3454
918.272	3568
918.384	3561
918.495	3466
918.606	3348
918.717	3306
918.828	3389
918.939	3401
919.05	3332
919.161	3409
919.272	3226
919.383	3321
919.494	3526
919.604	3717
919.715	3511
919.826	3412
919.936	3466
920.047	3618
920.157	3591
920.267	3789
920.378	3614
920.488	3576
920.598	3804
920.708	3964
920.818	3842
920.928	3865
921.038	4044
921.148	3998
921.258	3766
921.368	3641
921.477	3587
921.587	3584
921.697	3466
921.806	3660
921.916	3526
922.025	3363
922.134	3370
922.244	3321
922.353	3428
922.462	3287
922.571	3260
922.68	3093
922.789	3089
922.898	3161
923.007	3112
923.116	3199
923.224	3222
923.333	3211
923.442	3112
923.55	3146
923.659	3184
923.767	3245
923.876	3108
923.984	3222
924.092	3123
924.201	3249
924.309	3230
924.417	3283
924.525	3203
924.633	3268
924.741	4040
924.849	3062
924.956	3279
925.064	3100
925.172	3028
925.279	3108
925.387	3222
925.494	3214
925.602	3378
925.709	3363
925.816	3199
925.924	3283
926.031	3378
926.138	3351
926.245	3367
926.352	3272
926.459	3409
926.566	3492
926.673	3325
926.779	3241
926.886	3260
926.993	3135
927.099	3119
927.206	3077
927.312	3169
927.419	3226
927.525	3207
927.631	3272
927.737	3169
927.843	3108
927.95	3039
928.056	3154
928.162	3176
928.267	3283
928.373	3785
928.479	3313
928.585	3032
928.69	3211
928.796	3279
928.901	3142
929.007	3066
929.112	3188
929.218	3165
929.323	3123
929.428	3154
929.533	3329
929.638	3135
929.743	3161
929.848	3283
929.953	3199
930.058	3157
930.163	2982
930.267	3039
930.372	3214
930.477	3032
930.581	3306
930.685	3169
930.79	3093
930.894	3138
930.998	3085
931.103	3321
931.207	2956
931.311	2960
931.415	2941
931.519	2792
931.623	2819
