Data from test_V78500241_1551.txt Node
Date: Fri Mar 25 16:25:56 CST 2022
User: usil
Spectrometer: V785-0024
Trigger mode: 0
Integration Time (sec): 4.000000E-1
Scans to average: 1
Nonlinearity correction enabled: false
Boxcar width: 0
Storing dark spectrum: false
XAxis mode: Wavelengths
Number of Pixels in Spectrum: 1024
>>>>>Begin Spectral Data<<<<<
801.071	2933
801.214	2918
801.356	2838
801.499	2895
801.641	2880
801.783	2937
801.926	3039
802.068	2948
802.211	3024
802.353	3028
802.496	2952
802.638	3047
802.78	3039
802.923	3074
803.065	2975
803.208	2918
803.35	2929
803.492	2933
803.635	2906
803.777	2750
803.919	2830
804.061	3218
804.204	2929
804.346	2910
804.488	2834
804.63	2982
804.773	2864
804.915	2887
805.057	3093
805.199	2948
805.341	2956
805.483	3017
805.626	3001
805.768	2948
805.91	3066
806.052	3100
806.194	3032
806.336	3245
806.478	3047
806.62	2952
806.762	2998
806.904	3051
807.046	3165
807.188	2960
807.33	2952
807.472	2941
807.614	2914
807.756	3017
807.898	2922
808.04	2899
808.182	2948
808.324	2933
808.465	2872
808.607	2857
808.749	2811
808.891	2876
809.033	2948
809.174	2975
809.316	2891
809.458	2880
809.6	2754
809.741	2781
809.883	2750
810.025	2823
810.166	2868
810.308	2883
810.45	2857
810.591	2792
810.733	2785
810.875	2826
811.016	2781
811.158	2746
811.299	2826
811.441	2918
811.582	2876
811.724	2838
811.865	2819
812.007	2918
812.148	2883
812.29	2838
812.431	2899
812.573	2948
812.714	2956
812.855	3028
812.997	3058
813.138	3116
813.279	3013
813.421	2982
813.562	2929
813.703	2842
813.845	2868
813.986	2754
814.127	2743
814.268	2823
814.41	2830
814.551	2804
814.692	2826
814.833	2819
814.974	2906
815.115	2933
815.256	2849
815.397	2807
815.539	2842
815.68	2758
815.821	2823
815.962	2933
816.103	2910
816.244	2842
816.385	2861
816.526	2979
816.666	2963
816.807	2693
816.948	2891
817.089	2918
817.23	2861
817.371	2766
817.512	2834
817.653	2872
817.793	2838
817.934	2891
818.075	2967
818.216	2994
818.356	3017
818.497	2883
818.638	2792
818.778	2819
818.919	2796
819.06	2777
819.2	2918
819.341	2796
819.481	2796
819.622	2880
819.762	3097
819.903	3047
820.043	2941
820.184	2883
820.324	2872
820.465	3017
820.605	3032
820.746	3039
820.886	2922
821.026	3116
821.167	3150
821.307	3203
821.447	3226
821.588	3233
821.728	3207
821.868	3150
822.008	3066
822.149	3199
822.289	3241
822.429	3074
822.569	3051
822.709	3176
822.849	2998
822.99	3074
823.13	3135
823.27	3188
823.41	3127
823.55	3119
823.69	3161
823.83	3192
823.97	3097
824.11	3001
824.25	3005
824.389	3070
824.529	3108
824.669	3074
824.809	3214
824.949	3245
825.089	3173
825.228	3127
825.368	2986
825.508	2929
825.648	2944
825.787	3024
825.927	3017
826.067	2956
826.206	2902
826.346	3017
826.485	3070
826.625	3089
826.765	3256
826.904	3188
827.044	2956
827.183	2906
827.323	2857
827.462	3024
827.601	2906
827.741	2929
827.88	2933
828.02	2853
828.159	2975
828.298	3081
828.437	3104
828.577	3028
828.716	3222
828.855	3055
828.994	2914
829.134	2906
829.273	2914
829.412	2880
829.551	2876
829.69	2891
829.829	2971
829.968	3146
830.107	2990
830.246	2990
830.385	2937
830.524	2842
830.663	2819
830.802	2762
830.941	2632
831.08	2632
831.219	2766
831.357	2758
831.496	2937
831.635	2727
831.774	2640
831.913	2629
832.051	2518
832.19	2571
832.329	2686
832.467	2514
832.606	2495
832.744	2564
832.883	2579
833.022	2602
833.16	2644
833.299	2678
833.437	2689
833.576	2682
833.714	2693
833.852	2731
833.991	2727
834.129	2834
834.267	2811
834.406	2788
834.544	2883
834.682	2918
834.821	2883
834.959	3074
835.097	2902
835.235	2994
835.373	3009
835.511	3013
835.65	2944
835.788	2963
835.926	2819
836.064	2762
836.202	2842
836.34	3055
836.478	3100
836.615	3017
836.753	3127
836.891	3226
837.029	3146
837.167	3108
837.305	3032
837.443	3032
837.58	2941
837.718	3135
837.856	3097
837.993	3047
838.131	3119
838.269	3138
838.406	3127
838.544	3070
838.681	2895
838.819	2895
838.956	2834
839.094	2826
839.231	2902
839.369	3013
839.506	3386
839.643	3195
839.781	3017
839.918	2948
840.055	3051
840.193	3066
840.33	3074
840.467	3085
840.604	3146
840.742	3386
840.879	3089
841.016	3020
841.153	3089
841.29	3317
841.427	3294
841.564	3268
841.701	3298
841.838	3211
841.975	3176
842.112	3195
842.249	3093
842.385	3039
842.522	3226
842.659	3089
842.796	3039
842.933	3085
843.069	3017
843.206	3043
843.343	3184
843.479	3119
843.616	3154
843.752	2887
843.889	2849
844.025	3039
844.162	2861
844.298	3066
844.435	2948
844.571	2918
844.708	3100
844.844	3218
844.98	3203
845.117	3180
845.253	3070
845.389	3020
845.525	3104
845.661	3081
845.798	3009
845.934	3108
846.07	3032
846.206	3180
846.342	3329
846.478	3218
846.614	3097
846.75	3024
846.886	2979
847.022	3241
847.158	3116
847.294	3218
847.429	3226
847.565	3233
847.701	3477
847.837	3039
847.972	3013
848.108	3150
848.244	3097
848.379	2994
848.515	2982
848.65	2941
848.786	2937
848.921	2971
849.057	3093
849.192	3138
849.328	3081
849.463	3123
849.598	3077
849.734	3020
849.869	2960
850.004	2891
850.14	2948
850.275	2899
850.41	2823
850.545	2914
850.68	2948
850.815	2941
850.95	2948
851.085	3188
851.22	3100
851.355	3024
851.49	2963
851.625	2979
851.76	2982
851.895	2956
852.03	2880
852.165	2994
852.299	3123
852.434	3180
852.569	3150
852.703	3161
852.838	3230
852.973	3336
853.107	3325
853.242	3150
853.376	3123
853.511	2979
853.645	3009
853.78	3222
853.914	3093
854.048	3123
854.183	3093
854.317	3154
854.451	3279
854.585	3169
854.72	3058
854.854	3211
854.988	3028
855.122	3108
855.256	3020
855.39	3119
855.524	3245
855.658	3184
855.792	3138
855.926	3173
856.06	3233
856.194	3214
856.327	3142
856.461	3043
856.595	3097
856.729	3070
856.862	3195
856.996	3157
857.13	3176
857.263	3249
857.397	3275
857.53	3142
857.664	3180
857.797	3260
857.931	3279
858.064	3207
858.197	3233
858.331	3123
858.464	3089
858.597	2982
858.731	3089
858.864	3150
858.997	3070
859.13	3142
859.263	3154
859.396	3180
859.529	3097
859.662	3077
859.795	3058
859.928	3127
860.061	3272
860.194	3245
860.327	3154
860.46	3100
860.592	3268
860.725	3287
860.858	3237
860.99	3112
861.123	3081
861.256	3066
861.388	3142
861.521	3930
861.653	2994
861.786	2933
861.918	3028
862.05	3070
862.183	3093
862.315	3093
862.447	3188
862.58	3093
862.712	2956
862.844	2864
862.976	3024
863.108	2982
863.24	3313
863.372	2834
863.504	2967
863.636	2910
863.768	3005
863.9	3009
864.032	2902
864.164	2937
864.296	3028
864.428	3100
864.559	3097
864.691	3070
864.823	3081
864.954	3001
865.086	3032
865.217	2948
865.349	2925
865.48	2967
865.612	2990
865.743	3138
865.875	2994
866.006	2937
866.137	2941
866.269	2960
866.4	2910
866.531	2895
866.662	2857
866.793	2883
866.924	2922
867.055	2967
867.186	2861
867.317	2887
867.448	2830
867.579	2830
867.71	2864
867.841	2815
867.972	2914
868.103	2895
868.233	2853
868.364	2834
868.495	2861
868.625	3100
868.756	3127
868.886	2948
869.017	3024
869.147	3146
869.278	3165
869.408	3043
869.539	2998
869.669	3127
869.799	3047
869.929	3112
870.06	3085
870.19	3329
870.32	3291
870.45	3287
870.58	3332
870.71	3462
870.84	3431
870.97	3272
871.1	3222
871.23	3450
871.36	3424
871.489	3389
871.619	3420
871.749	3397
871.879	3447
872.008	3473
872.138	3329
872.267	3253
872.397	3123
872.526	3093
872.656	3013
872.785	3097
872.915	3241
873.044	3306
873.173	3184
873.303	3264
873.432	3249
873.561	3245
873.69	3104
873.819	3116
873.948	3192
874.077	3104
874.206	3024
874.335	3055
874.464	3211
874.593	3374
874.722	3260
874.851	3370
874.979	3363
875.108	3344
875.237	3199
875.365	3135
875.494	3169
875.623	3253
875.751	3070
875.88	3108
876.008	3199
876.136	3226
876.265	3367
876.393	3477
876.521	3393
876.65	3370
876.778	3325
876.906	3237
877.034	3188
877.162	3192
877.29	3176
877.418	3245
877.546	3237
877.674	3230
877.802	3260
877.93	3192
878.058	3154
878.185	3089
878.313	3188
878.441	3214
878.568	3089
878.696	3173
878.824	3245
878.951	3291
879.079	3424
879.206	3625
879.333	3450
879.461	3317
879.588	3329
879.715	3496
879.842	3614
879.97	3389
880.097	3150
880.224	3131
880.351	3180
880.478	3230
880.605	3180
880.732	3169
880.859	3488
880.986	3287
881.112	3351
881.239	3199
881.366	3116
881.493	3009
881.619	3009
881.746	3077
881.872	3081
881.999	3100
882.125	3142
882.252	3256
882.378	3287
882.505	3424
882.631	3275
882.757	3116
882.883	3176
883.01	3199
883.136	3161
883.262	3047
883.388	3127
883.514	3329
883.64	3351
883.766	3313
883.892	3199
884.018	3245
884.143	3412
884.269	3530
884.395	3169
884.52	3138
884.646	3161
884.772	3138
884.897	3093
885.023	3218
885.148	3306
885.274	3397
885.399	3386
885.524	3241
885.65	3245
885.775	3340
885.9	3279
886.025	3416
886.15	3397
886.275	3291
886.4	3222
886.525	3260
886.65	3272
886.775	3249
886.9	3466
887.025	3595
887.149	3401
887.274	3211
887.399	3154
887.523	3176
887.648	3188
887.773	3157
887.897	3348
888.021	3405
888.146	3283
888.27	3405
888.395	3534
888.519	3416
888.643	3420
888.767	3492
888.891	3325
889.015	3253
889.139	3313
889.263	3222
889.387	3424
889.511	3507
889.635	3485
889.759	3310
889.883	3287
890.006	3393
890.13	3507
890.254	3260
890.377	3351
890.501	3184
890.624	3188
890.748	3351
890.871	3192
890.995	3131
891.118	3017
891.241	3173
891.364	3211
891.488	3332
891.611	3154
891.734	3211
891.857	3275
891.98	3218
892.103	3344
892.226	3306
892.349	3203
892.471	3108
892.594	3226
892.717	3264
892.839	3279
892.962	3272
893.085	3336
893.207	3294
893.33	3116
893.452	3230
893.575	3310
893.697	3218
893.819	3431
893.941	3466
894.064	3439
894.186	3237
894.308	3272
894.43	3412
894.552	3545
894.674	3481
894.796	3253
894.918	3313
895.04	3275
895.161	3469
895.283	3401
895.405	3317
895.526	3363
895.648	3401
895.769	3439
895.891	3466
896.012	3462
896.134	3435
896.255	3431
896.376	3355
896.498	3351
896.619	3447
896.74	3329
896.861	3412
896.982	3648
897.103	3838
897.224	3637
897.345	3485
897.466	3412
897.587	3511
897.708	3580
897.828	3553
897.949	3412
898.07	3340
898.19	3401
898.311	3580
898.431	3447
898.552	3504
898.672	3599
898.792	3545
898.913	3500
899.033	3389
899.153	3275
899.273	3222
899.393	3260
899.513	3283
899.633	3306
899.753	3321
899.873	3317
899.993	3370
900.113	3336
900.232	3370
900.352	3302
900.472	3298
900.591	3222
900.711	3313
900.83	3233
900.95	3386
901.069	3515
901.189	3340
901.308	3180
901.427	3093
901.546	3211
901.665	3321
901.784	3294
901.904	3214
902.023	3142
902.141	3039
902.26	3009
902.379	3112
902.498	3077
902.617	3043
902.735	3199
902.854	3211
902.973	3207
903.091	3051
903.21	3039
903.328	3112
903.446	3093
903.565	3116
903.683	3157
903.801	3066
903.919	3184
904.038	3268
904.156	3188
904.274	3279
904.392	3279
904.51	3275
904.627	3310
904.745	3424
904.863	3481
904.981	3222
905.098	3188
905.216	3260
905.334	3287
905.451	3294
905.569	3275
905.686	3443
905.803	3458
905.921	3256
906.038	3397
906.155	3321
906.272	3268
906.389	3367
906.506	3256
906.623	3283
906.74	3275
906.857	3142
906.974	3249
907.091	3424
907.208	3568
907.324	3424
907.441	3340
907.557	3203
907.674	3218
907.79	3211
907.907	3283
908.023	3336
908.139	3348
908.256	3313
908.372	3386
908.488	3389
908.604	3237
908.72	3237
908.836	3306
908.952	3317
909.068	3355
909.184	3488
909.3	3359
909.415	3538
909.531	3504
909.647	3268
909.762	3294
909.878	3249
909.993	3367
910.108	3317
910.224	3313
910.339	3401
910.454	3317
910.57	3260
910.685	3218
910.8	3587
910.915	3526
911.03	3405
911.145	3279
911.259	3241
911.374	3294
911.489	3260
911.604	3180
911.718	3127
911.833	3169
911.947	3047
912.062	2982
912.176	3146
912.291	3176
912.405	3176
912.519	3412
912.633	3466
912.748	3329
912.862	3264
912.976	3108
913.09	3070
913.204	3150
913.318	3214
913.431	3340
913.545	3336
913.659	3409
913.772	3317
913.886	3230
914	3173
914.113	3386
914.226	3439
914.34	3378
914.453	3211
914.566	3382
914.68	3287
914.793	3302
914.906	3154
915.019	3127
915.132	3051
915.245	3161
915.358	3199
915.47	3237
915.583	3230
915.696	3310
915.809	3378
915.921	3405
916.034	3256
916.146	3264
916.259	3222
916.371	3370
916.483	3370
916.595	3237
916.708	3332
916.82	3355
916.932	3310
917.044	3298
917.156	3340
917.268	3272
917.38	3283
917.491	3245
917.603	3317
917.715	3454
917.826	3439
917.938	3344
918.049	3253
918.161	3439
918.272	3553
918.384	3576
918.495	3481
918.606	3325
918.717	3283
918.828	3348
918.939	3389
919.05	3317
919.161	3340
919.272	3161
919.383	3275
919.494	3447
919.604	3667
919.715	3458
919.826	3424
919.936	3454
920.047	3549
920.157	3526
920.267	3694
920.378	3545
920.488	3538
920.598	3770
920.708	3934
920.818	3797
920.928	3804
921.038	3998
921.148	3964
921.258	3637
921.368	3591
921.477	3599
921.587	3507
921.697	3492
921.806	3618
921.916	3477
922.025	3340
922.134	3340
922.244	3325
922.353	3409
922.462	3268
922.571	3249
922.68	3112
922.789	3070
922.898	3138
923.007	3104
923.116	3180
923.224	3184
923.333	3188
923.442	3108
923.55	3085
923.659	3112
923.767	3195
923.876	3165
923.984	3268
924.092	3119
924.201	3199
924.309	3268
924.417	3260
924.525	3214
924.633	3233
924.741	4227
924.849	3043
924.956	3283
925.064	3142
925.172	3051
925.279	3116
925.387	3199
925.494	3207
925.602	3393
925.709	3370
925.816	3211
925.924	3329
926.031	3386
926.138	3374
926.245	3416
926.352	3283
926.459	3469
926.566	3488
926.673	3329
926.779	3287
926.886	3279
926.993	3199
927.099	3176
927.206	3165
927.312	3154
927.419	3264
927.525	3249
927.631	3351
927.737	3188
927.843	3123
927.95	3074
928.056	3157
928.162	3222
928.267	3325
928.373	3835
928.479	3355
928.585	3077
928.69	3275
928.796	3279
928.901	3188
929.007	3127
929.112	3268
929.218	3199
929.323	3173
929.428	3161
929.533	3344
929.638	3146
929.743	3233
929.848	3313
929.953	3233
930.058	3222
930.163	3017
930.267	3104
930.372	3226
930.477	3043
930.581	3370
930.685	3211
930.79	3123
930.894	3173
930.998	3173
931.103	3313
931.207	3009
931.311	2952
931.415	2971
931.519	2819
931.623	2830
