Data from test_V78500241_628.txt Node
Date: Fri Mar 25 16:19:33 CST 2022
User: usil
Spectrometer: V785-0024
Trigger mode: 0
Integration Time (sec): 4.000000E-1
Scans to average: 1
Nonlinearity correction enabled: false
Boxcar width: 0
Storing dark spectrum: false
XAxis mode: Wavelengths
Number of Pixels in Spectrum: 1024
>>>>>Begin Spectral Data<<<<<
801.071	2925
801.214	2967
801.356	2902
801.499	2914
801.641	2925
801.783	2956
801.926	3093
802.068	2990
802.211	3032
802.353	3070
802.496	2944
802.638	3017
802.78	3085
802.923	3108
803.065	3017
803.208	2937
803.35	2925
803.492	2937
803.635	2914
803.777	2777
803.919	2876
804.061	3195
804.204	2963
804.346	2914
804.488	2864
804.63	2998
804.773	2891
804.915	2906
805.057	3104
805.199	2948
805.341	2933
805.483	3100
805.626	3032
805.768	2971
805.91	3081
806.052	3119
806.194	3058
806.336	3275
806.478	3043
806.62	2929
806.762	2990
806.904	3043
807.046	3199
807.188	2998
807.33	2933
807.472	3013
807.614	2948
807.756	3005
807.898	2986
808.04	2914
808.182	2975
808.324	2952
808.465	2910
808.607	2895
808.749	2815
808.891	2845
809.033	2971
809.174	2998
809.316	2914
809.458	2933
809.6	2773
809.741	2785
809.883	2777
810.025	2868
810.166	2883
810.308	2845
810.45	2861
810.591	2758
810.733	2792
810.875	2857
811.016	2758
811.158	2773
811.299	2853
811.441	2914
811.582	2899
811.724	2826
811.865	2815
812.007	2914
812.148	2899
812.29	2883
812.431	2883
812.573	2960
812.714	2967
812.855	3074
812.997	3043
813.138	3142
813.279	3020
813.421	2975
813.562	2971
813.703	2868
813.845	2880
813.986	2804
814.127	2731
814.268	2826
814.41	2872
814.551	2842
814.692	2864
814.833	2891
814.974	2899
815.115	2979
815.256	2853
815.397	2838
815.539	2899
815.68	2788
815.821	2864
815.962	2956
816.103	2956
816.244	2895
816.385	2861
816.526	2933
816.666	2929
816.807	2762
816.948	2872
817.089	2876
817.23	2845
817.371	2758
817.512	2819
817.653	2830
817.793	2861
817.934	2876
818.075	2963
818.216	2975
818.356	2982
818.497	2872
818.638	2807
818.778	2815
818.919	2792
819.06	2811
819.2	2872
819.341	2788
819.481	2804
819.622	2929
819.762	3100
819.903	3020
820.043	2922
820.184	2868
820.324	2899
820.465	3043
820.605	3013
820.746	3039
820.886	2933
821.026	3104
821.167	3157
821.307	3260
821.447	3264
821.588	3214
821.728	3203
821.868	3203
822.008	3089
822.149	3192
822.289	3237
822.429	3142
822.569	3119
822.709	3176
822.849	3020
822.99	3051
823.13	3192
823.27	3214
823.41	3097
823.55	3127
823.69	3184
823.83	3169
823.97	3104
824.11	2971
824.25	3001
824.389	3058
824.529	3123
824.669	3077
824.809	3214
824.949	3253
825.089	3203
825.228	3195
825.368	3005
825.508	2994
825.648	2994
825.787	3001
825.927	3020
826.067	2971
826.206	2956
826.346	3047
826.485	3066
826.625	3123
826.765	3226
826.904	3260
827.044	2998
827.183	2941
827.323	2880
827.462	2960
827.601	2880
827.741	2910
827.88	2963
828.02	2876
828.159	3020
828.298	3062
828.437	3123
828.577	3005
828.716	3268
828.855	3104
828.994	2910
829.134	2883
829.273	2918
829.412	2906
829.551	2899
829.69	2864
829.829	3001
829.968	3123
830.107	3024
830.246	3024
830.385	2956
830.524	2880
830.663	2834
830.802	2746
830.941	2670
831.08	2640
831.219	2800
831.357	2712
831.496	2941
831.635	2727
831.774	2663
831.913	2636
832.051	2530
832.19	2583
832.329	2682
832.467	2503
832.606	2480
832.744	2594
832.883	2556
833.022	2602
833.16	2663
833.299	2720
833.437	2705
833.576	2712
833.714	2735
833.852	2689
833.991	2762
834.129	2861
834.267	2811
834.406	2807
834.544	2853
834.682	2876
834.821	2887
834.959	3055
835.097	2895
835.235	3036
835.373	3028
835.511	3070
835.65	2982
835.788	2975
835.926	2842
836.064	2842
836.202	2834
836.34	3070
836.478	3142
836.615	3051
836.753	3138
836.891	3165
837.029	3135
837.167	3108
837.305	3062
837.443	3028
837.58	2963
837.718	3127
837.856	3074
837.993	3062
838.131	3138
838.269	3112
838.406	3093
838.544	3070
838.681	2948
838.819	2914
838.956	2796
839.094	2845
839.231	2918
839.369	3066
839.506	3386
839.643	3218
839.781	3036
839.918	2956
840.055	3043
840.193	3051
840.33	3020
840.467	3097
840.604	3142
840.742	3431
840.879	3039
841.016	3055
841.153	3093
841.29	3313
841.427	3287
841.564	3302
841.701	3291
841.838	3245
841.975	3173
842.112	3222
842.249	3020
842.385	3043
842.522	3253
842.659	3123
842.796	3055
842.933	3135
843.069	3066
843.206	3039
843.343	3195
843.479	3097
843.616	3123
843.752	2883
843.889	2868
844.025	3085
844.162	2857
844.298	3089
844.435	2944
844.571	2941
844.708	3077
844.844	3188
844.98	3233
845.117	3207
845.253	3036
845.389	3005
845.525	3093
845.661	3127
845.798	3024
845.934	3077
846.07	3043
846.206	3188
846.342	3340
846.478	3264
846.614	3108
846.75	3062
846.886	3005
847.022	3249
847.158	3089
847.294	3207
847.429	3226
847.565	3214
847.701	3504
847.837	3036
847.972	3017
848.108	3142
848.244	3131
848.379	3039
848.515	2941
848.65	2918
848.786	2960
848.921	3005
849.057	3104
849.192	3119
849.328	3081
849.463	3108
849.598	3017
849.734	3024
849.869	2979
850.004	2944
850.14	2975
850.275	2960
850.41	2853
850.545	2872
850.68	2971
850.815	2941
850.95	2967
851.085	3173
851.22	3138
851.355	3020
851.49	2971
851.625	2982
851.76	3017
851.895	2929
852.03	2914
852.165	3020
852.299	3097
852.434	3176
852.569	3154
852.703	3131
852.838	3241
852.973	3386
853.107	3336
853.242	3127
853.376	3081
853.511	2960
853.645	3032
853.78	3180
853.914	3077
854.048	3093
854.183	3119
854.317	3135
854.451	3279
854.585	3116
854.72	3093
854.854	3188
854.988	3074
855.122	3074
855.256	2941
855.39	3116
855.524	3237
855.658	3188
855.792	3184
855.926	3180
856.06	3230
856.194	3283
856.327	3150
856.461	3077
856.595	3070
856.729	3081
856.862	3211
856.996	3146
857.13	3180
857.263	3245
857.397	3260
857.53	3119
857.664	3211
857.797	3241
857.931	3230
858.064	3131
858.197	3195
858.331	3142
858.464	3100
858.597	3020
858.731	3100
858.864	3131
858.997	3097
859.13	3165
859.263	3165
859.396	3188
859.529	3093
859.662	3024
859.795	3028
859.928	3100
860.061	3256
860.194	3264
860.327	3161
860.46	3058
860.592	3256
860.725	3233
860.858	3256
860.99	3081
861.123	3028
861.256	3039
861.388	3135
861.521	3679
861.653	2998
861.786	2967
861.918	3039
862.05	3058
862.183	3074
862.315	3142
862.447	3157
862.58	3070
862.712	2914
862.844	2883
862.976	3017
863.108	3013
863.24	3416
863.372	2887
863.504	2933
863.636	2918
863.768	3043
863.9	2975
864.032	2902
864.164	2963
864.296	3001
864.428	3089
864.559	3131
864.691	3058
864.823	3062
864.954	3028
865.086	3036
865.217	2971
865.349	2986
865.48	2982
865.612	3013
865.743	3146
865.875	2990
866.006	2948
866.137	2979
866.269	2979
866.4	2914
866.531	2948
866.662	2887
866.793	2899
866.924	2899
867.055	2941
867.186	2891
867.317	2864
867.448	2853
867.579	2868
867.71	2868
867.841	2830
867.972	2902
868.103	2849
868.233	2872
868.364	2861
868.495	2906
868.625	3077
868.756	3142
868.886	2967
869.017	2986
869.147	3157
869.278	3157
869.408	3047
869.539	3020
869.669	3077
869.799	3013
869.929	3146
870.06	3089
870.19	3291
870.32	3291
870.45	3306
870.58	3355
870.71	3424
870.84	3454
870.97	3268
871.1	3211
871.23	3450
871.36	3469
871.489	3336
871.619	3431
871.749	3397
871.879	3412
872.008	3519
872.138	3336
872.267	3253
872.397	3169
872.526	3100
872.656	2975
872.785	3127
872.915	3203
873.044	3310
873.173	3211
873.303	3264
873.432	3245
873.561	3230
873.69	3135
873.819	3127
873.948	3188
874.077	3142
874.206	3017
874.335	3089
874.464	3203
874.593	3336
874.722	3199
874.851	3382
874.979	3329
875.108	3325
875.237	3184
875.365	3161
875.494	3176
875.623	3272
875.751	3070
875.88	3077
876.008	3199
876.136	3253
876.265	3412
876.393	3477
876.521	3412
876.65	3409
876.778	3351
876.906	3226
877.034	3203
877.162	3214
877.29	3180
877.418	3253
877.546	3272
877.674	3253
877.802	3226
877.93	3253
878.058	3135
878.185	3116
878.313	3184
878.441	3214
878.568	3055
878.696	3135
878.824	3230
878.951	3283
879.079	3424
879.206	3622
879.333	3462
879.461	3329
879.588	3386
879.715	3492
879.842	3606
879.97	3428
880.097	3176
880.224	3135
880.351	3199
880.478	3188
880.605	3195
880.732	3226
880.859	3485
880.986	3298
881.112	3329
881.239	3214
881.366	3100
881.493	3009
881.619	3020
881.746	3043
881.872	3077
881.999	3047
882.125	3112
882.252	3218
882.378	3287
882.505	3439
882.631	3256
882.757	3176
882.883	3211
883.01	3203
883.136	3142
883.262	3112
883.388	3116
883.514	3298
883.64	3351
883.766	3306
883.892	3169
884.018	3199
884.143	3412
884.269	3553
884.395	3157
884.52	3157
884.646	3154
884.772	3138
884.897	3123
885.023	3233
885.148	3374
885.274	3386
885.399	3367
885.524	3268
885.65	3272
885.775	3317
885.9	3272
886.025	3469
886.15	3363
886.275	3264
886.4	3241
886.525	3298
886.65	3268
886.775	3275
886.9	3477
887.025	3618
887.149	3401
887.274	3230
887.399	3142
887.523	3176
887.648	3173
887.773	3188
887.897	3405
888.021	3378
888.146	3264
888.27	3409
888.395	3561
888.519	3393
888.643	3428
888.767	3431
888.891	3268
889.015	3249
889.139	3287
889.263	3207
889.387	3397
889.511	3507
889.635	3397
889.759	3291
889.883	3272
890.006	3370
890.13	3485
890.254	3291
890.377	3329
890.501	3237
890.624	3230
890.748	3294
890.871	3176
890.995	3100
891.118	3058
891.241	3233
891.364	3203
891.488	3310
891.611	3157
891.734	3245
891.857	3302
891.98	3192
892.103	3332
892.226	3256
892.349	3188
892.471	3119
892.594	3233
892.717	3233
892.839	3245
892.962	3287
893.085	3351
893.207	3279
893.33	3173
893.452	3230
893.575	3348
893.697	3226
893.819	3447
893.941	3481
894.064	3454
894.186	3283
894.308	3287
894.43	3424
894.552	3511
894.674	3428
894.796	3260
894.918	3317
895.04	3291
895.161	3431
895.283	3443
895.405	3302
895.526	3367
895.648	3466
895.769	3412
895.891	3412
896.012	3443
896.134	3428
896.255	3405
896.376	3374
896.498	3325
896.619	3458
896.74	3340
896.861	3378
896.982	3686
897.103	3797
897.224	3587
897.345	3511
897.466	3420
897.587	3526
897.708	3660
897.828	3538
897.949	3393
898.07	3325
898.19	3424
898.311	3595
898.431	3439
898.552	3500
898.672	3599
898.792	3564
898.913	3526
899.033	3428
899.153	3302
899.273	3199
899.393	3302
899.513	3256
899.633	3332
899.753	3363
899.873	3317
899.993	3317
900.113	3344
900.232	3401
900.352	3363
900.472	3256
900.591	3188
900.711	3302
900.83	3230
900.95	3370
901.069	3477
901.189	3348
901.308	3169
901.427	3157
901.546	3233
901.665	3294
901.784	3351
901.904	3176
902.023	3135
902.141	3009
902.26	3009
902.379	3146
902.498	3081
902.617	3047
902.735	3222
902.854	3237
902.973	3161
903.091	3028
903.21	3047
903.328	3131
903.446	3112
903.565	3112
903.683	3173
903.801	3131
903.919	3272
904.038	3249
904.156	3173
904.274	3313
904.392	3214
904.51	3313
904.627	3325
904.745	3443
904.863	3500
904.981	3279
905.098	3161
905.216	3203
905.334	3310
905.451	3287
905.569	3291
905.686	3435
905.803	3431
905.921	3302
906.038	3405
906.155	3363
906.272	3275
906.389	3336
906.506	3245
906.623	3226
906.74	3291
906.857	3154
906.974	3245
907.091	3485
907.208	3542
907.324	3466
907.441	3367
907.557	3184
907.674	3249
907.79	3218
907.907	3249
908.023	3397
908.139	3401
908.256	3287
908.372	3416
908.488	3351
908.604	3275
908.72	3226
908.836	3283
908.952	3275
909.068	3348
909.184	3504
909.3	3348
909.415	3473
909.531	3443
909.647	3268
909.762	3230
909.878	3272
909.993	3351
910.108	3332
910.224	3344
910.339	3401
910.454	3340
910.57	3294
910.685	3230
910.8	3587
910.915	3542
911.03	3431
911.145	3230
911.259	3253
911.374	3298
911.489	3218
911.604	3222
911.718	3157
911.833	3127
911.947	3039
912.062	2994
912.176	3165
912.291	3180
912.405	3233
912.519	3382
912.633	3458
912.748	3317
912.862	3279
912.976	3169
913.09	3024
913.204	3146
913.318	3214
913.431	3294
913.545	3313
913.659	3401
913.772	3321
913.886	3207
914	3214
914.113	3313
914.226	3420
914.34	3378
914.453	3188
914.566	3405
914.68	3264
914.793	3332
914.906	3135
915.019	3058
915.132	3077
915.245	3138
915.358	3188
915.47	3218
915.583	3264
915.696	3317
915.809	3416
915.921	3412
916.034	3256
916.146	3241
916.259	3203
916.371	3401
916.483	3386
916.595	3272
916.708	3332
916.82	3306
916.932	3336
917.044	3298
917.156	3359
917.268	3260
917.38	3298
917.491	3275
917.603	3359
917.715	3435
917.826	3450
917.938	3378
918.049	3245
918.161	3405
918.272	3572
918.384	3591
918.495	3469
918.606	3336
918.717	3264
918.828	3401
918.939	3409
919.05	3268
919.161	3370
919.272	3195
919.383	3249
919.494	3515
919.604	3679
919.715	3473
919.826	3409
919.936	3473
920.047	3576
920.157	3572
920.267	3743
920.378	3568
920.488	3526
920.598	3781
920.708	3903
920.818	3850
920.928	3808
921.038	4063
921.148	3994
921.258	3705
921.368	3610
921.477	3625
921.587	3553
921.697	3435
921.806	3580
921.916	3530
922.025	3348
922.134	3329
922.244	3367
922.353	3435
922.462	3264
922.571	3214
922.68	3093
922.789	3104
922.898	3093
923.007	3123
923.116	3195
923.224	3199
923.333	3173
923.442	3089
923.55	3085
923.659	3127
923.767	3199
923.876	3123
923.984	3226
924.092	3100
924.201	3192
924.309	3192
924.417	3245
924.525	3192
924.633	3230
924.741	4006
924.849	3055
924.956	3237
925.064	3104
925.172	3093
925.279	3127
925.387	3199
925.494	3176
925.602	3317
925.709	3348
925.816	3173
925.924	3344
926.031	3378
926.138	3317
926.245	3359
926.352	3268
926.459	3378
926.566	3435
926.673	3321
926.779	3283
926.886	3245
926.993	3142
927.099	3161
927.206	3104
927.312	3127
927.419	3226
927.525	3233
927.631	3298
927.737	3127
927.843	3131
927.95	3028
928.056	3180
928.162	3154
928.267	3256
928.373	3789
928.479	3302
928.585	3013
928.69	3180
928.796	3260
928.901	3169
929.007	3093
929.112	3195
929.218	3176
929.323	3135
929.428	3146
929.533	3332
929.638	3131
929.743	3157
929.848	3287
929.953	3214
930.058	3142
930.163	3032
930.267	3062
930.372	3157
930.477	3043
930.581	3294
930.685	3203
930.79	3058
930.894	3142
930.998	3108
931.103	3283
931.207	2967
931.311	2929
931.415	2925
931.519	2785
931.623	2796
