Data from test_V78500241_1449.txt Node
Date: Fri Mar 25 16:25:14 CST 2022
User: usil
Spectrometer: V785-0024
Trigger mode: 0
Integration Time (sec): 4.000000E-1
Scans to average: 1
Nonlinearity correction enabled: false
Boxcar width: 0
Storing dark spectrum: false
XAxis mode: Wavelengths
Number of Pixels in Spectrum: 1024
>>>>>Begin Spectral Data<<<<<
801.071	2918
801.214	2922
801.356	2830
801.499	2910
801.641	2876
801.783	2929
801.926	3001
802.068	2933
802.211	2979
802.353	3043
802.496	2967
802.638	3001
802.78	3047
802.923	3066
803.065	2986
803.208	2891
803.35	2880
803.492	2922
803.635	2914
803.777	2724
803.919	2857
804.061	3211
804.204	2925
804.346	2937
804.488	2823
804.63	3005
804.773	2857
804.915	2895
805.057	3066
805.199	2910
805.341	2971
805.483	2986
805.626	2998
805.768	2910
805.91	3074
806.052	3081
806.194	3028
806.336	3226
806.478	3001
806.62	2982
806.762	2922
806.904	3032
807.046	3161
807.188	2979
807.33	2887
807.472	2982
807.614	2880
807.756	2990
807.898	2876
808.04	2883
808.182	2971
808.324	2922
808.465	2895
808.607	2883
808.749	2788
808.891	2834
809.033	2944
809.174	2982
809.316	2868
809.458	2899
809.6	2781
809.741	2758
809.883	2777
810.025	2864
810.166	2823
810.308	2838
810.45	2834
810.591	2769
810.733	2769
810.875	2819
811.016	2750
811.158	2754
811.299	2788
811.441	2895
811.582	2880
811.724	2830
811.865	2830
812.007	2906
812.148	2830
812.29	2872
812.431	2895
812.573	2910
812.714	2952
812.855	3028
812.997	3039
813.138	3116
813.279	2986
813.421	2967
813.562	2960
813.703	2872
813.845	2887
813.986	2750
814.127	2712
814.268	2834
814.41	2876
814.551	2796
814.692	2853
814.833	2815
814.974	2895
815.115	2948
815.256	2815
815.397	2766
815.539	2842
815.68	2785
815.821	2750
815.962	2914
816.103	2952
816.244	2861
816.385	2849
816.526	2925
816.666	2906
816.807	2746
816.948	2887
817.089	2925
817.23	2834
817.371	2769
817.512	2766
817.653	2849
817.793	2842
817.934	2857
818.075	2960
818.216	2975
818.356	3032
818.497	2861
818.638	2762
818.778	2796
818.919	2788
819.06	2777
819.2	2876
819.341	2807
819.481	2769
819.622	2933
819.762	3081
819.903	3058
820.043	2933
820.184	2937
820.324	2891
820.465	3001
820.605	2998
820.746	3005
820.886	2895
821.026	3097
821.167	3157
821.307	3203
821.447	3245
821.588	3241
821.728	3226
821.868	3169
822.008	3089
822.149	3184
822.289	3233
822.429	3066
822.569	3093
822.709	3188
822.849	3017
822.99	3097
823.13	3195
823.27	3176
823.41	3081
823.55	3142
823.69	3127
823.83	3165
823.97	3104
824.11	2979
824.25	2960
824.389	3074
824.529	3135
824.669	3058
824.809	3199
824.949	3256
825.089	3199
825.228	3135
825.368	2979
825.508	2963
825.648	2975
825.787	2986
825.927	3024
826.067	2960
826.206	2994
826.346	3028
826.485	3036
826.625	3085
826.765	3256
826.904	3176
827.044	3001
827.183	2922
827.323	2876
827.462	3009
827.601	2918
827.741	2914
827.88	2929
828.02	2830
828.159	2941
828.298	3039
828.437	3108
828.577	3066
828.716	3233
828.855	3089
828.994	2918
829.134	2868
829.273	2918
829.412	2861
829.551	2853
829.69	2883
829.829	2975
829.968	3089
830.107	2994
830.246	2998
830.385	2895
830.524	2880
830.663	2830
830.802	2712
830.941	2632
831.08	2625
831.219	2743
831.357	2743
831.496	2929
831.635	2689
831.774	2663
831.913	2640
832.051	2533
832.19	2564
832.329	2678
832.467	2530
832.606	2423
832.744	2598
832.883	2549
833.022	2587
833.16	2670
833.299	2655
833.437	2712
833.576	2663
833.714	2693
833.852	2750
833.991	2766
834.129	2830
834.267	2819
834.406	2785
834.544	2845
834.682	2842
834.821	2849
834.959	3081
835.097	2895
835.235	3032
835.373	3009
835.511	2986
835.65	2914
835.788	2929
835.926	2807
836.064	2788
836.202	2838
836.34	3108
836.478	3119
836.615	3020
836.753	3074
836.891	3195
837.029	3154
837.167	3108
837.305	3013
837.443	3005
837.58	2918
837.718	3169
837.856	3039
837.993	2971
838.131	3097
838.269	3089
838.406	3081
838.544	3085
838.681	2902
838.819	2880
838.956	2804
839.094	2849
839.231	2922
839.369	3017
839.506	3332
839.643	3188
839.781	3039
839.918	2944
840.055	3013
840.193	2994
840.33	3028
840.467	3062
840.604	3142
840.742	3401
840.879	3055
841.016	3028
841.153	3097
841.29	3291
841.427	3256
841.564	3256
841.701	3294
841.838	3211
841.975	3097
842.112	3184
842.249	3051
842.385	3043
842.522	3268
842.659	3077
842.796	3001
842.933	3089
843.069	3058
843.206	3055
843.343	3154
843.479	3131
843.616	3146
843.752	2918
843.889	2864
844.025	3085
844.162	2925
844.298	3074
844.435	2975
844.571	2929
844.708	3089
844.844	3184
844.98	3249
845.117	3188
845.253	3070
845.389	3039
845.525	3104
845.661	3123
845.798	3017
845.934	3142
846.07	3077
846.206	3230
846.342	3321
846.478	3275
846.614	3138
846.75	3081
846.886	3020
847.022	3260
847.158	3176
847.294	3249
847.429	3294
847.565	3264
847.701	3485
847.837	3077
847.972	3013
848.108	3207
848.244	3165
848.379	2994
848.515	2975
848.65	2982
848.786	3024
848.921	3081
849.057	3089
849.192	3165
849.328	3104
849.463	3135
849.598	3108
849.734	3074
849.869	3013
850.004	2971
850.14	3032
850.275	2944
850.41	2883
850.545	2880
850.68	2956
850.815	3005
850.95	3032
851.085	3195
851.22	3165
851.355	3051
851.49	2971
851.625	2990
851.76	3036
851.895	2941
852.03	2944
852.165	3077
852.299	3154
852.434	3226
852.569	3188
852.703	3195
852.838	3260
852.973	3367
853.107	3359
853.242	3207
853.376	3165
853.511	3058
853.645	3077
853.78	3230
853.914	3138
854.048	3104
854.183	3138
854.317	3169
854.451	3306
854.585	3150
854.72	3127
854.854	3218
854.988	3131
855.122	3119
855.256	3005
855.39	3131
855.524	3260
855.658	3207
855.792	3161
855.926	3207
856.06	3264
856.194	3298
856.327	3230
856.461	3100
856.595	3093
856.729	3127
856.862	3241
856.996	3214
857.13	3233
857.263	3260
857.397	3306
857.53	3157
857.664	3188
857.797	3253
857.931	3306
858.064	3199
858.197	3233
858.331	3150
858.464	3150
858.597	3047
858.731	3138
858.864	3142
858.997	3112
859.13	3184
859.263	3176
859.396	3211
859.529	3127
859.662	3097
859.795	3062
859.928	3131
860.061	3283
860.194	3302
860.327	3161
860.46	3154
860.592	3294
860.725	3279
860.858	3237
860.99	3108
861.123	3100
861.256	3085
861.388	3138
861.521	3907
861.653	3051
861.786	2990
861.918	3028
862.05	3093
862.183	3097
862.315	3180
862.447	3245
862.58	3116
862.712	2971
862.844	2853
862.976	3062
863.108	3028
863.24	3321
863.372	2922
863.504	2979
863.636	2967
863.768	3032
863.9	2982
864.032	2963
864.164	2956
864.296	3058
864.428	3123
864.559	3138
864.691	3108
864.823	3081
864.954	3055
865.086	3074
865.217	3009
865.349	2960
865.48	3009
865.612	3039
865.743	3142
865.875	3013
866.006	2979
866.137	2998
866.269	2994
866.4	2979
866.531	2979
866.662	2906
866.793	2922
866.924	2929
867.055	2986
867.186	2960
867.317	2906
867.448	2853
867.579	2872
867.71	2876
867.841	2868
867.972	2910
868.103	2971
868.233	2918
868.364	2899
868.495	2963
868.625	3119
868.756	3173
868.886	3024
869.017	3043
869.147	3184
869.278	3192
869.408	3070
869.539	3051
869.669	3100
869.799	3047
869.929	3173
870.06	3119
870.19	3359
870.32	3336
870.45	3329
870.58	3386
870.71	3496
870.84	3447
870.97	3317
871.1	3272
871.23	3511
871.36	3526
871.489	3386
871.619	3386
871.749	3435
871.879	3435
872.008	3469
872.138	3409
872.267	3291
872.397	3207
872.526	3116
872.656	3047
872.785	3062
872.915	3272
873.044	3313
873.173	3275
873.303	3291
873.432	3245
873.561	3249
873.69	3203
873.819	3169
873.948	3218
874.077	3131
874.206	3051
874.335	3108
874.464	3233
874.593	3378
874.722	3256
874.851	3443
874.979	3409
875.108	3370
875.237	3188
875.365	3192
875.494	3192
875.623	3298
875.751	3093
875.88	3176
876.008	3226
876.136	3272
876.265	3382
876.393	3500
876.521	3466
876.65	3409
876.778	3332
876.906	3256
877.034	3207
877.162	3226
877.29	3214
877.418	3260
877.546	3306
877.674	3294
877.802	3275
877.93	3249
878.058	3192
878.185	3119
878.313	3188
878.441	3233
878.568	3085
878.696	3233
878.824	3245
878.951	3325
879.079	3507
879.206	3686
879.333	3462
879.461	3359
879.588	3435
879.715	3507
879.842	3568
879.97	3412
880.097	3207
880.224	3135
880.351	3230
880.478	3245
880.605	3195
880.732	3222
880.859	3511
880.986	3329
881.112	3363
881.239	3230
881.366	3127
881.493	3028
881.619	3013
881.746	3097
881.872	3116
881.999	3119
882.125	3188
882.252	3298
882.378	3287
882.505	3485
882.631	3313
882.757	3161
882.883	3237
883.01	3241
883.136	3146
883.262	3116
883.388	3165
883.514	3370
883.64	3367
883.766	3306
883.892	3249
884.018	3268
884.143	3412
884.269	3545
884.395	3264
884.52	3192
884.646	3173
884.772	3135
884.897	3123
885.023	3195
885.148	3382
885.274	3447
885.399	3355
885.524	3302
885.65	3310
885.775	3336
885.9	3268
886.025	3462
886.15	3389
886.275	3302
886.4	3275
886.525	3325
886.65	3287
886.775	3287
886.9	3530
887.025	3614
887.149	3431
887.274	3325
887.399	3199
887.523	3237
887.648	3233
887.773	3203
887.897	3340
888.021	3428
888.146	3298
888.27	3458
888.395	3576
888.519	3431
888.643	3500
888.767	3485
888.891	3329
889.015	3272
889.139	3344
889.263	3294
889.387	3389
889.511	3504
889.635	3504
889.759	3306
889.883	3272
890.006	3401
890.13	3504
890.254	3294
890.377	3401
890.501	3207
890.624	3180
890.748	3351
890.871	3173
890.995	3169
891.118	3062
891.241	3211
891.364	3256
891.488	3310
891.611	3161
891.734	3226
891.857	3325
891.98	3233
892.103	3340
892.226	3298
892.349	3207
892.471	3138
892.594	3222
892.717	3306
892.839	3310
892.962	3351
893.085	3363
893.207	3332
893.33	3184
893.452	3241
893.575	3367
893.697	3256
893.819	3454
893.941	3500
894.064	3469
894.186	3275
894.308	3283
894.43	3401
894.552	3587
894.674	3481
894.796	3302
894.918	3340
895.04	3321
895.161	3424
895.283	3435
895.405	3344
895.526	3389
895.648	3462
895.769	3443
895.891	3439
896.012	3473
896.134	3507
896.255	3409
896.376	3355
896.498	3355
896.619	3443
896.74	3336
896.861	3424
896.982	3694
897.103	3812
897.224	3587
897.345	3561
897.466	3401
897.587	3515
897.708	3618
897.828	3591
897.949	3435
898.07	3370
898.19	3412
898.311	3580
898.431	3458
898.552	3511
898.672	3610
898.792	3591
898.913	3580
899.033	3435
899.153	3317
899.273	3192
899.393	3302
899.513	3321
899.633	3325
899.753	3321
899.873	3321
899.993	3370
900.113	3351
900.232	3412
900.352	3370
900.472	3298
900.591	3192
900.711	3275
900.83	3253
900.95	3450
901.069	3492
901.189	3344
901.308	3142
901.427	3176
901.546	3211
901.665	3298
901.784	3386
901.904	3214
902.023	3146
902.141	3028
902.26	3020
902.379	3119
902.498	3108
902.617	3077
902.735	3222
902.854	3253
902.973	3192
903.091	3051
903.21	3070
903.328	3100
903.446	3123
903.565	3127
903.683	3211
903.801	3116
903.919	3291
904.038	3275
904.156	3199
904.274	3291
904.392	3268
904.51	3336
904.627	3321
904.745	3420
904.863	3481
904.981	3294
905.098	3192
905.216	3211
905.334	3340
905.451	3336
905.569	3332
905.686	3424
905.803	3477
905.921	3298
906.038	3416
906.155	3382
906.272	3291
906.389	3313
906.506	3260
906.623	3253
906.74	3237
906.857	3222
906.974	3275
907.091	3443
907.208	3603
907.324	3481
907.441	3416
907.557	3233
907.674	3283
907.79	3203
907.907	3279
908.023	3359
908.139	3397
908.256	3298
908.372	3397
908.488	3378
908.604	3294
908.72	3249
908.836	3313
908.952	3306
909.068	3336
909.184	3519
909.3	3409
909.415	3488
909.531	3481
909.647	3279
909.762	3294
909.878	3298
909.993	3359
910.108	3294
910.224	3336
910.339	3454
910.454	3329
910.57	3302
910.685	3264
910.8	3618
910.915	3504
911.03	3443
911.145	3237
911.259	3256
911.374	3355
911.489	3241
911.604	3230
911.718	3127
911.833	3161
911.947	3017
912.062	3005
912.176	3195
912.291	3226
912.405	3192
912.519	3439
912.633	3462
912.748	3332
912.862	3260
912.976	3176
913.09	3070
913.204	3154
913.318	3203
913.431	3336
913.545	3321
913.659	3435
913.772	3340
913.886	3203
914	3207
914.113	3355
914.226	3458
914.34	3332
914.453	3237
914.566	3431
914.68	3291
914.793	3332
914.906	3165
915.019	3116
915.132	3077
915.245	3222
915.358	3237
915.47	3233
915.583	3317
915.696	3302
915.809	3458
915.921	3431
916.034	3291
916.146	3291
916.259	3253
916.371	3435
916.483	3428
916.595	3355
916.708	3367
916.82	3355
916.932	3363
917.044	3386
917.156	3401
917.268	3306
917.38	3340
917.491	3329
917.603	3416
917.715	3515
917.826	3511
917.938	3405
918.049	3310
918.161	3458
918.272	3656
918.384	3591
918.495	3511
918.606	3389
918.717	3355
918.828	3420
918.939	3492
919.05	3351
919.161	3401
919.272	3199
919.383	3325
919.494	3561
919.604	3736
919.715	3485
919.826	3435
919.936	3549
920.047	3610
920.157	3622
920.267	3793
920.378	3648
920.488	3606
920.598	3846
920.708	4021
920.818	3880
920.928	3884
921.038	4074
921.148	4010
921.258	3717
921.368	3663
921.477	3633
921.587	3580
921.697	3473
921.806	3675
921.916	3538
922.025	3420
922.134	3420
922.244	3378
922.353	3473
922.462	3355
922.571	3256
922.68	3146
922.789	3135
922.898	3192
923.007	3173
923.116	3253
923.224	3211
923.333	3245
923.442	3169
923.55	3116
923.659	3203
923.767	3291
923.876	3150
923.984	3268
924.092	3161
924.201	3214
924.309	3275
924.417	3272
924.525	3214
924.633	3272
924.741	4185
924.849	3085
924.956	3291
925.064	3100
925.172	3108
925.279	3112
925.387	3195
925.494	3264
925.602	3382
925.709	3389
925.816	3245
925.924	3310
926.031	3420
926.138	3336
926.245	3409
926.352	3279
926.459	3439
926.566	3492
926.673	3359
926.779	3313
926.886	3294
926.993	3188
927.099	3154
927.206	3138
927.312	3157
927.419	3287
927.525	3249
927.631	3329
927.737	3165
927.843	3142
927.95	3089
928.056	3169
928.162	3226
928.267	3279
928.373	3892
928.479	3279
928.585	3097
928.69	3268
928.796	3340
928.901	3207
929.007	3116
929.112	3245
929.218	3237
929.323	3195
929.428	3157
929.533	3386
929.638	3165
929.743	3218
929.848	3325
929.953	3249
930.058	3214
930.163	3028
930.267	3119
930.372	3222
930.477	3104
930.581	3348
930.685	3233
930.79	3127
930.894	3135
930.998	3123
931.103	3310
931.207	2998
931.311	2979
931.415	2952
931.519	2838
931.623	2868
