Data from test_V78500241_792.txt Node
Date: Fri Mar 25 16:20:41 CST 2022
User: usil
Spectrometer: V785-0024
Trigger mode: 0
Integration Time (sec): 4.000000E-1
Scans to average: 1
Nonlinearity correction enabled: false
Boxcar width: 0
Storing dark spectrum: false
XAxis mode: Wavelengths
Number of Pixels in Spectrum: 1024
>>>>>Begin Spectral Data<<<<<
801.071	2948
801.214	2933
801.356	2853
801.499	2906
801.641	2838
801.783	2906
801.926	3058
802.068	2956
802.211	2990
802.353	3055
802.496	2963
802.638	2990
802.78	3055
802.923	3077
803.065	3001
803.208	2899
803.35	2910
803.492	2899
803.635	2929
803.777	2785
803.919	2868
804.061	3169
804.204	2960
804.346	2891
804.488	2819
804.63	2925
804.773	2857
804.915	2986
805.057	3097
805.199	2922
805.341	2986
805.483	3066
805.626	2979
805.768	2933
805.91	3066
806.052	3112
806.194	3047
806.336	3241
806.478	3009
806.62	2956
806.762	2944
806.904	3074
807.046	3131
807.188	2975
807.33	2872
807.472	3009
807.614	2914
807.756	2956
807.898	2941
808.04	2895
808.182	2952
808.324	2902
808.465	2872
808.607	2922
808.749	2785
808.891	2868
809.033	2937
809.174	2967
809.316	2876
809.458	2861
809.6	2781
809.741	2750
809.883	2796
810.025	2845
810.166	2849
810.308	2807
810.45	2834
810.591	2762
810.733	2754
810.875	2830
811.016	2773
811.158	2720
811.299	2788
811.441	2902
811.582	2876
811.724	2830
811.865	2853
812.007	2868
812.148	2842
812.29	2845
812.431	2861
812.573	2956
812.714	2952
812.855	3020
812.997	3055
813.138	3112
813.279	3009
813.421	2918
813.562	2948
813.703	2849
813.845	2872
813.986	2781
814.127	2705
814.268	2834
814.41	2815
814.551	2823
814.692	2872
814.833	2804
814.974	2864
815.115	2929
815.256	2834
815.397	2842
815.539	2819
815.68	2773
815.821	2811
815.962	2944
816.103	2948
816.244	2853
816.385	2842
816.526	2952
816.666	2922
816.807	2781
816.948	2887
817.089	2925
817.23	2849
817.371	2781
817.512	2769
817.653	2857
817.793	2857
817.934	2853
818.075	2967
818.216	3039
818.356	3009
818.497	2861
818.638	2792
818.778	2838
818.919	2830
819.06	2766
819.2	2880
819.341	2807
819.481	2800
819.622	2902
819.762	3077
819.903	3039
820.043	2918
820.184	2880
820.324	2880
820.465	2998
820.605	3013
820.746	2979
820.886	2941
821.026	3089
821.167	3154
821.307	3279
821.447	3283
821.588	3226
821.728	3173
821.868	3176
822.008	3081
822.149	3230
822.289	3218
822.429	3097
822.569	3058
822.709	3146
822.849	3024
822.99	3036
823.13	3131
823.27	3207
823.41	3127
823.55	3116
823.69	3146
823.83	3154
823.97	3074
824.11	3005
824.25	3028
824.389	3058
824.529	3108
824.669	3024
824.809	3161
824.949	3249
825.089	3195
825.228	3138
825.368	2982
825.508	2956
825.648	2952
825.787	3009
825.927	3032
826.067	2971
826.206	2933
826.346	3036
826.485	3097
826.625	3104
826.765	3253
826.904	3169
827.044	3009
827.183	2933
827.323	2853
827.462	3013
827.601	2910
827.741	2948
827.88	2937
828.02	2838
828.159	2933
828.298	3032
828.437	3146
828.577	3036
828.716	3256
828.855	3077
828.994	2933
829.134	2906
829.273	2918
829.412	2891
829.551	2845
829.69	2883
829.829	2990
829.968	3112
830.107	2994
830.246	2979
830.385	2883
830.524	2845
830.663	2781
830.802	2716
830.941	2625
831.08	2632
831.219	2735
831.357	2773
831.496	2906
831.635	2693
831.774	2640
831.913	2629
832.051	2533
832.19	2549
832.329	2678
832.467	2541
832.606	2446
832.744	2575
832.883	2549
833.022	2575
833.16	2651
833.299	2659
833.437	2701
833.576	2697
833.714	2716
833.852	2743
833.991	2739
834.129	2823
834.267	2826
834.406	2754
834.544	2861
834.682	2823
834.821	2845
834.959	3097
835.097	2876
835.235	3005
835.373	3001
835.511	3043
835.65	2914
835.788	2933
835.926	2826
836.064	2796
836.202	2845
836.34	3138
836.478	3119
836.615	3051
836.753	3135
836.891	3203
837.029	3097
837.167	3127
837.305	3039
837.443	3047
837.58	2948
837.718	3146
837.856	3058
837.993	3055
838.131	3116
838.269	3089
838.406	3032
838.544	3066
838.681	2937
838.819	2899
838.956	2815
839.094	2826
839.231	2880
839.369	3020
839.506	3412
839.643	3188
839.781	3009
839.918	2956
840.055	3036
840.193	3062
840.33	3032
840.467	3097
840.604	3112
840.742	3428
840.879	3055
841.016	3047
841.153	3062
841.29	3306
841.427	3253
841.564	3233
841.701	3287
841.838	3207
841.975	3161
842.112	3211
842.249	3081
842.385	3047
842.522	3226
842.659	3058
842.796	3028
842.933	3112
843.069	3020
843.206	3009
843.343	3161
843.479	3070
843.616	3077
843.752	2902
843.889	2864
844.025	3058
844.162	2845
844.298	3066
844.435	2918
844.571	2883
844.708	3024
844.844	3180
844.98	3245
845.117	3161
845.253	3009
845.389	3013
845.525	3100
845.661	3085
845.798	3020
845.934	3135
846.07	3051
846.206	3211
846.342	3321
846.478	3207
846.614	3074
846.75	3024
846.886	3009
847.022	3245
847.158	3108
847.294	3169
847.429	3245
847.565	3199
847.701	3473
847.837	3024
847.972	3005
848.108	3184
848.244	3135
848.379	2960
848.515	2956
848.65	2883
848.786	2933
848.921	3013
849.057	3123
849.192	3112
849.328	3070
849.463	3070
849.598	2998
849.734	3020
849.869	2986
850.004	2899
850.14	2944
850.275	2906
850.41	2849
850.545	2895
850.68	2918
850.815	2933
850.95	2925
851.085	3123
851.22	3104
851.355	3017
851.49	2975
851.625	2944
851.76	3005
851.895	2918
852.03	2925
852.165	3020
852.299	3070
852.434	3161
852.569	3123
852.703	3161
852.838	3222
852.973	3310
853.107	3310
853.242	3108
853.376	3062
853.511	2982
853.645	3020
853.78	3199
853.914	3077
854.048	3097
854.183	3055
854.317	3131
854.451	3264
854.585	3093
854.72	3108
854.854	3180
854.988	3017
855.122	3077
855.256	2986
855.39	3081
855.524	3226
855.658	3169
855.792	3112
855.926	3176
856.06	3195
856.194	3218
856.327	3169
856.461	3066
856.595	3081
856.729	3097
856.862	3173
856.996	3165
857.13	3176
857.263	3233
857.397	3268
857.53	3089
857.664	3226
857.797	3241
857.931	3253
858.064	3131
858.197	3214
858.331	3131
858.464	3108
858.597	3001
858.731	3138
858.864	3116
858.997	3074
859.13	3154
859.263	3188
859.396	3176
859.529	3154
859.662	3077
859.795	3066
859.928	3188
860.061	3279
860.194	3287
860.327	3146
860.46	3081
860.592	3256
860.725	3249
860.858	3260
860.99	3119
861.123	3070
861.256	3066
861.388	3214
861.521	3953
861.653	3066
861.786	3036
861.918	3017
862.05	3074
862.183	3116
862.315	3188
862.447	3237
862.58	3123
862.712	2982
862.844	2925
862.976	3043
863.108	3036
863.24	3363
863.372	2963
863.504	3005
863.636	3066
863.768	3062
863.9	3024
864.032	2967
864.164	3001
864.296	3055
864.428	3146
864.559	3135
864.691	3077
864.823	3077
864.954	3055
865.086	3074
865.217	3020
865.349	3024
865.48	3028
865.612	3039
865.743	3192
865.875	2994
866.006	2967
866.137	3001
866.269	2990
866.4	2971
866.531	2952
866.662	2918
866.793	2937
866.924	2944
867.055	2998
867.186	2971
867.317	2910
867.448	2872
867.579	2880
867.71	2868
867.841	2857
867.972	2914
868.103	2941
868.233	2922
868.364	2925
868.495	2937
868.625	3093
868.756	3241
868.886	2986
869.017	3047
869.147	3218
869.278	3207
869.408	3089
869.539	3074
869.669	3123
869.799	3024
869.929	3146
870.06	3131
870.19	3389
870.32	3329
870.45	3325
870.58	3409
870.71	3515
870.84	3462
870.97	3329
871.1	3291
871.23	3526
871.36	3500
871.489	3401
871.619	3416
871.749	3428
871.879	3454
872.008	3485
872.138	3355
872.267	3306
872.397	3173
872.526	3131
872.656	3077
872.785	3112
872.915	3268
873.044	3359
873.173	3249
873.303	3294
873.432	3256
873.561	3294
873.69	3195
873.819	3169
873.948	3233
874.077	3127
874.206	3043
874.335	3097
874.464	3222
874.593	3397
874.722	3310
874.851	3378
874.979	3359
875.108	3340
875.237	3253
875.365	3199
875.494	3173
875.623	3260
875.751	3108
875.88	3142
876.008	3214
876.136	3291
876.265	3393
876.393	3561
876.521	3424
876.65	3431
876.778	3344
876.906	3222
877.034	3203
877.162	3268
877.29	3169
877.418	3310
877.546	3268
877.674	3253
877.802	3264
877.93	3268
878.058	3119
878.185	3112
878.313	3237
878.441	3222
878.568	3104
878.696	3169
878.824	3268
878.951	3294
879.079	3481
879.206	3663
879.333	3435
879.461	3348
879.588	3382
879.715	3519
879.842	3610
879.97	3431
880.097	3207
880.224	3188
880.351	3222
880.478	3237
880.605	3211
880.732	3222
880.859	3542
880.986	3348
881.112	3340
881.239	3237
881.366	3097
881.493	3070
881.619	3043
881.746	3100
881.872	3150
881.999	3112
882.125	3180
882.252	3291
882.378	3306
882.505	3492
882.631	3313
882.757	3154
882.883	3218
883.01	3256
883.136	3188
883.262	3131
883.388	3150
883.514	3355
883.64	3416
883.766	3325
883.892	3233
884.018	3275
884.143	3431
884.269	3591
884.395	3241
884.52	3188
884.646	3245
884.772	3192
884.897	3123
885.023	3237
885.148	3348
885.274	3458
885.399	3393
885.524	3317
885.65	3291
885.775	3317
885.9	3287
886.025	3458
886.15	3412
886.275	3310
886.4	3287
886.525	3374
886.65	3283
886.775	3325
886.9	3549
887.025	3656
887.149	3447
887.274	3260
887.399	3199
887.523	3256
887.648	3180
887.773	3203
887.897	3393
888.021	3443
888.146	3313
888.27	3450
888.395	3580
888.519	3447
888.643	3462
888.767	3492
888.891	3359
889.015	3272
889.139	3310
889.263	3325
889.387	3469
889.511	3545
889.635	3466
889.759	3306
889.883	3287
890.006	3439
890.13	3538
890.254	3279
890.377	3355
890.501	3233
890.624	3195
890.748	3351
890.871	3203
890.995	3100
891.118	3077
891.241	3173
891.364	3237
891.488	3370
891.611	3173
891.734	3245
891.857	3336
891.98	3268
892.103	3332
892.226	3275
892.349	3237
892.471	3161
892.594	3207
892.717	3283
892.839	3275
892.962	3332
893.085	3416
893.207	3355
893.33	3165
893.452	3222
893.575	3359
893.697	3264
893.819	3477
893.941	3500
894.064	3454
894.186	3306
894.308	3283
894.43	3466
894.552	3519
894.674	3519
894.796	3310
894.918	3325
895.04	3332
895.161	3458
895.283	3363
895.405	3298
895.526	3389
895.648	3466
895.769	3435
895.891	3466
896.012	3466
896.134	3469
896.255	3389
896.376	3374
896.498	3336
896.619	3488
896.74	3409
896.861	3428
896.982	3705
897.103	3854
897.224	3610
897.345	3534
897.466	3507
897.587	3469
897.708	3625
897.828	3584
897.949	3485
898.07	3340
898.19	3431
898.311	3599
898.431	3492
898.552	3515
898.672	3587
898.792	3580
898.913	3526
899.033	3409
899.153	3351
899.273	3222
899.393	3325
899.513	3348
899.633	3367
899.753	3359
899.873	3355
899.993	3382
900.113	3367
900.232	3424
900.352	3359
900.472	3260
900.591	3211
900.711	3329
900.83	3237
900.95	3466
901.069	3511
901.189	3397
901.308	3161
901.427	3161
901.546	3192
901.665	3336
901.784	3405
901.904	3214
902.023	3150
902.141	3043
902.26	2986
902.379	3173
902.498	3039
902.617	3104
902.735	3260
902.854	3264
902.973	3226
903.091	3093
903.21	3112
903.328	3157
903.446	3097
903.565	3135
903.683	3199
903.801	3131
903.919	3256
904.038	3302
904.156	3176
904.274	3313
904.392	3264
904.51	3287
904.627	3298
904.745	3485
904.863	3492
904.981	3275
905.098	3237
905.216	3264
905.334	3306
905.451	3306
905.569	3321
905.686	3431
905.803	3485
905.921	3298
906.038	3443
906.155	3386
906.272	3306
906.389	3355
906.506	3268
906.623	3298
906.74	3268
906.857	3192
906.974	3260
907.091	3462
907.208	3572
907.324	3462
907.441	3439
907.557	3241
907.674	3253
907.79	3222
907.907	3310
908.023	3401
908.139	3435
908.256	3348
908.372	3374
908.488	3374
908.604	3310
908.72	3233
908.836	3294
908.952	3256
909.068	3370
909.184	3458
909.3	3386
909.415	3500
909.531	3515
909.647	3272
909.762	3336
909.878	3237
909.993	3363
910.108	3348
910.224	3382
910.339	3454
910.454	3359
910.57	3294
910.685	3268
910.8	3599
910.915	3568
911.03	3428
911.145	3264
911.259	3287
911.374	3359
911.489	3233
911.604	3245
911.718	3173
911.833	3169
911.947	3047
912.062	3013
912.176	3233
912.291	3207
912.405	3237
912.519	3431
912.633	3420
912.748	3317
912.862	3268
912.976	3195
913.09	3089
913.204	3150
913.318	3233
913.431	3355
913.545	3351
913.659	3386
913.772	3348
913.886	3230
914	3260
914.113	3386
914.226	3397
914.34	3382
914.453	3214
914.566	3424
914.68	3298
914.793	3313
914.906	3150
915.019	3131
915.132	3097
915.245	3146
915.358	3230
915.47	3253
915.583	3298
915.696	3291
915.809	3431
915.921	3439
916.034	3249
916.146	3298
916.259	3245
916.371	3397
916.483	3389
916.595	3287
916.708	3355
916.82	3348
916.932	3355
917.044	3378
917.156	3363
917.268	3256
917.38	3283
917.491	3302
917.603	3382
917.715	3454
917.826	3496
917.938	3367
918.049	3310
918.161	3431
918.272	3603
918.384	3553
918.495	3488
918.606	3359
918.717	3302
918.828	3386
918.939	3412
919.05	3348
919.161	3412
919.272	3203
919.383	3279
919.494	3488
919.604	3690
919.715	3473
919.826	3435
919.936	3443
920.047	3599
920.157	3534
920.267	3785
920.378	3629
920.488	3576
920.598	3755
920.708	3949
920.818	3793
920.928	3861
921.038	4048
921.148	4032
921.258	3698
921.368	3587
921.477	3587
921.587	3545
921.697	3435
921.806	3644
921.916	3538
922.025	3378
922.134	3359
922.244	3310
922.353	3435
922.462	3298
922.571	3233
922.68	3116
922.789	3058
922.898	3123
923.007	3077
923.116	3188
923.224	3138
923.333	3184
923.442	3108
923.55	3074
923.659	3154
923.767	3211
923.876	3119
923.984	3230
924.092	3123
924.201	3176
924.309	3211
924.417	3264
924.525	3199
924.633	3241
924.741	4166
924.849	3062
924.956	3317
925.064	3131
925.172	3017
925.279	3097
925.387	3195
925.494	3256
925.602	3370
925.709	3351
925.816	3207
925.924	3332
926.031	3412
926.138	3374
926.245	3359
926.352	3249
926.459	3443
926.566	3523
926.673	3313
926.779	3253
926.886	3287
926.993	3173
927.099	3165
927.206	3135
927.312	3154
927.419	3275
927.525	3222
927.631	3313
927.737	3150
927.843	3173
927.95	3089
928.056	3214
928.162	3207
928.267	3275
928.373	3800
928.479	3355
928.585	3142
928.69	3294
928.796	3298
928.901	3195
929.007	3097
929.112	3218
929.218	3249
929.323	3199
929.428	3222
929.533	3355
929.638	3188
929.743	3203
929.848	3344
929.953	3256
930.058	3184
930.163	3047
930.267	3104
930.372	3241
930.477	3055
930.581	3355
930.685	3203
930.79	3093
930.894	3180
930.998	3180
931.103	3321
931.207	2990
931.311	3013
931.415	2963
931.519	2861
931.623	2906
