Data from test_V78500241_624.txt Node
Date: Fri Mar 25 16:19:31 CST 2022
User: usil
Spectrometer: V785-0024
Trigger mode: 0
Integration Time (sec): 4.000000E-1
Scans to average: 1
Nonlinearity correction enabled: false
Boxcar width: 0
Storing dark spectrum: false
XAxis mode: Wavelengths
Number of Pixels in Spectrum: 1024
>>>>>Begin Spectral Data<<<<<
801.071	2906
801.214	2952
801.356	2876
801.499	2887
801.641	2868
801.783	2933
801.926	3028
802.068	3001
802.211	2975
802.353	3028
802.496	2937
802.638	2979
802.78	3017
802.923	3081
803.065	3001
803.208	2872
803.35	2929
803.492	2929
803.635	2918
803.777	2739
803.919	2880
804.061	3203
804.204	2952
804.346	2914
804.488	2864
804.63	2990
804.773	2861
804.915	2906
805.057	3070
805.199	2929
805.341	2941
805.483	3013
805.626	3009
805.768	2982
805.91	3081
806.052	3112
806.194	3032
806.336	3256
806.478	3001
806.62	2956
806.762	2963
806.904	3055
807.046	3146
807.188	2986
807.33	2876
807.472	2971
807.614	2891
807.756	2986
807.898	2910
808.04	2872
808.182	2922
808.324	2948
808.465	2887
808.607	2880
808.749	2777
808.891	2807
809.033	2933
809.174	2986
809.316	2906
809.458	2876
809.6	2743
809.741	2739
809.883	2777
810.025	2864
810.166	2872
810.308	2830
810.45	2849
810.591	2796
810.733	2769
810.875	2826
811.016	2781
811.158	2716
811.299	2792
811.441	2929
811.582	2883
811.724	2815
811.865	2857
812.007	2906
812.148	2895
812.29	2800
812.431	2845
812.573	2925
812.714	2952
812.855	2990
812.997	3047
813.138	3108
813.279	3024
813.421	2952
813.562	2963
813.703	2830
813.845	2902
813.986	2792
814.127	2689
814.268	2823
814.41	2819
814.551	2815
814.692	2864
814.833	2788
814.974	2922
815.115	2918
815.256	2830
815.397	2792
815.539	2876
815.68	2769
815.821	2781
815.962	2910
816.103	2922
816.244	2876
816.385	2872
816.526	2944
816.666	2876
816.807	2731
816.948	2864
817.089	2872
817.23	2800
817.371	2754
817.512	2769
817.653	2842
817.793	2819
817.934	2902
818.075	2963
818.216	2994
818.356	3013
818.497	2868
818.638	2811
818.778	2842
818.919	2785
819.06	2739
819.2	2880
819.341	2826
819.481	2800
819.622	2952
819.762	3055
819.903	3017
820.043	2918
820.184	2895
820.324	2868
820.465	2975
820.605	3017
820.746	3009
820.886	2880
821.026	3066
821.167	3131
821.307	3218
821.447	3275
821.588	3249
821.728	3184
821.868	3203
822.008	3081
822.149	3184
822.289	3176
822.429	3074
822.569	3074
822.709	3169
822.849	3013
822.99	3062
823.13	3165
823.27	3173
823.41	3093
823.55	3142
823.69	3131
823.83	3161
823.97	3055
824.11	2963
824.25	3005
824.389	3058
824.529	3074
824.669	3032
824.809	3192
824.949	3169
825.089	3195
825.228	3146
825.368	2998
825.508	2914
825.648	2944
825.787	3017
825.927	3020
826.067	2971
826.206	2956
826.346	3009
826.485	3051
826.625	3085
826.765	3230
826.904	3180
827.044	2956
827.183	2887
827.323	2868
827.462	2982
827.601	2925
827.741	2902
827.88	2982
828.02	2849
828.159	2990
828.298	3028
828.437	3123
828.577	3032
828.716	3207
828.855	3081
828.994	2914
829.134	2864
829.273	2925
829.412	2849
829.551	2842
829.69	2868
829.829	2952
829.968	3127
830.107	2963
830.246	2990
830.385	2899
830.524	2880
830.663	2815
830.802	2716
830.941	2632
831.08	2651
831.219	2739
831.357	2743
831.496	2918
831.635	2697
831.774	2625
831.913	2663
832.051	2545
832.19	2598
832.329	2674
832.467	2514
832.606	2495
832.744	2590
832.883	2571
833.022	2560
833.16	2644
833.299	2667
833.437	2697
833.576	2727
833.714	2705
833.852	2746
833.991	2769
834.129	2857
834.267	2826
834.406	2819
834.544	2853
834.682	2922
834.821	2872
834.959	3062
835.097	2925
835.235	3074
835.373	3017
835.511	3070
835.65	2975
835.788	2990
835.926	2834
836.064	2845
836.202	2857
836.34	3108
836.478	3123
836.615	3062
836.753	3157
836.891	3207
837.029	3222
837.167	3142
837.305	3081
837.443	3032
837.58	2998
837.718	3138
837.856	3093
837.993	3074
838.131	3146
838.269	3123
838.406	3135
838.544	3131
838.681	2937
838.819	2952
838.956	2849
839.094	2887
839.231	2967
839.369	3039
839.506	3431
839.643	3256
839.781	3070
839.918	3036
840.055	3074
840.193	3116
840.33	3081
840.467	3146
840.604	3192
840.742	3431
840.879	3093
841.016	3097
841.153	3142
841.29	3367
841.427	3351
841.564	3310
841.701	3344
841.838	3256
841.975	3214
842.112	3253
842.249	3142
842.385	3058
842.522	3313
842.659	3123
842.796	3104
842.933	3119
843.069	3077
843.206	3058
843.343	3233
843.479	3138
843.616	3173
843.752	2914
843.889	2891
844.025	3104
844.162	2956
844.298	3077
844.435	3017
844.571	2952
844.708	3150
844.844	3214
844.98	3256
845.117	3230
845.253	3089
845.389	3020
845.525	3131
845.661	3138
845.798	3058
845.934	3165
846.07	3108
846.206	3245
846.342	3340
846.478	3264
846.614	3138
846.75	3093
846.886	3017
847.022	3279
847.158	3173
847.294	3211
847.429	3302
847.565	3241
847.701	3488
847.837	3051
847.972	3036
848.108	3199
848.244	3146
848.379	3013
848.515	2948
848.65	2963
848.786	2994
848.921	3036
849.057	3135
849.192	3173
849.328	3112
849.463	3131
849.598	3104
849.734	3077
849.869	3013
850.004	2952
850.14	2944
850.275	2948
850.41	2895
850.545	2902
850.68	2960
850.815	3001
850.95	3020
851.085	3218
851.22	3169
851.355	3047
851.49	3032
851.625	3051
851.76	3089
851.895	2952
852.03	2956
852.165	3017
852.299	3161
852.434	3203
852.569	3184
852.703	3203
852.838	3272
852.973	3367
853.107	3340
853.242	3169
853.376	3135
853.511	2982
853.645	3036
853.78	3233
853.914	3176
854.048	3127
854.183	3093
854.317	3131
854.451	3332
854.585	3165
854.72	3089
854.854	3218
854.988	3093
855.122	3104
855.256	3020
855.39	3123
855.524	3279
855.658	3226
855.792	3169
855.926	3233
856.06	3245
856.194	3279
856.327	3142
856.461	3135
856.595	3116
856.729	3119
856.862	3298
856.996	3207
857.13	3237
857.263	3275
857.397	3351
857.53	3119
857.664	3222
857.797	3279
857.931	3279
858.064	3214
858.197	3272
858.331	3131
858.464	3131
858.597	3070
858.731	3169
858.864	3150
858.997	3097
859.13	3169
859.263	3180
859.396	3264
859.529	3154
859.662	3089
859.795	3104
859.928	3184
860.061	3325
860.194	3283
860.327	3157
860.46	3100
860.592	3222
860.725	3253
860.858	3279
860.99	3135
861.123	3047
861.256	3051
861.388	3169
861.521	3743
861.653	3055
861.786	3013
861.918	3043
862.05	3100
862.183	3116
862.315	3161
862.447	3245
862.58	3112
862.712	2998
862.844	2902
862.976	3058
863.108	3013
863.24	3473
863.372	2895
863.504	3020
863.636	2982
863.768	3051
863.9	3032
864.032	2948
864.164	2990
864.296	3036
864.428	3100
864.559	3055
864.691	3100
864.823	3058
864.954	3039
865.086	3089
865.217	3013
865.349	2956
865.48	2948
865.612	3043
865.743	3150
865.875	3036
866.006	2960
866.137	3001
866.269	2960
866.4	2971
866.531	2941
866.662	2929
866.793	2944
866.924	2922
867.055	3009
867.186	2971
867.317	2937
867.448	2849
867.579	2834
867.71	2857
867.841	2838
867.972	2910
868.103	2937
868.233	2895
868.364	2876
868.495	2902
868.625	3119
868.756	3161
868.886	2986
869.017	3051
869.147	3203
869.278	3161
869.408	3017
869.539	3055
869.669	3100
869.799	3093
869.929	3146
870.06	3123
870.19	3363
870.32	3344
870.45	3325
870.58	3374
870.71	3443
870.84	3481
870.97	3321
871.1	3237
871.23	3504
871.36	3477
871.489	3374
871.619	3397
871.749	3416
871.879	3450
872.008	3530
872.138	3367
872.267	3321
872.397	3165
872.526	3116
872.656	3043
872.785	3135
872.915	3291
873.044	3363
873.173	3226
873.303	3287
873.432	3245
873.561	3253
873.69	3165
873.819	3169
873.948	3230
874.077	3142
874.206	3039
874.335	3093
874.464	3253
874.593	3359
874.722	3279
874.851	3405
874.979	3359
875.108	3359
875.237	3230
875.365	3207
875.494	3142
875.623	3245
875.751	3093
875.88	3157
876.008	3226
876.136	3256
876.265	3424
876.393	3538
876.521	3416
876.65	3420
876.778	3378
876.906	3279
877.034	3237
877.162	3264
877.29	3226
877.418	3279
877.546	3222
877.674	3241
877.802	3264
877.93	3230
878.058	3195
878.185	3123
878.313	3230
878.441	3214
878.568	3036
878.696	3173
878.824	3291
878.951	3336
879.079	3488
879.206	3595
879.333	3431
879.461	3344
879.588	3363
879.715	3469
879.842	3595
879.97	3370
880.097	3188
880.224	3127
880.351	3203
880.478	3268
880.605	3207
880.732	3222
880.859	3500
880.986	3310
881.112	3363
881.239	3237
881.366	3119
881.493	3058
881.619	3032
881.746	3116
881.872	3081
881.999	3119
882.125	3116
882.252	3264
882.378	3279
882.505	3428
882.631	3317
882.757	3142
882.883	3241
883.01	3226
883.136	3192
883.262	3097
883.388	3119
883.514	3344
883.64	3412
883.766	3283
883.892	3180
884.018	3256
884.143	3443
884.269	3561
884.395	3237
884.52	3226
884.646	3207
884.772	3150
884.897	3135
885.023	3218
885.148	3329
885.274	3435
885.399	3397
885.524	3253
885.65	3302
885.775	3329
885.9	3298
886.025	3428
886.15	3431
886.275	3340
886.4	3268
886.525	3302
886.65	3279
886.775	3329
886.9	3504
887.025	3648
887.149	3393
887.274	3306
887.399	3119
887.523	3260
887.648	3207
887.773	3180
887.897	3393
888.021	3439
888.146	3249
888.27	3477
888.395	3534
888.519	3477
888.643	3450
888.767	3439
888.891	3310
889.015	3230
889.139	3329
889.263	3264
889.387	3435
889.511	3534
889.635	3481
889.759	3302
889.883	3306
890.006	3389
890.13	3496
890.254	3264
890.377	3363
890.501	3214
890.624	3203
890.748	3344
890.871	3184
890.995	3123
891.118	3085
891.241	3203
891.364	3245
891.488	3351
891.611	3199
891.734	3245
891.857	3310
891.98	3279
892.103	3348
892.226	3279
892.349	3222
892.471	3108
892.594	3272
892.717	3310
892.839	3298
892.962	3340
893.085	3351
893.207	3340
893.33	3207
893.452	3222
893.575	3344
893.697	3253
893.819	3481
893.941	3553
894.064	3462
894.186	3272
894.308	3272
894.43	3439
894.552	3553
894.674	3462
894.796	3272
894.918	3329
895.04	3283
895.161	3454
895.283	3374
895.405	3317
895.526	3409
895.648	3466
895.769	3424
895.891	3481
896.012	3469
896.134	3485
896.255	3439
896.376	3412
896.498	3351
896.619	3439
896.74	3405
896.861	3405
896.982	3690
897.103	3854
897.224	3606
897.345	3557
897.466	3431
897.587	3504
897.708	3633
897.828	3542
897.949	3462
898.07	3355
898.19	3409
898.311	3622
898.431	3469
898.552	3530
898.672	3576
898.792	3614
898.913	3557
899.033	3409
899.153	3313
899.273	3233
899.393	3272
899.513	3355
899.633	3332
899.753	3332
899.873	3348
899.993	3370
900.113	3336
900.232	3378
900.352	3348
900.472	3287
900.591	3222
900.711	3321
900.83	3264
900.95	3416
901.069	3511
901.189	3344
901.308	3188
901.427	3081
901.546	3218
901.665	3298
901.784	3329
901.904	3233
902.023	3157
902.141	2994
902.26	2986
902.379	3150
902.498	3112
902.617	3066
902.735	3211
902.854	3241
902.973	3214
903.091	3070
903.21	3062
903.328	3116
903.446	3116
903.565	3138
903.683	3203
903.801	3184
903.919	3241
904.038	3325
904.156	3157
904.274	3291
904.392	3233
904.51	3272
904.627	3332
904.745	3435
904.863	3523
904.981	3256
905.098	3180
905.216	3260
905.334	3302
905.451	3336
905.569	3302
905.686	3447
905.803	3439
905.921	3275
906.038	3473
906.155	3382
906.272	3298
906.389	3351
906.506	3233
906.623	3256
906.74	3294
906.857	3245
906.974	3264
907.091	3477
907.208	3580
907.324	3477
907.441	3397
907.557	3245
907.674	3195
907.79	3237
907.907	3329
908.023	3367
908.139	3397
908.256	3332
908.372	3374
908.488	3351
908.604	3275
908.72	3218
908.836	3294
908.952	3321
909.068	3340
909.184	3492
909.3	3382
909.415	3507
909.531	3447
909.647	3264
909.762	3306
909.878	3256
909.993	3382
910.108	3363
910.224	3351
910.339	3443
910.454	3355
910.57	3264
910.685	3256
910.8	3572
910.915	3545
911.03	3424
911.145	3294
911.259	3264
911.374	3321
911.489	3245
911.604	3230
911.718	3123
911.833	3154
911.947	3039
912.062	3005
912.176	3135
912.291	3195
912.405	3222
912.519	3401
912.633	3458
912.748	3332
912.862	3317
912.976	3195
913.09	3089
913.204	3154
913.318	3188
913.431	3363
913.545	3355
913.659	3397
913.772	3325
913.886	3253
914	3222
914.113	3359
914.226	3420
914.34	3397
914.453	3233
914.566	3435
914.68	3321
914.793	3325
914.906	3165
915.019	3093
915.132	3077
915.245	3188
915.358	3214
915.47	3218
915.583	3237
915.696	3325
915.809	3443
915.921	3412
916.034	3256
916.146	3226
916.259	3233
916.371	3405
916.483	3401
916.595	3253
916.708	3355
916.82	3302
916.932	3344
917.044	3313
917.156	3313
917.268	3287
917.38	3279
917.491	3272
917.603	3355
917.715	3469
917.826	3477
917.938	3409
918.049	3313
918.161	3458
918.272	3572
918.384	3557
918.495	3504
918.606	3351
918.717	3264
918.828	3363
918.939	3420
919.05	3336
919.161	3355
919.272	3184
919.383	3306
919.494	3469
919.604	3660
919.715	3515
919.826	3420
919.936	3485
920.047	3603
920.157	3576
920.267	3759
920.378	3606
920.488	3568
920.598	3774
920.708	3918
920.818	3850
920.928	3846
921.038	4032
921.148	3998
921.258	3705
921.368	3576
921.477	3614
921.587	3542
921.697	3447
921.806	3622
921.916	3504
922.025	3344
922.134	3329
922.244	3351
922.353	3389
922.462	3275
922.571	3207
922.68	3127
922.789	3081
922.898	3093
923.007	3077
923.116	3207
923.224	3192
923.333	3199
923.442	3077
923.55	3097
923.659	3131
923.767	3211
923.876	3150
923.984	3253
924.092	3127
924.201	3169
924.309	3245
924.417	3245
924.525	3226
924.633	3245
924.741	4021
924.849	3055
924.956	3279
925.064	3108
925.172	3051
925.279	3108
925.387	3184
925.494	3195
925.602	3336
925.709	3313
925.816	3195
925.924	3279
926.031	3389
926.138	3329
926.245	3340
926.352	3279
926.459	3370
926.566	3466
926.673	3313
926.779	3241
926.886	3260
926.993	3150
927.099	3100
927.206	3135
927.312	3112
927.419	3230
927.525	3233
927.631	3310
927.737	3131
927.843	3093
927.95	3020
928.056	3093
928.162	3195
928.267	3241
928.373	3766
928.479	3279
928.585	3070
928.69	3226
928.796	3256
928.901	3157
929.007	3028
929.112	3184
929.218	3157
929.323	3154
929.428	3131
929.533	3355
929.638	3074
929.743	3199
929.848	3294
929.953	3237
930.058	3169
930.163	3043
930.267	3077
930.372	3192
930.477	3032
930.581	3332
930.685	3184
930.79	3085
930.894	3074
930.998	3055
931.103	3283
931.207	2933
931.311	2952
931.415	2887
931.519	2777
931.623	2842
