Data from test_V78500241_461.txt Node
Date: Fri Mar 25 16:18:23 CST 2022
User: usil
Spectrometer: V785-0024
Trigger mode: 0
Integration Time (sec): 4.000000E-1
Scans to average: 1
Nonlinearity correction enabled: false
Boxcar width: 0
Storing dark spectrum: false
XAxis mode: Wavelengths
Number of Pixels in Spectrum: 1024
>>>>>Begin Spectral Data<<<<<
801.071	2922
801.214	2944
801.356	2864
801.499	2899
801.641	2876
801.783	2883
801.926	3047
802.068	2982
802.211	3013
802.353	3036
802.496	2952
802.638	3028
802.78	3032
802.923	3039
803.065	2986
803.208	2887
803.35	2922
803.492	2891
803.635	2902
803.777	2781
803.919	2861
804.061	3184
804.204	2944
804.346	2910
804.488	2830
804.63	2967
804.773	2868
804.915	2895
805.057	3085
805.199	2929
805.341	2971
805.483	3039
805.626	2990
805.768	2960
805.91	3032
806.052	3089
806.194	3036
806.336	3230
806.478	3043
806.62	2922
806.762	2967
806.904	3032
807.046	3165
807.188	2960
807.33	2899
807.472	3001
807.614	2906
807.756	3024
807.898	2914
808.04	2853
808.182	2952
808.324	2952
808.465	2849
808.607	2872
808.749	2807
808.891	2845
809.033	2944
809.174	3009
809.316	2880
809.458	2902
809.6	2777
809.741	2754
809.883	2762
810.025	2845
810.166	2880
810.308	2823
810.45	2872
810.591	2754
810.733	2746
810.875	2830
811.016	2769
811.158	2735
811.299	2788
811.441	2937
811.582	2899
811.724	2842
811.865	2815
812.007	2872
812.148	2876
812.29	2868
812.431	2895
812.573	2933
812.714	2960
812.855	3039
812.997	3024
813.138	3142
813.279	2979
813.421	2952
813.562	2929
813.703	2868
813.845	2872
813.986	2746
814.127	2739
814.268	2800
814.41	2845
814.551	2796
814.692	2834
814.833	2807
814.974	2883
815.115	2956
815.256	2811
815.397	2830
815.539	2868
815.68	2773
815.821	2788
815.962	2944
816.103	2880
816.244	2899
816.385	2853
816.526	2979
816.666	2941
816.807	2739
816.948	2883
817.089	2918
817.23	2861
817.371	2792
817.512	2807
817.653	2819
817.793	2819
817.934	2853
818.075	2952
818.216	2952
818.356	3039
818.497	2899
818.638	2766
818.778	2811
818.919	2842
819.06	2762
819.2	2857
819.341	2800
819.481	2792
819.622	2910
819.762	3146
819.903	3058
820.043	2880
820.184	2880
820.324	2899
820.465	3017
820.605	3013
820.746	3013
820.886	2914
821.026	3093
821.167	3203
821.307	3222
821.447	3237
821.588	3230
821.728	3222
821.868	3184
822.008	3058
822.149	3199
822.289	3218
822.429	3077
822.569	3062
822.709	3176
822.849	3032
822.99	3055
823.13	3146
823.27	3211
823.41	3104
823.55	3169
823.69	3138
823.83	3203
823.97	3100
824.11	2979
824.25	3020
824.389	3036
824.529	3131
824.669	3104
824.809	3207
824.949	3233
825.089	3218
825.228	3154
825.368	2971
825.508	2982
825.648	2971
825.787	2990
825.927	2994
826.067	2982
826.206	2952
826.346	3043
826.485	3047
826.625	3097
826.765	3249
826.904	3237
827.044	2963
827.183	2944
827.323	2849
827.462	2967
827.601	2910
827.741	2941
827.88	2910
828.02	2853
828.159	2963
828.298	3005
828.437	3081
828.577	3047
828.716	3253
828.855	3051
828.994	2925
829.134	2857
829.273	2925
829.412	2853
829.551	2830
829.69	2891
829.829	2963
829.968	3150
830.107	3013
830.246	2990
830.385	2914
830.524	2895
830.663	2804
830.802	2773
830.941	2640
831.08	2651
831.219	2800
831.357	2750
831.496	2960
831.635	2670
831.774	2632
831.913	2640
832.051	2549
832.19	2549
832.329	2674
832.467	2503
832.606	2537
832.744	2568
832.883	2556
833.022	2610
833.16	2655
833.299	2686
833.437	2678
833.576	2712
833.714	2731
833.852	2746
833.991	2773
834.129	2800
834.267	2849
834.406	2777
834.544	2845
834.682	2849
834.821	2876
834.959	3070
835.097	2883
835.235	3047
835.373	2979
835.511	3017
835.65	2960
835.788	2933
835.926	2834
836.064	2762
836.202	2823
836.34	3097
836.478	3150
836.615	3047
836.753	3104
836.891	3173
837.029	3150
837.167	3097
837.305	3058
837.443	3036
837.58	2944
837.718	3150
837.856	3081
837.993	3036
838.131	3131
838.269	3085
838.406	3089
838.544	3097
838.681	2918
838.819	2883
838.956	2807
839.094	2807
839.231	2918
839.369	2998
839.506	3363
839.643	3230
839.781	3005
839.918	2933
840.055	2967
840.193	3036
840.33	3028
840.467	3058
840.604	3127
840.742	3405
840.879	3005
841.016	3032
841.153	3077
841.29	3279
841.427	3264
841.564	3226
841.701	3298
841.838	3203
841.975	3146
842.112	3180
842.249	3058
842.385	3009
842.522	3233
842.659	3093
842.796	3043
842.933	3100
843.069	3024
843.206	3039
843.343	3180
843.479	3104
843.616	3112
843.752	2899
843.889	2891
844.025	3066
844.162	2842
844.298	3062
844.435	2952
844.571	2880
844.708	3043
844.844	3176
844.98	3241
845.117	3173
845.253	3081
845.389	3028
845.525	3135
845.661	3097
845.798	3013
845.934	3123
846.07	3043
846.206	3226
846.342	3332
846.478	3195
846.614	3108
846.75	3032
846.886	2994
847.022	3230
847.158	3100
847.294	3188
847.429	3237
847.565	3241
847.701	3454
847.837	3028
847.972	2963
848.108	3138
848.244	3142
848.379	3005
848.515	2952
848.65	2933
848.786	2963
848.921	3020
849.057	3089
849.192	3123
849.328	3051
849.463	3104
849.598	3100
849.734	3013
849.869	2982
850.004	2902
850.14	2971
850.275	2914
850.41	2864
850.545	2883
850.68	2906
850.815	2960
850.95	2963
851.085	3195
851.22	3066
851.355	3005
851.49	2975
851.625	3005
851.76	3005
851.895	2906
852.03	2975
852.165	3036
852.299	3093
852.434	3218
852.569	3142
852.703	3146
852.838	3218
852.973	3321
853.107	3310
853.242	3154
853.376	3123
853.511	2960
853.645	3036
853.78	3241
853.914	3097
854.048	3100
854.183	3085
854.317	3135
854.451	3313
854.585	3131
854.72	3058
854.854	3176
854.988	3036
855.122	3062
855.256	2967
855.39	3089
855.524	3237
855.658	3173
855.792	3135
855.926	3188
856.06	3237
856.194	3249
856.327	3192
856.461	3066
856.595	3028
856.729	3104
856.862	3218
856.996	3146
857.13	3192
857.263	3233
857.397	3268
857.53	3112
857.664	3173
857.797	3218
857.931	3226
858.064	3165
858.197	3176
858.331	3135
858.464	3100
858.597	2975
858.731	3112
858.864	3142
858.997	3089
859.13	3123
859.263	3112
859.396	3195
859.529	3070
859.662	3066
859.795	3036
859.928	3112
860.061	3272
860.194	3275
860.327	3123
860.46	3081
860.592	3203
860.725	3256
860.858	3230
860.99	3104
861.123	3036
861.256	3024
861.388	3165
861.521	3907
861.653	2994
861.786	2963
861.918	3001
862.05	3058
862.183	3093
862.315	3150
862.447	3195
862.58	3058
862.712	2937
862.844	2861
862.976	3009
863.108	2998
863.24	3313
863.372	2880
863.504	2960
863.636	2960
863.768	3055
863.9	2952
864.032	2887
864.164	2922
864.296	2990
864.428	3062
864.559	3077
864.691	3055
864.823	3036
864.954	3043
865.086	3036
865.217	2998
865.349	2937
865.48	2967
865.612	3017
865.743	3184
865.875	3039
866.006	2941
866.137	2994
866.269	2948
866.4	2933
866.531	2967
866.662	2864
866.793	2880
866.924	2906
867.055	2944
867.186	2948
867.317	2876
867.448	2792
867.579	2819
867.71	2845
867.841	2769
867.972	2891
868.103	2872
868.233	2880
868.364	2864
868.495	2941
868.625	3036
868.756	3104
868.886	2956
869.017	3036
869.147	3169
869.278	3176
869.408	3032
869.539	3009
869.669	3062
869.799	3009
869.929	3150
870.06	3123
870.19	3329
870.32	3272
870.45	3279
870.58	3367
870.71	3397
870.84	3405
870.97	3268
871.1	3214
871.23	3435
871.36	3420
871.489	3359
871.619	3382
871.749	3401
871.879	3412
872.008	3469
872.138	3332
872.267	3291
872.397	3165
872.526	3062
872.656	2982
872.785	3062
872.915	3222
873.044	3302
873.173	3207
873.303	3241
873.432	3218
873.561	3226
873.69	3123
873.819	3165
873.948	3169
874.077	3123
874.206	3005
874.335	3020
874.464	3176
874.593	3332
874.722	3249
874.851	3412
874.979	3359
875.108	3302
875.237	3173
875.365	3138
875.494	3112
875.623	3245
875.751	3058
875.88	3100
876.008	3176
876.136	3249
876.265	3336
876.393	3500
876.521	3409
876.65	3340
876.778	3332
876.906	3237
877.034	3192
877.162	3233
877.29	3188
877.418	3256
877.546	3230
877.674	3214
877.802	3249
877.93	3226
878.058	3131
878.185	3077
878.313	3203
878.441	3226
878.568	3074
878.696	3127
878.824	3264
878.951	3317
879.079	3397
879.206	3606
879.333	3428
879.461	3291
879.588	3325
879.715	3454
879.842	3603
879.97	3389
880.097	3161
880.224	3112
880.351	3176
880.478	3237
880.605	3203
880.732	3192
880.859	3485
880.986	3336
881.112	3310
881.239	3169
881.366	3123
881.493	3032
881.619	2979
881.746	3070
881.872	3043
881.999	3127
882.125	3184
882.252	3222
882.378	3260
882.505	3378
882.631	3279
882.757	3154
882.883	3222
883.01	3195
883.136	3112
883.262	3074
883.388	3070
883.514	3294
883.64	3370
883.766	3317
883.892	3184
884.018	3272
884.143	3409
884.269	3545
884.395	3195
884.52	3169
884.646	3154
884.772	3077
884.897	3051
885.023	3195
885.148	3321
885.274	3378
885.399	3332
885.524	3214
885.65	3249
885.775	3306
885.9	3279
886.025	3439
886.15	3310
886.275	3294
886.4	3222
886.525	3294
886.65	3230
886.775	3256
886.9	3473
887.025	3629
887.149	3359
887.274	3230
887.399	3184
887.523	3199
887.648	3138
887.773	3195
887.897	3340
888.021	3359
888.146	3306
888.27	3431
888.395	3511
888.519	3409
888.643	3409
888.767	3458
888.891	3306
889.015	3203
889.139	3233
889.263	3268
889.387	3393
889.511	3496
889.635	3405
889.759	3249
889.883	3249
890.006	3378
890.13	3454
890.254	3245
890.377	3332
890.501	3161
890.624	3157
890.748	3298
890.871	3161
890.995	3104
891.118	3043
891.241	3142
891.364	3199
891.488	3332
891.611	3176
891.734	3226
891.857	3268
891.98	3222
892.103	3329
892.226	3321
892.349	3218
892.471	3131
892.594	3214
892.717	3287
892.839	3214
892.962	3294
893.085	3317
893.207	3260
893.33	3116
893.452	3199
893.575	3291
893.697	3279
893.819	3443
893.941	3469
894.064	3435
894.186	3260
894.308	3249
894.43	3447
894.552	3504
894.674	3435
894.796	3275
894.918	3291
895.04	3268
895.161	3412
895.283	3370
895.405	3321
895.526	3367
895.648	3439
895.769	3378
895.891	3469
896.012	3511
896.134	3428
896.255	3405
896.376	3332
896.498	3344
896.619	3420
896.74	3416
896.861	3378
896.982	3732
897.103	3854
897.224	3572
897.345	3511
897.466	3428
897.587	3519
897.708	3637
897.828	3603
897.949	3443
898.07	3325
898.19	3439
898.311	3561
898.431	3428
898.552	3549
898.672	3648
898.792	3625
898.913	3572
899.033	3424
899.153	3325
899.273	3275
899.393	3298
899.513	3344
899.633	3340
899.753	3344
899.873	3321
899.993	3405
900.113	3344
900.232	3428
900.352	3401
900.472	3325
900.591	3241
900.711	3325
900.83	3302
900.95	3447
901.069	3553
901.189	3397
901.308	3218
901.427	3169
901.546	3188
901.665	3329
901.784	3409
901.904	3287
902.023	3199
902.141	3081
902.26	3055
902.379	3222
902.498	3070
902.617	3070
902.735	3241
902.854	3230
902.973	3233
903.091	3089
903.21	3085
903.328	3176
903.446	3161
903.565	3127
903.683	3253
903.801	3165
903.919	3275
904.038	3310
904.156	3195
904.274	3317
904.392	3268
904.51	3306
904.627	3367
904.745	3466
904.863	3496
904.981	3336
905.098	3207
905.216	3302
905.334	3336
905.451	3363
905.569	3351
905.686	3473
905.803	3500
905.921	3313
906.038	3450
906.155	3431
906.272	3313
906.389	3370
906.506	3253
906.623	3321
906.74	3329
906.857	3256
906.974	3340
907.091	3492
907.208	3606
907.324	3519
907.441	3397
907.557	3253
907.674	3268
907.79	3264
907.907	3313
908.023	3405
908.139	3447
908.256	3382
908.372	3393
908.488	3378
908.604	3287
908.72	3253
908.836	3283
908.952	3340
909.068	3355
909.184	3496
909.3	3431
909.415	3534
909.531	3492
909.647	3233
909.762	3344
909.878	3321
909.993	3378
910.108	3332
910.224	3370
910.339	3435
910.454	3393
910.57	3306
910.685	3256
910.8	3618
910.915	3584
911.03	3492
911.145	3302
911.259	3298
911.374	3359
911.489	3272
911.604	3245
911.718	3138
911.833	3161
911.947	3043
912.062	3032
912.176	3176
912.291	3245
912.405	3283
912.519	3439
912.633	3492
912.748	3409
912.862	3298
912.976	3203
913.09	3085
913.204	3165
913.318	3294
913.431	3348
913.545	3348
913.659	3443
913.772	3359
913.886	3272
914	3222
914.113	3340
914.226	3431
914.34	3340
914.453	3214
914.566	3447
914.68	3306
914.793	3321
914.906	3165
915.019	3154
915.132	3081
915.245	3214
915.358	3253
915.47	3279
915.583	3275
915.696	3321
915.809	3435
915.921	3473
916.034	3294
916.146	3294
916.259	3260
916.371	3454
916.483	3389
916.595	3272
916.708	3359
916.82	3386
916.932	3370
917.044	3397
917.156	3329
917.268	3298
917.38	3321
917.491	3336
917.603	3386
917.715	3488
917.826	3496
917.938	3412
918.049	3317
918.161	3473
918.272	3625
918.384	3591
918.495	3538
918.606	3321
918.717	3298
918.828	3393
918.939	3488
919.05	3340
919.161	3393
919.272	3218
919.383	3291
919.494	3542
919.604	3690
919.715	3526
919.826	3439
919.936	3500
920.047	3614
920.157	3595
920.267	3816
920.378	3671
920.488	3584
920.598	3835
920.708	3983
920.818	3800
920.928	3842
921.038	4040
921.148	4048
921.258	3751
921.368	3637
921.477	3618
921.587	3580
921.697	3488
921.806	3667
921.916	3595
922.025	3367
922.134	3370
922.244	3363
922.353	3466
922.462	3256
922.571	3275
922.68	3173
922.789	3108
922.898	3211
923.007	3131
923.116	3237
923.224	3233
923.333	3199
923.442	3138
923.55	3123
923.659	3165
923.767	3256
923.876	3116
923.984	3253
924.092	3100
924.201	3218
924.309	3195
924.417	3249
924.525	3203
924.633	3279
924.741	4040
924.849	3097
924.956	3283
925.064	3100
925.172	3089
925.279	3150
925.387	3241
925.494	3253
925.602	3405
925.709	3332
925.816	3253
925.924	3336
926.031	3389
926.138	3367
926.245	3374
926.352	3279
926.459	3428
926.566	3473
926.673	3378
926.779	3268
926.886	3256
926.993	3165
927.099	3154
927.206	3165
927.312	3127
927.419	3272
927.525	3272
927.631	3321
927.737	3173
927.843	3157
927.95	3066
928.056	3157
928.162	3195
928.267	3279
928.373	3778
928.479	3325
928.585	3104
928.69	3211
928.796	3306
928.901	3180
929.007	3036
929.112	3245
929.218	3176
929.323	3169
929.428	3192
929.533	3344
929.638	3146
929.743	3211
929.848	3275
929.953	3218
930.058	3157
930.163	3051
930.267	3070
930.372	3207
930.477	3028
930.581	3344
930.685	3195
930.79	3058
930.894	3161
930.998	3123
931.103	3344
931.207	2982
931.311	2925
931.415	2982
931.519	2781
931.623	2807
