Data from test_V78500241_1001.txt Node
Date: Fri Mar 25 16:22:08 CST 2022
User: usil
Spectrometer: V785-0024
Trigger mode: 0
Integration Time (sec): 4.000000E-1
Scans to average: 1
Nonlinearity correction enabled: false
Boxcar width: 0
Storing dark spectrum: false
XAxis mode: Wavelengths
Number of Pixels in Spectrum: 1024
>>>>>Begin Spectral Data<<<<<
801.071	2910
801.214	2937
801.356	2899
801.499	2876
801.641	2872
801.783	2899
801.926	3047
802.068	2952
802.211	2967
802.353	3024
802.496	2952
802.638	3020
802.78	3039
802.923	3077
803.065	2986
803.208	2925
803.35	2887
803.492	2929
803.635	2868
803.777	2762
803.919	2872
804.061	3199
804.204	2948
804.346	2899
804.488	2849
804.63	2998
804.773	2880
804.915	2876
805.057	3093
805.199	2922
805.341	2948
805.483	3017
805.626	3032
805.768	2948
805.91	3074
806.052	3119
806.194	3009
806.336	3226
806.478	3017
806.62	2967
806.762	2937
806.904	3028
807.046	3173
807.188	2986
807.33	2902
807.472	3017
807.614	2910
807.756	2963
807.898	2883
808.04	2887
808.182	3017
808.324	2963
808.465	2887
808.607	2861
808.749	2785
808.891	2853
809.033	2948
809.174	2948
809.316	2880
809.458	2895
809.6	2743
809.741	2785
809.883	2743
810.025	2842
810.166	2830
810.308	2819
810.45	2830
810.591	2788
810.733	2773
810.875	2826
811.016	2762
811.158	2777
811.299	2773
811.441	2914
811.582	2895
811.724	2800
811.865	2826
812.007	2941
812.148	2830
812.29	2853
812.431	2876
812.573	2937
812.714	2944
812.855	3039
812.997	3024
813.138	3100
813.279	2979
813.421	2960
813.562	2937
813.703	2853
813.845	2887
813.986	2766
814.127	2731
814.268	2845
814.41	2826
814.551	2800
814.692	2868
814.833	2826
814.974	2845
815.115	2937
815.256	2853
815.397	2792
815.539	2845
815.68	2746
815.821	2766
815.962	2944
816.103	2952
816.244	2849
816.385	2830
816.526	2948
816.666	2929
816.807	2689
816.948	2853
817.089	2925
817.23	2811
817.371	2769
817.512	2800
817.653	2842
817.793	2769
817.934	2876
818.075	2941
818.216	2960
818.356	2986
818.497	2883
818.638	2826
818.778	2807
818.919	2788
819.06	2746
819.2	2891
819.341	2792
819.481	2762
819.622	2914
819.762	3058
819.903	3051
820.043	2910
820.184	2899
820.324	2883
820.465	2982
820.605	2990
820.746	3013
820.886	2933
821.026	3093
821.167	3154
821.307	3233
821.447	3260
821.588	3226
821.728	3199
821.868	3157
822.008	3081
822.149	3161
822.289	3207
822.429	3089
822.569	3062
822.709	3169
822.849	3017
822.99	3032
823.13	3184
823.27	3207
823.41	3135
823.55	3173
823.69	3176
823.83	3176
823.97	3070
824.11	2982
824.25	2979
824.389	3077
824.529	3104
824.669	3020
824.809	3211
824.949	3249
825.089	3214
825.228	3176
825.368	2998
825.508	2948
825.648	2937
825.787	3005
825.927	3020
826.067	2956
826.206	2956
826.346	3047
826.485	3036
826.625	3081
826.765	3233
826.904	3226
827.044	2982
827.183	2914
827.323	2834
827.462	3001
827.601	2929
827.741	2906
827.88	2937
828.02	2864
828.159	2986
828.298	3013
828.437	3085
828.577	3036
828.716	3230
828.855	3074
828.994	2918
829.134	2880
829.273	2952
829.412	2853
829.551	2853
829.69	2880
829.829	2971
829.968	3138
830.107	3005
830.246	3005
830.385	2918
830.524	2842
830.663	2781
830.802	2735
830.941	2602
831.08	2640
831.219	2769
831.357	2746
831.496	2952
831.635	2720
831.774	2655
831.913	2693
832.051	2511
832.19	2556
832.329	2674
832.467	2514
832.606	2476
832.744	2568
832.883	2564
833.022	2602
833.16	2644
833.299	2674
833.437	2689
833.576	2663
833.714	2720
833.852	2708
833.991	2781
834.129	2823
834.267	2819
834.406	2781
834.544	2834
834.682	2853
834.821	2872
834.959	3039
835.097	2918
835.235	3043
835.373	3001
835.511	2937
835.65	2929
835.788	2975
835.926	2823
836.064	2800
836.202	2842
836.34	3081
836.478	3131
836.615	3028
836.753	3112
836.891	3165
837.029	3150
837.167	3100
837.305	3039
837.443	3066
837.58	2944
837.718	3112
837.856	3077
837.993	3047
838.131	3097
838.269	3119
838.406	3104
838.544	3089
838.681	2963
838.819	2933
838.956	2811
839.094	2838
839.231	2922
839.369	3051
839.506	3363
839.643	3211
839.781	3001
839.918	2979
840.055	3077
840.193	3058
840.33	3104
840.467	3112
840.604	3138
840.742	3397
840.879	3089
841.016	3062
841.153	3135
841.29	3348
841.427	3317
841.564	3275
841.701	3325
841.838	3230
841.975	3176
842.112	3249
842.249	3112
842.385	3055
842.522	3279
842.659	3116
842.796	3074
842.933	3097
843.069	3070
843.206	3058
843.343	3203
843.479	3150
843.616	3188
843.752	2944
843.889	2902
844.025	3116
844.162	2899
844.298	3127
844.435	2994
844.571	2937
844.708	3112
844.844	3226
844.98	3253
845.117	3192
845.253	3066
845.389	3036
845.525	3161
845.661	3127
845.798	3039
845.934	3161
846.07	3127
846.206	3268
846.342	3325
846.478	3283
846.614	3142
846.75	3093
846.886	3070
847.022	3275
847.158	3173
847.294	3264
847.429	3317
847.565	3237
847.701	3549
847.837	3074
847.972	3032
848.108	3154
848.244	3184
848.379	3005
848.515	2990
848.65	2937
848.786	2998
848.921	3066
849.057	3173
849.192	3195
849.328	3112
849.463	3169
849.598	3108
849.734	3043
849.869	2948
850.004	2975
850.14	3001
850.275	2944
850.41	2922
850.545	2918
850.68	3005
850.815	2986
850.95	3005
851.085	3230
851.22	3138
851.355	3032
851.49	3055
851.625	3051
851.76	3039
851.895	2956
852.03	2925
852.165	3055
852.299	3127
852.434	3230
852.569	3180
852.703	3203
852.838	3287
852.973	3382
853.107	3382
853.242	3188
853.376	3127
853.511	2986
853.645	3051
853.78	3287
853.914	3157
854.048	3131
854.183	3108
854.317	3180
854.451	3332
854.585	3161
854.72	3131
854.854	3230
854.988	3085
855.122	3116
855.256	3028
855.39	3138
855.524	3275
855.658	3188
855.792	3150
855.926	3188
856.06	3233
856.194	3268
856.327	3176
856.461	3074
856.595	3123
856.729	3112
856.862	3211
856.996	3214
857.13	3233
857.263	3207
857.397	3348
857.53	3150
857.664	3226
857.797	3283
857.931	3291
858.064	3195
858.197	3302
858.331	3131
858.464	3169
858.597	3009
858.731	3169
858.864	3176
858.997	3127
859.13	3176
859.263	3199
859.396	3249
859.529	3119
859.662	3100
859.795	3055
859.928	3176
860.061	3317
860.194	3355
860.327	3157
860.46	3062
860.592	3264
860.725	3268
860.858	3298
860.99	3154
861.123	3108
861.256	3077
861.388	3188
861.521	3819
861.653	3062
861.786	3032
861.918	3047
862.05	3089
862.183	3150
862.315	3169
862.447	3188
862.58	3161
862.712	2990
862.844	2937
862.976	3036
863.108	3043
863.24	3458
863.372	2902
863.504	3005
863.636	2937
863.768	3055
863.9	3036
864.032	2933
864.164	2994
864.296	3036
864.428	3093
864.559	3146
864.691	3112
864.823	3081
864.954	3028
865.086	3062
865.217	3028
865.349	2982
865.48	3017
865.612	3051
865.743	3150
865.875	3043
866.006	2994
866.137	2982
866.269	2956
866.4	2967
866.531	2982
866.662	2914
866.793	2922
866.924	2933
867.055	2975
867.186	2948
867.317	2922
867.448	2876
867.579	2883
867.71	2861
867.841	2845
867.972	2899
868.103	2925
868.233	2910
868.364	2906
868.495	2925
868.625	3070
868.756	3207
868.886	2986
869.017	3062
869.147	3188
869.278	3188
869.408	3089
869.539	3066
869.669	3123
869.799	3066
869.929	3142
870.06	3157
870.19	3370
870.32	3310
870.45	3294
870.58	3382
870.71	3477
870.84	3458
870.97	3340
871.1	3283
871.23	3534
871.36	3454
871.489	3359
871.619	3397
871.749	3458
871.879	3481
872.008	3496
872.138	3374
872.267	3317
872.397	3176
872.526	3154
872.656	3024
872.785	3112
872.915	3287
873.044	3363
873.173	3237
873.303	3279
873.432	3256
873.561	3264
873.69	3192
873.819	3154
873.948	3237
874.077	3142
874.206	3070
874.335	3104
874.464	3230
874.593	3359
874.722	3249
874.851	3428
874.979	3336
875.108	3370
875.237	3233
875.365	3154
875.494	3188
875.623	3264
875.751	3116
875.88	3127
876.008	3211
876.136	3245
876.265	3348
876.393	3568
876.521	3458
876.65	3386
876.778	3382
876.906	3291
877.034	3203
877.162	3268
877.29	3188
877.418	3302
877.546	3279
877.674	3279
877.802	3222
877.93	3275
878.058	3135
878.185	3085
878.313	3211
878.441	3272
878.568	3074
878.696	3184
878.824	3249
878.951	3325
879.079	3462
879.206	3629
879.333	3466
879.461	3363
879.588	3348
879.715	3488
879.842	3622
879.97	3409
880.097	3211
880.224	3127
880.351	3192
880.478	3260
880.605	3264
880.732	3233
880.859	3519
880.986	3329
881.112	3329
881.239	3222
881.366	3104
881.493	3066
881.619	3043
881.746	3119
881.872	3093
881.999	3116
882.125	3169
882.252	3275
882.378	3298
882.505	3466
882.631	3272
882.757	3199
882.883	3211
883.01	3218
883.136	3180
883.262	3161
883.388	3119
883.514	3355
883.64	3348
883.766	3332
883.892	3241
884.018	3283
884.143	3431
884.269	3572
884.395	3256
884.52	3180
884.646	3203
884.772	3135
884.897	3112
885.023	3275
885.148	3378
885.274	3447
885.399	3420
885.524	3283
885.65	3279
885.775	3317
885.9	3302
886.025	3424
886.15	3393
886.275	3306
886.4	3241
886.525	3298
886.65	3306
886.775	3306
886.9	3504
887.025	3603
887.149	3431
887.274	3249
887.399	3230
887.523	3253
887.648	3230
887.773	3211
887.897	3393
888.021	3420
888.146	3302
888.27	3435
888.395	3526
888.519	3454
888.643	3443
888.767	3504
888.891	3298
889.015	3260
889.139	3306
889.263	3302
889.387	3454
889.511	3500
889.635	3450
889.759	3310
889.883	3283
890.006	3405
890.13	3496
890.254	3268
890.377	3348
890.501	3233
890.624	3161
890.748	3348
890.871	3169
890.995	3142
891.118	3089
891.241	3199
891.364	3245
891.488	3332
891.611	3195
891.734	3233
891.857	3298
891.98	3253
892.103	3363
892.226	3294
892.349	3245
892.471	3131
892.594	3249
892.717	3287
892.839	3256
892.962	3287
893.085	3397
893.207	3317
893.33	3184
893.452	3237
893.575	3355
893.697	3291
893.819	3515
893.941	3526
894.064	3462
894.186	3279
894.308	3287
894.43	3431
894.552	3564
894.674	3496
894.796	3317
894.918	3313
895.04	3310
895.161	3477
895.283	3420
895.405	3321
895.526	3306
895.648	3428
895.769	3416
895.891	3443
896.012	3473
896.134	3488
896.255	3443
896.376	3389
896.498	3344
896.619	3469
896.74	3386
896.861	3397
896.982	3694
897.103	3888
897.224	3599
897.345	3523
897.466	3428
897.587	3511
897.708	3633
897.828	3564
897.949	3462
898.07	3340
898.19	3431
898.311	3610
898.431	3481
898.552	3526
898.672	3599
898.792	3591
898.913	3561
899.033	3458
899.153	3317
899.273	3222
899.393	3317
899.513	3351
899.633	3321
899.753	3340
899.873	3325
899.993	3378
900.113	3382
900.232	3393
900.352	3355
900.472	3313
900.591	3199
900.711	3306
900.83	3214
900.95	3454
901.069	3496
901.189	3359
901.308	3192
901.427	3135
901.546	3188
901.665	3302
901.784	3363
901.904	3253
902.023	3165
902.141	3028
902.26	3020
902.379	3165
902.498	3085
902.617	3058
902.735	3218
902.854	3283
902.973	3207
903.091	3066
903.21	3070
903.328	3157
903.446	3146
903.565	3135
903.683	3218
903.801	3154
903.919	3283
904.038	3291
904.156	3211
904.274	3310
904.392	3287
904.51	3340
904.627	3325
904.745	3450
904.863	3488
904.981	3275
905.098	3180
905.216	3260
905.334	3294
905.451	3340
905.569	3336
905.686	3428
905.803	3458
905.921	3302
906.038	3428
906.155	3348
906.272	3226
906.389	3332
906.506	3226
906.623	3264
906.74	3249
906.857	3233
906.974	3260
907.091	3439
907.208	3591
907.324	3500
907.441	3386
907.557	3230
907.674	3279
907.79	3230
907.907	3272
908.023	3374
908.139	3348
908.256	3340
908.372	3374
908.488	3405
908.604	3256
908.72	3256
908.836	3355
908.952	3310
909.068	3370
909.184	3504
909.3	3405
909.415	3557
909.531	3492
909.647	3268
909.762	3294
909.878	3245
909.993	3344
910.108	3329
910.224	3344
910.339	3443
910.454	3348
910.57	3306
910.685	3222
910.8	3618
910.915	3564
911.03	3431
911.145	3279
911.259	3268
911.374	3363
911.489	3291
911.604	3226
911.718	3119
911.833	3150
911.947	3039
912.062	2990
912.176	3146
912.291	3237
912.405	3230
912.519	3443
912.633	3473
912.748	3340
912.862	3321
912.976	3138
913.09	3093
913.204	3161
913.318	3214
913.431	3336
913.545	3325
913.659	3450
913.772	3374
913.886	3176
914	3256
914.113	3332
914.226	3450
914.34	3386
914.453	3264
914.566	3367
914.68	3313
914.793	3306
914.906	3173
915.019	3108
915.132	3108
915.245	3184
915.358	3214
915.47	3275
915.583	3283
915.696	3291
915.809	3416
915.921	3401
916.034	3283
916.146	3268
916.259	3222
916.371	3389
916.483	3348
916.595	3287
916.708	3370
916.82	3329
916.932	3344
917.044	3389
917.156	3340
917.268	3222
917.38	3332
917.491	3302
917.603	3382
917.715	3431
917.826	3507
917.938	3389
918.049	3275
918.161	3481
918.272	3561
918.384	3564
918.495	3462
918.606	3336
918.717	3275
918.828	3401
918.939	3397
919.05	3329
919.161	3370
919.272	3195
919.383	3294
919.494	3469
919.604	3663
919.715	3481
919.826	3420
919.936	3447
920.047	3595
920.157	3538
920.267	3762
920.378	3641
920.488	3549
920.598	3800
920.708	3979
920.818	3797
920.928	3846
921.038	4013
921.148	3998
921.258	3717
921.368	3633
921.477	3530
921.587	3580
921.697	3530
921.806	3641
921.916	3515
922.025	3344
922.134	3359
922.244	3332
922.353	3447
922.462	3283
922.571	3199
922.68	3138
922.789	3055
922.898	3146
923.007	3085
923.116	3211
923.224	3218
923.333	3207
923.442	3131
923.55	3165
923.659	3192
923.767	3218
923.876	3138
923.984	3218
924.092	3077
924.201	3230
924.309	3218
924.417	3249
924.525	3165
924.633	3249
924.741	4181
924.849	3047
924.956	3245
925.064	3100
925.172	3085
925.279	3077
925.387	3199
925.494	3188
925.602	3374
925.709	3336
925.816	3222
925.924	3302
926.031	3428
926.138	3325
926.245	3329
926.352	3226
926.459	3428
926.566	3447
926.673	3329
926.779	3264
926.886	3211
926.993	3154
927.099	3089
927.206	3081
927.312	3116
927.419	3245
927.525	3218
927.631	3268
927.737	3146
927.843	3150
927.95	3032
928.056	3127
928.162	3157
928.267	3256
928.373	3842
928.479	3298
928.585	3074
928.69	3214
928.796	3264
928.901	3138
929.007	3062
929.112	3203
929.218	3184
929.323	3157
929.428	3165
929.533	3283
929.638	3135
929.743	3188
929.848	3268
929.953	3211
930.058	3131
930.163	2994
930.267	3074
930.372	3226
930.477	3036
930.581	3310
930.685	3165
930.79	3093
930.894	3131
930.998	3142
931.103	3302
931.207	2990
931.311	2933
931.415	2963
931.519	2773
931.623	2819
