Data from test_V78500241_74.txt Node
Date: Fri Mar 25 16:15:43 CST 2022
User: usil
Spectrometer: V785-0024
Trigger mode: 0
Integration Time (sec): 4.000000E-1
Scans to average: 1
Nonlinearity correction enabled: false
Boxcar width: 0
Storing dark spectrum: false
XAxis mode: Wavelengths
Number of Pixels in Spectrum: 1024
>>>>>Begin Spectral Data<<<<<
801.071	2929
801.214	2922
801.356	2864
801.499	2906
801.641	2929
801.783	2925
801.926	3097
802.068	2971
802.211	3009
802.353	3100
802.496	3013
802.638	3032
802.78	3097
802.923	3112
803.065	3058
803.208	2918
803.35	2925
803.492	2944
803.635	2967
803.777	2792
803.919	2876
804.061	3218
804.204	2975
804.346	2933
804.488	2861
804.63	3036
804.773	2902
804.915	2933
805.057	3131
805.199	2960
805.341	3017
805.483	3009
805.626	3058
805.768	2986
805.91	3131
806.052	3138
806.194	3043
806.336	3256
806.478	3055
806.62	3005
806.762	3036
806.904	3051
807.046	3188
807.188	3005
807.33	2960
807.472	3009
807.614	2952
807.756	3055
807.898	2967
808.04	2902
808.182	3024
808.324	2979
808.465	2902
808.607	2922
808.749	2815
808.891	2872
809.033	2986
809.174	2982
809.316	2906
809.458	2918
809.6	2762
809.741	2838
809.883	2773
810.025	2895
810.166	2842
810.308	2826
810.45	2887
810.591	2811
810.733	2785
810.875	2880
811.016	2838
811.158	2758
811.299	2826
811.441	2975
811.582	2933
811.724	2849
811.865	2834
812.007	2910
812.148	2922
812.29	2895
812.431	2929
812.573	2971
812.714	3013
812.855	3070
812.997	3070
813.138	3176
813.279	3036
813.421	2971
813.562	2998
813.703	2918
813.845	2956
813.986	2758
814.127	2769
814.268	2811
814.41	2849
814.551	2811
814.692	2910
814.833	2838
814.974	2902
815.115	2998
815.256	2880
815.397	2826
815.539	2944
815.68	2796
815.821	2800
815.962	2994
816.103	2971
816.244	2902
816.385	2880
816.526	2998
816.666	2922
816.807	2743
816.948	2929
817.089	2929
817.23	2922
817.371	2811
817.512	2804
817.653	2857
817.793	2868
817.934	2918
818.075	2979
818.216	3024
818.356	3039
818.497	2880
818.638	2804
818.778	2834
818.919	2819
819.06	2811
819.2	2914
819.341	2834
819.481	2804
819.622	2986
819.762	3119
819.903	3112
820.043	2979
820.184	2914
820.324	2914
820.465	3074
820.605	3005
820.746	3043
820.886	2914
821.026	3116
821.167	3233
821.307	3306
821.447	3294
821.588	3230
821.728	3264
821.868	3222
822.008	3142
822.149	3211
822.289	3237
822.429	3112
822.569	3135
822.709	3192
822.849	3066
822.99	3100
823.13	3165
823.27	3241
823.41	3169
823.55	3226
823.69	3199
823.83	3211
823.97	3131
824.11	3017
824.25	2986
824.389	3127
824.529	3146
824.669	3089
824.809	3157
824.949	3272
825.089	3264
825.228	3188
825.368	3020
825.508	2982
825.648	3001
825.787	3005
825.927	3070
826.067	3001
826.206	3001
826.346	3039
826.485	3104
826.625	3123
826.765	3279
826.904	3203
827.044	3001
827.183	2963
827.323	2918
827.462	2990
827.601	2963
827.741	2967
827.88	2975
828.02	2876
828.159	3036
828.298	3070
828.437	3154
828.577	3055
828.716	3260
828.855	3108
828.994	2929
829.134	2922
829.273	2963
829.412	2918
829.551	2823
829.69	2899
829.829	3017
829.968	3138
830.107	3055
830.246	3085
830.385	2929
830.524	2906
830.663	2838
830.802	2758
830.941	2689
831.08	2693
831.219	2788
831.357	2777
831.496	2982
831.635	2769
831.774	2678
831.913	2708
832.051	2560
832.19	2606
832.329	2720
832.467	2568
832.606	2488
832.744	2613
832.883	2629
833.022	2606
833.16	2640
833.299	2716
833.437	2686
833.576	2739
833.714	2739
833.852	2788
833.991	2777
834.129	2857
834.267	2819
834.406	2826
834.544	2899
834.682	2887
834.821	2899
834.959	3123
835.097	2944
835.235	3055
835.373	3024
835.511	3051
835.65	2990
835.788	2994
835.926	2861
836.064	2842
836.202	2906
836.34	3157
836.478	3142
836.615	3070
836.753	3161
836.891	3245
837.029	3195
837.167	3180
837.305	3058
837.443	3051
837.58	3001
837.718	3192
837.856	3066
837.993	3051
838.131	3119
838.269	3146
838.406	3116
838.544	3097
838.681	2929
838.819	2952
838.956	2849
839.094	2845
839.231	2929
839.369	3039
839.506	3401
839.643	3226
839.781	3058
839.918	2975
840.055	3104
840.193	3066
840.33	3089
840.467	3112
840.604	3135
840.742	3412
840.879	3089
841.016	3089
841.153	3192
841.29	3351
841.427	3317
841.564	3302
841.701	3321
841.838	3268
841.975	3211
842.112	3256
842.249	3077
842.385	3108
842.522	3260
842.659	3142
842.796	3081
842.933	3116
843.069	3089
843.206	3081
843.343	3203
843.479	3123
843.616	3173
843.752	2948
843.889	2910
844.025	3093
844.162	2849
844.298	3112
844.435	2979
844.571	2956
844.708	3070
844.844	3222
844.98	3226
845.117	3230
845.253	3070
845.389	3020
845.525	3127
845.661	3119
845.798	3024
845.934	3150
846.07	3089
846.206	3237
846.342	3329
846.478	3272
846.614	3100
846.75	3077
846.886	3062
847.022	3256
847.158	3173
847.294	3218
847.429	3275
847.565	3268
847.701	3515
847.837	3039
847.972	3062
848.108	3203
848.244	3184
848.379	3028
848.515	2994
848.65	2960
848.786	2982
848.921	3024
849.057	3123
849.192	3207
849.328	3081
849.463	3146
849.598	3081
849.734	3077
849.869	3017
850.004	2963
850.14	2990
850.275	2944
850.41	2876
850.545	2891
850.68	2982
850.815	2986
850.95	2982
851.085	3222
851.22	3131
851.355	3058
851.49	3009
851.625	3039
851.76	3013
851.895	2952
852.03	2925
852.165	3036
852.299	3154
852.434	3245
852.569	3180
852.703	3169
852.838	3272
852.973	3382
853.107	3359
853.242	3214
853.376	3127
853.511	3020
853.645	3085
853.78	3279
853.914	3165
854.048	3169
854.183	3135
854.317	3184
854.451	3298
854.585	3161
854.72	3089
854.854	3279
854.988	3093
855.122	3127
855.256	3020
855.39	3127
855.524	3260
855.658	3226
855.792	3157
855.926	3203
856.06	3279
856.194	3306
856.327	3176
856.461	3104
856.595	3119
856.729	3116
856.862	3291
856.996	3218
857.13	3211
857.263	3249
857.397	3268
857.53	3150
857.664	3195
857.797	3268
857.931	3321
858.064	3203
858.197	3245
858.331	3138
858.464	3138
858.597	3028
858.731	3116
858.864	3138
858.997	3116
859.13	3180
859.263	3230
859.396	3226
859.529	3093
859.662	3093
859.795	3074
859.928	3184
860.061	3283
860.194	3302
860.327	3165
860.46	3100
860.592	3279
860.725	3275
860.858	3317
860.99	3138
861.123	3081
861.256	3077
861.388	3169
861.521	3751
861.653	3024
861.786	3020
861.918	3028
862.05	3089
862.183	3138
862.315	3188
862.447	3233
862.58	3127
862.712	2975
862.844	2864
862.976	3024
863.108	3024
863.24	3306
863.372	2895
863.504	2963
863.636	2979
863.768	3024
863.9	2986
864.032	2944
864.164	2967
864.296	3055
864.428	3093
864.559	3093
864.691	3123
864.823	3074
864.954	3043
865.086	3097
865.217	3013
865.349	2979
865.48	3009
865.612	3077
865.743	3176
865.875	3020
866.006	2982
866.137	3032
866.269	2952
866.4	2963
866.531	2960
866.662	2956
866.793	2933
866.924	2929
867.055	2971
867.186	2948
867.317	2906
867.448	2876
867.579	2864
867.71	2887
867.841	2864
867.972	2925
868.103	2971
868.233	2937
868.364	2887
868.495	2910
868.625	3123
868.756	3176
868.886	2994
869.017	3028
869.147	3218
869.278	3192
869.408	3081
869.539	3028
869.669	3100
869.799	3112
869.929	3123
870.06	3116
870.19	3363
870.32	3294
870.45	3332
870.58	3397
870.71	3458
870.84	3481
870.97	3336
871.1	3275
871.23	3523
871.36	3507
871.489	3405
871.619	3443
871.749	3405
871.879	3443
872.008	3515
872.138	3409
872.267	3340
872.397	3195
872.526	3116
872.656	3028
872.785	3100
872.915	3291
873.044	3332
873.173	3264
873.303	3306
873.432	3291
873.561	3241
873.69	3173
873.819	3176
873.948	3218
874.077	3157
874.206	3051
874.335	3108
874.464	3264
874.593	3409
874.722	3325
874.851	3409
874.979	3397
875.108	3306
875.237	3253
875.365	3222
875.494	3184
875.623	3313
875.751	3066
875.88	3150
876.008	3218
876.136	3275
876.265	3416
876.393	3523
876.521	3466
876.65	3409
876.778	3370
876.906	3241
877.034	3245
877.162	3256
877.29	3222
877.418	3310
877.546	3249
877.674	3245
877.802	3245
877.93	3218
878.058	3161
878.185	3146
878.313	3256
878.441	3230
878.568	3066
878.696	3154
878.824	3283
878.951	3287
879.079	3485
879.206	3671
879.333	3485
879.461	3386
879.588	3370
879.715	3519
879.842	3595
879.97	3397
880.097	3173
880.224	3161
880.351	3211
880.478	3260
880.605	3211
880.732	3203
880.859	3519
880.986	3370
881.112	3359
881.239	3230
881.366	3089
881.493	3028
881.619	3028
881.746	3108
881.872	3142
881.999	3104
882.125	3161
882.252	3260
882.378	3294
882.505	3469
882.631	3317
882.757	3199
882.883	3249
883.01	3253
883.136	3161
883.262	3100
883.388	3146
883.514	3332
883.64	3447
883.766	3275
883.892	3214
884.018	3272
884.143	3496
884.269	3561
884.395	3211
884.52	3195
884.646	3207
884.772	3184
884.897	3146
885.023	3253
885.148	3378
885.274	3420
885.399	3363
885.524	3317
885.65	3294
885.775	3367
885.9	3325
886.025	3477
886.15	3420
886.275	3344
886.4	3287
886.525	3332
886.65	3302
886.775	3340
886.9	3500
887.025	3686
887.149	3454
887.274	3233
887.399	3222
887.523	3226
887.648	3192
887.773	3192
887.897	3397
888.021	3439
888.146	3302
888.27	3469
888.395	3618
888.519	3443
888.643	3450
888.767	3496
888.891	3336
889.015	3268
889.139	3302
889.263	3268
889.387	3443
889.511	3587
889.635	3488
889.759	3363
889.883	3336
890.006	3389
890.13	3492
890.254	3348
890.377	3389
890.501	3176
890.624	3195
890.748	3359
890.871	3192
890.995	3142
891.118	3093
891.241	3195
891.364	3264
891.488	3367
891.611	3230
891.734	3279
891.857	3332
891.98	3272
892.103	3348
892.226	3348
892.349	3268
892.471	3169
892.594	3256
892.717	3359
892.839	3313
892.962	3348
893.085	3409
893.207	3283
893.33	3161
893.452	3226
893.575	3393
893.697	3260
893.819	3496
893.941	3488
894.064	3511
894.186	3302
894.308	3310
894.43	3488
894.552	3568
894.674	3485
894.796	3268
894.918	3355
895.04	3317
895.161	3458
895.283	3447
895.405	3370
895.526	3393
895.648	3473
895.769	3473
895.891	3454
896.012	3496
896.134	3466
896.255	3431
896.376	3409
896.498	3424
896.619	3401
896.74	3405
896.861	3424
896.982	3709
897.103	3880
897.224	3644
897.345	3553
897.466	3511
897.587	3584
897.708	3671
897.828	3633
897.949	3473
898.07	3359
898.19	3401
898.311	3610
898.431	3462
898.552	3568
898.672	3603
898.792	3671
898.913	3534
899.033	3466
899.153	3306
899.273	3275
899.393	3306
899.513	3351
899.633	3348
899.753	3401
899.873	3355
899.993	3405
900.113	3386
900.232	3458
900.352	3389
900.472	3313
900.591	3169
900.711	3321
900.83	3302
900.95	3447
901.069	3542
901.189	3374
901.308	3222
901.427	3161
901.546	3230
901.665	3283
901.784	3386
901.904	3249
902.023	3188
902.141	3028
902.26	3009
902.379	3188
902.498	3146
902.617	3085
902.735	3222
902.854	3275
902.973	3226
903.091	3085
903.21	3100
903.328	3142
903.446	3154
903.565	3131
903.683	3241
903.801	3150
903.919	3272
904.038	3291
904.156	3176
904.274	3348
904.392	3268
904.51	3317
904.627	3351
904.745	3515
904.863	3504
904.981	3298
905.098	3218
905.216	3272
905.334	3336
905.451	3332
905.569	3321
905.686	3397
905.803	3477
905.921	3325
906.038	3466
906.155	3355
906.272	3291
906.389	3374
906.506	3291
906.623	3291
906.74	3298
906.857	3218
906.974	3298
907.091	3515
907.208	3637
907.324	3515
907.441	3405
907.557	3245
907.674	3230
907.79	3237
907.907	3291
908.023	3420
908.139	3435
908.256	3367
908.372	3424
908.488	3401
908.604	3287
908.72	3264
908.836	3329
908.952	3291
909.068	3336
909.184	3477
909.3	3424
909.415	3549
909.531	3538
909.647	3336
909.762	3344
909.878	3291
909.993	3393
910.108	3344
910.224	3363
910.339	3439
910.454	3389
910.57	3329
910.685	3298
910.8	3641
910.915	3576
911.03	3488
911.145	3310
911.259	3313
911.374	3370
911.489	3298
911.604	3253
911.718	3138
911.833	3169
911.947	3077
912.062	3020
912.176	3165
912.291	3245
912.405	3253
912.519	3424
912.633	3523
912.748	3351
912.862	3317
912.976	3211
913.09	3074
913.204	3184
913.318	3230
913.431	3378
913.545	3367
913.659	3424
913.772	3355
913.886	3233
914	3275
914.113	3405
914.226	3462
914.34	3386
914.453	3260
914.566	3454
914.68	3317
914.793	3351
914.906	3203
915.019	3180
915.132	3150
915.245	3226
915.358	3222
915.47	3256
915.583	3272
915.696	3336
915.809	3462
915.921	3435
916.034	3317
916.146	3291
916.259	3241
916.371	3431
916.483	3389
916.595	3298
916.708	3370
916.82	3332
916.932	3348
917.044	3355
917.156	3412
917.268	3279
917.38	3313
917.491	3344
917.603	3431
917.715	3450
917.826	3500
917.938	3405
918.049	3275
918.161	3473
918.272	3625
918.384	3580
918.495	3542
918.606	3370
918.717	3306
918.828	3389
918.939	3428
919.05	3344
919.161	3412
919.272	3195
919.383	3317
919.494	3473
919.604	3728
919.715	3545
919.826	3439
919.936	3473
920.047	3648
920.157	3622
920.267	3823
920.378	3682
920.488	3587
920.598	3770
920.708	3991
920.818	3823
920.928	3861
921.038	4074
921.148	4021
921.258	3762
921.368	3675
921.477	3629
921.587	3564
921.697	3492
921.806	3660
921.916	3534
922.025	3393
922.134	3374
922.244	3382
922.353	3447
922.462	3306
922.571	3253
922.68	3150
922.789	3116
922.898	3150
923.007	3138
923.116	3203
923.224	3195
923.333	3253
923.442	3116
923.55	3116
923.659	3157
923.767	3253
923.876	3165
923.984	3275
924.092	3119
924.201	3207
924.309	3291
924.417	3272
924.525	3218
924.633	3256
924.741	4242
924.849	3081
924.956	3287
925.064	3123
925.172	3036
925.279	3127
925.387	3237
925.494	3233
925.602	3374
925.709	3344
925.816	3218
925.924	3332
926.031	3389
926.138	3393
926.245	3378
926.352	3237
926.459	3431
926.566	3492
926.673	3325
926.779	3256
926.886	3306
926.993	3176
927.099	3169
927.206	3123
927.312	3165
927.419	3207
927.525	3253
927.631	3340
927.737	3176
927.843	3146
927.95	3070
928.056	3173
928.162	3199
928.267	3272
928.373	3800
928.479	3370
928.585	3127
928.69	3291
928.796	3298
928.901	3157
929.007	3066
929.112	3203
929.218	3222
929.323	3173
929.428	3180
929.533	3340
929.638	3173
929.743	3188
929.848	3344
929.953	3253
930.058	3161
930.163	3062
930.267	3058
930.372	3241
930.477	3051
930.581	3336
930.685	3195
930.79	3089
930.894	3150
930.998	3119
931.103	3332
931.207	2956
931.311	2975
931.415	2922
931.519	2788
931.623	2838
