Data from test_V78500241_1414.txt Node
Date: Fri Mar 25 16:24:59 CST 2022
User: usil
Spectrometer: V785-0024
Trigger mode: 0
Integration Time (sec): 4.000000E-1
Scans to average: 1
Nonlinearity correction enabled: false
Boxcar width: 0
Storing dark spectrum: false
XAxis mode: Wavelengths
Number of Pixels in Spectrum: 1024
>>>>>Begin Spectral Data<<<<<
801.071	2990
801.214	2982
801.356	2910
801.499	2937
801.641	2941
801.783	2960
801.926	3116
802.068	2994
802.211	3036
802.353	3058
802.496	3024
802.638	3055
802.78	3089
802.923	3097
803.065	3039
803.208	2937
803.35	2952
803.492	2948
803.635	2933
803.777	2777
803.919	2944
804.061	3211
804.204	2963
804.346	2952
804.488	2857
804.63	3017
804.773	2922
804.915	2948
805.057	3154
805.199	2952
805.341	3009
805.483	3058
805.626	3020
805.768	2998
805.91	3093
806.052	3100
806.194	3039
806.336	3256
806.478	3047
806.62	2975
806.762	2994
806.904	3089
807.046	3169
807.188	3013
807.33	2918
807.472	2994
807.614	2925
807.756	3032
807.898	2944
808.04	2887
808.182	3024
808.324	3001
808.465	2922
808.607	2925
808.749	2826
808.891	2861
809.033	3017
809.174	2982
809.316	2914
809.458	2922
809.6	2807
809.741	2796
809.883	2777
810.025	2872
810.166	2906
810.308	2872
810.45	2868
810.591	2826
810.733	2815
810.875	2842
811.016	2785
811.158	2754
811.299	2838
811.441	2914
811.582	2906
811.724	2838
811.865	2830
812.007	2891
812.148	2914
812.29	2880
812.431	2895
812.573	2952
812.714	3001
812.855	3032
812.997	3093
813.138	3142
813.279	3039
813.421	3020
813.562	2975
813.703	2868
813.845	2922
813.986	2800
814.127	2746
814.268	2849
814.41	2845
814.551	2849
814.692	2895
814.833	2796
814.974	2960
815.115	2975
815.256	2868
815.397	2849
815.539	2861
815.68	2754
815.821	2819
815.962	2937
816.103	2925
816.244	2910
816.385	2857
816.526	2979
816.666	2933
816.807	2758
816.948	2914
817.089	2956
817.23	2842
817.371	2800
817.512	2819
817.653	2872
817.793	2830
817.934	2895
818.075	2986
818.216	2975
818.356	3032
818.497	2887
818.638	2826
818.778	2842
818.919	2826
819.06	2796
819.2	2883
819.341	2826
819.481	2834
819.622	2982
819.762	3127
819.903	3036
820.043	2910
820.184	2933
820.324	2902
820.465	3055
820.605	3051
820.746	3066
820.886	2937
821.026	3131
821.167	3165
821.307	3253
821.447	3291
821.588	3256
821.728	3199
821.868	3218
822.008	3123
822.149	3211
822.289	3253
822.429	3058
822.569	3131
822.709	3207
822.849	3074
822.99	3074
823.13	3161
823.27	3222
823.41	3100
823.55	3123
823.69	3173
823.83	3211
823.97	3097
824.11	3013
824.25	3009
824.389	3093
824.529	3127
824.669	3104
824.809	3207
824.949	3264
825.089	3211
825.228	3157
825.368	3047
825.508	3001
825.648	2990
825.787	3028
825.927	3051
826.067	3039
826.206	2963
826.346	3058
826.485	3077
826.625	3135
826.765	3294
826.904	3230
827.044	3005
827.183	2994
827.323	2891
827.462	3013
827.601	2944
827.741	2948
827.88	2952
828.02	2883
828.159	2975
828.298	3066
828.437	3135
828.577	3051
828.716	3241
828.855	3119
828.994	2891
829.134	2910
829.273	2895
829.412	2887
829.551	2861
829.69	2899
829.829	3009
829.968	3142
830.107	3001
830.246	3074
830.385	2925
830.524	2895
830.663	2845
830.802	2708
830.941	2674
831.08	2674
831.219	2800
831.357	2777
831.496	2941
831.635	2716
831.774	2663
831.913	2697
832.051	2587
832.19	2564
832.329	2674
832.467	2568
832.606	2492
832.744	2587
832.883	2602
833.022	2602
833.16	2686
833.299	2705
833.437	2693
833.576	2705
833.714	2712
833.852	2746
833.991	2788
834.129	2834
834.267	2868
834.406	2830
834.544	2887
834.682	2891
834.821	2899
834.959	3062
835.097	2937
835.235	3070
835.373	3028
835.511	2994
835.65	2952
835.788	2967
835.926	2857
836.064	2845
836.202	2887
836.34	3138
836.478	3176
836.615	3066
836.753	3116
836.891	3249
837.029	3173
837.167	3093
837.305	3062
837.443	3051
837.58	2960
837.718	3157
837.856	3100
837.993	3036
838.131	3142
838.269	3104
838.406	3070
838.544	3097
838.681	2929
838.819	2944
838.956	2845
839.094	2849
839.231	2933
839.369	3032
839.506	3329
839.643	3184
839.781	3028
839.918	2971
840.055	3081
840.193	3066
840.33	3058
840.467	3097
840.604	3161
840.742	3397
840.879	3066
841.016	3017
841.153	3138
841.29	3378
841.427	3302
841.564	3279
841.701	3344
841.838	3218
841.975	3188
842.112	3222
842.249	3093
842.385	3043
842.522	3275
842.659	3085
842.796	3108
842.933	3112
843.069	3070
843.206	3062
843.343	3176
843.479	3131
843.616	3184
843.752	2910
843.889	2899
844.025	3097
844.162	2891
844.298	3055
844.435	2944
844.571	2910
844.708	3039
844.844	3222
844.98	3294
845.117	3203
845.253	3017
845.389	3020
845.525	3123
845.661	3058
845.798	2994
845.934	3100
846.07	3039
846.206	3184
846.342	3321
846.478	3230
846.614	3074
846.75	3051
846.886	3047
847.022	3245
847.158	3097
847.294	3207
847.429	3253
847.565	3192
847.701	3515
847.837	3005
847.972	3017
848.108	3195
848.244	3157
848.379	3024
848.515	2929
848.65	2933
848.786	2986
848.921	3043
849.057	3093
849.192	3138
849.328	3062
849.463	3097
849.598	3081
849.734	3062
849.869	2986
850.004	2925
850.14	2971
850.275	2929
850.41	2845
850.545	2895
850.68	2929
850.815	2975
850.95	2979
851.085	3199
851.22	3089
851.355	3097
851.49	3013
851.625	3024
851.76	3009
851.895	2948
852.03	2906
852.165	3024
852.299	3081
852.434	3184
852.569	3165
852.703	3192
852.838	3237
852.973	3363
853.107	3325
853.242	3150
853.376	3104
853.511	2960
853.645	3032
853.78	3214
853.914	3165
854.048	3104
854.183	3089
854.317	3154
854.451	3298
854.585	3108
854.72	3081
854.854	3222
854.988	3058
855.122	3093
855.256	3013
855.39	3135
855.524	3233
855.658	3188
855.792	3192
855.926	3161
856.06	3207
856.194	3260
856.327	3161
856.461	3070
856.595	3066
856.729	3081
856.862	3237
856.996	3138
857.13	3233
857.263	3230
857.397	3275
857.53	3127
857.664	3188
857.797	3237
857.931	3222
858.064	3142
858.197	3268
858.331	3150
858.464	3119
858.597	2986
858.731	3150
858.864	3173
858.997	3100
859.13	3150
859.263	3207
859.396	3188
859.529	3077
859.662	3074
859.795	3043
859.928	3142
860.061	3287
860.194	3283
860.327	3146
860.46	3123
860.592	3226
860.725	3218
860.858	3245
860.99	3146
861.123	3051
861.256	3047
861.388	3150
861.521	3713
861.653	3013
861.786	3005
861.918	2994
862.05	3020
862.183	3127
862.315	3161
862.447	3188
862.58	3093
862.712	2963
862.844	2861
862.976	3024
863.108	3005
863.24	3306
863.372	2891
863.504	2971
863.636	2952
863.768	3017
863.9	2982
864.032	2895
864.164	2952
864.296	3028
864.428	3081
864.559	3108
864.691	3081
864.823	3039
864.954	3024
865.086	3039
865.217	2990
865.349	2922
865.48	2975
865.612	3039
865.743	3138
865.875	2986
866.006	2925
866.137	2967
866.269	2925
866.4	2960
866.531	2891
866.662	2902
866.793	2914
866.924	2899
867.055	2963
867.186	2914
867.317	2880
867.448	2853
867.579	2868
867.71	2834
867.841	2769
867.972	2922
868.103	2910
868.233	2883
868.364	2876
868.495	2918
868.625	3108
868.756	3157
868.886	2960
869.017	3020
869.147	3180
869.278	3192
869.408	3070
869.539	3039
869.669	3085
869.799	3024
869.929	3146
870.06	3112
870.19	3317
870.32	3245
870.45	3287
870.58	3355
870.71	3409
870.84	3477
870.97	3306
871.1	3245
871.23	3458
871.36	3473
871.489	3336
871.619	3397
871.749	3431
871.879	3458
872.008	3469
872.138	3332
872.267	3275
872.397	3150
872.526	3127
872.656	2986
872.785	3108
872.915	3241
873.044	3336
873.173	3165
873.303	3214
873.432	3283
873.561	3233
873.69	3154
873.819	3116
873.948	3199
874.077	3093
874.206	3028
874.335	3077
874.464	3222
874.593	3374
874.722	3230
874.851	3397
874.979	3298
875.108	3332
875.237	3146
875.365	3138
875.494	3180
875.623	3253
875.751	3123
875.88	3100
876.008	3233
876.136	3230
876.265	3382
876.393	3515
876.521	3405
876.65	3389
876.778	3321
876.906	3241
877.034	3211
877.162	3222
877.29	3161
877.418	3249
877.546	3222
877.674	3230
877.802	3237
877.93	3237
878.058	3180
878.185	3131
878.313	3199
878.441	3184
878.568	3074
878.696	3146
878.824	3272
878.951	3302
879.079	3473
879.206	3610
879.333	3374
879.461	3298
879.588	3332
879.715	3496
879.842	3595
879.97	3367
880.097	3157
880.224	3150
880.351	3218
880.478	3188
880.605	3154
880.732	3154
880.859	3504
880.986	3329
881.112	3313
881.239	3165
881.366	3055
881.493	3036
881.619	3036
881.746	3062
881.872	3127
881.999	3074
882.125	3146
882.252	3199
882.378	3329
882.505	3424
882.631	3313
882.757	3116
882.883	3218
883.01	3249
883.136	3154
883.262	3135
883.388	3131
883.514	3329
883.64	3359
883.766	3283
883.892	3192
884.018	3245
884.143	3378
884.269	3545
884.395	3218
884.52	3150
884.646	3207
884.772	3123
884.897	3116
885.023	3161
885.148	3325
885.274	3428
885.399	3382
885.524	3260
885.65	3268
885.775	3298
885.9	3275
886.025	3412
886.15	3351
886.275	3283
886.4	3233
886.525	3310
886.65	3260
886.775	3283
886.9	3477
887.025	3633
887.149	3409
887.274	3241
887.399	3131
887.523	3211
887.648	3176
887.773	3192
887.897	3374
888.021	3416
888.146	3283
888.27	3409
888.395	3553
888.519	3428
888.643	3447
888.767	3416
888.891	3336
889.015	3245
889.139	3310
889.263	3241
889.387	3428
889.511	3496
889.635	3435
889.759	3272
889.883	3294
890.006	3378
890.13	3462
890.254	3275
890.377	3317
890.501	3188
890.624	3211
890.748	3302
890.871	3161
890.995	3131
891.118	3055
891.241	3214
891.364	3184
891.488	3332
891.611	3188
891.734	3222
891.857	3272
891.98	3249
892.103	3310
892.226	3230
892.349	3222
892.471	3074
892.594	3245
892.717	3260
892.839	3253
892.962	3294
893.085	3363
893.207	3325
893.33	3123
893.452	3188
893.575	3306
893.697	3222
893.819	3469
893.941	3485
894.064	3431
894.186	3275
894.308	3256
894.43	3428
894.552	3519
894.674	3454
894.796	3272
894.918	3321
895.04	3279
895.161	3405
895.283	3397
895.405	3298
895.526	3367
895.648	3416
895.769	3409
895.891	3469
896.012	3462
896.134	3454
896.255	3431
896.376	3397
896.498	3382
896.619	3386
896.74	3370
896.861	3412
896.982	3637
897.103	3816
897.224	3564
897.345	3507
897.466	3458
897.587	3492
897.708	3553
897.828	3519
897.949	3450
898.07	3367
898.19	3401
898.311	3587
898.431	3458
898.552	3458
898.672	3591
898.792	3584
898.913	3530
899.033	3382
899.153	3260
899.273	3203
899.393	3260
899.513	3313
899.633	3306
899.753	3310
899.873	3329
899.993	3348
900.113	3336
900.232	3344
900.352	3340
900.472	3275
900.591	3192
900.711	3298
900.83	3237
900.95	3431
901.069	3466
901.189	3336
901.308	3188
901.427	3108
901.546	3176
901.665	3279
901.784	3336
901.904	3184
902.023	3142
902.141	3051
902.26	2971
902.379	3154
902.498	3039
902.617	3070
902.735	3222
902.854	3230
902.973	3169
903.091	3081
903.21	3066
903.328	3116
903.446	3119
903.565	3081
903.683	3230
903.801	3123
903.919	3275
904.038	3260
904.156	3199
904.274	3275
904.392	3272
904.51	3264
904.627	3298
904.745	3367
904.863	3500
904.981	3233
905.098	3169
905.216	3245
905.334	3287
905.451	3279
905.569	3317
905.686	3450
905.803	3450
905.921	3306
906.038	3431
906.155	3359
906.272	3237
906.389	3344
906.506	3226
906.623	3249
906.74	3264
906.857	3192
906.974	3256
907.091	3420
907.208	3526
907.324	3443
907.441	3389
907.557	3245
907.674	3214
907.79	3176
907.907	3287
908.023	3382
908.139	3378
908.256	3363
908.372	3306
908.488	3336
908.604	3256
908.72	3226
908.836	3260
908.952	3310
909.068	3329
909.184	3447
909.3	3389
909.415	3450
909.531	3477
909.647	3310
909.762	3241
909.878	3256
909.993	3336
910.108	3367
910.224	3340
910.339	3435
910.454	3340
910.57	3306
910.685	3230
910.8	3587
910.915	3523
911.03	3416
911.145	3264
911.259	3264
911.374	3348
911.489	3275
911.604	3211
911.718	3116
911.833	3192
911.947	2994
912.062	2998
912.176	3184
912.291	3203
912.405	3188
912.519	3443
912.633	3397
912.748	3317
912.862	3279
912.976	3161
913.09	3070
913.204	3123
913.318	3199
913.431	3294
913.545	3336
913.659	3428
913.772	3294
913.886	3230
914	3188
914.113	3351
914.226	3405
914.34	3355
914.453	3199
914.566	3397
914.68	3294
914.793	3329
914.906	3173
915.019	3142
915.132	3093
915.245	3184
915.358	3199
915.47	3226
915.583	3241
915.696	3287
915.809	3431
915.921	3397
916.034	3218
916.146	3306
916.259	3214
916.371	3397
916.483	3348
916.595	3249
916.708	3336
916.82	3355
916.932	3340
917.044	3325
917.156	3382
917.268	3268
917.38	3268
917.491	3253
917.603	3351
917.715	3454
917.826	3485
917.938	3397
918.049	3275
918.161	3428
918.272	3561
918.384	3610
918.495	3500
918.606	3348
918.717	3272
918.828	3367
918.939	3374
919.05	3302
919.161	3412
919.272	3154
919.383	3287
919.494	3450
919.604	3694
919.715	3542
919.826	3401
919.936	3447
920.047	3606
920.157	3545
920.267	3774
920.378	3606
920.488	3564
920.598	3785
920.708	3953
920.818	3842
920.928	3850
921.038	4021
921.148	4048
921.258	3717
921.368	3614
921.477	3591
921.587	3576
921.697	3485
921.806	3633
921.916	3515
922.025	3351
922.134	3359
922.244	3317
922.353	3428
922.462	3264
922.571	3230
922.68	3116
922.789	3097
922.898	3157
923.007	3077
923.116	3222
923.224	3135
923.333	3188
923.442	3104
923.55	3100
923.659	3142
923.767	3176
923.876	3131
923.984	3256
924.092	3097
924.201	3237
924.309	3142
924.417	3222
924.525	3165
924.633	3218
924.741	4192
924.849	3055
924.956	3230
925.064	3104
925.172	3047
925.279	3062
925.387	3146
925.494	3184
925.602	3370
925.709	3317
925.816	3203
925.924	3306
926.031	3359
926.138	3291
926.245	3321
926.352	3249
926.459	3401
926.566	3469
926.673	3332
926.779	3214
926.886	3249
926.993	3135
927.099	3142
927.206	3116
927.312	3116
927.419	3195
927.525	3165
927.631	3306
927.737	3146
927.843	3123
927.95	3028
928.056	3119
928.162	3150
928.267	3237
928.373	3857
928.479	3317
928.585	3070
928.69	3173
928.796	3275
928.901	3161
929.007	3020
929.112	3173
929.218	3161
929.323	3157
929.428	3123
929.533	3306
929.638	3108
929.743	3180
929.848	3230
929.953	3226
930.058	3146
930.163	3005
930.267	3043
930.372	3142
930.477	3043
930.581	3291
930.685	3226
930.79	3028
930.894	3077
930.998	3036
931.103	3260
931.207	2952
931.311	2910
931.415	2914
931.519	2754
931.623	2823
