Data from test_V78500241_819.txt Node
Date: Fri Mar 25 16:20:52 CST 2022
User: usil
Spectrometer: V785-0024
Trigger mode: 0
Integration Time (sec): 4.000000E-1
Scans to average: 1
Nonlinearity correction enabled: false
Boxcar width: 0
Storing dark spectrum: false
XAxis mode: Wavelengths
Number of Pixels in Spectrum: 1024
>>>>>Begin Spectral Data<<<<<
801.071	2960
801.214	2979
801.356	2933
801.499	2933
801.641	2906
801.783	2982
801.926	3093
802.068	2979
802.211	3013
802.353	3081
802.496	2967
802.638	3062
802.78	3093
802.923	3081
803.065	3028
803.208	2906
803.35	2944
803.492	2960
803.635	2956
803.777	2792
803.919	2906
804.061	3226
804.204	2941
804.346	2918
804.488	2895
804.63	3013
804.773	2899
804.915	2922
805.057	3104
805.199	2941
805.341	3020
805.483	3036
805.626	3024
805.768	2998
805.91	3123
806.052	3123
806.194	3028
806.336	3241
806.478	3028
806.62	2963
806.762	2994
806.904	3093
807.046	3199
807.188	2990
807.33	2925
807.472	3055
807.614	2941
807.756	3020
807.898	2948
808.04	2967
808.182	2971
808.324	2967
808.465	2899
808.607	2864
808.749	2769
808.891	2876
809.033	2979
809.174	2963
809.316	2922
809.458	2963
809.6	2781
809.741	2792
809.883	2746
810.025	2853
810.166	2861
810.308	2883
810.45	2883
810.591	2804
810.733	2777
810.875	2857
811.016	2788
811.158	2762
811.299	2811
811.441	2944
811.582	2914
811.724	2868
811.865	2823
812.007	2937
812.148	2861
812.29	2895
812.431	2910
812.573	2952
812.714	3013
812.855	3055
812.997	3081
813.138	3123
813.279	2990
813.421	2971
813.562	2990
813.703	2845
813.845	2922
813.986	2823
814.127	2754
814.268	2853
814.41	2883
814.551	2811
814.692	2902
814.833	2842
814.974	2887
815.115	2967
815.256	2849
815.397	2823
815.539	2834
815.68	2769
815.821	2838
815.962	2956
816.103	2963
816.244	2861
816.385	2883
816.526	2990
816.666	2925
816.807	2746
816.948	2895
817.089	2914
817.23	2880
817.371	2796
817.512	2826
817.653	2823
817.793	2853
817.934	2876
818.075	2994
818.216	3001
818.356	3013
818.497	2910
818.638	2800
818.778	2845
818.919	2853
819.06	2766
819.2	2864
819.341	2830
819.481	2792
819.622	2948
819.762	3100
819.903	3051
820.043	2948
820.184	2906
820.324	2925
820.465	3020
820.605	3039
820.746	3009
820.886	2937
821.026	3142
821.167	3146
821.307	3256
821.447	3291
821.588	3256
821.728	3226
821.868	3176
822.008	3074
822.149	3199
822.289	3233
822.429	3093
822.569	3123
822.709	3180
822.849	3036
822.99	3097
823.13	3169
823.27	3207
823.41	3131
823.55	3180
823.69	3173
823.83	3195
823.97	3123
824.11	3009
824.25	2986
824.389	3062
824.529	3100
824.669	3074
824.809	3184
824.949	3226
825.089	3264
825.228	3154
825.368	3036
825.508	2948
825.648	2963
825.787	3001
825.927	3020
826.067	2986
826.206	2967
826.346	3051
826.485	3089
826.625	3135
826.765	3264
826.904	3192
827.044	3001
827.183	2963
827.323	2872
827.462	2967
827.601	2922
827.741	2960
827.88	2956
828.02	2853
828.159	2967
828.298	3066
828.437	3093
828.577	3039
828.716	3241
828.855	3039
828.994	2933
829.134	2902
829.273	2933
829.412	2857
829.551	2842
829.69	2918
829.829	2986
829.968	3138
830.107	2979
830.246	3017
830.385	2914
830.524	2922
830.663	2838
830.802	2750
830.941	2663
831.08	2644
831.219	2758
831.357	2758
831.496	2952
831.635	2712
831.774	2640
831.913	2659
832.051	2560
832.19	2602
832.329	2678
832.467	2533
832.606	2488
832.744	2598
832.883	2583
833.022	2594
833.16	2670
833.299	2708
833.437	2712
833.576	2651
833.714	2697
833.852	2746
833.991	2773
834.129	2838
834.267	2838
834.406	2792
834.544	2891
834.682	2872
834.821	2872
834.959	3062
835.097	2891
835.235	3051
835.373	2990
835.511	3047
835.65	2975
835.788	2990
835.926	2876
836.064	2788
836.202	2842
836.34	3112
836.478	3165
836.615	3066
836.753	3142
836.891	3161
837.029	3161
837.167	3112
837.305	3104
837.443	3066
837.58	2979
837.718	3142
837.856	3070
837.993	3005
838.131	3135
838.269	3131
838.406	3116
838.544	3081
838.681	2941
838.819	2941
838.956	2819
839.094	2868
839.231	2906
839.369	3032
839.506	3397
839.643	3256
839.781	3039
839.918	2941
840.055	3043
840.193	3047
840.33	3074
840.467	3093
840.604	3135
840.742	3393
840.879	3058
841.016	3074
841.153	3142
841.29	3336
841.427	3294
841.564	3302
841.701	3256
841.838	3192
841.975	3203
842.112	3222
842.249	3100
842.385	3028
842.522	3294
842.659	3104
842.796	3077
842.933	3116
843.069	3062
843.206	3055
843.343	3218
843.479	3104
843.616	3127
843.752	2902
843.889	2861
844.025	3039
844.162	2861
844.298	3089
844.435	2918
844.571	2895
844.708	3051
844.844	3165
844.98	3241
845.117	3157
845.253	3039
845.389	3028
845.525	3123
845.661	3112
845.798	3017
845.934	3112
846.07	3119
846.206	3188
846.342	3310
846.478	3233
846.614	3077
846.75	3058
846.886	3009
847.022	3264
847.158	3138
847.294	3218
847.429	3268
847.565	3230
847.701	3488
847.837	3047
847.972	2990
848.108	3135
848.244	3142
848.379	3009
848.515	2925
848.65	2929
848.786	2975
848.921	3039
849.057	3150
849.192	3146
849.328	3047
849.463	3085
849.598	3051
849.734	3024
849.869	2956
850.004	2899
850.14	2967
850.275	2910
850.41	2823
850.545	2864
850.68	2944
850.815	2967
850.95	2956
851.085	3222
851.22	3135
851.355	3020
851.49	3024
851.625	2994
851.76	3009
851.895	2990
852.03	2956
852.165	3009
852.299	3108
852.434	3184
852.569	3146
852.703	3138
852.838	3264
852.973	3306
853.107	3310
853.242	3173
853.376	3100
853.511	2956
853.645	3077
853.78	3199
853.914	3100
854.048	3127
854.183	3055
854.317	3161
854.451	3321
854.585	3142
854.72	3085
854.854	3195
854.988	3043
855.122	3116
855.256	2975
855.39	3150
855.524	3249
855.658	3218
855.792	3138
855.926	3237
856.06	3195
856.194	3264
856.327	3173
856.461	3051
856.595	3062
856.729	3108
856.862	3199
856.996	3180
857.13	3199
857.263	3237
857.397	3313
857.53	3116
857.664	3207
857.797	3207
857.931	3249
858.064	3138
858.197	3211
858.331	3127
858.464	3104
858.597	3028
858.731	3127
858.864	3116
858.997	3089
859.13	3146
859.263	3180
859.396	3214
859.529	3077
859.662	3058
859.795	3055
859.928	3195
860.061	3272
860.194	3279
860.327	3138
860.46	3077
860.592	3195
860.725	3226
860.858	3253
860.99	3108
861.123	3074
861.256	3074
861.388	3131
861.521	3873
861.653	3024
861.786	2967
861.918	3028
862.05	3066
862.183	3116
862.315	3173
862.447	3211
862.58	3100
862.712	2937
862.844	2922
862.976	3017
863.108	2994
863.24	3329
863.372	2876
863.504	2967
863.636	2967
863.768	3036
863.9	2979
864.032	2910
864.164	2971
864.296	3036
864.428	3062
864.559	3100
864.691	3074
864.823	3058
864.954	3028
865.086	3077
865.217	2986
865.349	2998
865.48	2971
865.612	3028
865.743	3154
865.875	2956
866.006	2922
866.137	2982
866.269	2902
866.4	2910
866.531	2933
866.662	2929
866.793	2868
866.924	2902
867.055	2960
867.186	2922
867.317	2864
867.448	2815
867.579	2845
867.71	2845
867.841	2788
867.972	2937
868.103	2925
868.233	2902
868.364	2864
868.495	2910
868.625	3089
868.756	3165
868.886	2952
869.017	3020
869.147	3195
869.278	3165
869.408	3062
869.539	3058
869.669	3100
869.799	3036
869.929	3142
870.06	3119
870.19	3340
870.32	3313
870.45	3287
870.58	3378
870.71	3416
870.84	3466
870.97	3260
871.1	3245
871.23	3492
871.36	3485
871.489	3351
871.619	3389
871.749	3382
871.879	3416
872.008	3492
872.138	3367
872.267	3253
872.397	3142
872.526	3081
872.656	3009
872.785	3085
872.915	3218
873.044	3329
873.173	3226
873.303	3283
873.432	3233
873.561	3222
873.69	3157
873.819	3157
873.948	3188
874.077	3112
874.206	3039
874.335	3062
874.464	3233
874.593	3374
874.722	3233
874.851	3401
874.979	3359
875.108	3329
875.237	3222
875.365	3169
875.494	3150
875.623	3230
875.751	3074
875.88	3146
876.008	3146
876.136	3222
876.265	3363
876.393	3492
876.521	3416
876.65	3389
876.778	3325
876.906	3260
877.034	3173
877.162	3222
877.29	3154
877.418	3256
877.546	3291
877.674	3253
877.802	3230
877.93	3211
878.058	3119
878.185	3100
878.313	3226
878.441	3176
878.568	3070
878.696	3195
878.824	3245
878.951	3306
879.079	3435
879.206	3637
879.333	3439
879.461	3294
879.588	3313
879.715	3469
879.842	3610
879.97	3359
880.097	3165
880.224	3127
880.351	3180
880.478	3203
880.605	3165
880.732	3195
880.859	3473
880.986	3351
881.112	3302
881.239	3188
881.366	3093
881.493	3013
881.619	3024
881.746	3077
881.872	3089
881.999	3093
882.125	3135
882.252	3275
882.378	3310
882.505	3450
882.631	3275
882.757	3150
882.883	3176
883.01	3184
883.136	3146
883.262	3112
883.388	3138
883.514	3313
883.64	3382
883.766	3287
883.892	3222
884.018	3199
884.143	3409
884.269	3534
884.395	3203
884.52	3127
884.646	3207
884.772	3108
884.897	3100
885.023	3161
885.148	3332
885.274	3378
885.399	3355
885.524	3275
885.65	3283
885.775	3294
885.9	3249
886.025	3424
886.15	3393
886.275	3294
886.4	3214
886.525	3317
886.65	3256
886.775	3313
886.9	3485
887.025	3599
887.149	3424
887.274	3226
887.399	3161
887.523	3192
887.648	3237
887.773	3211
887.897	3317
888.021	3355
888.146	3291
888.27	3428
888.395	3496
888.519	3450
888.643	3447
888.767	3477
888.891	3306
889.015	3214
889.139	3272
889.263	3230
889.387	3382
889.511	3477
889.635	3450
889.759	3279
889.883	3294
890.006	3367
890.13	3466
890.254	3233
890.377	3344
890.501	3245
890.624	3184
890.748	3336
890.871	3184
890.995	3066
891.118	3089
891.241	3195
891.364	3207
891.488	3310
891.611	3154
891.734	3272
891.857	3268
891.98	3203
892.103	3317
892.226	3287
892.349	3211
892.471	3093
892.594	3230
892.717	3260
892.839	3256
892.962	3287
893.085	3393
893.207	3287
893.33	3169
893.452	3188
893.575	3302
893.697	3214
893.819	3466
893.941	3485
894.064	3466
894.186	3245
894.308	3256
894.43	3477
894.552	3545
894.674	3458
894.796	3241
894.918	3260
895.04	3291
895.161	3409
895.283	3397
895.405	3321
895.526	3367
895.648	3424
895.769	3435
895.891	3420
896.012	3481
896.134	3450
896.255	3428
896.376	3393
896.498	3321
896.619	3443
896.74	3386
896.861	3363
896.982	3682
897.103	3804
897.224	3625
897.345	3511
897.466	3424
897.587	3492
897.708	3644
897.828	3507
897.949	3405
898.07	3363
898.19	3386
898.311	3603
898.431	3435
898.552	3496
898.672	3584
898.792	3580
898.913	3530
899.033	3367
899.153	3279
899.273	3230
899.393	3287
899.513	3321
899.633	3332
899.753	3287
899.873	3291
899.993	3393
900.113	3332
900.232	3389
900.352	3313
900.472	3294
900.591	3211
900.711	3298
900.83	3237
900.95	3424
901.069	3500
901.189	3348
901.308	3176
901.427	3104
901.546	3192
901.665	3283
901.784	3302
901.904	3214
902.023	3157
902.141	3051
902.26	3020
902.379	3127
902.498	3085
902.617	3028
902.735	3203
902.854	3192
902.973	3195
903.091	3074
903.21	3074
903.328	3142
903.446	3077
903.565	3100
903.683	3203
903.801	3135
903.919	3298
904.038	3256
904.156	3154
904.274	3283
904.392	3211
904.51	3310
904.627	3344
904.745	3428
904.863	3519
904.981	3233
905.098	3195
905.216	3241
905.334	3306
905.451	3310
905.569	3287
905.686	3458
905.803	3443
905.921	3313
906.038	3405
906.155	3332
906.272	3287
906.389	3340
906.506	3241
906.623	3249
906.74	3249
906.857	3199
906.974	3298
907.091	3447
907.208	3564
907.324	3466
907.441	3386
907.557	3256
907.674	3230
907.79	3192
907.907	3241
908.023	3393
908.139	3397
908.256	3355
908.372	3409
908.488	3348
908.604	3256
908.72	3230
908.836	3264
908.952	3264
909.068	3317
909.184	3526
909.3	3393
909.415	3500
909.531	3477
909.647	3272
909.762	3272
909.878	3253
909.993	3355
910.108	3336
910.224	3313
910.339	3397
910.454	3336
910.57	3294
910.685	3249
910.8	3610
910.915	3500
911.03	3435
911.145	3275
911.259	3256
911.374	3291
911.489	3226
911.604	3253
911.718	3119
911.833	3123
911.947	2979
912.062	2960
912.176	3173
912.291	3192
912.405	3203
912.519	3428
912.633	3469
912.748	3310
912.862	3279
912.976	3138
913.09	3036
913.204	3116
913.318	3207
913.431	3374
913.545	3367
913.659	3321
913.772	3294
913.886	3214
914	3184
914.113	3393
914.226	3412
914.34	3363
914.453	3211
914.566	3393
914.68	3317
914.793	3332
914.906	3173
915.019	3135
915.132	3017
915.245	3184
915.358	3249
915.47	3249
915.583	3253
915.696	3283
915.809	3416
915.921	3443
916.034	3214
916.146	3260
916.259	3230
916.371	3401
916.483	3351
916.595	3310
916.708	3306
916.82	3329
916.932	3351
917.044	3340
917.156	3340
917.268	3264
917.38	3294
917.491	3294
917.603	3310
917.715	3420
917.826	3462
917.938	3359
918.049	3268
918.161	3458
918.272	3576
918.384	3603
918.495	3469
918.606	3325
918.717	3268
918.828	3348
918.939	3428
919.05	3313
919.161	3367
919.272	3211
919.383	3283
919.494	3530
919.604	3641
919.715	3462
919.826	3416
919.936	3469
920.047	3591
920.157	3523
920.267	3774
920.378	3648
920.488	3561
920.598	3797
920.708	3991
920.818	3827
920.928	3831
921.038	4010
921.148	3953
921.258	3736
921.368	3603
921.477	3622
921.587	3580
921.697	3481
921.806	3603
921.916	3473
922.025	3370
922.134	3344
922.244	3336
922.353	3443
922.462	3275
922.571	3192
922.68	3150
922.789	3097
922.898	3093
923.007	3112
923.116	3184
923.224	3195
923.333	3180
923.442	3123
923.55	3077
923.659	3131
923.767	3199
923.876	3070
923.984	3249
924.092	3161
924.201	3195
924.309	3207
924.417	3237
924.525	3165
924.633	3218
924.741	4196
924.849	3062
924.956	3321
925.064	3104
925.172	3020
925.279	3116
925.387	3195
925.494	3214
925.602	3355
925.709	3325
925.816	3195
925.924	3256
926.031	3359
926.138	3321
926.245	3336
926.352	3245
926.459	3382
926.566	3469
926.673	3340
926.779	3260
926.886	3237
926.993	3108
927.099	3116
927.206	3123
927.312	3104
927.419	3230
927.525	3192
927.631	3287
927.737	3112
927.843	3138
927.95	3047
928.056	3119
928.162	3157
928.267	3218
928.373	3709
928.479	3287
928.585	3058
928.69	3241
928.796	3302
928.901	3184
929.007	3081
929.112	3195
929.218	3150
929.323	3138
929.428	3161
929.533	3279
929.638	3119
929.743	3173
929.848	3241
929.953	3188
930.058	3146
930.163	2963
930.267	3043
930.372	3207
930.477	3043
930.581	3332
930.685	3199
930.79	3062
930.894	3104
930.998	3100
931.103	3294
931.207	2967
931.311	2952
931.415	2902
931.519	2762
931.623	2804
