Data from test_V78500241_506.txt Node
Date: Fri Mar 25 16:18:42 CST 2022
User: usil
Spectrometer: V785-0024
Trigger mode: 0
Integration Time (sec): 4.000000E-1
Scans to average: 1
Nonlinearity correction enabled: false
Boxcar width: 0
Storing dark spectrum: false
XAxis mode: Wavelengths
Number of Pixels in Spectrum: 1024
>>>>>Begin Spectral Data<<<<<
801.071	2944
801.214	2899
801.356	2872
801.499	2906
801.641	2880
801.783	2933
801.926	3058
802.068	2956
802.211	2967
802.353	3032
802.496	2941
802.638	3017
802.78	3009
802.923	3070
803.065	3020
803.208	2895
803.35	2902
803.492	2933
803.635	2933
803.777	2766
803.919	2872
804.061	3188
804.204	2922
804.346	2906
804.488	2864
804.63	2998
804.773	2857
804.915	2922
805.057	3043
805.199	2925
805.341	2952
805.483	2998
805.626	2975
805.768	2944
805.91	3074
806.052	3097
806.194	3055
806.336	3230
806.478	3001
806.62	2941
806.762	2956
806.904	3051
807.046	3142
807.188	2982
807.33	2887
807.472	2994
807.614	2918
807.756	2979
807.898	2929
808.04	2918
808.182	2998
808.324	2929
808.465	2883
808.607	2922
808.749	2830
808.891	2872
809.033	2925
809.174	2986
809.316	2899
809.458	2845
809.6	2773
809.741	2762
809.883	2724
810.025	2845
810.166	2895
810.308	2838
810.45	2872
810.591	2758
810.733	2766
810.875	2811
811.016	2762
811.158	2754
811.299	2834
811.441	2952
811.582	2887
811.724	2842
811.865	2807
812.007	2887
812.148	2899
812.29	2842
812.431	2887
812.573	2960
812.714	2967
812.855	3036
812.997	3020
813.138	3097
813.279	2975
813.421	2963
813.562	2975
813.703	2883
813.845	2872
813.986	2743
814.127	2716
814.268	2834
814.41	2811
814.551	2792
814.692	2834
814.833	2796
814.974	2876
815.115	2929
815.256	2800
815.397	2804
815.539	2864
815.68	2777
815.821	2811
815.962	2933
816.103	2918
816.244	2853
816.385	2861
816.526	2941
816.666	2906
816.807	2724
816.948	2853
817.089	2906
817.23	2838
817.371	2769
817.512	2804
817.653	2842
817.793	2796
817.934	2891
818.075	2952
818.216	2960
818.356	3039
818.497	2887
818.638	2815
818.778	2830
818.919	2807
819.06	2800
819.2	2922
819.341	2792
819.481	2800
819.622	2933
819.762	3074
819.903	3020
820.043	2918
820.184	2872
820.324	2914
820.465	2994
820.605	3032
820.746	2998
820.886	2944
821.026	3093
821.167	3161
821.307	3241
821.447	3260
821.588	3195
821.728	3188
821.868	3188
822.008	3081
822.149	3176
822.289	3226
822.429	3081
822.569	3081
822.709	3195
822.849	2998
822.99	3055
823.13	3146
823.27	3195
823.41	3074
823.55	3150
823.69	3146
823.83	3184
823.97	3085
824.11	2998
824.25	3024
824.389	3066
824.529	3108
824.669	3062
824.809	3207
824.949	3249
825.089	3199
825.228	3184
825.368	2956
825.508	2952
825.648	2975
825.787	3032
825.927	3009
826.067	2963
826.206	2933
826.346	3020
826.485	3089
826.625	3093
826.765	3272
826.904	3222
827.044	3009
827.183	2944
827.323	2861
827.462	3001
827.601	2914
827.741	2925
827.88	2941
828.02	2845
828.159	2944
828.298	2986
828.437	3062
828.577	3028
828.716	3184
828.855	3081
828.994	2906
829.134	2876
829.273	2891
829.412	2902
829.551	2876
829.69	2910
829.829	2937
829.968	3100
830.107	3009
830.246	3043
830.385	2902
830.524	2872
830.663	2823
830.802	2712
830.941	2644
831.08	2598
831.219	2743
831.357	2735
831.496	2937
831.635	2739
831.774	2621
831.913	2644
832.051	2552
832.19	2575
832.329	2655
832.467	2556
832.606	2499
832.744	2579
832.883	2564
833.022	2590
833.16	2621
833.299	2670
833.437	2686
833.576	2682
833.714	2724
833.852	2724
833.991	2724
834.129	2834
834.267	2785
834.406	2796
834.544	2864
834.682	2864
834.821	2826
834.959	3036
835.097	2895
835.235	3047
835.373	2967
835.511	3001
835.65	2952
835.788	2937
835.926	2807
836.064	2792
836.202	2815
836.34	3116
836.478	3154
836.615	3100
836.753	3146
836.891	3207
837.029	3112
837.167	3097
837.305	3077
837.443	3043
837.58	2937
837.718	3112
837.856	3036
837.993	3039
838.131	3112
838.269	3070
838.406	3081
838.544	3036
838.681	2937
838.819	2887
838.956	2792
839.094	2823
839.231	2891
839.369	3039
839.506	3363
839.643	3203
839.781	2994
839.918	2963
840.055	3074
840.193	3058
840.33	3039
840.467	3100
840.604	3150
840.742	3416
840.879	3074
841.016	3066
841.153	3097
841.29	3344
841.427	3313
841.564	3275
841.701	3294
841.838	3184
841.975	3157
842.112	3230
842.249	3085
842.385	3024
842.522	3237
842.659	3066
842.796	3058
842.933	3081
843.069	3005
843.206	2990
843.343	3176
843.479	3131
843.616	3131
843.752	2883
843.889	2849
844.025	3074
844.162	2914
844.298	3066
844.435	2925
844.571	2929
844.708	3066
844.844	3214
844.98	3214
845.117	3176
845.253	3070
845.389	3013
845.525	3043
845.661	3100
845.798	3028
845.934	3142
846.07	3043
846.206	3233
846.342	3317
846.478	3207
846.614	3085
846.75	3051
846.886	3009
847.022	3211
847.158	3119
847.294	3180
847.429	3222
847.565	3180
847.701	3450
847.837	3005
847.972	2994
848.108	3131
848.244	3150
848.379	2994
848.515	2922
848.65	2929
848.786	2948
848.921	2994
849.057	3104
849.192	3138
849.328	3077
849.463	3123
849.598	3066
849.734	3028
849.869	2979
850.004	2880
850.14	2960
850.275	2902
850.41	2853
850.545	2864
850.68	2918
850.815	2941
850.95	2960
851.085	3161
851.22	3116
851.355	3024
851.49	2967
851.625	2998
851.76	3013
851.895	2918
852.03	2899
852.165	3036
852.299	3119
852.434	3199
852.569	3108
852.703	3188
852.838	3260
852.973	3302
853.107	3313
853.242	3142
853.376	3062
853.511	2971
853.645	3043
853.78	3218
853.914	3097
854.048	3112
854.183	3089
854.317	3135
854.451	3302
854.585	3116
854.72	3081
854.854	3180
854.988	3032
855.122	3100
855.256	2986
855.39	3119
855.524	3241
855.658	3199
855.792	3165
855.926	3192
856.06	3214
856.194	3249
856.327	3104
856.461	3081
856.595	3047
856.729	3058
856.862	3211
856.996	3150
857.13	3199
857.263	3226
857.397	3272
857.53	3119
857.664	3199
857.797	3188
857.931	3222
858.064	3150
858.197	3184
858.331	3127
858.464	3055
858.597	3017
858.731	3131
858.864	3127
858.997	3070
859.13	3131
859.263	3142
859.396	3165
859.529	3074
859.662	3062
859.795	2982
859.928	3123
860.061	3264
860.194	3264
860.327	3138
860.46	3070
860.592	3241
860.725	3233
860.858	3237
860.99	3112
861.123	3043
861.256	3017
861.388	3146
861.521	3835
861.653	2998
861.786	3005
861.918	2998
862.05	3058
862.183	3097
862.315	3127
862.447	3207
862.58	3093
862.712	2906
862.844	2910
862.976	2998
863.108	3009
863.24	3389
863.372	2849
863.504	2925
863.636	2941
863.768	3020
863.9	2998
864.032	2899
864.164	2925
864.296	3001
864.428	3036
864.559	3070
864.691	3051
864.823	3039
864.954	3028
865.086	3058
865.217	2967
865.349	2937
865.48	2963
865.612	3001
865.743	3161
865.875	2948
866.006	2941
866.137	2922
866.269	2952
866.4	2929
866.531	2956
866.662	2872
866.793	2864
866.924	2887
867.055	2925
867.186	2910
867.317	2899
867.448	2804
867.579	2853
867.71	2834
867.841	2811
867.972	2895
868.103	2925
868.233	2895
868.364	2876
868.495	2899
868.625	3081
868.756	3150
868.886	2971
869.017	2979
869.147	3176
869.278	3142
869.408	2998
869.539	3028
869.669	3070
869.799	3039
869.929	3119
870.06	3077
870.19	3306
870.32	3279
870.45	3272
870.58	3393
870.71	3439
870.84	3458
870.97	3321
871.1	3226
871.23	3420
871.36	3420
871.489	3313
871.619	3416
871.749	3454
871.879	3420
872.008	3492
872.138	3340
872.267	3249
872.397	3173
872.526	3089
872.656	3009
872.785	3070
872.915	3237
873.044	3306
873.173	3230
873.303	3253
873.432	3230
873.561	3249
873.69	3180
873.819	3127
873.948	3230
874.077	3104
874.206	3028
874.335	3093
874.464	3203
874.593	3367
874.722	3207
874.851	3367
874.979	3313
875.108	3302
875.237	3222
875.365	3169
875.494	3176
875.623	3214
875.751	3043
875.88	3077
876.008	3188
876.136	3241
876.265	3340
876.393	3481
876.521	3420
876.65	3363
876.778	3332
876.906	3272
877.034	3226
877.162	3226
877.29	3173
877.418	3249
877.546	3230
877.674	3256
877.802	3211
877.93	3218
878.058	3123
878.185	3119
878.313	3218
878.441	3146
878.568	3062
878.696	3119
878.824	3214
878.951	3291
879.079	3458
879.206	3625
879.333	3443
879.461	3283
879.588	3363
879.715	3477
879.842	3587
879.97	3367
880.097	3184
880.224	3119
880.351	3192
880.478	3226
880.605	3218
880.732	3169
880.859	3481
880.986	3294
881.112	3313
881.239	3199
881.366	3066
881.493	3032
881.619	3005
881.746	3028
881.872	3081
881.999	3066
882.125	3123
882.252	3253
882.378	3279
882.505	3424
882.631	3253
882.757	3135
882.883	3218
883.01	3207
883.136	3157
883.262	3058
883.388	3131
883.514	3321
883.64	3363
883.766	3275
883.892	3188
884.018	3233
884.143	3401
884.269	3545
884.395	3169
884.52	3161
884.646	3214
884.772	3085
884.897	3062
885.023	3195
885.148	3325
885.274	3386
885.399	3340
885.524	3317
885.65	3268
885.775	3321
885.9	3275
886.025	3412
886.15	3374
886.275	3302
886.4	3237
886.525	3317
886.65	3291
886.775	3245
886.9	3481
887.025	3633
887.149	3382
887.274	3256
887.399	3184
887.523	3157
887.648	3176
887.773	3192
887.897	3340
888.021	3397
888.146	3256
888.27	3420
888.395	3549
888.519	3420
888.643	3401
888.767	3469
888.891	3306
889.015	3241
889.139	3260
889.263	3222
889.387	3386
889.511	3492
889.635	3431
889.759	3313
889.883	3306
890.006	3367
890.13	3477
890.254	3241
890.377	3310
890.501	3203
890.624	3161
890.748	3260
890.871	3188
890.995	3089
891.118	3051
891.241	3169
891.364	3195
891.488	3332
891.611	3192
891.734	3233
891.857	3233
891.98	3218
892.103	3291
892.226	3268
892.349	3203
892.471	3108
892.594	3214
892.717	3260
892.839	3253
892.962	3294
893.085	3294
893.207	3283
893.33	3150
893.452	3211
893.575	3329
893.697	3203
893.819	3443
893.941	3492
894.064	3412
894.186	3245
894.308	3241
894.43	3393
894.552	3523
894.674	3439
894.796	3241
894.918	3294
895.04	3275
895.161	3428
895.283	3374
895.405	3306
895.526	3359
895.648	3412
895.769	3420
895.891	3435
896.012	3473
896.134	3420
896.255	3397
896.376	3332
896.498	3367
896.619	3450
896.74	3317
896.861	3435
896.982	3663
897.103	3838
897.224	3572
897.345	3507
897.466	3443
897.587	3519
897.708	3633
897.828	3591
897.949	3466
898.07	3336
898.19	3450
898.311	3622
898.431	3469
898.552	3526
898.672	3625
898.792	3606
898.913	3542
899.033	3431
899.153	3336
899.273	3245
899.393	3332
899.513	3332
899.633	3306
899.753	3389
899.873	3298
899.993	3435
900.113	3386
900.232	3401
900.352	3401
900.472	3336
900.591	3222
900.711	3340
900.83	3287
900.95	3443
901.069	3534
901.189	3409
901.308	3222
901.427	3180
901.546	3222
901.665	3302
901.784	3367
901.904	3230
902.023	3169
902.141	3077
902.26	3032
902.379	3192
902.498	3146
902.617	3089
902.735	3253
902.854	3237
902.973	3230
903.091	3070
903.21	3112
903.328	3169
903.446	3157
903.565	3127
903.683	3249
903.801	3176
903.919	3321
904.038	3306
904.156	3249
904.274	3298
904.392	3310
904.51	3317
904.627	3344
904.745	3504
904.863	3538
904.981	3272
905.098	3226
905.216	3298
905.334	3336
905.451	3355
905.569	3298
905.686	3485
905.803	3424
905.921	3336
906.038	3481
906.155	3367
906.272	3294
906.389	3397
906.506	3241
906.623	3245
906.74	3272
906.857	3237
906.974	3321
907.091	3462
907.208	3663
907.324	3549
907.441	3397
907.557	3233
907.674	3268
907.79	3268
907.907	3340
908.023	3409
908.139	3431
908.256	3370
908.372	3386
908.488	3412
908.604	3310
908.72	3253
908.836	3340
908.952	3336
909.068	3386
909.184	3466
909.3	3443
909.415	3519
909.531	3504
909.647	3275
909.762	3302
909.878	3279
909.993	3386
910.108	3367
910.224	3401
910.339	3424
910.454	3397
910.57	3325
910.685	3272
910.8	3629
910.915	3538
911.03	3435
911.145	3306
911.259	3256
911.374	3389
911.489	3291
911.604	3268
911.718	3142
911.833	3192
911.947	3074
912.062	2998
912.176	3176
912.291	3218
912.405	3226
912.519	3405
912.633	3496
912.748	3329
912.862	3317
912.976	3184
913.09	3085
913.204	3157
913.318	3230
913.431	3351
913.545	3374
913.659	3431
913.772	3344
913.886	3237
914	3214
914.113	3355
914.226	3458
914.34	3397
914.453	3237
914.566	3428
914.68	3294
914.793	3367
914.906	3161
915.019	3131
915.132	3089
915.245	3184
915.358	3226
915.47	3260
915.583	3268
915.696	3329
915.809	3401
915.921	3466
916.034	3275
916.146	3325
916.259	3249
916.371	3409
916.483	3412
916.595	3298
916.708	3374
916.82	3374
916.932	3420
917.044	3370
917.156	3374
917.268	3294
917.38	3321
917.491	3310
917.603	3363
917.715	3473
917.826	3519
917.938	3424
918.049	3321
918.161	3443
918.272	3614
918.384	3629
918.495	3504
918.606	3370
918.717	3332
918.828	3374
918.939	3439
919.05	3313
919.161	3389
919.272	3195
919.383	3329
919.494	3507
919.604	3743
919.715	3504
919.826	3386
919.936	3462
920.047	3656
920.157	3561
920.267	3762
920.378	3606
920.488	3625
920.598	3808
920.708	3964
920.818	3827
920.928	3838
921.038	4040
921.148	4036
921.258	3759
921.368	3667
921.477	3606
921.587	3568
921.697	3469
921.806	3660
921.916	3545
922.025	3355
922.134	3416
922.244	3370
922.353	3443
922.462	3279
922.571	3245
922.68	3119
922.789	3085
922.898	3180
923.007	3108
923.116	3226
923.224	3211
923.333	3226
923.442	3146
923.55	3116
923.659	3207
923.767	3233
923.876	3184
923.984	3283
924.092	3119
924.201	3230
924.309	3253
924.417	3287
924.525	3245
924.633	3275
924.741	4196
924.849	3013
924.956	3294
925.064	3116
925.172	3070
925.279	3169
925.387	3214
925.494	3241
925.602	3359
925.709	3363
925.816	3207
925.924	3321
926.031	3409
926.138	3351
926.245	3409
926.352	3302
926.459	3450
926.566	3477
926.673	3382
926.779	3291
926.886	3268
926.993	3142
927.099	3146
927.206	3138
927.312	3142
927.419	3233
927.525	3241
927.631	3287
927.737	3165
927.843	3157
927.95	3017
928.056	3192
928.162	3184
928.267	3291
928.373	3800
928.479	3332
928.585	3074
928.69	3222
928.796	3313
928.901	3169
929.007	3051
929.112	3233
929.218	3203
929.323	3184
929.428	3173
929.533	3332
929.638	3131
929.743	3188
929.848	3298
929.953	3237
930.058	3169
930.163	2971
930.267	3062
930.372	3226
930.477	3081
930.581	3332
930.685	3192
930.79	3089
930.894	3154
930.998	3127
931.103	3317
931.207	3013
931.311	2990
931.415	2952
931.519	2762
931.623	2861
