Data from test_V78500241_2061.txt Node
Date: Fri Mar 25 16:29:28 CST 2022
User: usil
Spectrometer: V785-0024
Trigger mode: 0
Integration Time (sec): 4.000000E-1
Scans to average: 1
Nonlinearity correction enabled: false
Boxcar width: 0
Storing dark spectrum: false
XAxis mode: Wavelengths
Number of Pixels in Spectrum: 1024
>>>>>Begin Spectral Data<<<<<
801.071	2914
801.214	2960
801.356	2861
801.499	2902
801.641	2861
801.783	2891
801.926	3036
802.068	2948
802.211	2960
802.353	3005
802.496	2944
802.638	3001
802.78	3009
802.923	3062
803.065	2990
803.208	2868
803.35	2937
803.492	2982
803.635	2922
803.777	2769
803.919	2849
804.061	3169
804.204	2948
804.346	2895
804.488	2823
804.63	3001
804.773	2887
804.915	2899
805.057	3066
805.199	2922
805.341	2944
805.483	3051
805.626	2990
805.768	2986
805.91	3138
806.052	3062
806.194	3013
806.336	3237
806.478	3020
806.62	2941
806.762	2960
806.904	3032
807.046	3165
807.188	2948
807.33	2906
807.472	2975
807.614	2895
807.756	2990
807.898	2910
808.04	2883
808.182	2963
808.324	2971
808.465	2891
808.607	2861
808.749	2788
808.891	2849
809.033	2963
809.174	2990
809.316	2876
809.458	2880
809.6	2735
809.741	2769
809.883	2762
810.025	2853
810.166	2838
810.308	2785
810.45	2868
810.591	2762
810.733	2750
810.875	2823
811.016	2762
811.158	2758
811.299	2834
811.441	2899
811.582	2853
811.724	2815
811.865	2845
812.007	2880
812.148	2880
812.29	2861
812.431	2842
812.573	2922
812.714	2960
812.855	3062
812.997	3024
813.138	3123
813.279	2998
813.421	3005
813.562	2941
813.703	2895
813.845	2883
813.986	2781
814.127	2720
814.268	2796
814.41	2845
814.551	2826
814.692	2902
814.833	2819
814.974	2887
815.115	2956
815.256	2830
815.397	2834
815.539	2868
815.68	2766
815.821	2792
815.962	2933
816.103	2944
816.244	2857
816.385	2849
816.526	2990
816.666	2891
816.807	2746
816.948	2895
817.089	2891
817.23	2838
817.371	2758
817.512	2785
817.653	2842
817.793	2845
817.934	2838
818.075	2941
818.216	2971
818.356	3028
818.497	2895
818.638	2788
818.778	2830
818.919	2807
819.06	2766
819.2	2864
819.341	2777
819.481	2796
819.622	2937
819.762	3138
819.903	3051
820.043	2929
820.184	2922
820.324	2914
820.465	3001
820.605	2994
820.746	2990
820.886	2937
821.026	3070
821.167	3161
821.307	3256
821.447	3260
821.588	3188
821.728	3211
821.868	3173
822.008	3047
822.149	3154
822.289	3188
822.429	3070
822.569	3077
822.709	3188
822.849	3013
822.99	3070
823.13	3161
823.27	3195
823.41	3104
823.55	3112
823.69	3184
823.83	3184
823.97	3104
824.11	3028
824.25	2998
824.389	3047
824.529	3123
824.669	3047
824.809	3218
824.949	3233
825.089	3207
825.228	3135
825.368	3024
825.508	2998
825.648	2937
825.787	3024
825.927	3020
826.067	2975
826.206	2963
826.346	3055
826.485	3085
826.625	3070
826.765	3241
826.904	3214
827.044	3005
827.183	2918
827.323	2880
827.462	2967
827.601	2918
827.741	2910
827.88	2963
828.02	2849
828.159	2994
828.298	3039
828.437	3123
828.577	2994
828.716	3230
828.855	3089
828.994	2895
829.134	2910
829.273	2922
829.412	2876
829.551	2857
829.69	2872
829.829	3036
829.968	3116
830.107	3020
830.246	3005
830.385	2883
830.524	2891
830.663	2792
830.802	2781
830.941	2640
831.08	2640
831.219	2758
831.357	2746
831.496	2925
831.635	2701
831.774	2606
831.913	2651
832.051	2549
832.19	2564
832.329	2689
832.467	2549
832.606	2473
832.744	2568
832.883	2621
833.022	2568
833.16	2636
833.299	2663
833.437	2712
833.576	2705
833.714	2758
833.852	2708
833.991	2754
834.129	2781
834.267	2842
834.406	2777
834.544	2864
834.682	2857
834.821	2849
834.959	3051
835.097	2876
835.235	3043
835.373	2994
835.511	3017
835.65	2979
835.788	2937
835.926	2823
836.064	2785
836.202	2830
836.34	3138
836.478	3097
836.615	3028
836.753	3127
836.891	3214
837.029	3173
837.167	3112
837.305	3058
837.443	3070
837.58	2929
837.718	3119
837.856	3039
837.993	2986
838.131	3104
838.269	3070
838.406	3077
838.544	3039
838.681	2906
838.819	2906
838.956	2796
839.094	2823
839.231	2880
839.369	2986
839.506	3340
839.643	3188
839.781	2990
839.918	2948
840.055	3062
840.193	3051
840.33	3066
840.467	3062
840.604	3146
840.742	3412
840.879	3024
841.016	3066
841.153	3112
841.29	3313
841.427	3272
841.564	3272
841.701	3306
841.838	3188
841.975	3161
842.112	3207
842.249	3062
842.385	3043
842.522	3211
842.659	3081
842.796	3062
842.933	3097
843.069	3047
843.206	3036
843.343	3195
843.479	3127
843.616	3070
843.752	2902
843.889	2849
844.025	3070
844.162	2876
844.298	3062
844.435	2944
844.571	2933
844.708	3047
844.844	3146
844.98	3264
845.117	3222
845.253	3032
845.389	2986
845.525	3085
845.661	3074
845.798	3005
845.934	3127
846.07	3074
846.206	3253
846.342	3325
846.478	3207
846.614	3081
846.75	3024
846.886	3058
847.022	3237
847.158	3104
847.294	3211
847.429	3237
847.565	3207
847.701	3492
847.837	3017
847.972	2998
848.108	3169
848.244	3138
848.379	2986
848.515	2906
848.65	2914
848.786	2952
848.921	3039
849.057	3085
849.192	3135
849.328	3062
849.463	3127
849.598	3081
849.734	3036
849.869	3001
850.004	2933
850.14	2956
850.275	2914
850.41	2800
850.545	2883
850.68	2895
850.815	2937
850.95	2994
851.085	3184
851.22	3074
851.355	3024
851.49	2960
851.625	2982
851.76	3005
851.895	2929
852.03	2914
852.165	3032
852.299	3097
852.434	3165
852.569	3123
852.703	3184
852.838	3253
852.973	3291
853.107	3348
853.242	3157
853.376	3066
853.511	2944
853.645	3051
853.78	3222
853.914	3142
854.048	3108
854.183	3058
854.317	3135
854.451	3279
854.585	3112
854.72	3104
854.854	3199
854.988	3047
855.122	3089
855.256	2967
855.39	3135
855.524	3226
855.658	3169
855.792	3127
855.926	3188
856.06	3211
856.194	3233
856.327	3131
856.461	3039
856.595	3058
856.729	3116
856.862	3218
856.996	3150
857.13	3188
857.263	3176
857.397	3253
857.53	3108
857.664	3180
857.797	3275
857.931	3245
858.064	3165
858.197	3203
858.331	3127
858.464	3051
858.597	3028
858.731	3074
858.864	3131
858.997	3112
859.13	3154
859.263	3165
859.396	3192
859.529	3085
859.662	3074
859.795	3043
859.928	3100
860.061	3233
860.194	3241
860.327	3138
860.46	3043
860.592	3279
860.725	3253
860.858	3249
860.99	3070
861.123	3043
861.256	3028
861.388	3138
861.521	3876
861.653	3028
861.786	2952
861.918	3028
862.05	3062
862.183	3112
862.315	3154
862.447	3203
862.58	3097
862.712	2933
862.844	2861
862.976	3013
863.108	3005
863.24	3310
863.372	2864
863.504	2979
863.636	2944
863.768	2994
863.9	2963
864.032	2910
864.164	2956
864.296	2994
864.428	3104
864.559	3108
864.691	3058
864.823	3058
864.954	3051
865.086	3013
865.217	2960
865.349	2979
865.48	2956
865.612	3020
865.743	3112
865.875	2941
866.006	2956
866.137	2967
866.269	2967
866.4	2975
866.531	2922
866.662	2872
866.793	2918
866.924	2864
867.055	2998
867.186	2880
867.317	2876
867.448	2842
867.579	2830
867.71	2830
867.841	2788
867.972	2872
868.103	2902
868.233	2857
868.364	2891
868.495	2944
868.625	3077
868.756	3157
868.886	2963
869.017	3032
869.147	3146
869.278	3192
869.408	3051
869.539	3013
869.669	3074
869.799	3036
869.929	3142
870.06	3116
870.19	3294
870.32	3272
870.45	3321
870.58	3332
870.71	3473
870.84	3412
870.97	3264
871.1	3214
871.23	3473
871.36	3439
871.489	3351
871.619	3378
871.749	3397
871.879	3466
872.008	3466
872.138	3329
872.267	3291
872.397	3165
872.526	3112
872.656	2998
872.785	3116
872.915	3207
873.044	3287
873.173	3226
873.303	3260
873.432	3275
873.561	3245
873.69	3150
873.819	3142
873.948	3176
874.077	3097
874.206	3013
874.335	3093
874.464	3207
874.593	3332
874.722	3241
874.851	3389
874.979	3332
875.108	3317
875.237	3176
875.365	3127
875.494	3154
875.623	3245
875.751	3066
875.88	3077
876.008	3173
876.136	3188
876.265	3382
876.393	3496
876.521	3412
876.65	3370
876.778	3367
876.906	3233
877.034	3199
877.162	3173
877.29	3195
877.418	3249
877.546	3233
877.674	3230
877.802	3203
877.93	3226
878.058	3138
878.185	3081
878.313	3188
878.441	3195
878.568	3051
878.696	3169
878.824	3253
878.951	3272
879.079	3428
879.206	3644
879.333	3401
879.461	3287
879.588	3329
879.715	3469
879.842	3561
879.97	3351
880.097	3154
880.224	3150
880.351	3157
880.478	3180
880.605	3218
880.732	3176
880.859	3477
880.986	3302
881.112	3317
881.239	3207
881.366	3043
881.493	3032
881.619	3017
881.746	3085
881.872	3108
881.999	3085
882.125	3142
882.252	3230
882.378	3275
882.505	3428
882.631	3275
882.757	3150
882.883	3222
883.01	3211
883.136	3184
883.262	3074
883.388	3085
883.514	3325
883.64	3397
883.766	3302
883.892	3199
884.018	3256
884.143	3378
884.269	3515
884.395	3211
884.52	3150
884.646	3195
884.772	3142
884.897	3104
885.023	3180
885.148	3340
885.274	3431
885.399	3340
885.524	3279
885.65	3264
885.775	3317
885.9	3233
886.025	3389
886.15	3374
886.275	3283
886.4	3264
886.525	3279
886.65	3275
886.775	3268
886.9	3507
887.025	3622
887.149	3389
887.274	3268
887.399	3173
887.523	3142
887.648	3188
887.773	3195
887.897	3370
888.021	3416
888.146	3272
888.27	3447
888.395	3519
888.519	3420
888.643	3409
888.767	3435
888.891	3287
889.015	3226
889.139	3302
889.263	3237
889.387	3409
889.511	3488
889.635	3439
889.759	3264
889.883	3256
890.006	3355
890.13	3488
890.254	3287
890.377	3336
890.501	3173
890.624	3169
890.748	3268
890.871	3154
890.995	3112
891.118	3043
891.241	3146
891.364	3226
891.488	3310
891.611	3195
891.734	3207
891.857	3302
891.98	3226
892.103	3340
892.226	3260
892.349	3192
892.471	3135
892.594	3272
892.717	3321
892.839	3268
892.962	3329
893.085	3363
893.207	3279
893.33	3165
893.452	3192
893.575	3336
893.697	3264
893.819	3431
893.941	3462
894.064	3462
894.186	3264
894.308	3253
894.43	3428
894.552	3545
894.674	3477
894.796	3256
894.918	3294
895.04	3260
895.161	3428
895.283	3405
895.405	3256
895.526	3367
895.648	3389
895.769	3416
895.891	3466
896.012	3447
896.134	3469
896.255	3393
896.376	3370
896.498	3355
896.619	3435
896.74	3382
896.861	3389
896.982	3671
897.103	3827
897.224	3538
897.345	3504
897.466	3424
897.587	3485
897.708	3603
897.828	3523
897.949	3431
898.07	3321
898.19	3401
898.311	3614
898.431	3416
898.552	3500
898.672	3553
898.792	3561
898.913	3530
899.033	3420
899.153	3298
899.273	3203
899.393	3264
899.513	3340
899.633	3329
899.753	3340
899.873	3287
899.993	3374
900.113	3321
900.232	3397
900.352	3348
900.472	3279
900.591	3192
900.711	3317
900.83	3199
900.95	3382
901.069	3477
901.189	3374
901.308	3169
901.427	3116
901.546	3173
901.665	3279
901.784	3306
901.904	3188
902.023	3165
902.141	2994
902.26	3005
902.379	3146
902.498	3089
902.617	3074
902.735	3222
902.854	3226
902.973	3161
903.091	3074
903.21	3058
903.328	3157
903.446	3127
903.565	3104
903.683	3203
903.801	3089
903.919	3226
904.038	3279
904.156	3150
904.274	3272
904.392	3264
904.51	3291
904.627	3306
904.745	3469
904.863	3485
904.981	3260
905.098	3165
905.216	3214
905.334	3272
905.451	3317
905.569	3310
905.686	3424
905.803	3412
905.921	3287
906.038	3378
906.155	3359
906.272	3283
906.389	3317
906.506	3237
906.623	3264
906.74	3275
906.857	3176
906.974	3226
907.091	3420
907.208	3584
907.324	3473
907.441	3386
907.557	3245
907.674	3237
907.79	3192
907.907	3298
908.023	3344
908.139	3363
908.256	3294
908.372	3348
908.488	3393
908.604	3245
908.72	3173
908.836	3272
908.952	3291
909.068	3351
909.184	3454
909.3	3378
909.415	3515
909.531	3469
909.647	3279
909.762	3306
909.878	3260
909.993	3370
910.108	3310
910.224	3332
910.339	3401
910.454	3355
910.57	3348
910.685	3237
910.8	3542
910.915	3538
911.03	3447
911.145	3279
911.259	3298
911.374	3317
911.489	3275
911.604	3256
911.718	3165
911.833	3161
911.947	3024
912.062	2982
912.176	3146
912.291	3184
912.405	3237
912.519	3389
912.633	3492
912.748	3317
912.862	3241
912.976	3176
913.09	3062
913.204	3127
913.318	3211
913.431	3321
913.545	3298
913.659	3401
913.772	3325
913.886	3203
914	3176
914.113	3306
914.226	3435
914.34	3367
914.453	3233
914.566	3378
914.68	3298
914.793	3321
914.906	3131
915.019	3097
915.132	3097
915.245	3176
915.358	3176
915.47	3222
915.583	3218
915.696	3291
915.809	3424
915.921	3416
916.034	3230
916.146	3237
916.259	3192
916.371	3401
916.483	3317
916.595	3283
916.708	3348
916.82	3370
916.932	3359
917.044	3359
917.156	3317
917.268	3218
917.38	3291
917.491	3298
917.603	3389
917.715	3420
917.826	3435
917.938	3370
918.049	3268
918.161	3386
918.272	3564
918.384	3553
918.495	3466
918.606	3332
918.717	3272
918.828	3348
918.939	3389
919.05	3279
919.161	3355
919.272	3165
919.383	3241
919.494	3485
919.604	3705
919.715	3473
919.826	3393
919.936	3450
920.047	3618
920.157	3530
920.267	3717
920.378	3553
920.488	3519
920.598	3766
920.708	3903
920.818	3823
920.928	3800
921.038	4021
921.148	3956
921.258	3698
921.368	3618
921.477	3584
921.587	3564
921.697	3462
921.806	3618
921.916	3534
922.025	3355
922.134	3367
922.244	3294
922.353	3431
922.462	3241
922.571	3237
922.68	3112
922.789	3066
922.898	3127
923.007	3138
923.116	3230
923.224	3188
923.333	3176
923.442	3116
923.55	3081
923.659	3108
923.767	3180
923.876	3127
923.984	3245
924.092	3085
924.201	3203
924.309	3199
924.417	3226
924.525	3176
924.633	3176
924.741	4227
924.849	3028
924.956	3245
925.064	3097
925.172	3032
925.279	3055
925.387	3180
925.494	3230
925.602	3359
925.709	3306
925.816	3176
925.924	3287
926.031	3370
926.138	3329
926.245	3367
926.352	3298
926.459	3409
926.566	3466
926.673	3329
926.779	3222
926.886	3218
926.993	3157
927.099	3093
927.206	3066
927.312	3119
927.419	3211
927.525	3226
927.631	3237
927.737	3100
927.843	3119
927.95	3020
928.056	3108
928.162	3180
928.267	3249
928.373	3857
928.479	3294
928.585	3047
928.69	3233
928.796	3302
928.901	3195
929.007	3039
929.112	3207
929.218	3161
929.323	3123
929.428	3176
929.533	3317
929.638	3123
929.743	3203
929.848	3253
929.953	3199
930.058	3161
930.163	2998
930.267	3005
930.372	3169
930.477	3013
930.581	3287
930.685	3195
930.79	3043
930.894	3146
930.998	3062
931.103	3283
931.207	2952
931.311	2910
931.415	2902
931.519	2762
931.623	2800
