Data from test_V78500241_1726.txt Node
Date: Fri Mar 25 16:27:09 CST 2022
User: usil
Spectrometer: V785-0024
Trigger mode: 0
Integration Time (sec): 4.000000E-1
Scans to average: 1
Nonlinearity correction enabled: false
Boxcar width: 0
Storing dark spectrum: false
XAxis mode: Wavelengths
Number of Pixels in Spectrum: 1024
>>>>>Begin Spectral Data<<<<<
801.071	2914
801.214	2941
801.356	2864
801.499	2887
801.641	2876
801.783	2929
801.926	3051
802.068	2933
802.211	2956
802.353	3032
802.496	2948
802.638	2998
802.78	3077
802.923	3039
803.065	2990
803.208	2876
803.35	2902
803.492	2918
803.635	2891
803.777	2773
803.919	2880
804.061	3165
804.204	2933
804.346	2899
804.488	2842
804.63	3013
804.773	2861
804.915	2906
805.057	3081
805.199	2872
805.341	2941
805.483	2998
805.626	3005
805.768	2929
805.91	3055
806.052	3074
806.194	3028
806.336	3226
806.478	3036
806.62	2944
806.762	2975
806.904	3039
807.046	3142
807.188	2990
807.33	2918
807.472	2960
807.614	2899
807.756	2979
807.898	2960
808.04	2918
808.182	2990
808.324	2925
808.465	2853
808.607	2906
808.749	2785
808.891	2845
809.033	2986
809.174	2967
809.316	2876
809.458	2872
809.6	2762
809.741	2781
809.883	2724
810.025	2826
810.166	2849
810.308	2842
810.45	2853
810.591	2788
810.733	2766
810.875	2815
811.016	2777
811.158	2777
811.299	2819
811.441	2922
811.582	2891
811.724	2811
811.865	2796
812.007	2914
812.148	2891
812.29	2872
812.431	2883
812.573	2933
812.714	2948
812.855	3032
812.997	3070
813.138	3108
813.279	2998
813.421	2952
813.562	2952
813.703	2834
813.845	2906
813.986	2743
814.127	2689
814.268	2804
814.41	2826
814.551	2815
814.692	2861
814.833	2826
814.974	2876
815.115	2925
815.256	2834
815.397	2773
815.539	2845
815.68	2777
815.821	2800
815.962	2925
816.103	2872
816.244	2914
816.385	2861
816.526	2952
816.666	2941
816.807	2769
816.948	2902
817.089	2906
817.23	2857
817.371	2735
817.512	2807
817.653	2845
817.793	2811
817.934	2861
818.075	2967
818.216	2967
818.356	3009
818.497	2891
818.638	2785
818.778	2815
818.919	2762
819.06	2727
819.2	2933
819.341	2807
819.481	2815
819.622	2914
819.762	3108
819.903	3005
820.043	2933
820.184	2883
820.324	2891
820.465	2998
820.605	3043
820.746	3028
820.886	2933
821.026	3093
821.167	3173
821.307	3268
821.447	3279
821.588	3230
821.728	3188
821.868	3188
822.008	3051
822.149	3165
822.289	3211
822.429	3123
822.569	3085
822.709	3169
822.849	2986
822.99	3085
823.13	3138
823.27	3199
823.41	3135
823.55	3116
823.69	3165
823.83	3180
823.97	3081
824.11	2990
824.25	3009
824.389	3039
824.529	3100
824.669	3039
824.809	3169
824.949	3249
825.089	3207
825.228	3169
825.368	2982
825.508	2979
825.648	2948
825.787	3020
825.927	3013
826.067	2925
826.206	2960
826.346	3039
826.485	3089
826.625	3066
826.765	3260
826.904	3184
827.044	3017
827.183	2925
827.323	2891
827.462	2982
827.601	2899
827.741	2948
827.88	2925
828.02	2838
828.159	2956
828.298	3005
828.437	3142
828.577	3047
828.716	3260
828.855	3074
828.994	2952
829.134	2887
829.273	2887
829.412	2849
829.551	2891
829.69	2891
829.829	3013
829.968	3135
830.107	3005
830.246	3062
830.385	2933
830.524	2872
830.663	2811
830.802	2746
830.941	2640
831.08	2636
831.219	2716
831.357	2773
831.496	2944
831.635	2708
831.774	2610
831.913	2648
832.051	2545
832.19	2560
832.329	2693
832.467	2522
832.606	2480
832.744	2598
832.883	2583
833.022	2617
833.16	2640
833.299	2701
833.437	2708
833.576	2678
833.714	2712
833.852	2739
833.991	2731
834.129	2853
834.267	2823
834.406	2788
834.544	2849
834.682	2845
834.821	2880
834.959	3055
835.097	2876
835.235	3047
835.373	3009
835.511	3062
835.65	2914
835.788	2956
835.926	2834
836.064	2807
836.202	2834
836.34	3100
836.478	3150
836.615	3070
836.753	3161
836.891	3176
837.029	3150
837.167	3077
837.305	3043
837.443	2994
837.58	2963
837.718	3142
837.856	3032
837.993	3043
838.131	3138
838.269	3074
838.406	3108
838.544	3097
838.681	2925
838.819	2902
838.956	2811
839.094	2842
839.231	2883
839.369	2994
839.506	3363
839.643	3188
839.781	3009
839.918	2948
840.055	3036
840.193	3051
840.33	3020
840.467	3119
840.604	3127
840.742	3370
840.879	3009
841.016	3032
841.153	3116
841.29	3313
841.427	3256
841.564	3211
841.701	3291
841.838	3230
841.975	3192
842.112	3199
842.249	3081
842.385	3009
842.522	3230
842.659	3077
842.796	3043
842.933	3089
843.069	3036
843.206	3013
843.343	3199
843.479	3135
843.616	3116
843.752	2883
843.889	2857
844.025	3070
844.162	2872
844.298	3055
844.435	2948
844.571	2925
844.708	3074
844.844	3184
844.98	3260
845.117	3176
845.253	3066
845.389	2967
845.525	3093
845.661	3150
845.798	2998
845.934	3116
846.07	3081
846.206	3237
846.342	3256
846.478	3233
846.614	3081
846.75	3043
846.886	3013
847.022	3260
847.158	3112
847.294	3154
847.429	3256
847.565	3180
847.701	3458
847.837	2998
847.972	2998
848.108	3146
848.244	3176
848.379	2979
848.515	2971
848.65	2925
848.786	2937
848.921	3017
849.057	3104
849.192	3135
849.328	3093
849.463	3150
849.598	3047
849.734	3051
849.869	2960
850.004	2914
850.14	2956
850.275	2899
850.41	2834
850.545	2868
850.68	2929
850.815	2944
850.95	2986
851.085	3173
851.22	3119
851.355	3009
851.49	2982
851.625	2963
851.76	3005
851.895	2918
852.03	2918
852.165	3074
852.299	3081
852.434	3180
852.569	3138
852.703	3146
852.838	3256
852.973	3351
853.107	3321
853.242	3169
853.376	3097
853.511	2952
853.645	3047
853.78	3214
853.914	3100
854.048	3112
854.183	3077
854.317	3161
854.451	3298
854.585	3138
854.72	3077
854.854	3184
854.988	3032
855.122	3104
855.256	2937
855.39	3104
855.524	3249
855.658	3173
855.792	3119
855.926	3169
856.06	3195
856.194	3264
856.327	3154
856.461	3058
856.595	3077
856.729	3062
856.862	3218
856.996	3180
857.13	3184
857.263	3233
857.397	3287
857.53	3108
857.664	3154
857.797	3214
857.931	3245
858.064	3142
858.197	3214
858.331	3138
858.464	3089
858.597	3001
858.731	3123
858.864	3116
858.997	3104
859.13	3146
859.263	3169
859.396	3226
859.529	3093
859.662	3055
859.795	3001
859.928	3165
860.061	3260
860.194	3283
860.327	3119
860.46	3074
860.592	3222
860.725	3253
860.858	3218
860.99	3123
861.123	3009
861.256	3036
861.388	3142
861.521	3892
861.653	2998
861.786	2982
861.918	2967
862.05	3051
862.183	3119
862.315	3123
862.447	3192
862.58	3089
862.712	2956
862.844	2895
862.976	3013
863.108	3017
863.24	3272
863.372	2861
863.504	2975
863.636	2922
863.768	3051
863.9	2990
864.032	2906
864.164	2933
864.296	3005
864.428	3093
864.559	3116
864.691	3039
864.823	3077
864.954	3017
865.086	3039
865.217	2990
865.349	2956
865.48	3005
865.612	2998
865.743	3180
865.875	2960
866.006	2922
866.137	2990
866.269	2914
866.4	2952
866.531	2895
866.662	2887
866.793	2914
866.924	2918
867.055	2963
867.186	2883
867.317	2872
867.448	2853
867.579	2830
867.71	2838
867.841	2796
867.972	2880
868.103	2880
868.233	2922
868.364	2887
868.495	2899
868.625	3116
868.756	3112
868.886	2952
869.017	3047
869.147	3180
869.278	3104
869.408	3020
869.539	3028
869.669	3089
869.799	3036
869.929	3142
870.06	3112
870.19	3321
870.32	3291
870.45	3256
870.58	3340
870.71	3466
870.84	3416
870.97	3291
871.1	3241
871.23	3439
871.36	3439
871.489	3306
871.619	3424
871.749	3378
871.879	3416
872.008	3428
872.138	3389
872.267	3256
872.397	3161
872.526	3085
872.656	3005
872.785	3123
872.915	3233
873.044	3283
873.173	3199
873.303	3237
873.432	3184
873.561	3245
873.69	3131
873.819	3146
873.948	3207
874.077	3081
874.206	3013
874.335	3062
874.464	3230
874.593	3332
874.722	3233
874.851	3389
874.979	3351
875.108	3298
875.237	3169
875.365	3157
875.494	3176
875.623	3264
875.751	3100
875.88	3074
876.008	3226
876.136	3165
876.265	3367
876.393	3469
876.521	3397
876.65	3397
876.778	3344
876.906	3260
877.034	3203
877.162	3264
877.29	3176
877.418	3211
877.546	3253
877.674	3237
877.802	3211
877.93	3214
878.058	3116
878.185	3116
878.313	3195
878.441	3211
878.568	3066
878.696	3127
878.824	3256
878.951	3298
879.079	3443
879.206	3641
879.333	3431
879.461	3302
879.588	3332
879.715	3481
879.842	3622
879.97	3370
880.097	3161
880.224	3108
880.351	3203
880.478	3188
880.605	3176
880.732	3173
880.859	3515
880.986	3306
881.112	3332
881.239	3218
881.366	3077
881.493	3020
881.619	3009
881.746	3085
881.872	3074
881.999	3108
882.125	3123
882.252	3260
882.378	3275
882.505	3454
882.631	3268
882.757	3161
882.883	3203
883.01	3226
883.136	3142
883.262	3066
883.388	3135
883.514	3325
883.64	3378
883.766	3306
883.892	3180
884.018	3256
884.143	3431
884.269	3545
884.395	3180
884.52	3123
884.646	3184
884.772	3131
884.897	3108
885.023	3188
885.148	3306
885.274	3424
885.399	3340
885.524	3283
885.65	3245
885.775	3260
885.9	3272
886.025	3473
886.15	3351
886.275	3256
886.4	3233
886.525	3283
886.65	3253
886.775	3294
886.9	3500
887.025	3606
887.149	3378
887.274	3233
887.399	3173
887.523	3180
887.648	3138
887.773	3176
887.897	3351
888.021	3443
888.146	3332
888.27	3416
888.395	3481
888.519	3416
888.643	3431
888.767	3443
888.891	3294
889.015	3226
889.139	3306
889.263	3279
889.387	3401
889.511	3496
889.635	3424
889.759	3283
889.883	3275
890.006	3370
890.13	3462
890.254	3253
890.377	3321
890.501	3192
890.624	3180
890.748	3268
890.871	3192
890.995	3123
891.118	3089
891.241	3195
891.364	3207
891.488	3294
891.611	3195
891.734	3230
891.857	3287
891.98	3237
892.103	3287
892.226	3260
892.349	3176
892.471	3108
892.594	3226
892.717	3279
892.839	3249
892.962	3275
893.085	3310
893.207	3306
893.33	3157
893.452	3211
893.575	3344
893.697	3260
893.819	3462
893.941	3507
894.064	3450
894.186	3241
894.308	3233
894.43	3477
894.552	3523
894.674	3435
894.796	3272
894.918	3313
895.04	3294
895.161	3416
895.283	3363
895.405	3279
895.526	3370
895.648	3397
895.769	3435
895.891	3439
896.012	3454
896.134	3496
896.255	3428
896.376	3378
896.498	3344
896.619	3431
896.74	3317
896.861	3443
896.982	3663
897.103	3880
897.224	3595
897.345	3523
897.466	3447
897.587	3545
897.708	3625
897.828	3526
897.949	3416
898.07	3313
898.19	3420
898.311	3595
898.431	3401
898.552	3485
898.672	3538
898.792	3572
898.913	3515
899.033	3458
899.153	3298
899.273	3192
899.393	3310
899.513	3325
899.633	3310
899.753	3336
899.873	3329
899.993	3370
900.113	3306
900.232	3374
900.352	3340
900.472	3325
900.591	3222
900.711	3275
900.83	3287
900.95	3416
901.069	3488
901.189	3336
901.308	3165
901.427	3138
901.546	3184
901.665	3313
901.784	3351
901.904	3195
902.023	3169
902.141	3036
902.26	3017
902.379	3138
902.498	3081
902.617	3051
902.735	3218
902.854	3272
902.973	3203
903.091	3039
903.21	3055
903.328	3119
903.446	3116
903.565	3100
903.683	3192
903.801	3119
903.919	3218
904.038	3283
904.156	3142
904.274	3287
904.392	3264
904.51	3260
904.627	3348
904.745	3412
904.863	3496
904.981	3249
905.098	3173
905.216	3203
905.334	3298
905.451	3279
905.569	3336
905.686	3439
905.803	3447
905.921	3302
906.038	3420
906.155	3397
906.272	3260
906.389	3332
906.506	3233
906.623	3237
906.74	3287
906.857	3199
906.974	3233
907.091	3443
907.208	3576
907.324	3443
907.441	3382
907.557	3226
907.674	3211
907.79	3192
907.907	3256
908.023	3351
908.139	3405
908.256	3294
908.372	3363
908.488	3363
908.604	3264
908.72	3233
908.836	3283
908.952	3275
909.068	3321
909.184	3492
909.3	3386
909.415	3542
909.531	3443
909.647	3279
909.762	3279
909.878	3268
909.993	3370
910.108	3336
910.224	3332
910.339	3424
910.454	3321
910.57	3268
910.685	3218
910.8	3572
910.915	3534
911.03	3454
911.145	3298
911.259	3245
911.374	3336
911.489	3211
911.604	3192
911.718	3131
911.833	3104
911.947	2982
912.062	2982
912.176	3188
912.291	3161
912.405	3203
912.519	3447
912.633	3420
912.748	3340
912.862	3291
912.976	3146
913.09	3062
913.204	3123
913.318	3230
913.431	3294
913.545	3336
913.659	3424
913.772	3294
913.886	3226
914	3199
914.113	3302
914.226	3428
914.34	3359
914.453	3173
914.566	3409
914.68	3287
914.793	3317
914.906	3176
915.019	3097
915.132	3089
915.245	3119
915.358	3222
915.47	3249
915.583	3241
915.696	3291
915.809	3424
915.921	3389
916.034	3233
916.146	3253
916.259	3214
916.371	3401
916.483	3359
916.595	3237
916.708	3336
916.82	3317
916.932	3332
917.044	3355
917.156	3374
917.268	3268
917.38	3256
917.491	3294
917.603	3363
917.715	3431
917.826	3424
917.938	3370
918.049	3272
918.161	3409
918.272	3526
918.384	3568
918.495	3450
918.606	3306
918.717	3264
918.828	3378
918.939	3389
919.05	3275
919.161	3382
919.272	3169
919.383	3245
919.494	3431
919.604	3652
919.715	3481
919.826	3409
919.936	3454
920.047	3542
920.157	3553
920.267	3781
920.378	3637
920.488	3553
920.598	3793
920.708	3926
920.818	3835
920.928	3827
921.038	4010
921.148	3953
921.258	3682
921.368	3622
921.477	3538
921.587	3534
921.697	3447
921.806	3587
921.916	3473
922.025	3321
922.134	3363
922.244	3279
922.353	3424
922.462	3283
922.571	3218
922.68	3097
922.789	3039
922.898	3135
923.007	3104
923.116	3214
923.224	3161
923.333	3161
923.442	3135
923.55	3055
923.659	3157
923.767	3237
923.876	3074
923.984	3233
924.092	3085
924.201	3230
924.309	3222
924.417	3272
924.525	3192
924.633	3272
924.741	4002
924.849	3032
924.956	3332
925.064	3089
925.172	3047
925.279	3100
925.387	3195
925.494	3211
925.602	3374
925.709	3378
925.816	3222
925.924	3310
926.031	3409
926.138	3321
926.245	3374
926.352	3287
926.459	3397
926.566	3485
926.673	3336
926.779	3283
926.886	3287
926.993	3169
927.099	3184
927.206	3127
927.312	3100
927.419	3214
927.525	3199
927.631	3317
927.737	3146
927.843	3165
927.95	3074
928.056	3176
928.162	3207
928.267	3268
928.373	3926
928.479	3332
928.585	3100
928.69	3241
928.796	3283
928.901	3222
929.007	3089
929.112	3218
929.218	3218
929.323	3192
929.428	3192
929.533	3355
929.638	3138
929.743	3249
929.848	3279
929.953	3272
930.058	3203
930.163	3039
930.267	3093
930.372	3275
930.477	3142
930.581	3382
930.685	3203
930.79	3081
930.894	3157
930.998	3127
931.103	3321
931.207	2990
931.311	2963
931.415	2967
931.519	2834
931.623	2845
