Data from test_V78500241_300.txt Node
Date: Fri Mar 25 16:17:16 CST 2022
User: usil
Spectrometer: V785-0024
Trigger mode: 0
Integration Time (sec): 4.000000E-1
Scans to average: 1
Nonlinearity correction enabled: false
Boxcar width: 0
Storing dark spectrum: false
XAxis mode: Wavelengths
Number of Pixels in Spectrum: 1024
>>>>>Begin Spectral Data<<<<<
801.071	2952
801.214	2979
801.356	2899
801.499	2891
801.641	2914
801.783	2960
801.926	3081
802.068	2990
802.211	3005
802.353	3051
802.496	2960
802.638	3024
802.78	3066
802.923	3085
803.065	3028
803.208	2922
803.35	2963
803.492	2986
803.635	2944
803.777	2769
803.919	2906
804.061	3207
804.204	2925
804.346	2899
804.488	2845
804.63	3043
804.773	2906
804.915	2933
805.057	3051
805.199	2910
805.341	3028
805.483	3081
805.626	2990
805.768	2975
805.91	3081
806.052	3112
806.194	3074
806.336	3253
806.478	3077
806.62	2937
806.762	2998
806.904	3100
807.046	3195
807.188	2971
807.33	2906
807.472	3028
807.614	2887
807.756	3009
807.898	2925
808.04	2937
808.182	2998
808.324	2975
808.465	2891
808.607	2918
808.749	2861
808.891	2830
809.033	2952
809.174	2971
809.316	2891
809.458	2922
809.6	2819
809.741	2781
809.883	2754
810.025	2864
810.166	2857
810.308	2819
810.45	2857
810.591	2766
810.733	2754
810.875	2830
811.016	2792
811.158	2777
811.299	2830
811.441	2922
811.582	2941
811.724	2834
811.865	2807
812.007	2910
812.148	2895
812.29	2849
812.431	2922
812.573	2948
812.714	2967
812.855	3024
812.997	3020
813.138	3116
813.279	3017
813.421	2963
813.562	2952
813.703	2899
813.845	2891
813.986	2773
814.127	2743
814.268	2842
814.41	2845
814.551	2857
814.692	2861
814.833	2838
814.974	2883
815.115	2986
815.256	2830
815.397	2800
815.539	2887
815.68	2769
815.821	2861
815.962	2944
816.103	2929
816.244	2891
816.385	2876
816.526	2975
816.666	2906
816.807	2769
816.948	2910
817.089	2929
817.23	2838
817.371	2788
817.512	2800
817.653	2823
817.793	2845
817.934	2883
818.075	2986
818.216	3001
818.356	3032
818.497	2895
818.638	2773
818.778	2826
818.919	2788
819.06	2781
819.2	2880
819.341	2792
819.481	2773
819.622	2914
819.762	3104
819.903	3066
820.043	2899
820.184	2918
820.324	2910
820.465	3043
820.605	3036
820.746	3055
820.886	2933
821.026	3154
821.167	3161
821.307	3256
821.447	3245
821.588	3230
821.728	3165
821.868	3184
822.008	3157
822.149	3203
822.289	3214
822.429	3097
822.569	3108
822.709	3173
822.849	3024
822.99	3051
823.13	3165
823.27	3180
823.41	3097
823.55	3173
823.69	3150
823.83	3165
823.97	3146
824.11	3036
824.25	2971
824.389	3089
824.529	3093
824.669	3066
824.809	3211
824.949	3253
825.089	3214
825.228	3165
825.368	3020
825.508	2944
825.648	2971
825.787	3009
825.927	3009
826.067	2986
826.206	2967
826.346	3028
826.485	3089
826.625	3131
826.765	3264
826.904	3218
827.044	3001
827.183	2925
827.323	2864
827.462	2994
827.601	2918
827.741	2910
827.88	2979
828.02	2842
828.159	2998
828.298	3036
828.437	3119
828.577	3066
828.716	3230
828.855	3058
828.994	2929
829.134	2880
829.273	2883
829.412	2895
829.551	2887
829.69	2883
829.829	2990
829.968	3188
830.107	3020
830.246	3047
830.385	2918
830.524	2876
830.663	2830
830.802	2720
830.941	2663
831.08	2667
831.219	2762
831.357	2735
831.496	2948
831.635	2739
831.774	2640
831.913	2667
832.051	2526
832.19	2594
832.329	2689
832.467	2564
832.606	2495
832.744	2602
832.883	2617
833.022	2579
833.16	2659
833.299	2701
833.437	2712
833.576	2701
833.714	2693
833.852	2739
833.991	2766
834.129	2838
834.267	2826
834.406	2769
834.544	2880
834.682	2891
834.821	2864
834.959	3100
835.097	2902
835.235	3070
835.373	2990
835.511	3055
835.65	2982
835.788	2960
835.926	2815
836.064	2823
836.202	2857
836.34	3116
836.478	3165
836.615	3028
836.753	3127
836.891	3222
837.029	3173
837.167	3104
837.305	3074
837.443	3070
837.58	2975
837.718	3131
837.856	3043
837.993	3017
838.131	3127
838.269	3119
838.406	3119
838.544	3104
838.681	2967
838.819	2933
838.956	2838
839.094	2849
839.231	2914
839.369	3020
839.506	3382
839.643	3211
839.781	3039
839.918	2952
840.055	3043
840.193	3066
840.33	3032
840.467	3112
840.604	3154
840.742	3382
840.879	3066
841.016	3055
841.153	3127
841.29	3321
841.427	3298
841.564	3264
841.701	3310
841.838	3237
841.975	3146
842.112	3237
842.249	3077
842.385	3055
842.522	3253
842.659	3085
842.796	3058
842.933	3150
843.069	3108
843.206	3062
843.343	3184
843.479	3135
843.616	3135
843.752	2891
843.889	2899
844.025	3070
844.162	2899
844.298	3097
844.435	2967
844.571	2891
844.708	3047
844.844	3226
844.98	3203
845.117	3192
845.253	3051
845.389	3013
845.525	3104
845.661	3116
845.798	3020
845.934	3131
846.07	3055
846.206	3195
846.342	3310
846.478	3207
846.614	3085
846.75	3051
846.886	3058
847.022	3237
847.158	3150
847.294	3154
847.429	3272
847.565	3241
847.701	3458
847.837	3043
847.972	2975
848.108	3142
848.244	3173
848.379	2971
848.515	2933
848.65	2925
848.786	2963
848.921	3020
849.057	3093
849.192	3176
849.328	3089
849.463	3104
849.598	3093
849.734	3043
849.869	2994
850.004	2925
850.14	2937
850.275	2925
850.41	2819
850.545	2849
850.68	2922
850.815	2975
850.95	2975
851.085	3207
851.22	3089
851.355	3017
851.49	2979
851.625	3032
851.76	3020
851.895	2937
852.03	2918
852.165	3009
852.299	3119
852.434	3173
852.569	3142
852.703	3123
852.838	3218
852.973	3321
853.107	3348
853.242	3138
853.376	3108
853.511	2967
853.645	3062
853.78	3249
853.914	3142
854.048	3112
854.183	3062
854.317	3135
854.451	3302
854.585	3119
854.72	3077
854.854	3180
854.988	3047
855.122	3089
855.256	2960
855.39	3116
855.524	3241
855.658	3180
855.792	3146
855.926	3180
856.06	3256
856.194	3233
856.327	3150
856.461	3077
856.595	3066
856.729	3112
856.862	3211
856.996	3146
857.13	3211
857.263	3199
857.397	3279
857.53	3127
857.664	3211
857.797	3245
857.931	3283
858.064	3173
858.197	3169
858.331	3161
858.464	3081
858.597	3009
858.731	3100
858.864	3123
858.997	3051
859.13	3176
859.263	3157
859.396	3214
859.529	3062
859.662	3074
859.795	3039
859.928	3135
860.061	3256
860.194	3264
860.327	3173
860.46	3097
860.592	3241
860.725	3264
860.858	3253
860.99	3123
861.123	3043
861.256	3024
861.388	3173
861.521	3865
861.653	3055
861.786	2982
861.918	2975
862.05	3055
862.183	3077
862.315	3161
862.447	3184
862.58	3116
862.712	2963
862.844	2880
862.976	2960
863.108	3017
863.24	3325
863.372	2880
863.504	2944
863.636	2994
863.768	2994
863.9	2975
864.032	2914
864.164	2952
864.296	3017
864.428	3085
864.559	3051
864.691	3100
864.823	3051
864.954	3039
865.086	3055
865.217	3028
865.349	2967
865.48	2971
865.612	2994
865.743	3127
865.875	2998
866.006	2963
866.137	2975
866.269	2941
866.4	2967
866.531	2895
866.662	2910
866.793	2876
866.924	2880
867.055	2967
867.186	2899
867.317	2883
867.448	2792
867.579	2845
867.71	2864
867.841	2800
867.972	2910
868.103	2914
868.233	2838
868.364	2842
868.495	2914
868.625	3104
868.756	3131
868.886	2994
869.017	3005
869.147	3154
869.278	3165
869.408	3058
869.539	3024
869.669	3123
869.799	3024
869.929	3119
870.06	3112
870.19	3325
870.32	3287
870.45	3298
870.58	3351
870.71	3477
870.84	3443
870.97	3260
871.1	3233
871.23	3439
871.36	3443
871.489	3374
871.619	3420
871.749	3374
871.879	3409
872.008	3507
872.138	3359
872.267	3249
872.397	3146
872.526	3119
872.656	3013
872.785	3142
872.915	3253
873.044	3310
873.173	3218
873.303	3207
873.432	3226
873.561	3195
873.69	3157
873.819	3165
873.948	3192
874.077	3100
874.206	3036
874.335	3077
874.464	3237
874.593	3321
874.722	3268
874.851	3420
874.979	3370
875.108	3336
875.237	3207
875.365	3173
875.494	3138
875.623	3249
875.751	3081
875.88	3123
876.008	3176
876.136	3256
876.265	3348
876.393	3534
876.521	3424
876.65	3370
876.778	3340
876.906	3245
877.034	3195
877.162	3241
877.29	3165
877.418	3230
877.546	3237
877.674	3256
877.802	3260
877.93	3237
878.058	3116
878.185	3112
878.313	3207
878.441	3161
878.568	3074
878.696	3123
878.824	3218
878.951	3310
879.079	3416
879.206	3580
879.333	3435
879.461	3336
879.588	3355
879.715	3526
879.842	3584
879.97	3378
880.097	3161
880.224	3116
880.351	3237
880.478	3249
880.605	3199
880.732	3214
880.859	3473
880.986	3355
881.112	3317
881.239	3211
881.366	3104
881.493	3055
881.619	2994
881.746	3039
881.872	3062
881.999	3093
882.125	3188
882.252	3249
882.378	3306
882.505	3409
882.631	3298
882.757	3138
882.883	3233
883.01	3241
883.136	3150
883.262	3066
883.388	3108
883.514	3310
883.64	3336
883.766	3287
883.892	3195
884.018	3230
884.143	3378
884.269	3496
884.395	3203
884.52	3161
884.646	3161
884.772	3127
884.897	3093
885.023	3195
885.148	3294
885.274	3386
885.399	3348
885.524	3287
885.65	3188
885.775	3283
885.9	3272
886.025	3420
886.15	3386
886.275	3321
886.4	3211
886.525	3287
886.65	3291
886.775	3279
886.9	3447
887.025	3679
887.149	3401
887.274	3260
887.399	3207
887.523	3154
887.648	3157
887.773	3169
887.897	3359
888.021	3435
888.146	3283
888.27	3412
888.395	3564
888.519	3416
888.643	3435
888.767	3488
888.891	3336
889.015	3199
889.139	3302
889.263	3241
889.387	3431
889.511	3504
889.635	3458
889.759	3321
889.883	3325
890.006	3313
890.13	3473
890.254	3253
890.377	3348
890.501	3169
890.624	3157
890.748	3287
890.871	3161
890.995	3100
891.118	3081
891.241	3226
891.364	3233
891.488	3310
891.611	3192
891.734	3237
891.857	3287
891.98	3222
892.103	3336
892.226	3245
892.349	3226
892.471	3116
892.594	3226
892.717	3275
892.839	3222
892.962	3310
893.085	3386
893.207	3272
893.33	3123
893.452	3207
893.575	3348
893.697	3211
893.819	3466
893.941	3485
894.064	3458
894.186	3283
894.308	3249
894.43	3412
894.552	3564
894.674	3481
894.796	3306
894.918	3325
895.04	3302
895.161	3386
895.283	3393
895.405	3306
895.526	3340
895.648	3428
895.769	3424
895.891	3439
896.012	3447
896.134	3439
896.255	3439
896.376	3424
896.498	3359
896.619	3454
896.74	3351
896.861	3424
896.982	3644
897.103	3842
897.224	3625
897.345	3458
897.466	3420
897.587	3469
897.708	3591
897.828	3526
897.949	3458
898.07	3336
898.19	3397
898.311	3580
898.431	3458
898.552	3523
898.672	3580
898.792	3564
898.913	3519
899.033	3409
899.153	3298
899.273	3230
899.393	3283
899.513	3317
899.633	3336
899.753	3374
899.873	3249
899.993	3374
900.113	3332
900.232	3416
900.352	3321
900.472	3302
900.591	3188
900.711	3310
900.83	3253
900.95	3420
901.069	3515
901.189	3317
901.308	3161
901.427	3157
901.546	3226
901.665	3260
901.784	3336
901.904	3195
902.023	3169
902.141	3032
902.26	2998
902.379	3119
902.498	3089
902.617	3074
902.735	3184
902.854	3226
902.973	3165
903.091	3066
903.21	3089
903.328	3112
903.446	3074
903.565	3104
903.683	3180
903.801	3108
903.919	3245
904.038	3302
904.156	3157
904.274	3230
904.392	3241
904.51	3256
904.627	3302
904.745	3431
904.863	3500
904.981	3253
905.098	3188
905.216	3260
905.334	3313
905.451	3283
905.569	3317
905.686	3416
905.803	3447
905.921	3275
906.038	3458
906.155	3359
906.272	3264
906.389	3329
906.506	3222
906.623	3264
906.74	3275
906.857	3157
906.974	3241
907.091	3443
907.208	3576
907.324	3496
907.441	3389
907.557	3214
907.674	3207
907.79	3218
907.907	3260
908.023	3332
908.139	3393
908.256	3317
908.372	3367
908.488	3306
908.604	3256
908.72	3207
908.836	3298
908.952	3264
909.068	3336
909.184	3466
909.3	3405
909.415	3511
909.531	3450
909.647	3294
909.762	3245
909.878	3279
909.993	3363
910.108	3310
910.224	3332
910.339	3401
910.454	3325
910.57	3268
910.685	3272
910.8	3614
910.915	3530
911.03	3424
911.145	3264
911.259	3268
911.374	3321
911.489	3241
911.604	3237
911.718	3116
911.833	3180
911.947	2975
912.062	2971
912.176	3161
912.291	3165
912.405	3199
912.519	3420
912.633	3507
912.748	3332
912.862	3268
912.976	3154
913.09	3039
913.204	3157
913.318	3188
913.431	3310
913.545	3336
913.659	3397
913.772	3336
913.886	3199
914	3199
914.113	3359
914.226	3405
914.34	3367
914.453	3192
914.566	3405
914.68	3275
914.793	3313
914.906	3142
915.019	3089
915.132	3036
915.245	3150
915.358	3199
915.47	3214
915.583	3245
915.696	3306
915.809	3420
915.921	3450
916.034	3253
916.146	3264
916.259	3195
916.371	3382
916.483	3382
916.595	3253
916.708	3348
916.82	3351
916.932	3348
917.044	3359
917.156	3329
917.268	3226
917.38	3351
917.491	3272
917.603	3378
917.715	3450
917.826	3500
917.938	3382
918.049	3291
918.161	3458
918.272	3568
918.384	3587
918.495	3553
918.606	3332
918.717	3329
918.828	3424
918.939	3469
919.05	3340
919.161	3359
919.272	3218
919.383	3325
919.494	3523
919.604	3720
919.715	3542
919.826	3458
919.936	3481
920.047	3641
920.157	3564
920.267	3793
920.378	3637
920.488	3576
920.598	3838
920.708	3987
920.818	3884
920.928	3880
921.038	4048
921.148	4017
921.258	3755
921.368	3660
921.477	3660
921.587	3564
921.697	3553
921.806	3709
921.916	3542
922.025	3409
922.134	3435
922.244	3374
922.353	3473
922.462	3256
922.571	3287
922.68	3180
922.789	3138
922.898	3173
923.007	3123
923.116	3275
923.224	3203
923.333	3230
923.442	3173
923.55	3131
923.659	3211
923.767	3260
923.876	3192
923.984	3268
924.092	3180
924.201	3222
924.309	3260
924.417	3275
924.525	3233
924.633	3287
924.741	4177
924.849	3146
924.956	3340
925.064	3142
925.172	3104
925.279	3154
925.387	3207
925.494	3253
925.602	3378
925.709	3386
925.816	3233
925.924	3329
926.031	3389
926.138	3370
926.245	3409
926.352	3329
926.459	3447
926.566	3530
926.673	3370
926.779	3298
926.886	3291
926.993	3169
927.099	3226
927.206	3138
927.312	3157
927.419	3272
927.525	3237
927.631	3279
927.737	3180
927.843	3192
927.95	3081
928.056	3199
928.162	3188
928.267	3306
928.373	3922
928.479	3344
928.585	3081
928.69	3302
928.796	3310
928.901	3184
929.007	3119
929.112	3245
929.218	3192
929.323	3192
929.428	3203
929.533	3351
929.638	3161
929.743	3211
929.848	3264
929.953	3253
930.058	3195
930.163	3077
930.267	3108
930.372	3230
930.477	3051
930.581	3351
930.685	3218
930.79	3077
930.894	3131
930.998	3146
931.103	3332
931.207	3009
931.311	3001
931.415	2982
931.519	2815
931.623	2830
