Data from test_V78500241_1973.txt Node
Date: Fri Mar 25 16:28:52 CST 2022
User: usil
Spectrometer: V785-0024
Trigger mode: 0
Integration Time (sec): 4.000000E-1
Scans to average: 1
Nonlinearity correction enabled: false
Boxcar width: 0
Storing dark spectrum: false
XAxis mode: Wavelengths
Number of Pixels in Spectrum: 1024
>>>>>Begin Spectral Data<<<<<
801.071	2910
801.214	2956
801.356	2872
801.499	2876
801.641	2845
801.783	2914
801.926	3039
802.068	2975
802.211	2998
802.353	3009
802.496	2933
802.638	2998
802.78	3028
802.923	3043
803.065	3001
803.208	2906
803.35	2868
803.492	2933
803.635	2918
803.777	2743
803.919	2864
804.061	3157
804.204	2933
804.346	2891
804.488	2807
804.63	2952
804.773	2868
804.915	2891
805.057	3051
805.199	2971
805.341	2982
805.483	2982
805.626	2986
805.768	2975
805.91	3116
806.052	3123
806.194	3024
806.336	3230
806.478	3032
806.62	2944
806.762	2960
806.904	3039
807.046	3150
807.188	3009
807.33	2906
807.472	2963
807.614	2883
807.756	2967
807.898	2922
808.04	2895
808.182	2956
808.324	2952
808.465	2849
808.607	2857
808.749	2834
808.891	2845
809.033	2975
809.174	2982
809.316	2853
809.458	2899
809.6	2758
809.741	2754
809.883	2785
810.025	2853
810.166	2857
810.308	2811
810.45	2861
810.591	2766
810.733	2720
810.875	2819
811.016	2781
811.158	2785
811.299	2807
811.441	2929
811.582	2876
811.724	2796
811.865	2800
812.007	2895
812.148	2883
812.29	2838
812.431	2880
812.573	2922
812.714	2944
812.855	3047
812.997	3074
813.138	3131
813.279	2990
813.421	2971
813.562	2952
813.703	2868
813.845	2922
813.986	2758
814.127	2743
814.268	2826
814.41	2861
814.551	2804
814.692	2861
814.833	2796
814.974	2902
815.115	2948
815.256	2834
815.397	2796
815.539	2864
815.68	2777
815.821	2807
815.962	2998
816.103	2944
816.244	2864
816.385	2902
816.526	3005
816.666	2906
816.807	2727
816.948	2906
817.089	2902
817.23	2842
817.371	2750
817.512	2788
817.653	2830
817.793	2842
817.934	2872
818.075	2941
818.216	2998
818.356	3017
818.497	2868
818.638	2788
818.778	2819
818.919	2773
819.06	2743
819.2	2861
819.341	2804
819.481	2792
819.622	2914
819.762	3081
819.903	3043
820.043	2944
820.184	2906
820.324	2906
820.465	3047
820.605	3017
820.746	3005
820.886	2914
821.026	3100
821.167	3169
821.307	3272
821.447	3260
821.588	3203
821.728	3169
821.868	3214
822.008	3055
822.149	3233
822.289	3241
822.429	3104
822.569	3112
822.709	3150
822.849	3039
822.99	3055
823.13	3173
823.27	3199
823.41	3104
823.55	3127
823.69	3093
823.83	3214
823.97	3104
824.11	3005
824.25	2979
824.389	3066
824.529	3104
824.669	3097
824.809	3173
824.949	3283
825.089	3188
825.228	3157
825.368	3017
825.508	2922
825.648	2971
825.787	2990
825.927	3013
826.067	2998
826.206	2929
826.346	3051
826.485	3051
826.625	3142
826.765	3249
826.904	3233
827.044	2986
827.183	2910
827.323	2853
827.462	2971
827.601	2891
827.741	2922
827.88	2971
828.02	2842
828.159	2982
828.298	3028
828.437	3066
828.577	2990
828.716	3237
828.855	3070
828.994	2895
829.134	2872
829.273	2922
829.412	2876
829.551	2849
829.69	2883
829.829	2963
829.968	3135
830.107	2963
830.246	3017
830.385	2914
830.524	2883
830.663	2815
830.802	2716
830.941	2629
831.08	2636
831.219	2758
831.357	2739
831.496	2960
831.635	2746
831.774	2678
831.913	2644
832.051	2549
832.19	2549
832.329	2708
832.467	2511
832.606	2469
832.744	2617
832.883	2552
833.022	2571
833.16	2617
833.299	2682
833.437	2693
833.576	2689
833.714	2708
833.852	2705
833.991	2766
834.129	2826
834.267	2792
834.406	2807
834.544	2861
834.682	2868
834.821	2868
834.959	3051
835.097	2880
835.235	3066
835.373	2998
835.511	3009
835.65	2975
835.788	2986
835.926	2830
836.064	2781
836.202	2838
836.34	3066
836.478	3169
836.615	3039
836.753	3112
836.891	3211
837.029	3150
837.167	3066
837.305	3077
837.443	3047
837.58	2922
837.718	3127
837.856	3028
837.993	3047
838.131	3123
838.269	3093
838.406	3127
838.544	3070
838.681	2960
838.819	2902
838.956	2838
839.094	2826
839.231	2922
839.369	3005
839.506	3367
839.643	3192
839.781	3005
839.918	2963
840.055	3043
840.193	3043
840.33	3051
840.467	3100
840.604	3123
840.742	3382
840.879	3074
841.016	3032
841.153	3104
841.29	3344
841.427	3302
841.564	3264
841.701	3291
841.838	3195
841.975	3226
842.112	3226
842.249	3058
842.385	3005
842.522	3230
842.659	3009
842.796	3055
842.933	3123
843.069	3077
843.206	3047
843.343	3203
843.479	3104
843.616	3123
843.752	2918
843.889	2868
844.025	3036
844.162	2880
844.298	3051
844.435	2929
844.571	2910
844.708	3070
844.844	3180
844.98	3218
845.117	3169
845.253	3024
845.389	2975
845.525	3066
845.661	3104
845.798	2998
845.934	3127
846.07	3070
846.206	3203
846.342	3302
846.478	3214
846.614	3089
846.75	3036
846.886	3036
847.022	3249
847.158	3142
847.294	3176
847.429	3287
847.565	3203
847.701	3466
847.837	3043
847.972	2971
848.108	3142
848.244	3157
848.379	2979
848.515	2929
848.65	2902
848.786	2971
848.921	3020
849.057	3097
849.192	3085
849.328	3093
849.463	3097
849.598	3055
849.734	3028
849.869	3001
850.004	2849
850.14	3005
850.275	2906
850.41	2804
850.545	2876
850.68	2899
850.815	2937
850.95	2937
851.085	3176
851.22	3077
851.355	3070
851.49	2994
851.625	2979
851.76	3032
851.895	2937
852.03	2880
852.165	3036
852.299	3089
852.434	3165
852.569	3123
852.703	3157
852.838	3249
852.973	3310
853.107	3298
853.242	3116
853.376	3062
853.511	2948
853.645	3100
853.78	3253
853.914	3100
854.048	3112
854.183	3066
854.317	3142
854.451	3302
854.585	3100
854.72	3070
854.854	3180
854.988	3028
855.122	3081
855.256	2944
855.39	3070
855.524	3230
855.658	3176
855.792	3157
855.926	3176
856.06	3218
856.194	3222
856.327	3142
856.461	3104
856.595	3085
856.729	3081
856.862	3233
856.996	3154
857.13	3222
857.263	3203
857.397	3283
857.53	3119
857.664	3188
857.797	3253
857.931	3233
858.064	3169
858.197	3184
858.331	3135
858.464	3077
858.597	3036
858.731	3108
858.864	3112
858.997	3032
859.13	3146
859.263	3142
859.396	3173
859.529	3074
859.662	3062
859.795	3024
859.928	3123
860.061	3249
860.194	3279
860.327	3146
860.46	3104
860.592	3233
860.725	3264
860.858	3253
860.99	3058
861.123	3047
861.256	3032
861.388	3123
861.521	3808
861.653	2986
861.786	2956
861.918	3005
862.05	3051
862.183	3077
862.315	3146
862.447	3241
862.58	3062
862.712	2941
862.844	2861
862.976	2967
863.108	3005
863.24	3443
863.372	2842
863.504	2937
863.636	2922
863.768	3024
863.9	2994
864.032	2895
864.164	2929
864.296	2998
864.428	3074
864.559	3123
864.691	3062
864.823	3028
864.954	3043
865.086	3001
865.217	2941
865.349	2948
865.48	2971
865.612	3013
865.743	3127
865.875	2975
866.006	2956
866.137	2982
866.269	2933
866.4	2914
866.531	2922
866.662	2906
866.793	2891
866.924	2872
867.055	2971
867.186	2922
867.317	2853
867.448	2838
867.579	2849
867.71	2849
867.841	2826
867.972	2922
868.103	2906
868.233	2872
868.364	2880
868.495	2876
868.625	3112
868.756	3150
868.886	2956
869.017	3024
869.147	3169
869.278	3100
869.408	3036
869.539	3020
869.669	3127
869.799	3024
869.929	3135
870.06	3062
870.19	3306
870.32	3283
870.45	3291
870.58	3329
870.71	3435
870.84	3393
870.97	3260
871.1	3226
871.23	3439
871.36	3416
871.489	3374
871.619	3378
871.749	3405
871.879	3409
872.008	3466
872.138	3348
872.267	3268
872.397	3123
872.526	3116
872.656	3039
872.785	3066
872.915	3249
873.044	3329
873.173	3218
873.303	3272
873.432	3214
873.561	3218
873.69	3157
873.819	3135
873.948	3237
874.077	3135
874.206	3032
874.335	3066
874.464	3245
874.593	3332
874.722	3226
874.851	3359
874.979	3317
875.108	3325
875.237	3142
875.365	3157
875.494	3127
875.623	3211
875.751	3074
875.88	3119
876.008	3169
876.136	3203
876.265	3382
876.393	3507
876.521	3428
876.65	3389
876.778	3329
876.906	3226
877.034	3173
877.162	3199
877.29	3173
877.418	3230
877.546	3230
877.674	3241
877.802	3218
877.93	3195
878.058	3154
878.185	3104
878.313	3203
878.441	3165
878.568	3077
878.696	3127
878.824	3192
878.951	3237
879.079	3435
879.206	3606
879.333	3412
879.461	3294
879.588	3351
879.715	3469
879.842	3542
879.97	3405
880.097	3165
880.224	3150
880.351	3195
880.478	3230
880.605	3157
880.732	3192
880.859	3473
880.986	3275
881.112	3287
881.239	3180
881.366	3085
881.493	3055
881.619	3062
881.746	3070
881.872	3116
881.999	3074
882.125	3127
882.252	3211
882.378	3306
882.505	3405
882.631	3275
882.757	3100
882.883	3203
883.01	3249
883.136	3150
883.262	3070
883.388	3123
883.514	3310
883.64	3340
883.766	3302
883.892	3173
884.018	3237
884.143	3359
884.269	3542
884.395	3165
884.52	3188
884.646	3176
884.772	3135
884.897	3058
885.023	3169
885.148	3325
885.274	3409
885.399	3389
885.524	3241
885.65	3256
885.775	3329
885.9	3230
886.025	3424
886.15	3386
886.275	3313
886.4	3207
886.525	3313
886.65	3230
886.775	3256
886.9	3492
887.025	3561
887.149	3382
887.274	3230
887.399	3173
887.523	3192
887.648	3165
887.773	3154
887.897	3409
888.021	3389
888.146	3279
888.27	3420
888.395	3538
888.519	3435
888.643	3409
888.767	3462
888.891	3241
889.015	3214
889.139	3291
889.263	3249
889.387	3378
889.511	3507
889.635	3405
889.759	3275
889.883	3279
890.006	3382
890.13	3462
890.254	3260
890.377	3306
890.501	3199
890.624	3161
890.748	3287
890.871	3154
890.995	3100
891.118	3039
891.241	3142
891.364	3176
891.488	3313
891.611	3131
891.734	3211
891.857	3230
891.98	3218
892.103	3294
892.226	3245
892.349	3161
892.471	3131
892.594	3237
892.717	3291
892.839	3237
892.962	3294
893.085	3332
893.207	3233
893.33	3100
893.452	3142
893.575	3317
893.697	3241
893.819	3428
893.941	3485
894.064	3409
894.186	3214
894.308	3241
894.43	3386
894.552	3515
894.674	3466
894.796	3272
894.918	3249
895.04	3268
895.161	3409
895.283	3386
895.405	3272
895.526	3397
895.648	3382
895.769	3386
895.891	3439
896.012	3473
896.134	3466
896.255	3378
896.376	3336
896.498	3367
896.619	3389
896.74	3389
896.861	3397
896.982	3667
897.103	3827
897.224	3557
897.345	3477
897.466	3443
897.587	3462
897.708	3603
897.828	3538
897.949	3435
898.07	3310
898.19	3378
898.311	3599
898.431	3462
898.552	3519
898.672	3580
898.792	3549
898.913	3523
899.033	3431
899.153	3241
899.273	3222
899.393	3287
899.513	3336
899.633	3313
899.753	3344
899.873	3313
899.993	3370
900.113	3359
900.232	3351
900.352	3363
900.472	3298
900.591	3237
900.711	3302
900.83	3260
900.95	3374
901.069	3515
901.189	3344
901.308	3203
901.427	3154
901.546	3214
901.665	3298
901.784	3325
901.904	3249
902.023	3203
902.141	3047
902.26	3077
902.379	3127
902.498	3116
902.617	3066
902.735	3253
902.854	3249
902.973	3253
903.091	3100
903.21	3097
903.328	3142
903.446	3173
903.565	3123
903.683	3222
903.801	3154
903.919	3272
904.038	3336
904.156	3214
904.274	3340
904.392	3260
904.51	3329
904.627	3393
904.745	3477
904.863	3511
904.981	3275
905.098	3195
905.216	3233
905.334	3325
905.451	3367
905.569	3359
905.686	3443
905.803	3481
905.921	3321
906.038	3496
906.155	3393
906.272	3294
906.389	3367
906.506	3237
906.623	3245
906.74	3351
906.857	3214
906.974	3302
907.091	3485
907.208	3557
907.324	3500
907.441	3428
907.557	3291
907.674	3294
907.79	3275
907.907	3363
908.023	3424
908.139	3428
908.256	3359
908.372	3397
908.488	3389
908.604	3321
908.72	3294
908.836	3310
908.952	3348
909.068	3393
909.184	3515
909.3	3450
909.415	3534
909.531	3488
909.647	3329
909.762	3313
909.878	3321
909.993	3412
910.108	3363
910.224	3409
910.339	3424
910.454	3374
910.57	3310
910.685	3272
910.8	3610
910.915	3587
911.03	3488
911.145	3268
911.259	3310
911.374	3355
911.489	3294
911.604	3241
911.718	3180
911.833	3211
911.947	3055
912.062	3017
912.176	3207
912.291	3207
912.405	3241
912.519	3424
912.633	3523
912.748	3378
912.862	3325
912.976	3192
913.09	3104
913.204	3176
913.318	3264
913.431	3329
913.545	3363
913.659	3443
913.772	3344
913.886	3268
914	3260
914.113	3382
914.226	3462
914.34	3386
914.453	3253
914.566	3450
914.68	3359
914.793	3336
914.906	3157
915.019	3119
915.132	3085
915.245	3199
915.358	3253
915.47	3268
915.583	3298
915.696	3313
915.809	3458
915.921	3466
916.034	3291
916.146	3306
916.259	3268
916.371	3401
916.483	3397
916.595	3294
916.708	3359
916.82	3393
916.932	3348
917.044	3378
917.156	3393
917.268	3302
917.38	3325
917.491	3321
917.603	3397
917.715	3466
917.826	3492
917.938	3435
918.049	3317
918.161	3428
918.272	3595
918.384	3599
918.495	3515
918.606	3367
918.717	3287
918.828	3367
918.939	3431
919.05	3329
919.161	3351
919.272	3157
919.383	3332
919.494	3504
919.604	3736
919.715	3466
919.826	3412
919.936	3515
920.047	3610
920.157	3572
920.267	3766
920.378	3633
920.488	3599
920.598	3827
920.708	3987
920.818	3880
920.928	3888
921.038	4059
921.148	4040
921.258	3755
921.368	3641
921.477	3633
921.587	3572
921.697	3458
921.806	3652
921.916	3538
922.025	3378
922.134	3374
922.244	3321
922.353	3504
922.462	3302
922.571	3298
922.68	3116
922.789	3089
922.898	3154
923.007	3127
923.116	3222
923.224	3161
923.333	3218
923.442	3112
923.55	3116
923.659	3157
923.767	3279
923.876	3116
923.984	3272
924.092	3119
924.201	3237
924.309	3245
924.417	3256
924.525	3199
924.633	3245
924.741	4192
924.849	3058
924.956	3287
925.064	3138
925.172	3066
925.279	3112
925.387	3230
925.494	3230
925.602	3382
925.709	3386
925.816	3218
925.924	3313
926.031	3370
926.138	3348
926.245	3382
926.352	3275
926.459	3428
926.566	3496
926.673	3351
926.779	3279
926.886	3249
926.993	3184
927.099	3154
927.206	3142
927.312	3127
927.419	3256
927.525	3249
927.631	3310
927.737	3173
927.843	3173
927.95	3066
928.056	3180
928.162	3176
928.267	3283
928.373	3873
928.479	3317
928.585	3112
928.69	3237
928.796	3329
928.901	3180
929.007	3085
929.112	3226
929.218	3176
929.323	3150
929.428	3157
929.533	3340
929.638	3150
929.743	3203
929.848	3241
929.953	3214
930.058	3192
930.163	3039
930.267	3062
930.372	3218
930.477	3089
930.581	3329
930.685	3195
930.79	3093
930.894	3138
930.998	3093
931.103	3268
931.207	2963
931.311	2975
931.415	2895
931.519	2819
931.623	2853
