Data from test_V78500241_1061.txt Node
Date: Fri Mar 25 16:22:33 CST 2022
User: usil
Spectrometer: V785-0024
Trigger mode: 0
Integration Time (sec): 4.000000E-1
Scans to average: 1
Nonlinearity correction enabled: false
Boxcar width: 0
Storing dark spectrum: false
XAxis mode: Wavelengths
Number of Pixels in Spectrum: 1024
>>>>>Begin Spectral Data<<<<<
801.071	2922
801.214	2944
801.356	2864
801.499	2864
801.641	2876
801.783	2922
801.926	3032
802.068	3017
802.211	2967
802.353	3028
802.496	2994
802.638	3013
802.78	3043
802.923	3066
803.065	3001
803.208	2880
803.35	2883
803.492	2910
803.635	2929
803.777	2750
803.919	2826
804.061	3176
804.204	2971
804.346	2941
804.488	2853
804.63	2963
804.773	2876
804.915	2941
805.057	3074
805.199	2906
805.341	2960
805.483	3032
805.626	3013
805.768	2929
805.91	3100
806.052	3089
806.194	3017
806.336	3241
806.478	3005
806.62	2929
806.762	2986
806.904	3032
807.046	3173
807.188	2998
807.33	2872
807.472	2994
807.614	2899
807.756	2982
807.898	2906
808.04	2872
808.182	2986
808.324	2922
808.465	2895
808.607	2876
808.749	2815
808.891	2842
809.033	2929
809.174	2979
809.316	2883
809.458	2891
809.6	2754
809.741	2769
809.883	2762
810.025	2842
810.166	2849
810.308	2823
810.45	2845
810.591	2716
810.733	2758
810.875	2834
811.016	2766
811.158	2735
811.299	2758
811.441	2902
811.582	2899
811.724	2823
811.865	2845
812.007	2887
812.148	2880
812.29	2792
812.431	2891
812.573	2944
812.714	2975
812.855	3036
812.997	3051
813.138	3135
813.279	2971
813.421	2979
813.562	2941
813.703	2883
813.845	2891
813.986	2785
814.127	2720
814.268	2823
814.41	2838
814.551	2800
814.692	2883
814.833	2819
814.974	2872
815.115	2979
815.256	2823
815.397	2823
815.539	2842
815.68	2766
815.821	2792
815.962	2914
816.103	2918
816.244	2853
816.385	2826
816.526	2986
816.666	2925
816.807	2758
816.948	2880
817.089	2883
817.23	2853
817.371	2796
817.512	2804
817.653	2864
817.793	2792
817.934	2880
818.075	2948
818.216	2937
818.356	3005
818.497	2895
818.638	2762
818.778	2792
818.919	2785
819.06	2766
819.2	2857
819.341	2792
819.481	2804
819.622	2937
819.762	3085
819.903	3020
820.043	2937
820.184	2895
820.324	2872
820.465	3017
820.605	3020
820.746	3020
820.886	2937
821.026	3104
821.167	3142
821.307	3241
821.447	3268
821.588	3226
821.728	3214
821.868	3173
822.008	3077
822.149	3169
822.289	3142
822.429	3127
822.569	3081
822.709	3154
822.849	3024
822.99	3058
823.13	3203
823.27	3222
823.41	3165
823.55	3131
823.69	3150
823.83	3195
823.97	3074
824.11	2998
824.25	3017
824.389	3028
824.529	3081
824.669	3066
824.809	3199
824.949	3203
825.089	3249
825.228	3119
825.368	3001
825.508	2971
825.648	2963
825.787	3005
825.927	3020
826.067	2975
826.206	2960
826.346	3043
826.485	3058
826.625	3089
826.765	3283
826.904	3180
827.044	2975
827.183	2895
827.323	2864
827.462	2994
827.601	2929
827.741	2948
827.88	2948
828.02	2861
828.159	2971
828.298	3028
828.437	3062
828.577	3020
828.716	3211
828.855	3085
828.994	2914
829.134	2925
829.273	2899
829.412	2834
829.551	2872
829.69	2864
829.829	2960
829.968	3112
830.107	2971
830.246	3036
830.385	2933
830.524	2880
830.663	2788
830.802	2727
830.941	2659
831.08	2617
831.219	2754
831.357	2739
831.496	2925
831.635	2750
831.774	2632
831.913	2621
832.051	2522
832.19	2575
832.329	2663
832.467	2518
832.606	2503
832.744	2579
832.883	2590
833.022	2568
833.16	2651
833.299	2667
833.437	2697
833.576	2693
833.714	2697
833.852	2731
833.991	2766
834.129	2823
834.267	2830
834.406	2769
834.544	2842
834.682	2845
834.821	2868
834.959	3074
835.097	2891
835.235	3077
835.373	3001
835.511	3024
835.65	2952
835.788	2952
835.926	2800
836.064	2819
836.202	2834
836.34	3089
836.478	3138
836.615	3051
836.753	3097
836.891	3230
837.029	3188
837.167	3093
837.305	3062
837.443	3066
837.58	2948
837.718	3127
837.856	3077
837.993	3017
838.131	3112
838.269	3081
838.406	3077
838.544	3043
838.681	2941
838.819	2914
838.956	2800
839.094	2815
839.231	2902
839.369	3013
839.506	3340
839.643	3233
839.781	3017
839.918	2937
840.055	3047
840.193	3043
840.33	3058
840.467	3093
840.604	3089
840.742	3355
840.879	3077
841.016	3066
841.153	3104
841.29	3317
841.427	3306
841.564	3253
841.701	3291
841.838	3203
841.975	3188
842.112	3176
842.249	3108
842.385	3013
842.522	3237
842.659	3066
842.796	3070
842.933	3077
843.069	3017
843.206	3024
843.343	3192
843.479	3146
843.616	3123
843.752	2891
843.889	2853
844.025	3089
844.162	2872
844.298	3081
844.435	2948
844.571	2891
844.708	3055
844.844	3203
844.98	3214
845.117	3184
845.253	3089
845.389	3013
845.525	3116
845.661	3070
845.798	3074
845.934	3119
846.07	3047
846.206	3203
846.342	3355
846.478	3203
846.614	3081
846.75	3066
846.886	3055
847.022	3245
847.158	3138
847.294	3203
847.429	3237
847.565	3207
847.701	3511
847.837	3085
847.972	3009
848.108	3188
848.244	3154
848.379	2982
848.515	2967
848.65	2933
848.786	2941
848.921	3032
849.057	3085
849.192	3154
849.328	3055
849.463	3123
849.598	3032
849.734	3036
849.869	2986
850.004	2902
850.14	2956
850.275	2941
850.41	2845
850.545	2838
850.68	2918
850.815	2941
850.95	2956
851.085	3203
851.22	3089
851.355	3058
851.49	2990
851.625	3009
851.76	3024
851.895	2941
852.03	2899
852.165	3047
852.299	3089
852.434	3184
852.569	3116
852.703	3154
852.838	3241
852.973	3340
853.107	3363
853.242	3157
853.376	3085
853.511	2948
853.645	3062
853.78	3222
853.914	3104
854.048	3085
854.183	3108
854.317	3116
854.451	3275
854.585	3104
854.72	3051
854.854	3214
854.988	3074
855.122	3093
855.256	2986
855.39	3112
855.524	3211
855.658	3138
855.792	3154
855.926	3192
856.06	3184
856.194	3233
856.327	3150
856.461	3104
856.595	3081
856.729	3085
856.862	3199
856.996	3169
857.13	3180
857.263	3218
857.397	3245
857.53	3108
857.664	3188
857.797	3237
857.931	3298
858.064	3135
858.197	3192
858.331	3116
858.464	3081
858.597	3001
858.731	3062
858.864	3112
858.997	3074
859.13	3157
859.263	3165
859.396	3188
859.529	3097
859.662	3058
859.795	3039
859.928	3138
860.061	3302
860.194	3291
860.327	3131
860.46	3108
860.592	3230
860.725	3218
860.858	3233
860.99	3150
861.123	3036
861.256	3036
861.388	3108
861.521	3823
861.653	3005
861.786	2963
861.918	3001
862.05	3039
862.183	3074
862.315	3138
862.447	3165
862.58	3100
862.712	2937
862.844	2887
862.976	3051
863.108	2994
863.24	3458
863.372	2853
863.504	2956
863.636	2933
863.768	3055
863.9	3001
864.032	2910
864.164	2948
864.296	3009
864.428	3047
864.559	3093
864.691	3039
864.823	3097
864.954	3032
865.086	3009
865.217	3024
865.349	2952
865.48	2975
865.612	3009
865.743	3154
865.875	2967
866.006	2906
866.137	2982
866.269	2960
866.4	2944
866.531	2914
866.662	2876
866.793	2902
866.924	2891
867.055	2982
867.186	2925
867.317	2864
867.448	2834
867.579	2834
867.71	2842
867.841	2796
867.972	2910
868.103	2880
868.233	2861
868.364	2868
868.495	2883
868.625	3112
868.756	3154
868.886	2948
869.017	2948
869.147	3195
869.278	3135
869.408	3066
869.539	3039
869.669	3066
869.799	2994
869.929	3131
870.06	3081
870.19	3291
870.32	3272
870.45	3317
870.58	3370
870.71	3485
870.84	3447
870.97	3298
871.1	3237
871.23	3492
871.36	3454
871.489	3367
871.619	3401
871.749	3393
871.879	3412
872.008	3447
872.138	3393
872.267	3298
872.397	3138
872.526	3085
872.656	3009
872.785	3097
872.915	3211
873.044	3291
873.173	3180
873.303	3214
873.432	3230
873.561	3222
873.69	3195
873.819	3131
873.948	3203
874.077	3123
874.206	3036
874.335	3093
874.464	3192
874.593	3313
874.722	3272
874.851	3374
874.979	3291
875.108	3298
875.237	3207
875.365	3135
875.494	3157
875.623	3245
875.751	3039
875.88	3138
876.008	3199
876.136	3214
876.265	3370
876.393	3485
876.521	3454
876.65	3393
876.778	3283
876.906	3230
877.034	3176
877.162	3222
877.29	3192
877.418	3195
877.546	3253
877.674	3253
877.802	3241
877.93	3207
878.058	3112
878.185	3070
878.313	3154
878.441	3188
878.568	3077
878.696	3135
878.824	3275
878.951	3310
879.079	3462
879.206	3606
879.333	3405
879.461	3359
879.588	3393
879.715	3435
879.842	3580
879.97	3329
880.097	3146
880.224	3188
880.351	3142
880.478	3218
880.605	3207
880.732	3184
880.859	3466
880.986	3294
881.112	3351
881.239	3188
881.366	3074
881.493	3039
881.619	3032
881.746	3081
881.872	3085
881.999	3097
882.125	3142
882.252	3237
882.378	3260
882.505	3409
882.631	3275
882.757	3161
882.883	3195
883.01	3180
883.136	3154
883.262	3123
883.388	3150
883.514	3321
883.64	3355
883.766	3321
883.892	3173
884.018	3203
884.143	3409
884.269	3519
884.395	3188
884.52	3180
884.646	3161
884.772	3100
884.897	3081
885.023	3188
885.148	3340
885.274	3450
885.399	3389
885.524	3272
885.65	3241
885.775	3329
885.9	3253
886.025	3431
886.15	3367
886.275	3287
886.4	3230
886.525	3287
886.65	3253
886.775	3253
886.9	3488
887.025	3625
887.149	3382
887.274	3226
887.399	3176
887.523	3195
887.648	3180
887.773	3161
887.897	3382
888.021	3348
888.146	3325
888.27	3412
888.395	3519
888.519	3405
888.643	3439
888.767	3439
888.891	3325
889.015	3226
889.139	3332
889.263	3214
889.387	3325
889.511	3511
889.635	3405
889.759	3264
889.883	3287
890.006	3401
890.13	3477
890.254	3241
890.377	3321
890.501	3207
890.624	3180
890.748	3317
890.871	3203
890.995	3051
891.118	3036
891.241	3173
891.364	3249
891.488	3313
891.611	3184
891.734	3207
891.857	3256
891.98	3241
892.103	3332
892.226	3268
892.349	3192
892.471	3123
892.594	3245
892.717	3264
892.839	3260
892.962	3245
893.085	3348
893.207	3313
893.33	3150
893.452	3214
893.575	3351
893.697	3237
893.819	3450
893.941	3507
894.064	3439
894.186	3306
894.308	3272
894.43	3401
894.552	3515
894.674	3447
894.796	3294
894.918	3298
895.04	3287
895.161	3420
895.283	3389
895.405	3294
895.526	3340
895.648	3431
895.769	3412
895.891	3435
896.012	3469
896.134	3473
896.255	3424
896.376	3367
896.498	3351
896.619	3374
896.74	3325
896.861	3420
896.982	3713
897.103	3804
897.224	3599
897.345	3469
897.466	3397
897.587	3466
897.708	3591
897.828	3538
897.949	3412
898.07	3321
898.19	3386
898.311	3580
898.431	3420
898.552	3557
898.672	3561
898.792	3587
898.913	3507
899.033	3378
899.153	3310
899.273	3184
899.393	3275
899.513	3317
899.633	3287
899.753	3325
899.873	3332
899.993	3401
900.113	3336
900.232	3329
900.352	3302
900.472	3245
900.591	3207
900.711	3260
900.83	3233
900.95	3409
901.069	3473
901.189	3317
901.308	3173
901.427	3161
901.546	3188
901.665	3359
901.784	3321
901.904	3184
902.023	3123
902.141	2975
902.26	2967
902.379	3138
902.498	3077
902.617	3043
902.735	3154
902.854	3222
902.973	3237
903.091	3047
903.21	3066
903.328	3138
903.446	3116
903.565	3074
903.683	3214
903.801	3142
903.919	3211
904.038	3237
904.156	3169
904.274	3275
904.392	3233
904.51	3294
904.627	3310
904.745	3447
904.863	3458
904.981	3245
905.098	3127
905.216	3230
905.334	3294
905.451	3279
905.569	3329
905.686	3386
905.803	3401
905.921	3275
906.038	3428
906.155	3359
906.272	3291
906.389	3329
906.506	3203
906.623	3253
906.74	3287
906.857	3253
906.974	3226
907.091	3485
907.208	3542
907.324	3462
907.441	3386
907.557	3230
907.674	3275
907.79	3180
907.907	3272
908.023	3378
908.139	3389
908.256	3321
908.372	3370
908.488	3367
908.604	3230
908.72	3230
908.836	3283
908.952	3249
909.068	3340
909.184	3477
909.3	3378
909.415	3515
909.531	3469
909.647	3291
909.762	3298
909.878	3226
909.993	3378
910.108	3298
910.224	3317
910.339	3401
910.454	3298
910.57	3268
910.685	3222
910.8	3561
910.915	3549
911.03	3409
911.145	3230
911.259	3268
911.374	3291
911.489	3237
911.604	3214
911.718	3116
911.833	3150
911.947	3020
912.062	2960
912.176	3146
912.291	3211
912.405	3188
912.519	3401
912.633	3504
912.748	3298
912.862	3233
912.976	3165
913.09	3077
913.204	3135
913.318	3207
913.431	3279
913.545	3321
913.659	3397
913.772	3302
913.886	3214
914	3195
914.113	3306
914.226	3431
914.34	3363
914.453	3184
914.566	3374
914.68	3275
914.793	3306
914.906	3097
915.019	3119
915.132	3039
915.245	3180
915.358	3233
915.47	3199
915.583	3256
915.696	3260
915.809	3435
915.921	3424
916.034	3268
916.146	3264
916.259	3253
916.371	3378
916.483	3367
916.595	3249
916.708	3287
916.82	3325
916.932	3306
917.044	3313
917.156	3348
917.268	3283
917.38	3302
917.491	3279
917.603	3420
917.715	3439
917.826	3504
917.938	3409
918.049	3260
918.161	3431
918.272	3606
918.384	3557
918.495	3473
918.606	3329
918.717	3253
918.828	3363
918.939	3416
919.05	3268
919.161	3412
919.272	3203
919.383	3272
919.494	3507
919.604	3736
919.715	3530
919.826	3416
919.936	3504
920.047	3656
920.157	3584
920.267	3797
920.378	3648
920.488	3637
920.598	3823
920.708	3998
920.818	3823
920.928	3869
921.038	4063
921.148	4006
921.258	3682
921.368	3679
921.477	3595
921.587	3618
921.697	3496
921.806	3671
921.916	3538
922.025	3409
922.134	3389
922.244	3401
922.353	3450
922.462	3325
922.571	3253
922.68	3135
922.789	3142
922.898	3176
923.007	3131
923.116	3253
923.224	3218
923.333	3203
923.442	3173
923.55	3100
923.659	3184
923.767	3272
923.876	3150
923.984	3275
924.092	3165
924.201	3226
924.309	3283
924.417	3268
924.525	3222
924.633	3287
924.741	4238
924.849	3077
924.956	3302
925.064	3142
925.172	3058
925.279	3146
925.387	3241
925.494	3233
925.602	3420
925.709	3382
925.816	3233
925.924	3325
926.031	3424
926.138	3340
926.245	3431
926.352	3260
926.459	3431
926.566	3481
926.673	3367
926.779	3310
926.886	3313
926.993	3203
927.099	3157
927.206	3119
927.312	3157
927.419	3256
927.525	3275
927.631	3275
927.737	3165
927.843	3169
927.95	3070
928.056	3180
928.162	3203
928.267	3287
928.373	3930
928.479	3386
928.585	3108
928.69	3230
928.796	3298
928.901	3176
929.007	3085
929.112	3275
929.218	3207
929.323	3214
929.428	3169
929.533	3313
929.638	3165
929.743	3237
929.848	3287
929.953	3241
930.058	3195
930.163	3039
930.267	3093
930.372	3256
930.477	3089
930.581	3336
930.685	3173
930.79	3127
930.894	3161
930.998	3157
931.103	3313
931.207	3009
931.311	2948
931.415	2941
931.519	2815
931.623	2864
