Data from test_V78500241_1685.txt Node
Date: Fri Mar 25 16:26:52 CST 2022
User: usil
Spectrometer: V785-0024
Trigger mode: 0
Integration Time (sec): 4.000000E-1
Scans to average: 1
Nonlinearity correction enabled: false
Boxcar width: 0
Storing dark spectrum: false
XAxis mode: Wavelengths
Number of Pixels in Spectrum: 1024
>>>>>Begin Spectral Data<<<<<
801.071	2906
801.214	2925
801.356	2868
801.499	2883
801.641	2857
801.783	2929
801.926	3028
802.068	2986
802.211	2994
802.353	3062
802.496	2963
802.638	2986
802.78	3039
802.923	3036
803.065	3032
803.208	2918
803.35	2922
803.492	2922
803.635	2902
803.777	2750
803.919	2861
804.061	3233
804.204	2929
804.346	2891
804.488	2853
804.63	2986
804.773	2899
804.915	2922
805.057	3055
805.199	2952
805.341	2994
805.483	3036
805.626	2990
805.768	2982
805.91	3085
806.052	3077
806.194	3066
806.336	3222
806.478	3039
806.62	2944
806.762	3013
806.904	3062
807.046	3161
807.188	2986
807.33	2902
807.472	3001
807.614	2899
807.756	3020
807.898	2933
808.04	2880
808.182	2971
808.324	2982
808.465	2891
808.607	2883
808.749	2800
808.891	2872
809.033	2933
809.174	2971
809.316	2891
809.458	2895
809.6	2777
809.741	2788
809.883	2758
810.025	2872
810.166	2880
810.308	2853
810.45	2849
810.591	2758
810.733	2804
810.875	2838
811.016	2785
811.158	2743
811.299	2823
811.441	2922
811.582	2906
811.724	2804
811.865	2857
812.007	2925
812.148	2895
812.29	2845
812.431	2895
812.573	2922
812.714	2963
812.855	3047
812.997	3062
813.138	3112
813.279	2986
813.421	2963
813.562	2963
813.703	2883
813.845	2876
813.986	2792
814.127	2686
814.268	2857
814.41	2857
814.551	2823
814.692	2876
814.833	2815
814.974	2887
815.115	2937
815.256	2853
815.397	2819
815.539	2883
815.68	2777
815.821	2785
815.962	2922
816.103	2933
816.244	2902
816.385	2857
816.526	2979
816.666	2922
816.807	2754
816.948	2899
817.089	2922
817.23	2861
817.371	2750
817.512	2838
817.653	2883
817.793	2823
817.934	2864
818.075	2963
818.216	2944
818.356	3013
818.497	2880
818.638	2800
818.778	2845
818.919	2800
819.06	2762
819.2	2876
819.341	2830
819.481	2811
819.622	2979
819.762	3157
819.903	3005
820.043	2872
820.184	2887
820.324	2891
820.465	2979
820.605	3001
820.746	3043
820.886	2918
821.026	3074
821.167	3165
821.307	3249
821.447	3272
821.588	3256
821.728	3218
821.868	3184
822.008	3058
822.149	3188
822.289	3226
822.429	3085
822.569	3089
822.709	3146
822.849	3024
822.99	3043
823.13	3135
823.27	3211
823.41	3104
823.55	3123
823.69	3154
823.83	3207
823.97	3093
824.11	3005
824.25	2994
824.389	3036
824.529	3123
824.669	3074
824.809	3184
824.949	3272
825.089	3188
825.228	3135
825.368	2990
825.508	2960
825.648	2971
825.787	2960
825.927	3051
826.067	2975
826.206	2944
826.346	3017
826.485	3093
826.625	3138
826.765	3279
826.904	3195
827.044	3005
827.183	2960
827.323	2868
827.462	3013
827.601	2895
827.741	2902
827.88	2941
828.02	2853
828.159	2952
828.298	3032
828.437	3100
828.577	3009
828.716	3237
828.855	3066
828.994	2929
829.134	2887
829.273	2910
829.412	2864
829.551	2876
829.69	2868
829.829	3013
829.968	3131
830.107	3009
830.246	2990
830.385	2925
830.524	2880
830.663	2800
830.802	2762
830.941	2644
831.08	2663
831.219	2724
831.357	2754
831.496	2910
831.635	2689
831.774	2651
831.913	2667
832.051	2552
832.19	2579
832.329	2667
832.467	2564
832.606	2480
832.744	2583
832.883	2579
833.022	2575
833.16	2629
833.299	2697
833.437	2682
833.576	2716
833.714	2705
833.852	2731
833.991	2727
834.129	2842
834.267	2781
834.406	2792
834.544	2853
834.682	2876
834.821	2826
834.959	3055
835.097	2906
835.235	3074
835.373	2975
835.511	3036
835.65	2952
835.788	2979
835.926	2845
836.064	2769
836.202	2849
836.34	3070
836.478	3146
836.615	3100
836.753	3142
836.891	3188
837.029	3150
837.167	3104
837.305	3013
837.443	3013
837.58	2975
837.718	3150
837.856	3051
837.993	3070
838.131	3108
838.269	3074
838.406	3100
838.544	3066
838.681	2975
838.819	2925
838.956	2815
839.094	2804
839.231	2906
839.369	3028
839.506	3393
839.643	3222
839.781	3009
839.918	2975
840.055	3013
840.193	3024
840.33	3028
840.467	3100
840.604	3173
840.742	3393
840.879	3036
841.016	3085
841.153	3085
841.29	3329
841.427	3310
841.564	3275
841.701	3355
841.838	3218
841.975	3188
842.112	3211
842.249	3032
842.385	3017
842.522	3291
842.659	3066
842.796	3043
842.933	3081
843.069	3017
843.206	3032
843.343	3176
843.479	3165
843.616	3146
843.752	2910
843.889	2853
844.025	3047
844.162	2887
844.298	3074
844.435	2960
844.571	2952
844.708	3055
844.844	3169
844.98	3237
845.117	3245
845.253	3039
845.389	2998
845.525	3085
845.661	3093
845.798	2998
845.934	3108
846.07	3043
846.206	3188
846.342	3291
846.478	3233
846.614	3093
846.75	3047
846.886	3001
847.022	3222
847.158	3097
847.294	3226
847.429	3249
847.565	3241
847.701	3485
847.837	3001
847.972	3020
848.108	3119
848.244	3135
848.379	2967
848.515	2933
848.65	2929
848.786	2960
848.921	3017
849.057	3142
849.192	3119
849.328	3074
849.463	3116
849.598	3043
849.734	3005
849.869	2986
850.004	2914
850.14	2941
850.275	2914
850.41	2899
850.545	2887
850.68	2948
850.815	2937
850.95	2986
851.085	3241
851.22	3123
851.355	3028
851.49	2982
851.625	3001
851.76	3005
851.895	2937
852.03	2922
852.165	3051
852.299	3093
852.434	3157
852.569	3146
852.703	3173
852.838	3249
852.973	3355
853.107	3317
853.242	3123
853.376	3081
853.511	2998
853.645	3024
853.78	3260
853.914	3089
854.048	3085
854.183	3108
854.317	3097
854.451	3302
854.585	3108
854.72	3089
854.854	3199
854.988	3024
855.122	3085
855.256	2979
855.39	3123
855.524	3173
855.658	3165
855.792	3131
855.926	3211
856.06	3207
856.194	3268
856.327	3135
856.461	3085
856.595	3062
856.729	3077
856.862	3203
856.996	3161
857.13	3230
857.263	3226
857.397	3237
857.53	3100
857.664	3184
857.797	3253
857.931	3272
858.064	3097
858.197	3222
858.331	3123
858.464	3093
858.597	2960
858.731	3146
858.864	3085
858.997	3070
859.13	3142
859.263	3180
859.396	3199
859.529	3081
859.662	3089
859.795	3058
859.928	3081
860.061	3268
860.194	3256
860.327	3116
860.46	3089
860.592	3241
860.725	3245
860.858	3218
860.99	3089
861.123	3043
861.256	3009
861.388	3157
861.521	3850
861.653	3020
861.786	2975
861.918	2975
862.05	3093
862.183	3077
862.315	3184
862.447	3211
862.58	3066
862.712	2952
862.844	2880
862.976	3013
863.108	3013
863.24	3454
863.372	2906
863.504	2956
863.636	2933
863.768	3013
863.9	2956
864.032	2872
864.164	2937
864.296	3017
864.428	3055
864.559	3081
864.691	3039
864.823	3081
864.954	3009
865.086	3036
865.217	3005
865.349	2937
865.48	2956
865.612	3032
865.743	3165
865.875	2975
866.006	2929
866.137	2963
866.269	2925
866.4	2933
866.531	2937
866.662	2918
866.793	2868
866.924	2872
867.055	2975
867.186	2933
867.317	2902
867.448	2864
867.579	2857
867.71	2788
867.841	2857
867.972	2861
868.103	2883
868.233	2838
868.364	2864
868.495	2895
868.625	3055
868.756	3184
868.886	2967
869.017	3047
869.147	3131
869.278	3161
869.408	3032
869.539	3001
869.669	3070
869.799	3051
869.929	3150
870.06	3070
870.19	3317
870.32	3268
870.45	3291
870.58	3397
870.71	3435
870.84	3431
870.97	3260
871.1	3237
871.23	3454
871.36	3462
871.489	3348
871.619	3416
871.749	3405
871.879	3443
872.008	3458
872.138	3336
872.267	3287
872.397	3100
872.526	3043
872.656	3013
872.785	3108
872.915	3249
873.044	3275
873.173	3256
873.303	3279
873.432	3218
873.561	3226
873.69	3135
873.819	3138
873.948	3180
874.077	3116
874.206	3028
874.335	3074
874.464	3176
874.593	3344
874.722	3249
874.851	3382
874.979	3310
875.108	3298
875.237	3199
875.365	3207
875.494	3180
875.623	3237
875.751	3097
875.88	3097
876.008	3184
876.136	3214
876.265	3367
876.393	3515
876.521	3431
876.65	3397
876.778	3325
876.906	3279
877.034	3188
877.162	3233
877.29	3150
877.418	3249
877.546	3218
877.674	3249
877.802	3268
877.93	3256
878.058	3108
878.185	3093
878.313	3214
878.441	3184
878.568	3051
878.696	3150
878.824	3233
878.951	3275
879.079	3462
879.206	3629
879.333	3424
879.461	3310
879.588	3329
879.715	3492
879.842	3587
879.97	3382
880.097	3173
880.224	3123
880.351	3169
880.478	3192
880.605	3199
880.732	3188
880.859	3458
880.986	3310
881.112	3249
881.239	3195
881.366	3127
881.493	3070
881.619	3001
881.746	3070
881.872	3089
881.999	3123
882.125	3173
882.252	3268
882.378	3283
882.505	3386
882.631	3268
882.757	3142
882.883	3222
883.01	3203
883.136	3173
883.262	3097
883.388	3119
883.514	3313
883.64	3382
883.766	3313
883.892	3180
884.018	3245
884.143	3405
884.269	3515
884.395	3195
884.52	3150
884.646	3188
884.772	3127
884.897	3085
885.023	3176
885.148	3287
885.274	3351
885.399	3367
885.524	3260
885.65	3233
885.775	3310
885.9	3294
886.025	3405
886.15	3401
886.275	3317
886.4	3218
886.525	3287
886.65	3233
886.775	3260
886.9	3488
887.025	3641
887.149	3378
887.274	3264
887.399	3195
887.523	3157
887.648	3203
887.773	3207
887.897	3370
888.021	3351
888.146	3283
888.27	3420
888.395	3523
888.519	3443
888.643	3443
888.767	3424
888.891	3348
889.015	3249
889.139	3332
889.263	3241
889.387	3386
889.511	3488
889.635	3435
889.759	3287
889.883	3340
890.006	3412
890.13	3450
890.254	3291
890.377	3332
890.501	3195
890.624	3195
890.748	3268
890.871	3195
890.995	3108
891.118	3055
891.241	3176
891.364	3233
891.488	3317
891.611	3184
891.734	3214
891.857	3264
891.98	3237
892.103	3355
892.226	3218
892.349	3207
892.471	3100
892.594	3245
892.717	3310
892.839	3260
892.962	3283
893.085	3409
893.207	3283
893.33	3142
893.452	3214
893.575	3344
893.697	3260
893.819	3477
893.941	3496
894.064	3428
894.186	3218
894.308	3237
894.43	3466
894.552	3526
894.674	3454
894.796	3268
894.918	3294
895.04	3264
895.161	3443
895.283	3382
895.405	3294
895.526	3310
895.648	3443
895.769	3431
895.891	3409
896.012	3496
896.134	3447
896.255	3450
896.376	3386
896.498	3367
896.619	3389
896.74	3332
896.861	3378
896.982	3675
897.103	3835
897.224	3614
897.345	3530
897.466	3435
897.587	3462
897.708	3606
897.828	3515
897.949	3435
898.07	3302
898.19	3405
898.311	3610
898.431	3431
898.552	3538
898.672	3542
898.792	3580
898.913	3519
899.033	3367
899.153	3256
899.273	3211
899.393	3264
899.513	3332
899.633	3348
899.753	3329
899.873	3268
899.993	3382
900.113	3291
900.232	3393
900.352	3340
900.472	3268
900.591	3192
900.711	3298
900.83	3226
900.95	3412
901.069	3492
901.189	3359
901.308	3176
901.427	3131
901.546	3192
901.665	3260
901.784	3363
901.904	3173
902.023	3169
902.141	3001
902.26	3020
902.379	3131
902.498	3062
902.617	3058
902.735	3184
902.854	3230
902.973	3157
903.091	3055
903.21	3039
903.328	3142
903.446	3100
903.565	3085
903.683	3199
903.801	3108
903.919	3245
904.038	3287
904.156	3176
904.274	3253
904.392	3214
904.51	3291
904.627	3310
904.745	3431
904.863	3492
904.981	3272
905.098	3192
905.216	3264
905.334	3321
905.451	3279
905.569	3294
905.686	3416
905.803	3435
905.921	3302
906.038	3428
906.155	3329
906.272	3275
906.389	3321
906.506	3214
906.623	3260
906.74	3260
906.857	3169
906.974	3241
907.091	3443
907.208	3511
907.324	3485
907.441	3416
907.557	3233
907.674	3188
907.79	3214
907.907	3268
908.023	3370
908.139	3382
908.256	3321
908.372	3386
908.488	3370
908.604	3230
908.72	3222
908.836	3237
908.952	3272
909.068	3363
909.184	3481
909.3	3382
909.415	3500
909.531	3511
909.647	3268
909.762	3291
909.878	3272
909.993	3332
910.108	3348
910.224	3313
910.339	3424
910.454	3313
910.57	3306
910.685	3233
910.8	3557
910.915	3534
911.03	3431
911.145	3291
911.259	3237
911.374	3336
911.489	3241
911.604	3233
911.718	3116
911.833	3157
911.947	3013
912.062	2994
912.176	3123
912.291	3169
912.405	3203
912.519	3401
912.633	3450
912.748	3310
912.862	3272
912.976	3173
913.09	3066
913.204	3192
913.318	3233
913.431	3329
913.545	3367
913.659	3351
913.772	3321
913.886	3222
914	3222
914.113	3363
914.226	3416
914.34	3348
914.453	3230
914.566	3405
914.68	3275
914.793	3287
914.906	3142
915.019	3123
915.132	3081
915.245	3146
915.358	3195
915.47	3226
915.583	3233
915.696	3298
915.809	3431
915.921	3420
916.034	3272
916.146	3253
916.259	3241
916.371	3340
916.483	3363
916.595	3294
916.708	3355
916.82	3306
916.932	3313
917.044	3317
917.156	3321
917.268	3218
917.38	3287
917.491	3294
917.603	3382
917.715	3439
917.826	3450
917.938	3348
918.049	3264
918.161	3378
918.272	3584
918.384	3561
918.495	3458
918.606	3325
918.717	3283
918.828	3412
918.939	3386
919.05	3329
919.161	3355
919.272	3184
919.383	3256
919.494	3469
919.604	3698
919.715	3481
919.826	3416
919.936	3424
920.047	3572
920.157	3523
920.267	3785
920.378	3610
920.488	3542
920.598	3789
920.708	3934
920.818	3812
920.928	3797
921.038	4032
921.148	3994
921.258	3660
921.368	3625
921.477	3587
921.587	3488
921.697	3466
921.806	3652
921.916	3564
922.025	3355
922.134	3382
922.244	3272
922.353	3389
922.462	3253
922.571	3214
922.68	3108
922.789	3043
922.898	3150
923.007	3074
923.116	3214
923.224	3199
923.333	3195
923.442	3135
923.55	3104
923.659	3135
923.767	3192
923.876	3138
923.984	3249
924.092	3100
924.201	3180
924.309	3214
924.417	3249
924.525	3169
924.633	3199
924.741	4219
924.849	3085
924.956	3272
925.064	3077
925.172	3020
925.279	3108
925.387	3192
925.494	3192
925.602	3367
925.709	3298
925.816	3184
925.924	3302
926.031	3420
926.138	3325
926.245	3378
926.352	3253
926.459	3409
926.566	3431
926.673	3321
926.779	3256
926.886	3283
926.993	3154
927.099	3138
927.206	3127
927.312	3097
927.419	3230
927.525	3230
927.631	3302
927.737	3146
927.843	3150
927.95	3017
928.056	3138
928.162	3199
928.267	3249
928.373	3831
928.479	3317
928.585	3093
928.69	3211
928.796	3298
928.901	3138
929.007	3051
929.112	3241
929.218	3214
929.323	3100
929.428	3131
929.533	3287
929.638	3142
929.743	3161
929.848	3298
929.953	3173
930.058	3169
930.163	2990
930.267	3058
930.372	3184
930.477	2998
930.581	3298
930.685	3188
930.79	3036
930.894	3146
930.998	3089
931.103	3249
931.207	2956
931.311	2925
931.415	2902
931.519	2777
931.623	2792
