Data from test_V78500241_160.txt Node
Date: Fri Mar 25 16:16:18 CST 2022
User: usil
Spectrometer: V785-0024
Trigger mode: 0
Integration Time (sec): 4.000000E-1
Scans to average: 1
Nonlinearity correction enabled: false
Boxcar width: 0
Storing dark spectrum: false
XAxis mode: Wavelengths
Number of Pixels in Spectrum: 1024
>>>>>Begin Spectral Data<<<<<
801.071	2944
801.214	2994
801.356	2895
801.499	2944
801.641	2887
801.783	2952
801.926	3081
802.068	2963
802.211	3032
802.353	3005
802.496	2956
802.638	3017
802.78	3077
802.923	3093
803.065	3028
803.208	2986
803.35	2929
803.492	2971
803.635	2967
803.777	2762
803.919	2887
804.061	3233
804.204	2941
804.346	2925
804.488	2899
804.63	3009
804.773	2918
804.915	2956
805.057	3093
805.199	2967
805.341	3024
805.483	3074
805.626	3047
805.768	2982
805.91	3112
806.052	3104
806.194	3097
806.336	3241
806.478	3051
806.62	3020
806.762	3051
806.904	3085
807.046	3211
807.188	2986
807.33	2967
807.472	3024
807.614	2960
807.756	3039
807.898	2960
808.04	2952
808.182	3017
808.324	3036
808.465	2922
808.607	2918
808.749	2823
808.891	2918
809.033	3032
809.174	3024
809.316	2967
809.458	2956
809.6	2834
809.741	2785
809.883	2853
810.025	2891
810.166	2883
810.308	2914
810.45	2899
810.591	2823
810.733	2838
810.875	2899
811.016	2834
811.158	2815
811.299	2880
811.441	3001
811.582	2925
811.724	2861
811.865	2868
812.007	2967
812.148	2941
812.29	2887
812.431	2956
812.573	3017
812.714	3032
812.855	3112
812.997	3097
813.138	3161
813.279	3089
813.421	2979
813.562	2982
813.703	2910
813.845	2960
813.986	2845
814.127	2838
814.268	2857
814.41	2918
814.551	2876
814.692	2933
814.833	2845
814.974	2918
815.115	2975
815.256	2880
815.397	2880
815.539	2914
815.68	2834
815.821	2845
815.962	2971
816.103	2990
816.244	2914
816.385	2902
816.526	2990
816.666	2967
816.807	2781
816.948	2937
817.089	2979
817.23	2876
817.371	2834
817.512	2842
817.653	2883
817.793	2864
817.934	2948
818.075	2967
818.216	3020
818.356	3085
818.497	2929
818.638	2834
818.778	2864
818.919	2834
819.06	2773
819.2	2929
819.341	2834
819.481	2868
819.622	2941
819.762	3150
819.903	3100
820.043	2948
820.184	2948
820.324	2960
820.465	3077
820.605	3074
820.746	3047
820.886	2948
821.026	3169
821.167	3199
821.307	3302
821.447	3325
821.588	3317
821.728	3233
821.868	3226
822.008	3085
822.149	3211
822.289	3230
822.429	3108
822.569	3112
822.709	3188
822.849	3074
822.99	3108
823.13	3195
823.27	3245
823.41	3165
823.55	3192
823.69	3211
823.83	3192
823.97	3146
824.11	3013
824.25	3036
824.389	3108
824.529	3165
824.669	3112
824.809	3218
824.949	3268
825.089	3272
825.228	3203
825.368	3058
825.508	2990
825.648	3020
825.787	3085
825.927	3047
826.067	3013
826.206	2994
826.346	3066
826.485	3146
826.625	3138
826.765	3275
826.904	3222
827.044	3005
827.183	2982
827.323	2899
827.462	3009
827.601	2944
827.741	2952
827.88	3024
828.02	2914
828.159	3017
828.298	3074
828.437	3146
828.577	3089
828.716	3302
828.855	3116
828.994	2960
829.134	2914
829.273	2967
829.412	2918
829.551	2906
829.69	2906
829.829	3017
829.968	3173
830.107	3047
830.246	3062
830.385	2944
830.524	2918
830.663	2868
830.802	2769
830.941	2667
831.08	2708
831.219	2800
831.357	2762
831.496	2990
831.635	2758
831.774	2693
831.913	2712
832.051	2568
832.19	2613
832.329	2724
832.467	2579
832.606	2556
832.744	2667
832.883	2636
833.022	2632
833.16	2697
833.299	2724
833.437	2716
833.576	2743
833.714	2766
833.852	2781
833.991	2788
834.129	2872
834.267	2880
834.406	2830
834.544	2902
834.682	2910
834.821	2902
834.959	3138
835.097	2948
835.235	3104
835.373	3047
835.511	3020
835.65	2975
835.788	2982
835.926	2853
836.064	2834
836.202	2861
836.34	3123
836.478	3165
836.615	3138
836.753	3169
836.891	3256
837.029	3199
837.167	3142
837.305	3146
837.443	3100
837.58	3005
837.718	3161
837.856	3146
837.993	3055
838.131	3195
838.269	3108
838.406	3150
838.544	3127
838.681	2967
838.819	2933
838.956	2853
839.094	2857
839.231	2937
839.369	3055
839.506	3443
839.643	3237
839.781	3028
839.918	3017
840.055	3112
840.193	3070
840.33	3097
840.467	3131
840.604	3211
840.742	3458
840.879	3104
841.016	3081
841.153	3146
841.29	3367
841.427	3344
841.564	3306
841.701	3344
841.838	3264
841.975	3226
842.112	3256
842.249	3135
842.385	3089
842.522	3310
842.659	3135
842.796	3081
842.933	3165
843.069	3077
843.206	3089
843.343	3233
843.479	3135
843.616	3184
843.752	2922
843.889	2918
844.025	3116
844.162	2899
844.298	3123
844.435	2971
844.571	2963
844.708	3123
844.844	3245
844.98	3279
845.117	3241
845.253	3085
845.389	3032
845.525	3165
845.661	3135
845.798	3058
845.934	3157
846.07	3081
846.206	3264
846.342	3355
846.478	3249
846.614	3146
846.75	3097
846.886	3081
847.022	3275
847.158	3192
847.294	3226
847.429	3283
847.565	3256
847.701	3553
847.837	3104
847.972	3013
848.108	3180
848.244	3192
848.379	3013
848.515	2990
848.65	2960
848.786	2998
848.921	3058
849.057	3131
849.192	3169
849.328	3138
849.463	3150
849.598	3089
849.734	3047
849.869	2990
850.004	2944
850.14	3001
850.275	2960
850.41	2876
850.545	2918
850.68	2990
850.815	2986
850.95	2990
851.085	3199
851.22	3150
851.355	3051
851.49	2982
851.625	3081
851.76	3043
851.895	2963
852.03	2944
852.165	3070
852.299	3142
852.434	3211
852.569	3123
852.703	3253
852.838	3275
852.973	3348
853.107	3378
853.242	3195
853.376	3146
853.511	2982
853.645	3039
853.78	3211
853.914	3161
854.048	3135
854.183	3112
854.317	3173
854.451	3332
854.585	3157
854.72	3119
854.854	3241
854.988	3089
855.122	3142
855.256	3005
855.39	3135
855.524	3275
855.658	3214
855.792	3214
855.926	3184
856.06	3275
856.194	3291
856.327	3176
856.461	3135
856.595	3123
856.729	3138
856.862	3272
856.996	3214
857.13	3253
857.263	3283
857.397	3336
857.53	3199
857.664	3237
857.797	3291
857.931	3275
858.064	3180
858.197	3272
858.331	3150
858.464	3127
858.597	3051
858.731	3131
858.864	3192
858.997	3119
859.13	3180
859.263	3180
859.396	3237
859.529	3123
859.662	3108
859.795	3070
859.928	3192
860.061	3310
860.194	3313
860.327	3165
860.46	3131
860.592	3256
860.725	3283
860.858	3321
860.99	3135
861.123	3085
861.256	3070
861.388	3184
861.521	3690
861.653	3017
861.786	2994
861.918	3058
862.05	3123
862.183	3104
862.315	3161
862.447	3222
862.58	3131
862.712	2979
862.844	2899
862.976	3036
863.108	3043
863.24	3313
863.372	2902
863.504	2986
863.636	2990
863.768	3043
863.9	3013
864.032	2922
864.164	2982
864.296	3074
864.428	3116
864.559	3100
864.691	3119
864.823	3074
864.954	3093
865.086	3104
865.217	3017
865.349	2994
865.48	3032
865.612	3036
865.743	3169
865.875	3028
866.006	2963
866.137	3005
866.269	2990
866.4	2948
866.531	2982
866.662	2880
866.793	2864
866.924	2910
867.055	3024
867.186	2937
867.317	2937
867.448	2861
867.579	2864
867.71	2914
867.841	2834
867.972	2948
868.103	2952
868.233	2914
868.364	2922
868.495	2914
868.625	3119
868.756	3173
868.886	3020
869.017	3077
869.147	3176
869.278	3169
869.408	3028
869.539	3108
869.669	3157
869.799	3058
869.929	3127
870.06	3161
870.19	3348
870.32	3294
870.45	3321
870.58	3424
870.71	3504
870.84	3458
870.97	3325
871.1	3283
871.23	3538
871.36	3469
871.489	3378
871.619	3428
871.749	3469
871.879	3447
872.008	3504
872.138	3374
872.267	3321
872.397	3192
872.526	3131
872.656	3036
872.785	3104
872.915	3275
873.044	3302
873.173	3253
873.303	3275
873.432	3230
873.561	3241
873.69	3165
873.819	3180
873.948	3218
874.077	3127
874.206	3077
874.335	3097
874.464	3241
874.593	3397
874.722	3272
874.851	3370
874.979	3348
875.108	3367
875.237	3233
875.365	3192
875.494	3199
875.623	3279
875.751	3112
875.88	3131
876.008	3249
876.136	3245
876.265	3397
876.393	3530
876.521	3450
876.65	3420
876.778	3355
876.906	3260
877.034	3237
877.162	3237
877.29	3192
877.418	3279
877.546	3275
877.674	3283
877.802	3249
877.93	3207
878.058	3165
878.185	3127
878.313	3211
878.441	3253
878.568	3146
878.696	3176
878.824	3256
878.951	3329
879.079	3466
879.206	3660
879.333	3431
879.461	3363
879.588	3386
879.715	3534
879.842	3610
879.97	3409
880.097	3214
880.224	3127
880.351	3256
880.478	3256
880.605	3241
880.732	3222
880.859	3545
880.986	3283
881.112	3363
881.239	3249
881.366	3108
881.493	3097
881.619	3032
881.746	3100
881.872	3157
881.999	3116
882.125	3192
882.252	3302
882.378	3321
882.505	3439
882.631	3317
882.757	3222
882.883	3256
883.01	3222
883.136	3195
883.262	3161
883.388	3188
883.514	3359
883.64	3424
883.766	3386
883.892	3268
884.018	3291
884.143	3466
884.269	3637
884.395	3222
884.52	3237
884.646	3230
884.772	3184
884.897	3173
885.023	3260
885.148	3401
885.274	3481
885.399	3420
885.524	3329
885.65	3332
885.775	3344
885.9	3344
886.025	3507
886.15	3431
886.275	3363
886.4	3268
886.525	3363
886.65	3336
886.775	3329
886.9	3534
887.025	3682
887.149	3492
887.274	3310
887.399	3291
887.523	3275
887.648	3207
887.773	3249
887.897	3431
888.021	3504
888.146	3374
888.27	3511
888.395	3637
888.519	3481
888.643	3496
888.767	3511
888.891	3348
889.015	3310
889.139	3378
889.263	3321
889.387	3439
889.511	3580
889.635	3519
889.759	3355
889.883	3348
890.006	3450
890.13	3557
890.254	3332
890.377	3431
890.501	3287
890.624	3245
890.748	3382
890.871	3233
890.995	3161
891.118	3127
891.241	3241
891.364	3279
891.488	3340
891.611	3230
891.734	3260
891.857	3359
891.98	3313
892.103	3405
892.226	3359
892.349	3226
892.471	3184
892.594	3272
892.717	3348
892.839	3321
892.962	3325
893.085	3447
893.207	3367
893.33	3195
893.452	3272
893.575	3401
893.697	3317
893.819	3553
893.941	3542
894.064	3511
894.186	3348
894.308	3298
894.43	3481
894.552	3580
894.674	3564
894.796	3313
894.918	3397
895.04	3294
895.161	3488
895.283	3443
895.405	3389
895.526	3416
895.648	3488
895.769	3450
895.891	3519
896.012	3542
896.134	3519
896.255	3492
896.376	3450
896.498	3466
896.619	3492
896.74	3431
896.861	3466
896.982	3740
897.103	3896
897.224	3644
897.345	3557
897.466	3504
897.587	3610
897.708	3663
897.828	3610
897.949	3523
898.07	3424
898.19	3466
898.311	3629
898.431	3504
898.552	3568
898.672	3663
898.792	3622
898.913	3614
899.033	3447
899.153	3332
899.273	3279
899.393	3370
899.513	3344
899.633	3359
899.753	3409
899.873	3348
899.993	3378
900.113	3409
900.232	3469
900.352	3397
900.472	3344
900.591	3230
900.711	3332
900.83	3260
900.95	3424
901.069	3542
901.189	3397
901.308	3249
901.427	3180
901.546	3253
901.665	3310
901.784	3389
901.904	3249
902.023	3184
902.141	3047
902.26	3036
902.379	3161
902.498	3089
902.617	3070
902.735	3294
902.854	3272
902.973	3237
903.091	3127
903.21	3104
903.328	3192
903.446	3180
903.565	3138
903.683	3230
903.801	3207
903.919	3313
904.038	3348
904.156	3249
904.274	3351
904.392	3310
904.51	3332
904.627	3382
904.745	3492
904.863	3580
904.981	3313
905.098	3245
905.216	3260
905.334	3317
905.451	3348
905.569	3351
905.686	3458
905.803	3477
905.921	3329
906.038	3462
906.155	3405
906.272	3363
906.389	3397
906.506	3291
906.623	3298
906.74	3317
906.857	3203
906.974	3332
907.091	3504
907.208	3614
907.324	3500
907.441	3462
907.557	3325
907.674	3298
907.79	3253
907.907	3348
908.023	3405
908.139	3466
908.256	3348
908.372	3420
908.488	3409
908.604	3287
908.72	3291
908.836	3363
908.952	3348
909.068	3431
909.184	3538
909.3	3435
909.415	3595
909.531	3511
909.647	3313
909.762	3344
909.878	3325
909.993	3435
910.108	3332
910.224	3435
910.339	3450
910.454	3393
910.57	3351
910.685	3287
910.8	3595
910.915	3595
911.03	3466
911.145	3325
911.259	3302
911.374	3332
911.489	3275
911.604	3253
911.718	3180
911.833	3226
911.947	3074
912.062	3032
912.176	3245
912.291	3218
912.405	3195
912.519	3511
912.633	3511
912.748	3374
912.862	3325
912.976	3195
913.09	3131
913.204	3207
913.318	3264
913.431	3389
913.545	3378
913.659	3416
913.772	3428
913.886	3256
914	3256
914.113	3435
914.226	3409
914.34	3401
914.453	3268
914.566	3405
914.68	3340
914.793	3348
914.906	3184
915.019	3135
915.132	3077
915.245	3249
915.358	3214
915.47	3268
915.583	3302
915.696	3313
915.809	3458
915.921	3462
916.034	3332
916.146	3268
916.259	3245
916.371	3424
916.483	3401
916.595	3359
916.708	3340
916.82	3416
916.932	3405
917.044	3389
917.156	3386
917.268	3302
917.38	3344
917.491	3382
917.603	3393
917.715	3500
917.826	3507
917.938	3412
918.049	3306
918.161	3473
918.272	3599
918.384	3595
918.495	3542
918.606	3435
918.717	3291
918.828	3450
918.939	3466
919.05	3389
919.161	3424
919.272	3214
919.383	3329
919.494	3553
919.604	3720
919.715	3534
919.826	3454
919.936	3496
920.047	3648
920.157	3622
920.267	3800
920.378	3618
920.488	3625
920.598	3838
920.708	4021
920.818	3899
920.928	3892
921.038	4112
921.148	4078
921.258	3747
921.368	3698
921.477	3603
921.587	3606
921.697	3511
921.806	3663
921.916	3629
922.025	3397
922.134	3363
922.244	3321
922.353	3439
922.462	3310
922.571	3302
922.68	3173
922.789	3093
922.898	3180
923.007	3123
923.116	3230
923.224	3230
923.333	3222
923.442	3138
923.55	3104
923.659	3188
923.767	3211
923.876	3161
923.984	3298
924.092	3142
924.201	3230
924.309	3249
924.417	3275
924.525	3226
924.633	3294
924.741	4268
924.849	3062
924.956	3291
925.064	3165
925.172	3097
925.279	3146
925.387	3256
925.494	3226
925.602	3401
925.709	3389
925.816	3241
925.924	3340
926.031	3420
926.138	3378
926.245	3405
926.352	3317
926.459	3450
926.566	3500
926.673	3359
926.779	3317
926.886	3306
926.993	3192
927.099	3165
927.206	3180
927.312	3173
927.419	3272
927.525	3256
927.631	3298
927.737	3173
927.843	3184
927.95	3085
928.056	3169
928.162	3214
928.267	3264
928.373	3880
928.479	3359
928.585	3093
928.69	3211
928.796	3310
928.901	3207
929.007	3070
929.112	3226
929.218	3199
929.323	3195
929.428	3188
929.533	3367
929.638	3131
929.743	3195
929.848	3287
929.953	3256
930.058	3214
930.163	3013
930.267	3100
930.372	3241
930.477	3093
930.581	3389
930.685	3203
930.79	3097
930.894	3154
930.998	3142
931.103	3340
931.207	2998
931.311	2982
931.415	2960
931.519	2800
931.623	2849
