Data from test_V78500241_1717.txt Node
Date: Fri Mar 25 16:27:05 CST 2022
User: usil
Spectrometer: V785-0024
Trigger mode: 0
Integration Time (sec): 4.000000E-1
Scans to average: 1
Nonlinearity correction enabled: false
Boxcar width: 0
Storing dark spectrum: false
XAxis mode: Wavelengths
Number of Pixels in Spectrum: 1024
>>>>>Begin Spectral Data<<<<<
801.071	2914
801.214	2887
801.356	2857
801.499	2876
801.641	2876
801.783	2937
801.926	3066
802.068	2941
802.211	2990
802.353	2998
802.496	2986
802.638	3001
802.78	3051
802.923	3051
803.065	2986
803.208	2868
803.35	2895
803.492	2876
803.635	2906
803.777	2758
803.919	2880
804.061	3203
804.204	2952
804.346	2880
804.488	2804
804.63	2990
804.773	2845
804.915	2895
805.057	3077
805.199	2918
805.341	2952
805.483	3039
805.626	2986
805.768	2941
805.91	3093
806.052	3123
806.194	3051
806.336	3233
806.478	3020
806.62	2902
806.762	3013
806.904	3017
807.046	3161
807.188	2982
807.33	2899
807.472	2982
807.614	2925
807.756	2975
807.898	2918
808.04	2899
808.182	2956
808.324	2906
808.465	2849
808.607	2876
808.749	2773
808.891	2823
809.033	2982
809.174	2982
809.316	2906
809.458	2891
809.6	2785
809.741	2750
809.883	2754
810.025	2902
810.166	2861
810.308	2849
810.45	2838
810.591	2724
810.733	2781
810.875	2800
811.016	2754
811.158	2773
811.299	2796
811.441	2910
811.582	2906
811.724	2838
811.865	2830
812.007	2895
812.148	2887
812.29	2845
812.431	2891
812.573	2948
812.714	2941
812.855	3051
812.997	3024
813.138	3146
813.279	3005
813.421	3005
813.562	2967
813.703	2853
813.845	2887
813.986	2785
814.127	2701
814.268	2785
814.41	2849
814.551	2830
814.692	2868
814.833	2815
814.974	2895
815.115	2941
815.256	2796
815.397	2819
815.539	2864
815.68	2800
815.821	2804
815.962	2963
816.103	2960
816.244	2880
816.385	2842
816.526	2952
816.666	2918
816.807	2724
816.948	2887
817.089	2910
817.23	2838
817.371	2781
817.512	2811
817.653	2849
817.793	2807
817.934	2880
818.075	2982
818.216	2979
818.356	3039
818.497	2842
818.638	2777
818.778	2849
818.919	2804
819.06	2750
819.2	2899
819.341	2819
819.481	2826
819.622	2895
819.762	3077
819.903	3020
820.043	2872
820.184	2925
820.324	2906
820.465	3009
820.605	3020
820.746	3020
820.886	2944
821.026	3093
821.167	3165
821.307	3233
821.447	3275
821.588	3233
821.728	3214
821.868	3161
822.008	3070
822.149	3161
822.289	3188
822.429	3058
822.569	3108
822.709	3138
822.849	3047
822.99	3074
823.13	3123
823.27	3226
823.41	3055
823.55	3154
823.69	3127
823.83	3199
823.97	3135
824.11	2979
824.25	2990
824.389	3039
824.529	3131
824.669	3058
824.809	3192
824.949	3237
825.089	3203
825.228	3142
825.368	3058
825.508	2971
825.648	2979
825.787	2979
825.927	2998
826.067	2963
826.206	2944
826.346	3039
826.485	3047
826.625	3100
826.765	3283
826.904	3184
827.044	2975
827.183	2933
827.323	2857
827.462	2971
827.601	2876
827.741	2922
827.88	2956
828.02	2864
828.159	2963
828.298	3028
828.437	3097
828.577	3066
828.716	3241
828.855	3051
828.994	2918
829.134	2887
829.273	2883
829.412	2872
829.551	2826
829.69	2872
829.829	2998
829.968	3097
830.107	3024
830.246	3047
830.385	2910
830.524	2902
830.663	2819
830.802	2720
830.941	2621
831.08	2644
831.219	2727
831.357	2746
831.496	2963
831.635	2731
831.774	2663
831.913	2659
832.051	2537
832.19	2583
832.329	2667
832.467	2541
832.606	2484
832.744	2568
832.883	2583
833.022	2579
833.16	2678
833.299	2682
833.437	2697
833.576	2678
833.714	2701
833.852	2697
833.991	2754
834.129	2834
834.267	2823
834.406	2746
834.544	2868
834.682	2868
834.821	2864
834.959	3058
835.097	2861
835.235	3043
835.373	2975
835.511	3036
835.65	2967
835.788	2956
835.926	2826
836.064	2815
836.202	2811
836.34	3097
836.478	3146
836.615	3066
836.753	3146
836.891	3188
837.029	3169
837.167	3119
837.305	3047
837.443	3047
837.58	2975
837.718	3150
837.856	3077
837.993	3028
838.131	3089
838.269	3077
838.406	3077
838.544	3074
838.681	2922
838.819	2880
838.956	2788
839.094	2845
839.231	2895
839.369	2990
839.506	3374
839.643	3192
839.781	2982
839.918	2979
840.055	3055
840.193	3028
840.33	3058
840.467	3081
840.604	3119
840.742	3389
840.879	3055
841.016	3081
841.153	3093
841.29	3332
841.427	3260
841.564	3264
841.701	3325
841.838	3192
841.975	3188
842.112	3222
842.249	3081
842.385	2990
842.522	3199
842.659	3135
842.796	3039
842.933	3138
843.069	3043
843.206	3028
843.343	3138
843.479	3062
843.616	3100
843.752	2918
843.889	2861
844.025	3085
844.162	2887
844.298	3043
844.435	2944
844.571	2914
844.708	3070
844.844	3176
844.98	3199
845.117	3180
845.253	3051
845.389	3009
845.525	3089
845.661	3123
845.798	3020
845.934	3135
846.07	3001
846.206	3203
846.342	3317
846.478	3214
846.614	3055
846.75	3017
846.886	2948
847.022	3214
847.158	3119
847.294	3195
847.429	3245
847.565	3222
847.701	3473
847.837	3028
847.972	2998
848.108	3157
848.244	3142
848.379	2967
848.515	2941
848.65	2929
848.786	2986
848.921	2994
849.057	3093
849.192	3112
849.328	3058
849.463	3127
849.598	3032
849.734	3047
849.869	2956
850.004	2895
850.14	2960
850.275	2918
850.41	2830
850.545	2857
850.68	2944
850.815	2982
850.95	2960
851.085	3184
851.22	3077
851.355	3051
851.49	2963
851.625	2979
851.76	3032
851.895	2929
852.03	2887
852.165	2982
852.299	3097
852.434	3154
852.569	3081
852.703	3154
852.838	3237
852.973	3355
853.107	3317
853.242	3138
853.376	3070
853.511	2963
853.645	3112
853.78	3199
853.914	3077
854.048	3085
854.183	3097
854.317	3135
854.451	3310
854.585	3123
854.72	3093
854.854	3203
854.988	3013
855.122	3062
855.256	2960
855.39	3097
855.524	3218
855.658	3165
855.792	3131
855.926	3154
856.06	3245
856.194	3233
856.327	3173
856.461	3055
856.595	3055
856.729	3104
856.862	3199
856.996	3119
857.13	3195
857.263	3237
857.397	3249
857.53	3116
857.664	3176
857.797	3214
857.931	3245
858.064	3192
858.197	3199
858.331	3135
858.464	3081
858.597	2986
858.731	3123
858.864	3127
858.997	3070
859.13	3173
859.263	3123
859.396	3157
859.529	3062
859.662	3066
859.795	3028
859.928	3104
860.061	3230
860.194	3294
860.327	3127
860.46	3051
860.592	3226
860.725	3226
860.858	3218
860.99	3089
861.123	3058
861.256	3047
861.388	3142
861.521	3956
861.653	2998
861.786	2963
861.918	2998
862.05	3051
862.183	3112
862.315	3165
862.447	3237
862.58	3100
862.712	2967
862.844	2857
862.976	3005
863.108	2979
863.24	3424
863.372	2849
863.504	2971
863.636	2941
863.768	3032
863.9	2998
864.032	2895
864.164	2933
864.296	3020
864.428	3093
864.559	3058
864.691	3093
864.823	3024
864.954	3013
865.086	3032
865.217	3005
865.349	2922
865.48	2990
865.612	2994
865.743	3131
865.875	2956
866.006	2948
866.137	2956
866.269	2929
866.4	2948
866.531	2914
866.662	2880
866.793	2899
866.924	2914
867.055	2986
867.186	2933
867.317	2872
867.448	2815
867.579	2819
867.71	2864
867.841	2807
867.972	2891
868.103	2925
868.233	2872
868.364	2880
868.495	2910
868.625	3036
868.756	3161
868.886	2967
869.017	3001
869.147	3150
869.278	3157
869.408	2998
869.539	3032
869.669	3138
869.799	3017
869.929	3127
870.06	3108
870.19	3275
870.32	3279
870.45	3283
870.58	3363
870.71	3454
870.84	3428
870.97	3294
871.1	3237
871.23	3485
871.36	3431
871.489	3374
871.619	3405
871.749	3420
871.879	3393
872.008	3477
872.138	3367
872.267	3249
872.397	3131
872.526	3108
872.656	2963
872.785	3127
872.915	3249
873.044	3279
873.173	3245
873.303	3256
873.432	3226
873.561	3253
873.69	3131
873.819	3127
873.948	3180
874.077	3104
874.206	3081
874.335	3097
874.464	3218
874.593	3348
874.722	3237
874.851	3351
874.979	3355
875.108	3317
875.237	3237
875.365	3157
875.494	3150
875.623	3233
875.751	3081
875.88	3081
876.008	3176
876.136	3237
876.265	3344
876.393	3519
876.521	3397
876.65	3397
876.778	3348
876.906	3218
877.034	3169
877.162	3203
877.29	3157
877.418	3241
877.546	3245
877.674	3195
877.802	3253
877.93	3256
878.058	3192
878.185	3108
878.313	3188
878.441	3241
878.568	3062
878.696	3093
878.824	3275
878.951	3287
879.079	3447
879.206	3599
879.333	3450
879.461	3351
879.588	3367
879.715	3488
879.842	3595
879.97	3389
880.097	3169
880.224	3100
880.351	3203
880.478	3203
880.605	3165
880.732	3184
880.859	3466
880.986	3332
881.112	3325
881.239	3176
881.366	3104
881.493	3047
881.619	3028
881.746	3085
881.872	3089
881.999	3097
882.125	3165
882.252	3241
882.378	3268
882.505	3409
882.631	3279
882.757	3154
882.883	3237
883.01	3233
883.136	3173
883.262	3085
883.388	3112
883.514	3329
883.64	3359
883.766	3291
883.892	3192
884.018	3237
884.143	3420
884.269	3534
884.395	3237
884.52	3138
884.646	3222
884.772	3123
884.897	3131
885.023	3203
885.148	3336
885.274	3382
885.399	3370
885.524	3279
885.65	3253
885.775	3310
885.9	3264
886.025	3458
886.15	3340
886.275	3313
886.4	3195
886.525	3306
886.65	3268
886.775	3310
886.9	3507
887.025	3648
887.149	3401
887.274	3272
887.399	3203
887.523	3188
887.648	3180
887.773	3230
887.897	3359
888.021	3363
888.146	3298
888.27	3416
888.395	3504
888.519	3416
888.643	3412
888.767	3424
888.891	3313
889.015	3230
889.139	3260
889.263	3226
889.387	3405
889.511	3500
889.635	3405
889.759	3260
889.883	3241
890.006	3409
890.13	3473
890.254	3237
890.377	3325
890.501	3188
890.624	3203
890.748	3226
890.871	3207
890.995	3112
891.118	3032
891.241	3199
891.364	3226
891.488	3325
891.611	3142
891.734	3218
891.857	3291
891.98	3218
892.103	3332
892.226	3291
892.349	3222
892.471	3112
892.594	3237
892.717	3264
892.839	3264
892.962	3287
893.085	3351
893.207	3260
893.33	3161
893.452	3226
893.575	3351
893.697	3249
893.819	3447
893.941	3507
894.064	3450
894.186	3260
894.308	3237
894.43	3412
894.552	3504
894.674	3454
894.796	3264
894.918	3313
895.04	3253
895.161	3401
895.283	3355
895.405	3264
895.526	3359
895.648	3439
895.769	3435
895.891	3469
896.012	3473
896.134	3412
896.255	3397
896.376	3344
896.498	3359
896.619	3401
896.74	3367
896.861	3374
896.982	3686
897.103	3804
897.224	3606
897.345	3469
897.466	3431
897.587	3477
897.708	3652
897.828	3511
897.949	3428
898.07	3359
898.19	3382
898.311	3561
898.431	3424
898.552	3492
898.672	3564
898.792	3572
898.913	3507
899.033	3409
899.153	3294
899.273	3218
899.393	3291
899.513	3317
899.633	3325
899.753	3302
899.873	3291
899.993	3374
900.113	3378
900.232	3386
900.352	3386
900.472	3272
900.591	3214
900.711	3306
900.83	3249
900.95	3389
901.069	3473
901.189	3332
901.308	3165
901.427	3131
901.546	3184
901.665	3298
901.784	3351
901.904	3195
902.023	3142
902.141	3028
902.26	2990
902.379	3108
902.498	3085
902.617	3085
902.735	3218
902.854	3214
902.973	3157
903.091	3043
903.21	3058
903.328	3112
903.446	3104
903.565	3058
903.683	3169
903.801	3097
903.919	3222
904.038	3272
904.156	3131
904.274	3272
904.392	3272
904.51	3302
904.627	3329
904.745	3435
904.863	3462
904.981	3203
905.098	3150
905.216	3222
905.334	3313
905.451	3275
905.569	3283
905.686	3412
905.803	3389
905.921	3272
906.038	3397
906.155	3317
906.272	3272
906.389	3363
906.506	3237
906.623	3256
906.74	3253
906.857	3184
906.974	3268
907.091	3435
907.208	3545
907.324	3485
907.441	3397
907.557	3195
907.674	3214
907.79	3192
907.907	3253
908.023	3325
908.139	3329
908.256	3317
908.372	3367
908.488	3401
908.604	3230
908.72	3245
908.836	3294
908.952	3294
909.068	3340
909.184	3504
909.3	3351
909.415	3492
909.531	3473
909.647	3260
909.762	3272
909.878	3237
909.993	3348
910.108	3348
910.224	3336
910.339	3431
910.454	3321
910.57	3260
910.685	3230
910.8	3576
910.915	3447
911.03	3458
911.145	3256
911.259	3256
911.374	3317
911.489	3237
911.604	3222
911.718	3127
911.833	3108
911.947	3036
912.062	2963
912.176	3150
912.291	3180
912.405	3203
912.519	3428
912.633	3458
912.748	3291
912.862	3294
912.976	3173
913.09	3070
913.204	3161
913.318	3180
913.431	3313
913.545	3313
913.659	3401
913.772	3340
913.886	3195
914	3161
914.113	3378
914.226	3447
914.34	3367
914.453	3241
914.566	3382
914.68	3245
914.793	3287
914.906	3104
915.019	3100
915.132	3051
915.245	3150
915.358	3203
915.47	3256
915.583	3233
915.696	3260
915.809	3359
915.921	3340
916.034	3275
916.146	3222
916.259	3245
916.371	3313
916.483	3355
916.595	3260
916.708	3321
916.82	3294
916.932	3302
917.044	3344
917.156	3332
917.268	3230
917.38	3272
917.491	3283
917.603	3294
917.715	3416
917.826	3428
917.938	3355
918.049	3272
918.161	3416
918.272	3538
918.384	3553
918.495	3481
918.606	3283
918.717	3222
918.828	3325
918.939	3393
919.05	3317
919.161	3351
919.272	3150
919.383	3302
919.494	3477
919.604	3720
919.715	3454
919.826	3389
919.936	3473
920.047	3584
920.157	3542
920.267	3720
920.378	3587
920.488	3519
920.598	3751
920.708	3930
920.818	3808
920.928	3823
921.038	4017
921.148	3983
921.258	3743
921.368	3671
921.477	3545
921.587	3523
921.697	3393
921.806	3599
921.916	3500
922.025	3374
922.134	3359
922.244	3283
922.353	3435
922.462	3294
922.571	3237
922.68	3104
922.789	3070
922.898	3138
923.007	3112
923.116	3188
923.224	3169
923.333	3214
923.442	3150
923.55	3116
923.659	3157
923.767	3218
923.876	3138
923.984	3275
924.092	3104
924.201	3222
924.309	3230
924.417	3253
924.525	3176
924.633	3287
924.741	4086
924.849	3058
924.956	3298
925.064	3127
925.172	3055
925.279	3142
925.387	3268
925.494	3279
925.602	3405
925.709	3370
925.816	3173
925.924	3321
926.031	3428
926.138	3370
926.245	3355
926.352	3317
926.459	3443
926.566	3496
926.673	3306
926.779	3329
926.886	3294
926.993	3180
927.099	3192
927.206	3119
927.312	3150
927.419	3256
927.525	3264
927.631	3306
927.737	3176
927.843	3188
927.95	3017
928.056	3211
928.162	3222
928.267	3321
928.373	3922
928.479	3355
928.585	3123
928.69	3291
928.796	3332
928.901	3199
929.007	3074
929.112	3260
929.218	3218
929.323	3192
929.428	3222
929.533	3367
929.638	3150
929.743	3233
929.848	3272
929.953	3237
930.058	3180
930.163	3020
930.267	3066
930.372	3264
930.477	3062
930.581	3351
930.685	3192
930.79	3097
930.894	3142
930.998	3100
931.103	3313
931.207	2986
931.311	2994
931.415	2967
931.519	2823
931.623	2838
