Data from test_V78500241_978.txt Node
Date: Fri Mar 25 16:21:58 CST 2022
User: usil
Spectrometer: V785-0024
Trigger mode: 0
Integration Time (sec): 4.000000E-1
Scans to average: 1
Nonlinearity correction enabled: false
Boxcar width: 0
Storing dark spectrum: false
XAxis mode: Wavelengths
Number of Pixels in Spectrum: 1024
>>>>>Begin Spectral Data<<<<<
801.071	2902
801.214	2925
801.356	2864
801.499	2891
801.641	2880
801.783	2933
801.926	3043
802.068	2948
802.211	3009
802.353	3024
802.496	2944
802.638	2990
802.78	3024
802.923	3074
803.065	2998
803.208	2880
803.35	2883
803.492	2956
803.635	2941
803.777	2746
803.919	2872
804.061	3173
804.204	2933
804.346	2902
804.488	2807
804.63	2986
804.773	2895
804.915	2914
805.057	3097
805.199	2956
805.341	2944
805.483	3032
805.626	3009
805.768	2960
805.91	3043
806.052	3138
806.194	2990
806.336	3161
806.478	3028
806.62	2975
806.762	2967
806.904	3089
807.046	3180
807.188	2975
807.33	2933
807.472	2975
807.614	2872
807.756	2982
807.898	2960
808.04	2872
808.182	2982
808.324	2906
808.465	2864
808.607	2891
808.749	2773
808.891	2811
809.033	2956
809.174	2948
809.316	2887
809.458	2876
809.6	2773
809.741	2758
809.883	2762
810.025	2845
810.166	2872
810.308	2842
810.45	2819
810.591	2788
810.733	2762
810.875	2845
811.016	2781
811.158	2750
811.299	2769
811.441	2944
811.582	2883
811.724	2811
811.865	2830
812.007	2929
812.148	2868
812.29	2842
812.431	2910
812.573	2937
812.714	2975
812.855	3020
812.997	3028
813.138	3112
813.279	3024
813.421	2925
813.562	2960
813.703	2861
813.845	2899
813.986	2750
814.127	2731
814.268	2819
814.41	2845
814.551	2823
814.692	2899
814.833	2857
814.974	2861
815.115	2937
815.256	2800
815.397	2796
815.539	2849
815.68	2754
815.821	2773
815.962	2967
816.103	2929
816.244	2872
816.385	2902
816.526	2963
816.666	2929
816.807	2762
816.948	2914
817.089	2887
817.23	2845
817.371	2777
817.512	2807
817.653	2834
817.793	2815
817.934	2880
818.075	2956
818.216	2998
818.356	3039
818.497	2891
818.638	2777
818.778	2823
818.919	2758
819.06	2766
819.2	2872
819.341	2769
819.481	2796
819.622	2933
819.762	3112
819.903	3036
820.043	2948
820.184	2922
820.324	2906
820.465	3028
820.605	3017
820.746	3017
820.886	2948
821.026	3070
821.167	3184
821.307	3249
821.447	3260
821.588	3222
821.728	3214
821.868	3142
822.008	3081
822.149	3165
822.289	3241
822.429	3070
822.569	3108
822.709	3226
822.849	3013
822.99	3074
823.13	3176
823.27	3222
823.41	3116
823.55	3150
823.69	3135
823.83	3192
823.97	3055
824.11	3017
824.25	3009
824.389	3047
824.529	3100
824.669	3077
824.809	3199
824.949	3237
825.089	3218
825.228	3154
825.368	2990
825.508	2960
825.648	2963
825.787	3051
825.927	3028
826.067	2975
826.206	2952
826.346	3001
826.485	3047
826.625	3123
826.765	3264
826.904	3180
827.044	2948
827.183	2895
827.323	2849
827.462	2967
827.601	2925
827.741	2941
827.88	2952
828.02	2830
828.159	2971
828.298	3028
828.437	3100
828.577	3051
828.716	3253
828.855	3043
828.994	2887
829.134	2868
829.273	2891
829.412	2861
829.551	2868
829.69	2883
829.829	2986
829.968	3116
830.107	3005
830.246	3032
830.385	2918
830.524	2880
830.663	2819
830.802	2739
830.941	2659
831.08	2644
831.219	2758
831.357	2800
831.496	2960
831.635	2731
831.774	2640
831.913	2644
832.051	2537
832.19	2537
832.329	2670
832.467	2522
832.606	2503
832.744	2587
832.883	2564
833.022	2571
833.16	2659
833.299	2659
833.437	2701
833.576	2712
833.714	2712
833.852	2686
833.991	2762
834.129	2819
834.267	2823
834.406	2807
834.544	2819
834.682	2906
834.821	2880
834.959	3077
835.097	2902
835.235	3066
835.373	2990
835.511	3077
835.65	2971
835.788	2933
835.926	2823
836.064	2792
836.202	2864
836.34	3097
836.478	3142
836.615	3062
836.753	3157
836.891	3226
837.029	3180
837.167	3112
837.305	3032
837.443	3039
837.58	2975
837.718	3108
837.856	3055
837.993	3032
838.131	3123
838.269	3085
838.406	3104
838.544	3024
838.681	2925
838.819	2910
838.956	2762
839.094	2849
839.231	2910
839.369	2967
839.506	3355
839.643	3214
839.781	3020
839.918	2971
840.055	3024
840.193	3039
840.33	3085
840.467	3123
840.604	3112
840.742	3401
840.879	3024
841.016	3017
841.153	3097
841.29	3302
841.427	3275
841.564	3226
841.701	3306
841.838	3207
841.975	3123
842.112	3218
842.249	3039
842.385	3043
842.522	3230
842.659	3081
842.796	3047
842.933	3093
843.069	3024
843.206	3036
843.343	3184
843.479	3066
843.616	3127
843.752	2883
843.889	2849
844.025	3055
844.162	2895
844.298	3093
844.435	2918
844.571	2902
844.708	3039
844.844	3169
844.98	3214
845.117	3192
845.253	3058
845.389	3001
845.525	3097
845.661	3062
845.798	3013
845.934	3119
846.07	3032
846.206	3214
846.342	3294
846.478	3237
846.614	3043
846.75	3028
846.886	2990
847.022	3211
847.158	3157
847.294	3195
847.429	3256
847.565	3207
847.701	3458
847.837	3036
847.972	2990
848.108	3146
848.244	3097
848.379	2990
848.515	2944
848.65	2956
848.786	2922
848.921	3013
849.057	3085
849.192	3104
849.328	3036
849.463	3097
849.598	3066
849.734	3081
849.869	2948
850.004	2914
850.14	2986
850.275	2918
850.41	2788
850.545	2887
850.68	2899
850.815	2925
850.95	2990
851.085	3188
851.22	3093
851.355	3020
851.49	2956
851.625	3001
851.76	3047
851.895	2922
852.03	2876
852.165	3020
852.299	3104
852.434	3150
852.569	3142
852.703	3154
852.838	3230
852.973	3325
853.107	3332
853.242	3119
853.376	3066
853.511	3013
853.645	3013
853.78	3241
853.914	3119
854.048	3097
854.183	3089
854.317	3131
854.451	3306
854.585	3131
854.72	3066
854.854	3199
854.988	3066
855.122	3123
855.256	3028
855.39	3104
855.524	3237
855.658	3173
855.792	3138
855.926	3176
856.06	3222
856.194	3222
856.327	3116
856.461	3074
856.595	3074
856.729	3112
856.862	3214
856.996	3188
857.13	3203
857.263	3199
857.397	3241
857.53	3108
857.664	3165
857.797	3226
857.931	3256
858.064	3123
858.197	3245
858.331	3112
858.464	3093
858.597	2998
858.731	3116
858.864	3070
858.997	3085
859.13	3169
859.263	3146
859.396	3192
859.529	3077
859.662	3112
859.795	3051
859.928	3142
860.061	3283
860.194	3275
860.327	3123
860.46	3097
860.592	3226
860.725	3195
860.858	3264
860.99	3131
861.123	3062
861.256	3039
861.388	3112
861.521	3850
861.653	2994
861.786	2975
861.918	3013
862.05	3047
862.183	3085
862.315	3176
862.447	3169
862.58	3100
862.712	2960
862.844	2876
862.976	2979
863.108	2963
863.24	3439
863.372	2880
863.504	2982
863.636	2967
863.768	3036
863.9	3005
864.032	2937
864.164	2960
864.296	2986
864.428	3097
864.559	3100
864.691	3043
864.823	3066
864.954	3028
865.086	3058
865.217	2998
865.349	2963
865.48	2971
865.612	2986
865.743	3157
865.875	2963
866.006	2944
866.137	2933
866.269	2922
866.4	2933
866.531	2887
866.662	2868
866.793	2895
866.924	2883
867.055	2971
867.186	2925
867.317	2876
867.448	2811
867.579	2796
867.71	2830
867.841	2800
867.972	2910
868.103	2868
868.233	2880
868.364	2864
868.495	2902
868.625	3089
868.756	3146
868.886	2952
869.017	3028
869.147	3131
869.278	3131
869.408	3074
869.539	3009
869.669	3074
869.799	3028
869.929	3123
870.06	3100
870.19	3359
870.32	3264
870.45	3302
870.58	3397
870.71	3409
870.84	3439
870.97	3241
871.1	3230
871.23	3504
871.36	3496
871.489	3348
871.619	3382
871.749	3401
871.879	3416
872.008	3481
872.138	3351
872.267	3279
872.397	3169
872.526	3066
872.656	2998
872.785	3089
872.915	3230
873.044	3275
873.173	3214
873.303	3233
873.432	3241
873.561	3241
873.69	3138
873.819	3104
873.948	3176
874.077	3119
874.206	3043
874.335	3077
874.464	3188
874.593	3329
874.722	3245
874.851	3412
874.979	3317
875.108	3294
875.237	3226
875.365	3142
875.494	3169
875.623	3233
875.751	3081
875.88	3157
876.008	3203
876.136	3207
876.265	3351
876.393	3507
876.521	3416
876.65	3389
876.778	3321
876.906	3245
877.034	3169
877.162	3218
877.29	3161
877.418	3237
877.546	3199
877.674	3256
877.802	3241
877.93	3203
878.058	3112
878.185	3093
878.313	3176
878.441	3203
878.568	3036
878.696	3119
878.824	3272
878.951	3294
879.079	3431
879.206	3652
879.333	3439
879.461	3291
879.588	3382
879.715	3511
879.842	3564
879.97	3359
880.097	3157
880.224	3131
880.351	3176
880.478	3218
880.605	3256
880.732	3195
880.859	3450
880.986	3268
881.112	3283
881.239	3218
881.366	3081
881.493	3005
881.619	2998
881.746	3028
881.872	3085
881.999	3085
882.125	3116
882.252	3233
882.378	3321
882.505	3450
882.631	3233
882.757	3146
882.883	3184
883.01	3233
883.136	3154
883.262	3112
883.388	3089
883.514	3294
883.64	3374
883.766	3294
883.892	3180
884.018	3207
884.143	3435
884.269	3530
884.395	3214
884.52	3150
884.646	3207
884.772	3131
884.897	3104
885.023	3222
885.148	3336
885.274	3393
885.399	3340
885.524	3245
885.65	3275
885.775	3310
885.9	3306
886.025	3424
886.15	3340
886.275	3253
886.4	3226
886.525	3306
886.65	3306
886.775	3256
886.9	3473
887.025	3576
887.149	3367
887.274	3264
887.399	3226
887.523	3157
887.648	3203
887.773	3207
887.897	3351
888.021	3363
888.146	3264
888.27	3428
888.395	3580
888.519	3412
888.643	3443
888.767	3481
888.891	3291
889.015	3260
889.139	3302
889.263	3256
889.387	3363
889.511	3507
889.635	3416
889.759	3283
889.883	3294
890.006	3378
890.13	3515
890.254	3241
890.377	3351
890.501	3195
890.624	3173
890.748	3298
890.871	3161
890.995	3123
891.118	3074
891.241	3218
891.364	3222
891.488	3313
891.611	3131
891.734	3188
891.857	3279
891.98	3222
892.103	3317
892.226	3279
892.349	3222
892.471	3108
892.594	3287
892.717	3283
892.839	3230
892.962	3287
893.085	3355
893.207	3287
893.33	3161
893.452	3180
893.575	3329
893.697	3226
893.819	3481
893.941	3462
894.064	3454
894.186	3260
894.308	3222
894.43	3420
894.552	3538
894.674	3454
894.796	3268
894.918	3310
895.04	3275
895.161	3454
895.283	3359
895.405	3313
895.526	3374
895.648	3397
895.769	3363
895.891	3431
896.012	3477
896.134	3454
896.255	3412
896.376	3367
896.498	3382
896.619	3382
896.74	3370
896.861	3405
896.982	3679
897.103	3838
897.224	3622
897.345	3462
897.466	3435
897.587	3500
897.708	3591
897.828	3542
897.949	3435
898.07	3389
898.19	3405
898.311	3614
898.431	3428
898.552	3504
898.672	3599
898.792	3557
898.913	3519
899.033	3401
899.153	3310
899.273	3195
899.393	3298
899.513	3340
899.633	3298
899.753	3317
899.873	3325
899.993	3344
900.113	3302
900.232	3389
900.352	3336
900.472	3272
900.591	3203
900.711	3302
900.83	3230
900.95	3370
901.069	3469
901.189	3367
901.308	3176
901.427	3131
901.546	3176
901.665	3260
901.784	3340
901.904	3199
902.023	3146
902.141	2998
902.26	2994
902.379	3146
902.498	3051
902.617	3058
902.735	3218
902.854	3249
902.973	3203
903.091	3032
903.21	3036
903.328	3116
903.446	3074
903.565	3093
903.683	3203
903.801	3142
903.919	3268
904.038	3279
904.156	3138
904.274	3272
904.392	3241
904.51	3237
904.627	3325
904.745	3412
904.863	3458
904.981	3237
905.098	3180
905.216	3245
905.334	3310
905.451	3268
905.569	3275
905.686	3378
905.803	3424
905.921	3294
906.038	3386
906.155	3359
906.272	3298
906.389	3359
906.506	3241
906.623	3253
906.74	3283
906.857	3211
906.974	3233
907.091	3439
907.208	3568
907.324	3428
907.441	3359
907.557	3222
907.674	3233
907.79	3214
907.907	3253
908.023	3363
908.139	3378
908.256	3294
908.372	3370
908.488	3374
908.604	3279
908.72	3226
908.836	3313
908.952	3272
909.068	3325
909.184	3443
909.3	3382
909.415	3488
909.531	3435
909.647	3226
909.762	3317
909.878	3275
909.993	3370
910.108	3298
910.224	3336
910.339	3389
910.454	3355
910.57	3260
910.685	3272
910.8	3587
910.915	3534
911.03	3443
911.145	3253
911.259	3264
911.374	3298
911.489	3199
911.604	3207
911.718	3100
911.833	3119
911.947	3020
912.062	2998
912.176	3116
912.291	3165
912.405	3188
912.519	3393
912.633	3431
912.748	3306
912.862	3298
912.976	3138
913.09	3070
913.204	3154
913.318	3222
913.431	3310
913.545	3329
913.659	3378
913.772	3313
913.886	3184
914	3233
914.113	3355
914.226	3378
914.34	3355
914.453	3199
914.566	3435
914.68	3275
914.793	3264
914.906	3150
915.019	3085
915.132	3055
915.245	3150
915.358	3199
915.47	3230
915.583	3237
915.696	3272
915.809	3416
915.921	3416
916.034	3249
916.146	3226
916.259	3233
916.371	3370
916.483	3325
916.595	3245
916.708	3317
916.82	3298
916.932	3363
917.044	3340
917.156	3363
917.268	3230
917.38	3272
917.491	3256
917.603	3340
917.715	3412
917.826	3450
917.938	3363
918.049	3272
918.161	3424
918.272	3564
918.384	3549
918.495	3485
918.606	3294
918.717	3275
918.828	3336
918.939	3424
919.05	3325
919.161	3378
919.272	3173
919.383	3294
919.494	3481
919.604	3694
919.715	3496
919.826	3382
919.936	3443
920.047	3534
920.157	3530
920.267	3743
920.378	3599
920.488	3549
920.598	3759
920.708	3915
920.818	3850
920.928	3808
921.038	4021
921.148	3949
921.258	3701
921.368	3610
921.477	3587
921.587	3511
921.697	3443
921.806	3614
921.916	3538
922.025	3351
922.134	3348
922.244	3321
922.353	3435
922.462	3272
922.571	3218
922.68	3112
922.789	3077
922.898	3119
923.007	3077
923.116	3180
923.224	3184
923.333	3184
923.442	3119
923.55	3062
923.659	3100
923.767	3146
923.876	3097
923.984	3207
924.092	3108
924.201	3165
924.309	3199
924.417	3260
924.525	3173
924.633	3218
924.741	4116
924.849	3058
924.956	3294
925.064	3055
925.172	3032
925.279	3081
925.387	3154
925.494	3138
925.602	3340
925.709	3294
925.816	3157
925.924	3279
926.031	3370
926.138	3272
926.245	3351
926.352	3264
926.459	3409
926.566	3481
926.673	3310
926.779	3253
926.886	3249
926.993	3112
927.099	3142
927.206	3119
927.312	3100
927.419	3249
927.525	3211
927.631	3272
927.737	3154
927.843	3112
927.95	2994
928.056	3123
928.162	3180
928.267	3226
928.373	3888
928.479	3317
928.585	3085
928.69	3211
928.796	3272
928.901	3161
929.007	3100
929.112	3195
929.218	3188
929.323	3142
929.428	3135
929.533	3332
929.638	3127
929.743	3169
929.848	3272
929.953	3226
930.058	3150
930.163	3013
930.267	3066
930.372	3203
930.477	3074
930.581	3359
930.685	3218
930.79	3047
930.894	3184
930.998	3123
931.103	3287
931.207	2971
931.311	2982
931.415	2960
931.519	2796
931.623	2861
