Data from test_V78500241_1025.txt Node
Date: Fri Mar 25 16:22:18 CST 2022
User: usil
Spectrometer: V785-0024
Trigger mode: 0
Integration Time (sec): 4.000000E-1
Scans to average: 1
Nonlinearity correction enabled: false
Boxcar width: 0
Storing dark spectrum: false
XAxis mode: Wavelengths
Number of Pixels in Spectrum: 1024
>>>>>Begin Spectral Data<<<<<
801.071	2929
801.214	2952
801.356	2849
801.499	2902
801.641	2880
801.783	2925
801.926	3055
802.068	2975
802.211	2982
802.353	3028
802.496	2979
802.638	3009
802.78	3051
802.923	3077
803.065	3024
803.208	2891
803.35	2910
803.492	2956
803.635	2933
803.777	2754
803.919	2880
804.061	3230
804.204	2967
804.346	2933
804.488	2834
804.63	2994
804.773	2910
804.915	2922
805.057	3093
805.199	2948
805.341	3005
805.483	3058
805.626	3039
805.768	2971
805.91	3104
806.052	3176
806.194	3089
806.336	3264
806.478	3055
806.62	2990
806.762	3001
806.904	3127
807.046	3184
807.188	3062
807.33	2948
807.472	3043
807.614	2933
807.756	3001
807.898	2963
808.04	2937
808.182	3024
808.324	3024
808.465	2937
808.607	2933
808.749	2853
808.891	2857
809.033	3039
809.174	3020
809.316	2918
809.458	2910
809.6	2777
809.741	2857
809.883	2769
810.025	2868
810.166	2918
810.308	2872
810.45	2883
810.591	2792
810.733	2807
810.875	2864
811.016	2830
811.158	2807
811.299	2861
811.441	2975
811.582	2872
811.724	2868
811.865	2857
812.007	2963
812.148	2914
812.29	2887
812.431	2944
812.573	2982
812.714	2998
812.855	3081
812.997	3097
813.138	3154
813.279	3020
813.421	3009
813.562	2971
813.703	2910
813.845	2910
813.986	2830
814.127	2750
814.268	2849
814.41	2864
814.551	2838
814.692	2918
814.833	2807
814.974	2925
815.115	2998
815.256	2868
815.397	2834
815.539	2906
815.68	2807
815.821	2857
815.962	2963
816.103	2971
816.244	2922
816.385	2899
816.526	2960
816.666	2948
816.807	2762
816.948	2925
817.089	2952
817.23	2887
817.371	2804
817.512	2823
817.653	2906
817.793	2845
817.934	2918
818.075	2990
818.216	3009
818.356	3051
818.497	2918
818.638	2823
818.778	2842
818.919	2838
819.06	2773
819.2	2895
819.341	2861
819.481	2819
819.622	2899
819.762	3119
819.903	3066
820.043	2937
820.184	2899
820.324	2914
820.465	3070
820.605	3024
820.746	3055
820.886	2956
821.026	3146
821.167	3165
821.307	3260
821.447	3325
821.588	3249
821.728	3199
821.868	3218
822.008	3104
822.149	3253
822.289	3237
822.429	3097
822.569	3135
822.709	3176
822.849	3058
822.99	3108
823.13	3150
823.27	3245
823.41	3157
823.55	3203
823.69	3165
823.83	3230
823.97	3074
824.11	3005
824.25	2960
824.389	3074
824.529	3093
824.669	3051
824.809	3230
824.949	3317
825.089	3233
825.228	3188
825.368	3036
825.508	2922
825.648	3017
825.787	3005
825.927	3036
826.067	2994
826.206	2994
826.346	3055
826.485	3104
826.625	3104
826.765	3264
826.904	3226
827.044	3009
827.183	2960
827.323	2876
827.462	2963
827.601	2944
827.741	2922
827.88	2963
828.02	2880
828.159	3013
828.298	3085
828.437	3154
828.577	3074
828.716	3272
828.855	3119
828.994	2918
829.134	2887
829.273	2967
829.412	2883
829.551	2876
829.69	2914
829.829	3001
829.968	3184
830.107	3055
830.246	3047
830.385	2944
830.524	2925
830.663	2830
830.802	2750
830.941	2682
831.08	2697
831.219	2811
831.357	2762
831.496	2986
831.635	2720
831.774	2670
831.913	2701
832.051	2590
832.19	2602
832.329	2705
832.467	2575
832.606	2530
832.744	2587
832.883	2602
833.022	2625
833.16	2689
833.299	2693
833.437	2701
833.576	2754
833.714	2754
833.852	2777
833.991	2807
834.129	2868
834.267	2838
834.406	2819
834.544	2918
834.682	2899
834.821	2880
834.959	3104
835.097	2925
835.235	3070
835.373	3043
835.511	3051
835.65	2967
835.788	2990
835.926	2864
836.064	2853
836.202	2853
836.34	3093
836.478	3203
836.615	3108
836.753	3127
836.891	3211
837.029	3218
837.167	3116
837.305	3074
837.443	3028
837.58	2982
837.718	3161
837.856	3062
837.993	3074
838.131	3165
838.269	3093
838.406	3142
838.544	3119
838.681	3001
838.819	2963
838.956	2845
839.094	2838
839.231	2937
839.369	3028
839.506	3416
839.643	3245
839.781	3009
839.918	2986
840.055	3058
840.193	3047
840.33	3066
840.467	3108
840.604	3154
840.742	3382
840.879	3081
841.016	3047
841.153	3142
841.29	3332
841.427	3310
841.564	3279
841.701	3344
841.838	3260
841.975	3165
842.112	3268
842.249	3112
842.385	3070
842.522	3249
842.659	3085
842.796	3070
842.933	3100
843.069	3066
843.206	3047
843.343	3214
843.479	3131
843.616	3138
843.752	2922
843.889	2906
844.025	3097
844.162	2895
844.298	3097
844.435	2956
844.571	2960
844.708	3127
844.844	3222
844.98	3245
845.117	3237
845.253	3070
845.389	3017
845.525	3108
845.661	3138
845.798	3036
845.934	3142
846.07	3043
846.206	3245
846.342	3332
846.478	3283
846.614	3127
846.75	3085
846.886	3055
847.022	3291
847.158	3154
847.294	3233
847.429	3275
847.565	3214
847.701	3473
847.837	3051
847.972	2994
848.108	3214
848.244	3195
848.379	3036
848.515	2925
848.65	2963
848.786	2971
848.921	3028
849.057	3161
849.192	3184
849.328	3104
849.463	3093
849.598	3058
849.734	3043
849.869	2971
850.004	2929
850.14	2975
850.275	2948
850.41	2880
850.545	2864
850.68	2941
850.815	2967
850.95	2998
851.085	3256
851.22	3100
851.355	3055
851.49	2982
851.625	3028
851.76	3089
851.895	2975
852.03	2883
852.165	3051
852.299	3154
852.434	3169
852.569	3165
852.703	3180
852.838	3272
852.973	3351
853.107	3325
853.242	3173
853.376	3119
853.511	2971
853.645	3055
853.78	3264
853.914	3123
854.048	3100
854.183	3108
854.317	3135
854.451	3310
854.585	3150
854.72	3119
854.854	3233
854.988	3058
855.122	3123
855.256	3005
855.39	3184
855.524	3184
855.658	3245
855.792	3203
855.926	3184
856.06	3245
856.194	3291
856.327	3199
856.461	3074
856.595	3085
856.729	3123
856.862	3233
856.996	3157
857.13	3199
857.263	3214
857.397	3241
857.53	3097
857.664	3188
857.797	3188
857.931	3260
858.064	3169
858.197	3249
858.331	3180
858.464	3112
858.597	3036
858.731	3165
858.864	3119
858.997	3127
859.13	3169
859.263	3188
859.396	3214
859.529	3104
859.662	3089
859.795	3058
859.928	3180
860.061	3310
860.194	3283
860.327	3108
860.46	3085
860.592	3192
860.725	3199
860.858	3256
860.99	3123
861.123	3043
861.256	3043
861.388	3161
861.521	3854
861.653	3039
861.786	3005
861.918	3020
862.05	3081
862.183	3093
862.315	3146
862.447	3192
862.58	3093
862.712	2986
862.844	2895
862.976	3036
863.108	3032
863.24	3424
863.372	2922
863.504	2971
863.636	2929
863.768	3028
863.9	2979
864.032	2922
864.164	2937
864.296	3028
864.428	3089
864.559	3135
864.691	3135
864.823	3077
864.954	3017
865.086	3047
865.217	2975
865.349	2967
865.48	3009
865.612	3009
865.743	3165
865.875	2971
866.006	2937
866.137	2975
866.269	2937
866.4	2929
866.531	2910
866.662	2910
866.793	2887
866.924	2891
867.055	2994
867.186	2960
867.317	2906
867.448	2876
867.579	2853
867.71	2853
867.841	2788
867.972	2914
868.103	2887
868.233	2868
868.364	2853
868.495	2918
868.625	3089
868.756	3161
868.886	2960
869.017	3032
869.147	3176
869.278	3176
869.408	3047
869.539	3028
869.669	3089
869.799	3070
869.929	3123
870.06	3108
870.19	3317
870.32	3294
870.45	3306
870.58	3370
870.71	3469
870.84	3450
870.97	3302
871.1	3249
871.23	3500
871.36	3496
871.489	3382
871.619	3424
871.749	3420
871.879	3435
872.008	3500
872.138	3359
872.267	3287
872.397	3173
872.526	3104
872.656	3032
872.785	3104
872.915	3233
873.044	3298
873.173	3226
873.303	3291
873.432	3245
873.561	3222
873.69	3150
873.819	3127
873.948	3192
874.077	3104
874.206	3097
874.335	3081
874.464	3184
874.593	3359
874.722	3230
874.851	3401
874.979	3351
875.108	3302
875.237	3154
875.365	3165
875.494	3176
875.623	3264
875.751	3070
875.88	3112
876.008	3211
876.136	3245
876.265	3363
876.393	3526
876.521	3405
876.65	3389
876.778	3317
876.906	3298
877.034	3203
877.162	3233
877.29	3214
877.418	3279
877.546	3233
877.674	3245
877.802	3211
877.93	3249
878.058	3173
878.185	3127
878.313	3203
878.441	3241
878.568	3055
878.696	3154
878.824	3249
878.951	3313
879.079	3447
879.206	3610
879.333	3405
879.461	3317
879.588	3386
879.715	3496
879.842	3587
879.97	3367
880.097	3169
880.224	3077
880.351	3157
880.478	3226
880.605	3249
880.732	3203
880.859	3545
880.986	3249
881.112	3310
881.239	3199
881.366	3112
881.493	3005
881.619	3043
881.746	3089
881.872	3131
881.999	3108
882.125	3131
882.252	3264
882.378	3313
882.505	3443
882.631	3310
882.757	3180
882.883	3218
883.01	3230
883.136	3146
883.262	3104
883.388	3085
883.514	3321
883.64	3393
883.766	3306
883.892	3222
884.018	3253
884.143	3416
884.269	3561
884.395	3207
884.52	3207
884.646	3176
884.772	3127
884.897	3112
885.023	3214
885.148	3298
885.274	3458
885.399	3367
885.524	3283
885.65	3260
885.775	3332
885.9	3306
886.025	3439
886.15	3359
886.275	3302
886.4	3268
886.525	3302
886.65	3302
886.775	3268
886.9	3462
887.025	3648
887.149	3435
887.274	3249
887.399	3188
887.523	3218
887.648	3157
887.773	3203
887.897	3351
888.021	3447
888.146	3302
888.27	3450
888.395	3519
888.519	3469
888.643	3424
888.767	3458
888.891	3340
889.015	3264
889.139	3279
889.263	3214
889.387	3454
889.511	3488
889.635	3466
889.759	3275
889.883	3325
890.006	3389
890.13	3492
890.254	3275
890.377	3378
890.501	3214
890.624	3180
890.748	3325
890.871	3154
890.995	3127
891.118	3077
891.241	3157
891.364	3226
891.488	3332
891.611	3173
891.734	3203
891.857	3291
891.98	3199
892.103	3329
892.226	3291
892.349	3211
892.471	3119
892.594	3264
892.717	3302
892.839	3233
892.962	3279
893.085	3355
893.207	3298
893.33	3169
893.452	3214
893.575	3351
893.697	3298
893.819	3462
893.941	3545
894.064	3458
894.186	3275
894.308	3313
894.43	3431
894.552	3545
894.674	3481
894.796	3230
894.918	3294
895.04	3268
895.161	3416
895.283	3412
895.405	3283
895.526	3386
895.648	3462
895.769	3435
895.891	3424
896.012	3458
896.134	3473
896.255	3397
896.376	3409
896.498	3329
896.619	3378
896.74	3340
896.861	3397
896.982	3663
897.103	3857
897.224	3614
897.345	3485
897.466	3450
897.587	3488
897.708	3644
897.828	3507
897.949	3397
898.07	3374
898.19	3382
898.311	3584
898.431	3424
898.552	3477
898.672	3641
898.792	3580
898.913	3515
899.033	3393
899.153	3325
899.273	3207
899.393	3260
899.513	3313
899.633	3310
899.753	3336
899.873	3336
899.993	3355
900.113	3359
900.232	3416
900.352	3329
900.472	3298
900.591	3237
900.711	3310
900.83	3253
900.95	3401
901.069	3481
901.189	3340
901.308	3218
901.427	3138
901.546	3184
901.665	3283
901.784	3336
901.904	3176
902.023	3150
902.141	2998
902.26	2986
902.379	3131
902.498	3074
902.617	3058
902.735	3192
902.854	3256
902.973	3180
903.091	3036
903.21	3085
903.328	3161
903.446	3104
903.565	3104
903.683	3157
903.801	3116
903.919	3222
904.038	3279
904.156	3207
904.274	3294
904.392	3260
904.51	3264
904.627	3298
904.745	3416
904.863	3488
904.981	3237
905.098	3142
905.216	3214
905.334	3260
905.451	3310
905.569	3294
905.686	3424
905.803	3431
905.921	3275
906.038	3389
906.155	3336
906.272	3279
906.389	3332
906.506	3233
906.623	3233
906.74	3253
906.857	3214
906.974	3283
907.091	3466
907.208	3515
907.324	3458
907.441	3332
907.557	3218
907.674	3218
907.79	3207
907.907	3306
908.023	3374
908.139	3332
908.256	3298
908.372	3378
908.488	3355
908.604	3260
908.72	3241
908.836	3294
908.952	3275
909.068	3306
909.184	3454
909.3	3420
909.415	3511
909.531	3462
909.647	3268
909.762	3279
909.878	3279
909.993	3363
910.108	3336
910.224	3332
910.339	3378
910.454	3332
910.57	3253
910.685	3253
910.8	3610
910.915	3549
911.03	3420
911.145	3275
911.259	3275
911.374	3291
911.489	3233
911.604	3218
911.718	3104
911.833	3146
911.947	3032
912.062	3005
912.176	3108
912.291	3211
912.405	3214
912.519	3401
912.633	3447
912.748	3279
912.862	3253
912.976	3192
913.09	3074
913.204	3123
913.318	3207
913.431	3351
913.545	3370
913.659	3412
913.772	3325
913.886	3253
914	3184
914.113	3340
914.226	3397
914.34	3378
914.453	3211
914.566	3424
914.68	3268
914.793	3264
914.906	3161
915.019	3127
915.132	3043
915.245	3127
915.358	3195
915.47	3207
915.583	3287
915.696	3287
915.809	3401
915.921	3428
916.034	3249
916.146	3249
916.259	3233
916.371	3363
916.483	3355
916.595	3245
916.708	3321
916.82	3298
916.932	3321
917.044	3336
917.156	3351
917.268	3256
917.38	3264
917.491	3287
917.603	3382
917.715	3439
917.826	3488
917.938	3355
918.049	3275
918.161	3378
918.272	3587
918.384	3572
918.495	3485
918.606	3302
918.717	3260
918.828	3374
918.939	3424
919.05	3268
919.161	3336
919.272	3214
919.383	3264
919.494	3500
919.604	3694
919.715	3519
919.826	3401
919.936	3481
920.047	3610
920.157	3526
920.267	3774
920.378	3599
920.488	3530
920.598	3762
920.708	3896
920.818	3827
920.928	3793
921.038	4059
921.148	4017
921.258	3675
921.368	3603
921.477	3576
921.587	3511
921.697	3481
921.806	3603
921.916	3500
922.025	3363
922.134	3348
922.244	3306
922.353	3393
922.462	3291
922.571	3184
922.68	3081
922.789	3074
922.898	3138
923.007	3089
923.116	3211
923.224	3176
923.333	3211
923.442	3100
923.55	3116
923.659	3154
923.767	3214
923.876	3097
923.984	3207
924.092	3081
924.201	3211
924.309	3211
924.417	3264
924.525	3180
924.633	3253
924.741	4124
924.849	3062
924.956	3245
925.064	3108
925.172	3036
925.279	3089
925.387	3157
925.494	3173
925.602	3359
925.709	3340
925.816	3211
925.924	3310
926.031	3382
926.138	3310
926.245	3348
926.352	3256
926.459	3420
926.566	3458
926.673	3321
926.779	3226
926.886	3214
926.993	3104
927.099	3146
927.206	3112
927.312	3097
927.419	3180
927.525	3195
927.631	3272
927.737	3093
927.843	3100
927.95	3009
928.056	3108
928.162	3154
928.267	3272
928.373	3827
928.479	3279
928.585	3028
928.69	3165
928.796	3275
928.901	3199
929.007	3066
929.112	3165
929.218	3173
929.323	3131
929.428	3161
929.533	3291
929.638	3127
929.743	3188
929.848	3287
929.953	3218
930.058	3116
930.163	2967
930.267	3058
930.372	3188
930.477	3024
930.581	3298
930.685	3169
930.79	3085
930.894	3070
930.998	3074
931.103	3268
931.207	2971
931.311	2910
931.415	2910
931.519	2754
931.623	2777
