Data from test_V78500241_1389.txt Node
Date: Fri Mar 25 16:24:49 CST 2022
User: usil
Spectrometer: V785-0024
Trigger mode: 0
Integration Time (sec): 4.000000E-1
Scans to average: 1
Nonlinearity correction enabled: false
Boxcar width: 0
Storing dark spectrum: false
XAxis mode: Wavelengths
Number of Pixels in Spectrum: 1024
>>>>>Begin Spectral Data<<<<<
801.071	2891
801.214	2941
801.356	2838
801.499	2902
801.641	2876
801.783	2956
801.926	3036
802.068	2971
802.211	2986
802.353	3028
802.496	2941
802.638	3001
802.78	3005
802.923	3074
803.065	3005
803.208	2918
803.35	2910
803.492	2925
803.635	2902
803.777	2762
803.919	2853
804.061	3165
804.204	2967
804.346	2906
804.488	2845
804.63	2956
804.773	2906
804.915	2906
805.057	3077
805.199	2941
805.341	3009
805.483	3013
805.626	3017
805.768	2952
805.91	3093
806.052	3089
806.194	3055
806.336	3226
806.478	3024
806.62	2979
806.762	2979
806.904	3017
807.046	3154
807.188	2998
807.33	2922
807.472	3001
807.614	2891
807.756	2971
807.898	2933
808.04	2952
808.182	3001
808.324	2929
808.465	2906
808.607	2899
808.749	2788
808.891	2876
809.033	2994
809.174	2994
809.316	2910
809.458	2918
809.6	2804
809.741	2762
809.883	2769
810.025	2857
810.166	2868
810.308	2842
810.45	2857
810.591	2773
810.733	2804
810.875	2849
811.016	2769
811.158	2773
811.299	2823
811.441	2922
811.582	2876
811.724	2826
811.865	2819
812.007	2891
812.148	2925
812.29	2880
812.431	2895
812.573	2937
812.714	2998
812.855	3028
812.997	3112
813.138	3131
813.279	3001
813.421	2998
813.562	2986
813.703	2864
813.845	2906
813.986	2773
814.127	2746
814.268	2857
814.41	2838
814.551	2815
814.692	2910
814.833	2823
814.974	2864
815.115	2960
815.256	2868
815.397	2834
815.539	2872
815.68	2811
815.821	2788
815.962	2922
816.103	2937
816.244	2899
816.385	2891
816.526	2960
816.666	2910
816.807	2727
816.948	2895
817.089	2925
817.23	2815
817.371	2796
817.512	2792
817.653	2834
817.793	2838
817.934	2906
818.075	2982
818.216	2971
818.356	3032
818.497	2887
818.638	2811
818.778	2796
818.919	2788
819.06	2739
819.2	2868
819.341	2800
819.481	2838
819.622	2910
819.762	3104
819.903	3005
820.043	2895
820.184	2899
820.324	2887
820.465	3013
820.605	3009
820.746	3009
820.886	2960
821.026	3097
821.167	3176
821.307	3256
821.447	3283
821.588	3230
821.728	3184
821.868	3233
822.008	3108
822.149	3218
822.289	3173
822.429	3066
822.569	3081
822.709	3203
822.849	3017
822.99	3077
823.13	3165
823.27	3192
823.41	3116
823.55	3157
823.69	3138
823.83	3184
823.97	3070
824.11	2990
824.25	2971
824.389	3047
824.529	3150
824.669	3058
824.809	3176
824.949	3211
825.089	3211
825.228	3161
825.368	2990
825.508	2971
825.648	2967
825.787	3039
825.927	2994
826.067	2922
826.206	2952
826.346	3020
826.485	3104
826.625	3119
826.765	3272
826.904	3195
827.044	2971
827.183	2925
827.323	2910
827.462	2967
827.601	2914
827.741	2933
827.88	2963
828.02	2864
828.159	2941
828.298	3020
828.437	3104
828.577	3024
828.716	3207
828.855	3123
828.994	2910
829.134	2887
829.273	2937
829.412	2876
829.551	2853
829.69	2906
829.829	2975
829.968	3123
830.107	3005
830.246	3020
830.385	2922
830.524	2876
830.663	2807
830.802	2739
830.941	2651
831.08	2667
831.219	2796
831.357	2727
831.496	2948
831.635	2712
831.774	2689
831.913	2625
832.051	2533
832.19	2537
832.329	2724
832.467	2541
832.606	2473
832.744	2575
832.883	2587
833.022	2617
833.16	2659
833.299	2678
833.437	2689
833.576	2686
833.714	2705
833.852	2727
833.991	2762
834.129	2815
834.267	2826
834.406	2773
834.544	2849
834.682	2883
834.821	2823
834.959	3039
835.097	2876
835.235	3032
835.373	2975
835.511	3013
835.65	2922
835.788	2937
835.926	2792
836.064	2811
836.202	2849
836.34	3085
836.478	3123
836.615	3032
836.753	3119
836.891	3161
837.029	3146
837.167	3100
837.305	3074
837.443	3055
837.58	2944
837.718	3157
837.856	3074
837.993	3028
838.131	3089
838.269	3058
838.406	3100
838.544	3051
838.681	2925
838.819	2922
838.956	2796
839.094	2800
839.231	2937
839.369	3055
839.506	3367
839.643	3226
839.781	3001
839.918	2967
840.055	3024
840.193	3036
840.33	3043
840.467	3116
840.604	3192
840.742	3397
840.879	3047
841.016	3020
841.153	3138
841.29	3291
841.427	3256
841.564	3237
841.701	3329
841.838	3161
841.975	3169
842.112	3218
842.249	3097
842.385	3055
842.522	3272
842.659	3074
842.796	3013
842.933	3093
843.069	3036
843.206	3017
843.343	3176
843.479	3097
843.616	3161
843.752	2883
843.889	2887
844.025	3074
844.162	2868
844.298	3039
844.435	2960
844.571	2922
844.708	3055
844.844	3161
844.98	3226
845.117	3214
845.253	3081
845.389	3005
845.525	3085
845.661	3116
845.798	3017
845.934	3161
846.07	3055
846.206	3218
846.342	3287
846.478	3199
846.614	3077
846.75	3097
846.886	3013
847.022	3199
847.158	3146
847.294	3195
847.429	3226
847.565	3230
847.701	3466
847.837	3036
847.972	2979
848.108	3138
848.244	3146
848.379	2990
848.515	2952
848.65	2937
848.786	2933
848.921	3024
849.057	3089
849.192	3119
849.328	3047
849.463	3070
849.598	3077
849.734	3047
849.869	2956
850.004	2922
850.14	2967
850.275	2902
850.41	2830
850.545	2880
850.68	2941
850.815	2906
850.95	2967
851.085	3211
851.22	3127
851.355	3028
851.49	2982
851.625	2998
851.76	3032
851.895	2922
852.03	2880
852.165	3028
852.299	3093
852.434	3184
852.569	3127
852.703	3176
852.838	3233
852.973	3336
853.107	3275
853.242	3131
853.376	3116
853.511	2956
853.645	3032
853.78	3211
853.914	3085
854.048	3108
854.183	3081
854.317	3157
854.451	3264
854.585	3135
854.72	3070
854.854	3233
854.988	3032
855.122	3112
855.256	2956
855.39	3077
855.524	3199
855.658	3150
855.792	3127
855.926	3192
856.06	3214
856.194	3268
856.327	3180
856.461	3051
856.595	3074
856.729	3039
856.862	3226
856.996	3180
857.13	3157
857.263	3241
857.397	3272
857.53	3142
857.664	3199
857.797	3241
857.931	3199
858.064	3150
858.197	3195
858.331	3123
858.464	3100
858.597	3013
858.731	3089
858.864	3104
858.997	3074
859.13	3135
859.263	3135
859.396	3192
859.529	3097
859.662	3100
859.795	3047
859.928	3112
860.061	3298
860.194	3233
860.327	3112
860.46	3070
860.592	3241
860.725	3268
860.858	3249
860.99	3093
861.123	3051
861.256	3017
861.388	3161
861.521	3755
861.653	2998
861.786	2979
861.918	3005
862.05	3081
862.183	3100
862.315	3131
862.447	3165
862.58	3097
862.712	2956
862.844	2868
862.976	2998
863.108	3036
863.24	3313
863.372	2868
863.504	2967
863.636	2937
863.768	3047
863.9	2937
864.032	2876
864.164	2944
864.296	3047
864.428	3077
864.559	3100
864.691	3093
864.823	3055
864.954	3009
865.086	3055
865.217	2956
865.349	2960
865.48	3013
865.612	3058
865.743	3131
865.875	2975
866.006	2956
866.137	2971
866.269	2963
866.4	2948
866.531	2933
866.662	2887
866.793	2906
866.924	2922
867.055	2971
867.186	2929
867.317	2872
867.448	2807
867.579	2826
867.71	2823
867.841	2823
867.972	2910
868.103	2887
868.233	2906
868.364	2796
868.495	2899
868.625	3024
868.756	3135
868.886	2952
869.017	3020
869.147	3165
869.278	3176
869.408	3024
869.539	3028
869.669	3116
869.799	3017
869.929	3116
870.06	3104
870.19	3302
870.32	3253
870.45	3260
870.58	3378
870.71	3469
870.84	3428
870.97	3268
871.1	3253
871.23	3447
871.36	3431
871.489	3310
871.619	3378
871.749	3401
871.879	3424
872.008	3481
872.138	3329
872.267	3260
872.397	3097
872.526	3138
872.656	3020
872.785	3070
872.915	3272
873.044	3321
873.173	3241
873.303	3237
873.432	3226
873.561	3214
873.69	3131
873.819	3108
873.948	3211
874.077	3089
874.206	3020
874.335	3051
874.464	3233
874.593	3382
874.722	3230
874.851	3382
874.979	3313
875.108	3355
875.237	3154
875.365	3150
875.494	3169
875.623	3237
875.751	3097
875.88	3112
876.008	3184
876.136	3272
876.265	3359
876.393	3466
876.521	3412
876.65	3386
876.778	3287
876.906	3249
877.034	3214
877.162	3199
877.29	3173
877.418	3279
877.546	3241
877.674	3207
877.802	3192
877.93	3226
878.058	3173
878.185	3089
878.313	3207
878.441	3237
878.568	3055
878.696	3161
878.824	3264
878.951	3310
879.079	3409
879.206	3584
879.333	3420
879.461	3321
879.588	3332
879.715	3466
879.842	3587
879.97	3348
880.097	3138
880.224	3104
880.351	3199
880.478	3203
880.605	3188
880.732	3207
880.859	3504
880.986	3287
881.112	3344
881.239	3180
881.366	3077
881.493	3020
881.619	3036
881.746	3051
881.872	3066
881.999	3074
882.125	3150
882.252	3214
882.378	3291
882.505	3428
882.631	3279
882.757	3127
882.883	3180
883.01	3233
883.136	3157
883.262	3100
883.388	3100
883.514	3306
883.64	3367
883.766	3283
883.892	3169
884.018	3249
884.143	3382
884.269	3542
884.395	3192
884.52	3165
884.646	3192
884.772	3081
884.897	3093
885.023	3233
885.148	3321
885.274	3416
885.399	3336
885.524	3260
885.65	3260
885.775	3370
885.9	3294
886.025	3374
886.15	3363
886.275	3302
886.4	3226
886.525	3291
886.65	3287
886.775	3218
886.9	3504
887.025	3648
887.149	3386
887.274	3230
887.399	3142
887.523	3169
887.648	3214
887.773	3184
887.897	3351
888.021	3378
888.146	3275
888.27	3447
888.395	3538
888.519	3412
888.643	3477
888.767	3458
888.891	3279
889.015	3207
889.139	3268
889.263	3245
889.387	3389
889.511	3523
889.635	3420
889.759	3260
889.883	3279
890.006	3374
890.13	3500
890.254	3275
890.377	3363
890.501	3195
890.624	3150
890.748	3268
890.871	3188
890.995	3116
891.118	3039
891.241	3214
891.364	3260
891.488	3287
891.611	3211
891.734	3237
891.857	3253
891.98	3226
892.103	3317
892.226	3272
892.349	3203
892.471	3116
892.594	3245
892.717	3287
892.839	3275
892.962	3336
893.085	3363
893.207	3313
893.33	3146
893.452	3195
893.575	3313
893.697	3237
893.819	3462
893.941	3481
894.064	3462
894.186	3214
894.308	3256
894.43	3405
894.552	3515
894.674	3443
894.796	3275
894.918	3294
895.04	3283
895.161	3409
895.283	3355
895.405	3294
895.526	3344
895.648	3393
895.769	3435
895.891	3447
896.012	3469
896.134	3435
896.255	3386
896.376	3351
896.498	3351
896.619	3428
896.74	3374
896.861	3431
896.982	3717
897.103	3857
897.224	3591
897.345	3492
897.466	3424
897.587	3481
897.708	3599
897.828	3542
897.949	3450
898.07	3317
898.19	3420
898.311	3599
898.431	3435
898.552	3504
898.672	3564
898.792	3576
898.913	3492
899.033	3420
899.153	3325
899.273	3218
899.393	3302
899.513	3340
899.633	3340
899.753	3348
899.873	3268
899.993	3374
900.113	3306
900.232	3359
900.352	3336
900.472	3253
900.591	3180
900.711	3344
900.83	3245
900.95	3458
901.069	3454
901.189	3389
901.308	3161
901.427	3150
901.546	3173
901.665	3283
901.784	3325
901.904	3237
902.023	3146
902.141	3001
902.26	3005
902.379	3123
902.498	3085
902.617	3043
902.735	3211
902.854	3222
902.973	3165
903.091	3039
903.21	3039
903.328	3135
903.446	3097
903.565	3085
903.683	3180
903.801	3123
903.919	3245
904.038	3287
904.156	3192
904.274	3332
904.392	3260
904.51	3283
904.627	3363
904.745	3443
904.863	3530
904.981	3279
905.098	3214
905.216	3233
905.334	3306
905.451	3283
905.569	3313
905.686	3416
905.803	3424
905.921	3260
906.038	3416
906.155	3351
906.272	3306
906.389	3279
906.506	3249
906.623	3230
906.74	3264
906.857	3203
906.974	3268
907.091	3447
907.208	3576
907.324	3488
907.441	3351
907.557	3233
907.674	3207
907.79	3214
907.907	3298
908.023	3359
908.139	3386
908.256	3321
908.372	3386
908.488	3359
908.604	3230
908.72	3233
908.836	3272
908.952	3275
909.068	3351
909.184	3450
909.3	3344
909.415	3462
909.531	3488
909.647	3268
909.762	3226
909.878	3245
909.993	3344
910.108	3374
910.224	3332
910.339	3401
910.454	3317
910.57	3325
910.685	3260
910.8	3572
910.915	3549
911.03	3420
911.145	3317
911.259	3256
911.374	3306
911.489	3226
911.604	3222
911.718	3093
911.833	3165
911.947	3028
912.062	2982
912.176	3184
912.291	3195
912.405	3188
912.519	3439
912.633	3488
912.748	3306
912.862	3287
912.976	3142
913.09	3051
913.204	3150
913.318	3214
913.431	3313
913.545	3313
913.659	3386
913.772	3336
913.886	3230
914	3203
914.113	3351
914.226	3389
914.34	3317
914.453	3249
914.566	3412
914.68	3268
914.793	3306
914.906	3180
915.019	3112
915.132	3108
915.245	3176
915.358	3207
915.47	3264
915.583	3302
915.696	3268
915.809	3401
915.921	3416
916.034	3264
916.146	3260
916.259	3218
916.371	3374
916.483	3340
916.595	3291
916.708	3329
916.82	3340
916.932	3370
917.044	3363
917.156	3329
917.268	3253
917.38	3325
917.491	3287
917.603	3336
917.715	3424
917.826	3466
917.938	3348
918.049	3279
918.161	3435
918.272	3591
918.384	3534
918.495	3477
918.606	3310
918.717	3256
918.828	3374
918.939	3405
919.05	3302
919.161	3389
919.272	3184
919.383	3264
919.494	3462
919.604	3675
919.715	3488
919.826	3431
919.936	3481
920.047	3580
920.157	3557
920.267	3781
920.378	3606
920.488	3564
920.598	3785
920.708	3915
920.818	3785
920.928	3812
921.038	4055
921.148	4002
921.258	3736
921.368	3660
921.477	3576
921.587	3542
921.697	3473
921.806	3606
921.916	3504
922.025	3397
922.134	3313
922.244	3313
922.353	3405
922.462	3275
922.571	3230
922.68	3097
922.789	3070
922.898	3146
923.007	3138
923.116	3188
923.224	3165
923.333	3195
923.442	3108
923.55	3123
923.659	3123
923.767	3199
923.876	3104
923.984	3237
924.092	3093
924.201	3188
924.309	3211
924.417	3253
924.525	3142
924.633	3192
924.741	4025
924.849	3039
924.956	3245
925.064	3039
925.172	3028
925.279	3116
925.387	3188
925.494	3184
925.602	3317
925.709	3329
925.816	3214
925.924	3233
926.031	3382
926.138	3325
926.245	3374
926.352	3253
926.459	3412
926.566	3466
926.673	3329
926.779	3233
926.886	3226
926.993	3157
927.099	3127
927.206	3127
927.312	3108
927.419	3237
927.525	3222
927.631	3253
927.737	3104
927.843	3146
927.95	2998
928.056	3173
928.162	3169
928.267	3230
928.373	3838
928.479	3310
928.585	3131
928.69	3230
928.796	3245
928.901	3173
929.007	3024
929.112	3241
929.218	3169
929.323	3131
929.428	3154
929.533	3291
929.638	3116
929.743	3161
929.848	3260
929.953	3222
930.058	3138
930.163	3009
930.267	3051
930.372	3176
930.477	3062
930.581	3298
930.685	3188
930.79	3047
930.894	3100
930.998	3108
931.103	3260
931.207	2960
931.311	2944
931.415	2937
931.519	2743
931.623	2838
