Data from test_V78500241_1712.txt Node
Date: Fri Mar 25 16:27:03 CST 2022
User: usil
Spectrometer: V785-0024
Trigger mode: 0
Integration Time (sec): 4.000000E-1
Scans to average: 1
Nonlinearity correction enabled: false
Boxcar width: 0
Storing dark spectrum: false
XAxis mode: Wavelengths
Number of Pixels in Spectrum: 1024
>>>>>Begin Spectral Data<<<<<
801.071	2929
801.214	2990
801.356	2883
801.499	2929
801.641	2910
801.783	2975
801.926	3074
802.068	3013
802.211	3043
802.353	3032
802.496	2971
802.638	3017
802.78	3081
802.923	3077
803.065	3024
803.208	2902
803.35	2944
803.492	2952
803.635	2960
803.777	2781
803.919	2895
804.061	3230
804.204	2975
804.346	2941
804.488	2857
804.63	3017
804.773	2876
804.915	2963
805.057	3142
805.199	2960
805.341	3013
805.483	3100
805.626	3024
805.768	2944
805.91	3089
806.052	3150
806.194	3066
806.336	3245
806.478	3055
806.62	2990
806.762	2979
806.904	3055
807.046	3214
807.188	3020
807.33	2922
807.472	3020
807.614	2910
807.756	3017
807.898	2956
808.04	2933
808.182	2990
808.324	3009
808.465	2902
808.607	2880
808.749	2823
808.891	2857
809.033	2990
809.174	3009
809.316	2922
809.458	2918
809.6	2807
809.741	2826
809.883	2800
810.025	2891
810.166	2891
810.308	2868
810.45	2883
810.591	2792
810.733	2792
810.875	2864
811.016	2800
811.158	2792
811.299	2853
811.441	2899
811.582	2899
811.724	2838
811.865	2853
812.007	2971
812.148	2883
812.29	2902
812.431	2880
812.573	2971
812.714	3009
812.855	3081
812.997	3074
813.138	3131
813.279	3058
813.421	3009
813.562	2963
813.703	2918
813.845	2906
813.986	2792
814.127	2762
814.268	2861
814.41	2819
814.551	2819
814.692	2899
814.833	2819
814.974	2880
815.115	2933
815.256	2876
815.397	2811
815.539	2845
815.68	2819
815.821	2838
815.962	2956
816.103	2952
816.244	2918
816.385	2872
816.526	2982
816.666	2948
816.807	2792
816.948	2948
817.089	2963
817.23	2902
817.371	2796
817.512	2781
817.653	2864
817.793	2853
817.934	2937
818.075	2971
818.216	3036
818.356	3024
818.497	2876
818.638	2823
818.778	2834
818.919	2819
819.06	2735
819.2	2899
819.341	2830
819.481	2842
819.622	2925
819.762	3116
819.903	3074
820.043	2971
820.184	2902
820.324	2895
820.465	3058
820.605	3047
820.746	3047
820.886	2937
821.026	3108
821.167	3180
821.307	3279
821.447	3363
821.588	3256
821.728	3214
821.868	3226
822.008	3119
822.149	3253
822.289	3275
822.429	3077
822.569	3131
822.709	3188
822.849	3070
822.99	3051
823.13	3192
823.27	3226
823.41	3123
823.55	3165
823.69	3142
823.83	3226
823.97	3077
824.11	3020
824.25	3024
824.389	3077
824.529	3135
824.669	3108
824.809	3226
824.949	3256
825.089	3237
825.228	3188
825.368	3051
825.508	2979
825.648	2982
825.787	3039
825.927	3039
826.067	2986
826.206	2975
826.346	3020
826.485	3108
826.625	3112
826.765	3268
826.904	3222
827.044	3047
827.183	2963
827.323	2895
827.462	3009
827.601	2952
827.741	2937
827.88	2990
828.02	2864
828.159	2971
828.298	3070
828.437	3112
828.577	3047
828.716	3245
828.855	3097
828.994	2929
829.134	2872
829.273	2975
829.412	2891
829.551	2872
829.69	2910
829.829	2994
829.968	3119
830.107	3100
830.246	3077
830.385	2937
830.524	2922
830.663	2804
830.802	2773
830.941	2651
831.08	2648
831.219	2754
831.357	2773
831.496	2929
831.635	2727
831.774	2663
831.913	2689
832.051	2556
832.19	2598
832.329	2697
832.467	2564
832.606	2480
832.744	2594
832.883	2598
833.022	2583
833.16	2667
833.299	2701
833.437	2716
833.576	2708
833.714	2739
833.852	2739
833.991	2769
834.129	2864
834.267	2823
834.406	2781
834.544	2887
834.682	2876
834.821	2868
834.959	3066
835.097	2899
835.235	3081
835.373	2998
835.511	3024
835.65	2994
835.788	2941
835.926	2842
836.064	2845
836.202	2853
836.34	3116
836.478	3195
836.615	3070
836.753	3131
836.891	3249
837.029	3192
837.167	3104
837.305	3100
837.443	3066
837.58	3005
837.718	3142
837.856	3055
837.993	3013
838.131	3100
838.269	3127
838.406	3123
838.544	3089
838.681	2944
838.819	2933
838.956	2845
839.094	2834
839.231	2944
839.369	3062
839.506	3401
839.643	3218
839.781	3001
839.918	2941
840.055	3055
840.193	3070
840.33	3051
840.467	3138
840.604	3154
840.742	3363
840.879	3062
841.016	3066
841.153	3093
841.29	3351
841.427	3329
841.564	3264
841.701	3302
841.838	3226
841.975	3176
842.112	3245
842.249	3070
842.385	3047
842.522	3268
842.659	3100
842.796	3077
842.933	3150
843.069	3062
843.206	3066
843.343	3188
843.479	3108
843.616	3173
843.752	2910
843.889	2864
844.025	3089
844.162	2902
844.298	3062
844.435	2986
844.571	2937
844.708	3097
844.844	3195
844.98	3226
845.117	3203
845.253	3089
845.389	3036
845.525	3089
845.661	3104
845.798	2990
845.934	3104
846.07	3047
846.206	3245
846.342	3344
846.478	3260
846.614	3077
846.75	3066
846.886	3032
847.022	3253
847.158	3127
847.294	3237
847.429	3237
847.565	3199
847.701	3511
847.837	3047
847.972	2982
848.108	3173
848.244	3142
848.379	2990
848.515	2944
848.65	2956
848.786	2960
848.921	3013
849.057	3123
849.192	3176
849.328	3058
849.463	3100
849.598	3081
849.734	3081
849.869	2971
850.004	2914
850.14	2967
850.275	2944
850.41	2849
850.545	2880
850.68	2941
850.815	2956
850.95	2944
851.085	3184
851.22	3112
851.355	3062
851.49	2960
851.625	2986
851.76	3009
851.895	2933
852.03	2895
852.165	3032
852.299	3135
852.434	3211
852.569	3127
852.703	3138
852.838	3275
852.973	3348
853.107	3336
853.242	3116
853.376	3062
853.511	2986
853.645	3070
853.78	3233
853.914	3119
854.048	3112
854.183	3104
854.317	3161
854.451	3310
854.585	3131
854.72	3085
854.854	3195
854.988	3058
855.122	3116
855.256	2960
855.39	3146
855.524	3241
855.658	3119
855.792	3142
855.926	3184
856.06	3184
856.194	3272
856.327	3161
856.461	3097
856.595	3093
856.729	3077
856.862	3218
856.996	3142
857.13	3211
857.263	3245
857.397	3294
857.53	3127
857.664	3165
857.797	3233
857.931	3218
858.064	3169
858.197	3203
858.331	3135
858.464	3077
858.597	3070
858.731	3108
858.864	3123
858.997	3089
859.13	3165
859.263	3157
859.396	3188
859.529	3081
859.662	3077
859.795	3043
859.928	3104
860.061	3279
860.194	3329
860.327	3142
860.46	3093
860.592	3260
860.725	3214
860.858	3279
860.99	3116
861.123	3017
861.256	3074
861.388	3161
861.521	3979
861.653	3020
861.786	2982
861.918	3013
862.05	3020
862.183	3085
862.315	3169
862.447	3203
862.58	3093
862.712	2979
862.844	2883
862.976	3039
863.108	3036
863.24	3393
863.372	2876
863.504	2944
863.636	2944
863.768	3089
863.9	2975
864.032	2880
864.164	2937
864.296	2998
864.428	3093
864.559	3085
864.691	3066
864.823	3074
864.954	3043
865.086	3055
865.217	2998
865.349	2922
865.48	2952
865.612	3074
865.743	3135
865.875	3013
866.006	2925
866.137	2986
866.269	2963
866.4	2922
866.531	2895
866.662	2895
866.793	2925
866.924	2918
867.055	2990
867.186	2967
867.317	2880
867.448	2834
867.579	2857
867.71	2876
867.841	2785
867.972	2902
868.103	2910
868.233	2899
868.364	2914
868.495	2906
868.625	3108
868.756	3142
868.886	2986
869.017	3024
869.147	3180
869.278	3157
869.408	3066
869.539	3028
869.669	3062
869.799	3070
869.929	3146
870.06	3081
870.19	3313
870.32	3260
870.45	3321
870.58	3393
870.71	3458
870.84	3435
870.97	3313
871.1	3218
871.23	3466
871.36	3488
871.489	3332
871.619	3370
871.749	3397
871.879	3420
872.008	3485
872.138	3374
872.267	3294
872.397	3165
872.526	3157
872.656	3032
872.785	3089
872.915	3230
873.044	3306
873.173	3233
873.303	3233
873.432	3256
873.561	3230
873.69	3150
873.819	3146
873.948	3188
874.077	3100
874.206	3058
874.335	3119
874.464	3218
874.593	3359
874.722	3241
874.851	3389
874.979	3389
875.108	3363
875.237	3184
875.365	3188
875.494	3165
875.623	3245
875.751	3066
875.88	3112
876.008	3184
876.136	3184
876.265	3348
876.393	3504
876.521	3397
876.65	3389
876.778	3283
876.906	3203
877.034	3249
877.162	3222
877.29	3169
877.418	3230
877.546	3264
877.674	3245
877.802	3214
877.93	3214
878.058	3169
878.185	3081
878.313	3180
878.441	3169
878.568	3077
878.696	3138
878.824	3237
878.951	3294
879.079	3412
879.206	3606
879.333	3466
879.461	3310
879.588	3336
879.715	3511
879.842	3595
879.97	3374
880.097	3146
880.224	3150
880.351	3188
880.478	3211
880.605	3203
880.732	3173
880.859	3469
880.986	3321
881.112	3321
881.239	3214
881.366	3051
881.493	3043
881.619	3043
881.746	3077
881.872	3081
881.999	3085
882.125	3173
882.252	3241
882.378	3306
882.505	3424
882.631	3268
882.757	3131
882.883	3211
883.01	3245
883.136	3131
883.262	3085
883.388	3089
883.514	3291
883.64	3424
883.766	3306
883.892	3207
884.018	3245
884.143	3420
884.269	3481
884.395	3214
884.52	3150
884.646	3195
884.772	3100
884.897	3108
885.023	3211
885.148	3336
885.274	3431
885.399	3374
885.524	3287
885.65	3222
885.775	3325
885.9	3272
886.025	3401
886.15	3340
886.275	3302
886.4	3237
886.525	3310
886.65	3275
886.775	3260
886.9	3450
887.025	3610
887.149	3428
887.274	3241
887.399	3188
887.523	3180
887.648	3195
887.773	3184
887.897	3340
888.021	3405
888.146	3302
888.27	3412
888.395	3477
888.519	3409
888.643	3416
888.767	3428
888.891	3279
889.015	3294
889.139	3298
889.263	3218
889.387	3416
889.511	3519
889.635	3447
889.759	3291
889.883	3279
890.006	3355
890.13	3454
890.254	3264
890.377	3355
890.501	3173
890.624	3184
890.748	3321
890.871	3165
890.995	3077
891.118	3062
891.241	3211
891.364	3214
891.488	3317
891.611	3138
891.734	3260
891.857	3256
891.98	3256
892.103	3313
892.226	3268
892.349	3233
892.471	3127
892.594	3214
892.717	3230
892.839	3272
892.962	3294
893.085	3355
893.207	3279
893.33	3123
893.452	3233
893.575	3310
893.697	3241
893.819	3519
893.941	3500
894.064	3439
894.186	3272
894.308	3256
894.43	3454
894.552	3526
894.674	3450
894.796	3260
894.918	3291
895.04	3283
895.161	3416
895.283	3416
895.405	3302
895.526	3370
895.648	3420
895.769	3473
895.891	3454
896.012	3485
896.134	3511
896.255	3443
896.376	3393
896.498	3329
896.619	3439
896.74	3355
896.861	3420
896.982	3606
897.103	3888
897.224	3584
897.345	3469
897.466	3401
897.587	3477
897.708	3622
897.828	3584
897.949	3458
898.07	3359
898.19	3431
898.311	3622
898.431	3477
898.552	3488
898.672	3606
898.792	3599
898.913	3530
899.033	3405
899.153	3306
899.273	3230
899.393	3264
899.513	3332
899.633	3310
899.753	3329
899.873	3329
899.993	3313
900.113	3378
900.232	3386
900.352	3332
900.472	3291
900.591	3199
900.711	3291
900.83	3245
900.95	3412
901.069	3485
901.189	3370
901.308	3203
901.427	3150
901.546	3188
901.665	3241
901.784	3313
901.904	3211
902.023	3146
902.141	3032
902.26	3005
902.379	3123
902.498	3066
902.617	3062
902.735	3157
902.854	3249
902.973	3226
903.091	3036
903.21	3085
903.328	3123
903.446	3127
903.565	3085
903.683	3211
903.801	3116
903.919	3253
904.038	3283
904.156	3157
904.274	3275
904.392	3256
904.51	3294
904.627	3344
904.745	3458
904.863	3534
904.981	3237
905.098	3180
905.216	3245
905.334	3302
905.451	3298
905.569	3325
905.686	3401
905.803	3412
905.921	3313
906.038	3454
906.155	3359
906.272	3291
906.389	3332
906.506	3211
906.623	3226
906.74	3302
906.857	3203
906.974	3237
907.091	3485
907.208	3568
907.324	3447
907.441	3393
907.557	3207
907.674	3211
907.79	3173
907.907	3253
908.023	3363
908.139	3397
908.256	3310
908.372	3329
908.488	3378
908.604	3233
908.72	3230
908.836	3287
908.952	3294
909.068	3351
909.184	3473
909.3	3359
909.415	3485
909.531	3473
909.647	3249
909.762	3256
909.878	3268
909.993	3344
910.108	3310
910.224	3348
910.339	3389
910.454	3359
910.57	3321
910.685	3230
910.8	3587
910.915	3511
911.03	3458
911.145	3298
911.259	3253
911.374	3306
911.489	3249
911.604	3230
911.718	3108
911.833	3184
911.947	3081
912.062	3001
912.176	3188
912.291	3226
912.405	3195
912.519	3454
912.633	3477
912.748	3317
912.862	3275
912.976	3142
913.09	3085
913.204	3142
913.318	3184
913.431	3332
913.545	3351
913.659	3367
913.772	3332
913.886	3176
914	3195
914.113	3336
914.226	3370
914.34	3382
914.453	3218
914.566	3401
914.68	3325
914.793	3294
914.906	3146
915.019	3119
915.132	3051
915.245	3161
915.358	3165
915.47	3211
915.583	3298
915.696	3348
915.809	3378
915.921	3424
916.034	3233
916.146	3260
916.259	3218
916.371	3359
916.483	3378
916.595	3268
916.708	3306
916.82	3317
916.932	3332
917.044	3294
917.156	3363
917.268	3268
917.38	3306
917.491	3287
917.603	3351
917.715	3447
917.826	3428
917.938	3409
918.049	3287
918.161	3412
918.272	3545
918.384	3549
918.495	3519
918.606	3306
918.717	3302
918.828	3374
918.939	3389
919.05	3283
919.161	3348
919.272	3184
919.383	3275
919.494	3538
919.604	3667
919.715	3511
919.826	3378
919.936	3439
920.047	3564
920.157	3534
920.267	3755
920.378	3580
920.488	3561
920.598	3793
920.708	3964
920.818	3831
920.928	3831
921.038	4040
921.148	3968
921.258	3690
921.368	3618
921.477	3584
921.587	3553
921.697	3447
921.806	3595
921.916	3584
922.025	3332
922.134	3374
922.244	3329
922.353	3454
922.462	3283
922.571	3184
922.68	3100
922.789	3062
922.898	3085
923.007	3051
923.116	3180
923.224	3173
923.333	3165
923.442	3097
923.55	3074
923.659	3112
923.767	3203
923.876	3135
923.984	3207
924.092	3104
924.201	3157
924.309	3203
924.417	3275
924.525	3192
924.633	3245
924.741	4006
924.849	3055
924.956	3283
925.064	3081
925.172	3017
925.279	3089
925.387	3157
925.494	3207
925.602	3336
925.709	3344
925.816	3214
925.924	3264
926.031	3370
926.138	3321
926.245	3393
926.352	3230
926.459	3389
926.566	3458
926.673	3329
926.779	3253
926.886	3230
926.993	3123
927.099	3123
927.206	3100
927.312	3138
927.419	3260
927.525	3230
927.631	3275
927.737	3119
927.843	3123
927.95	3028
928.056	3131
928.162	3135
928.267	3237
928.373	3915
928.479	3340
928.585	3081
928.69	3199
928.796	3283
928.901	3180
929.007	3062
929.112	3195
929.218	3218
929.323	3157
929.428	3123
929.533	3317
929.638	3097
929.743	3165
929.848	3287
929.953	3222
930.058	3184
930.163	3028
930.267	3047
930.372	3218
930.477	3017
930.581	3332
930.685	3180
930.79	3036
930.894	3150
930.998	3058
931.103	3287
931.207	2937
931.311	2929
931.415	2899
931.519	2777
931.623	2834
