Data from test_V78500241_827.txt Node
Date: Fri Mar 25 16:20:55 CST 2022
User: usil
Spectrometer: V785-0024
Trigger mode: 0
Integration Time (sec): 4.000000E-1
Scans to average: 1
Nonlinearity correction enabled: false
Boxcar width: 0
Storing dark spectrum: false
XAxis mode: Wavelengths
Number of Pixels in Spectrum: 1024
>>>>>Begin Spectral Data<<<<<
801.071	2906
801.214	2925
801.356	2857
801.499	2918
801.641	2845
801.783	2971
801.926	3009
802.068	3017
802.211	2994
802.353	3001
802.496	2948
802.638	3009
802.78	3020
802.923	3070
803.065	2986
803.208	2906
803.35	2902
803.492	2925
803.635	2906
803.777	2720
803.919	2861
804.061	3180
804.204	2963
804.346	2880
804.488	2830
804.63	2994
804.773	2891
804.915	2914
805.057	3089
805.199	2910
805.341	3005
805.483	3013
805.626	2971
805.768	2982
805.91	3097
806.052	3116
806.194	2990
806.336	3241
806.478	2994
806.62	2933
806.762	2982
806.904	3036
807.046	3169
807.188	2952
807.33	2933
807.472	2925
807.614	2895
807.756	2948
807.898	2899
808.04	2880
808.182	2990
808.324	2990
808.465	2876
808.607	2876
808.749	2781
808.891	2849
809.033	2975
809.174	2960
809.316	2899
809.458	2895
809.6	2735
809.741	2777
809.883	2731
810.025	2811
810.166	2838
810.308	2842
810.45	2842
810.591	2773
810.733	2758
810.875	2838
811.016	2762
811.158	2750
811.299	2785
811.441	2899
811.582	2944
811.724	2826
811.865	2823
812.007	2910
812.148	2857
812.29	2819
812.431	2891
812.573	2941
812.714	2948
812.855	3024
812.997	3066
813.138	3127
813.279	2967
813.421	2948
813.562	2975
813.703	2819
813.845	2872
813.986	2804
814.127	2712
814.268	2788
814.41	2838
814.551	2819
814.692	2883
814.833	2792
814.974	2918
815.115	2941
815.256	2853
815.397	2800
815.539	2880
815.68	2785
815.821	2743
815.962	2914
816.103	2937
816.244	2902
816.385	2880
816.526	2986
816.666	2941
816.807	2727
816.948	2864
817.089	2899
817.23	2864
817.371	2781
817.512	2766
817.653	2849
817.793	2819
817.934	2891
818.075	2937
818.216	2979
818.356	3043
818.497	2880
818.638	2804
818.778	2823
818.919	2773
819.06	2724
819.2	2902
819.341	2792
819.481	2811
819.622	2944
819.762	3081
819.903	3032
820.043	2914
820.184	2876
820.324	2902
820.465	3005
820.605	2998
820.746	3047
820.886	2880
821.026	3070
821.167	3131
821.307	3230
821.447	3291
821.588	3226
821.728	3150
821.868	3222
822.008	3070
822.149	3188
822.289	3237
822.429	3066
822.569	3081
822.709	3169
822.849	3058
822.99	3077
823.13	3165
823.27	3173
823.41	3108
823.55	3127
823.69	3100
823.83	3176
823.97	3089
824.11	2956
824.25	2960
824.389	3074
824.529	3119
824.669	3074
824.809	3165
824.949	3226
825.089	3211
825.228	3123
825.368	2979
825.508	2937
825.648	2967
825.787	2998
825.927	2979
826.067	2963
826.206	2967
826.346	3047
826.485	3043
826.625	3116
826.765	3264
826.904	3207
827.044	2944
827.183	2937
827.323	2887
827.462	2990
827.601	2929
827.741	2918
827.88	2918
828.02	2834
828.159	2986
828.298	3013
828.437	3116
828.577	3039
828.716	3249
828.855	3100
828.994	2944
829.134	2880
829.273	2933
829.412	2826
829.551	2857
829.69	2876
829.829	2982
829.968	3131
830.107	3017
830.246	3032
830.385	2895
830.524	2906
830.663	2834
830.802	2712
830.941	2659
831.08	2621
831.219	2758
831.357	2724
831.496	2922
831.635	2689
831.774	2659
831.913	2648
832.051	2537
832.19	2610
832.329	2689
832.467	2522
832.606	2450
832.744	2564
832.883	2594
833.022	2571
833.16	2636
833.299	2689
833.437	2693
833.576	2670
833.714	2750
833.852	2720
833.991	2769
834.129	2826
834.267	2826
834.406	2743
834.544	2857
834.682	2868
834.821	2857
834.959	3055
835.097	2902
835.235	3036
835.373	2979
835.511	3039
835.65	2963
835.788	2960
835.926	2849
836.064	2788
836.202	2830
836.34	3074
836.478	3119
836.615	3039
836.753	3116
836.891	3157
837.029	3138
837.167	3089
837.305	3032
837.443	3036
837.58	2956
837.718	3142
837.856	3047
837.993	3001
838.131	3077
838.269	3070
838.406	3074
838.544	3055
838.681	2910
838.819	2910
838.956	2807
839.094	2830
839.231	2876
839.369	3017
839.506	3332
839.643	3230
839.781	2994
839.918	2941
840.055	3039
840.193	3043
840.33	3062
840.467	3058
840.604	3112
840.742	3367
840.879	3058
841.016	3032
841.153	3081
841.29	3287
841.427	3253
841.564	3264
841.701	3287
841.838	3173
841.975	3146
842.112	3218
842.249	3055
842.385	3001
842.522	3241
842.659	3062
842.796	3043
842.933	3085
843.069	3017
843.206	3058
843.343	3184
843.479	3112
843.616	3116
843.752	2910
843.889	2830
844.025	3089
844.162	2861
844.298	3028
844.435	2922
844.571	2880
844.708	3055
844.844	3176
844.98	3173
845.117	3154
845.253	3047
845.389	2975
845.525	3043
845.661	3089
845.798	2982
845.934	3112
846.07	3024
846.206	3214
846.342	3302
846.478	3188
846.614	3036
846.75	3032
846.886	2994
847.022	3222
847.158	3108
847.294	3199
847.429	3260
847.565	3211
847.701	3466
847.837	3028
847.972	3013
848.108	3146
848.244	3142
848.379	2933
848.515	2956
848.65	2929
848.786	2975
848.921	2982
849.057	3112
849.192	3169
849.328	3089
849.463	3112
849.598	3051
849.734	3032
849.869	2982
850.004	2929
850.14	2975
850.275	2941
850.41	2842
850.545	2868
850.68	2982
850.815	2979
850.95	2967
851.085	3195
851.22	3119
851.355	3100
851.49	3013
851.625	3039
851.76	3055
851.895	2925
852.03	2960
852.165	3032
852.299	3146
852.434	3233
852.569	3157
852.703	3245
852.838	3241
852.973	3363
853.107	3367
853.242	3161
853.376	3112
853.511	2994
853.645	3085
853.78	3211
853.914	3119
854.048	3161
854.183	3146
854.317	3211
854.451	3272
854.585	3116
854.72	3123
854.854	3222
854.988	3051
855.122	3127
855.256	2982
855.39	3157
855.524	3272
855.658	3218
855.792	3214
855.926	3233
856.06	3264
856.194	3317
856.327	3165
856.461	3135
856.595	3093
856.729	3119
856.862	3233
856.996	3226
857.13	3233
857.263	3249
857.397	3291
857.53	3169
857.664	3218
857.797	3279
857.931	3260
858.064	3157
858.197	3207
858.331	3138
858.464	3142
858.597	3077
858.731	3127
858.864	3150
858.997	3112
859.13	3161
859.263	3211
859.396	3222
859.529	3138
859.662	3116
859.795	3081
859.928	3146
860.061	3351
860.194	3336
860.327	3161
860.46	3131
860.592	3268
860.725	3302
860.858	3268
860.99	3146
861.123	3097
861.256	3089
861.388	3188
861.521	3964
861.653	3036
861.786	3009
861.918	3017
862.05	3077
862.183	3138
862.315	3184
862.447	3192
862.58	3112
862.712	2990
862.844	2925
862.976	3051
863.108	3043
863.24	3367
863.372	2914
863.504	3001
863.636	2982
863.768	3047
863.9	3024
864.032	2956
864.164	2952
864.296	3100
864.428	3100
864.559	3127
864.691	3089
864.823	3097
864.954	3043
865.086	3039
865.217	3047
865.349	2975
865.48	3009
865.612	3028
865.743	3195
865.875	2998
866.006	3009
866.137	3013
866.269	2971
866.4	3005
866.531	2952
866.662	2941
866.793	2933
866.924	2941
867.055	3024
867.186	2960
867.317	2910
867.448	2880
867.579	2864
867.71	2902
867.841	2853
867.972	2925
868.103	2929
868.233	2918
868.364	2883
868.495	2906
868.625	3119
868.756	3211
868.886	2979
869.017	3047
869.147	3218
869.278	3211
869.408	3089
869.539	3085
869.669	3142
869.799	3066
869.929	3165
870.06	3127
870.19	3336
870.32	3294
870.45	3351
870.58	3416
870.71	3481
870.84	3523
870.97	3325
871.1	3268
871.23	3519
871.36	3488
871.489	3412
871.619	3420
871.749	3454
871.879	3447
872.008	3481
872.138	3412
872.267	3310
872.397	3135
872.526	3142
872.656	3055
872.785	3131
872.915	3230
873.044	3359
873.173	3249
873.303	3268
873.432	3256
873.561	3245
873.69	3157
873.819	3146
873.948	3203
874.077	3157
874.206	3097
874.335	3119
874.464	3256
874.593	3378
874.722	3237
874.851	3401
874.979	3386
875.108	3359
875.237	3211
875.365	3184
875.494	3188
875.623	3256
875.751	3131
875.88	3108
876.008	3214
876.136	3249
876.265	3405
876.393	3542
876.521	3469
876.65	3424
876.778	3374
876.906	3287
877.034	3237
877.162	3256
877.29	3192
877.418	3313
877.546	3253
877.674	3260
877.802	3287
877.93	3287
878.058	3180
878.185	3131
878.313	3230
878.441	3207
878.568	3093
878.696	3173
878.824	3275
878.951	3344
879.079	3458
879.206	3690
879.333	3439
879.461	3344
879.588	3393
879.715	3496
879.842	3660
879.97	3389
880.097	3180
880.224	3154
880.351	3256
880.478	3253
880.605	3237
880.732	3207
880.859	3530
880.986	3359
881.112	3351
881.239	3222
881.366	3135
881.493	3070
881.619	3020
881.746	3127
881.872	3157
881.999	3119
882.125	3146
882.252	3272
882.378	3306
882.505	3443
882.631	3336
882.757	3199
882.883	3226
883.01	3241
883.136	3192
883.262	3104
883.388	3146
883.514	3329
883.64	3450
883.766	3340
883.892	3233
884.018	3245
884.143	3458
884.269	3595
884.395	3256
884.52	3245
884.646	3226
884.772	3154
884.897	3142
885.023	3260
885.148	3363
885.274	3450
885.399	3428
885.524	3340
885.65	3256
885.775	3370
885.9	3336
886.025	3447
886.15	3416
886.275	3344
886.4	3245
886.525	3317
886.65	3268
886.775	3306
886.9	3526
887.025	3656
887.149	3466
887.274	3283
887.399	3207
887.523	3214
887.648	3180
887.773	3203
887.897	3382
888.021	3454
888.146	3351
888.27	3424
888.395	3534
888.519	3481
888.643	3447
888.767	3523
888.891	3363
889.015	3287
889.139	3275
889.263	3260
889.387	3454
889.511	3526
889.635	3496
889.759	3317
889.883	3310
890.006	3378
890.13	3496
890.254	3272
890.377	3336
890.501	3218
890.624	3214
890.748	3302
890.871	3192
890.995	3165
891.118	3108
891.241	3226
891.364	3233
891.488	3336
891.611	3214
891.734	3256
891.857	3260
891.98	3264
892.103	3348
892.226	3298
892.349	3214
892.471	3116
892.594	3260
892.717	3298
892.839	3302
892.962	3291
893.085	3382
893.207	3317
893.33	3192
893.452	3249
893.575	3340
893.697	3264
893.819	3492
893.941	3523
894.064	3466
894.186	3287
894.308	3329
894.43	3473
894.552	3557
894.674	3496
894.796	3287
894.918	3359
895.04	3344
895.161	3450
895.283	3469
895.405	3313
895.526	3374
895.648	3443
895.769	3424
895.891	3496
896.012	3519
896.134	3473
896.255	3431
896.376	3431
896.498	3386
896.619	3435
896.74	3393
896.861	3443
896.982	3709
897.103	3831
897.224	3629
897.345	3500
897.466	3492
897.587	3507
897.708	3641
897.828	3591
897.949	3469
898.07	3336
898.19	3374
898.311	3610
898.431	3428
898.552	3488
898.672	3633
898.792	3561
898.913	3500
899.033	3424
899.153	3291
899.273	3256
899.393	3272
899.513	3317
899.633	3291
899.753	3332
899.873	3306
899.993	3424
900.113	3340
900.232	3447
900.352	3416
900.472	3283
900.591	3203
900.711	3306
900.83	3249
900.95	3435
901.069	3496
901.189	3363
901.308	3199
901.427	3138
901.546	3188
901.665	3298
901.784	3386
901.904	3214
902.023	3104
902.141	3017
902.26	3051
902.379	3161
902.498	3100
902.617	3100
902.735	3241
902.854	3230
902.973	3188
903.091	3081
903.21	3062
903.328	3142
903.446	3127
903.565	3089
903.683	3237
903.801	3161
903.919	3264
904.038	3344
904.156	3157
904.274	3294
904.392	3287
904.51	3355
904.627	3332
904.745	3466
904.863	3549
904.981	3268
905.098	3188
905.216	3256
905.334	3317
905.451	3367
905.569	3302
905.686	3424
905.803	3435
905.921	3306
906.038	3450
906.155	3389
906.272	3298
906.389	3351
906.506	3268
906.623	3230
906.74	3317
906.857	3203
906.974	3294
907.091	3481
907.208	3561
907.324	3504
907.441	3382
907.557	3283
907.674	3241
907.79	3245
907.907	3283
908.023	3378
908.139	3378
908.256	3344
908.372	3405
908.488	3378
908.604	3283
908.72	3260
908.836	3294
908.952	3241
909.068	3374
909.184	3488
909.3	3397
909.415	3507
909.531	3462
909.647	3313
909.762	3310
909.878	3249
909.993	3332
910.108	3378
910.224	3401
910.339	3420
910.454	3340
910.57	3321
910.685	3260
910.8	3587
910.915	3523
911.03	3431
911.145	3287
911.259	3275
911.374	3367
911.489	3302
911.604	3249
911.718	3154
911.833	3173
911.947	3028
912.062	2998
912.176	3161
912.291	3207
912.405	3192
912.519	3481
912.633	3439
912.748	3367
912.862	3256
912.976	3192
913.09	3062
913.204	3176
913.318	3184
913.431	3355
913.545	3340
913.659	3439
913.772	3367
913.886	3233
914	3233
914.113	3351
914.226	3412
914.34	3412
914.453	3253
914.566	3401
914.68	3260
914.793	3298
914.906	3176
915.019	3135
915.132	3039
915.245	3211
915.358	3214
915.47	3233
915.583	3264
915.696	3302
915.809	3443
915.921	3412
916.034	3241
916.146	3291
916.259	3245
916.371	3386
916.483	3340
916.595	3275
916.708	3348
916.82	3348
916.932	3348
917.044	3355
917.156	3401
917.268	3256
917.38	3325
917.491	3351
917.603	3386
917.715	3507
917.826	3519
917.938	3378
918.049	3332
918.161	3488
918.272	3576
918.384	3622
918.495	3515
918.606	3363
918.717	3329
918.828	3393
918.939	3454
919.05	3397
919.161	3370
919.272	3249
919.383	3313
919.494	3507
919.604	3743
919.715	3477
919.826	3435
919.936	3530
920.047	3633
920.157	3591
920.267	3827
920.378	3671
920.488	3633
920.598	3835
920.708	4021
920.818	3854
920.928	3873
921.038	4059
921.148	4044
921.258	3736
921.368	3660
921.477	3606
921.587	3580
921.697	3515
921.806	3709
921.916	3572
922.025	3382
922.134	3397
922.244	3378
922.353	3454
922.462	3321
922.571	3268
922.68	3135
922.789	3062
922.898	3207
923.007	3135
923.116	3241
923.224	3211
923.333	3253
923.442	3165
923.55	3161
923.659	3192
923.767	3279
923.876	3100
923.984	3272
924.092	3154
924.201	3184
924.309	3264
924.417	3294
924.525	3241
924.633	3294
924.741	4086
924.849	3093
924.956	3332
925.064	3146
925.172	3055
925.279	3112
925.387	3241
925.494	3268
925.602	3363
925.709	3363
925.816	3218
925.924	3355
926.031	3462
926.138	3382
926.245	3401
926.352	3332
926.459	3458
926.566	3538
926.673	3367
926.779	3283
926.886	3260
926.993	3207
927.099	3165
927.206	3131
927.312	3138
927.419	3317
927.525	3245
927.631	3302
927.737	3203
927.843	3131
927.95	3062
928.056	3195
928.162	3150
928.267	3313
928.373	3785
928.479	3332
928.585	3089
928.69	3237
928.796	3355
928.901	3226
929.007	3089
929.112	3230
929.218	3226
929.323	3138
929.428	3199
929.533	3367
929.638	3138
929.743	3218
929.848	3294
929.953	3245
930.058	3188
930.163	3032
930.267	3085
930.372	3245
930.477	3062
930.581	3378
930.685	3268
930.79	3085
930.894	3169
930.998	3108
931.103	3325
931.207	2982
931.311	2982
931.415	2986
931.519	2777
931.623	2834
