Data from test_V78500241_1402.txt Node
Date: Fri Mar 25 16:24:54 CST 2022
User: usil
Spectrometer: V785-0024
Trigger mode: 0
Integration Time (sec): 4.000000E-1
Scans to average: 1
Nonlinearity correction enabled: false
Boxcar width: 0
Storing dark spectrum: false
XAxis mode: Wavelengths
Number of Pixels in Spectrum: 1024
>>>>>Begin Spectral Data<<<<<
801.071	2937
801.214	2967
801.356	2880
801.499	2864
801.641	2819
801.783	2883
801.926	3024
802.068	2967
802.211	3009
802.353	3013
802.496	2929
802.638	3001
802.78	3036
802.923	3070
803.065	2979
803.208	2902
803.35	2899
803.492	2925
803.635	2929
803.777	2766
803.919	2849
804.061	3192
804.204	2933
804.346	2876
804.488	2842
804.63	2963
804.773	2842
804.915	2891
805.057	3081
805.199	2933
805.341	2963
805.483	3032
805.626	3039
805.768	2944
805.91	3085
806.052	3077
806.194	3028
806.336	3214
806.478	2994
806.62	2929
806.762	2975
806.904	3036
807.046	3138
807.188	2967
807.33	2922
807.472	2960
807.614	2922
807.756	2982
807.898	2895
808.04	2902
808.182	2933
808.324	2933
808.465	2883
808.607	2853
808.749	2769
808.891	2819
809.033	2952
809.174	2971
809.316	2883
809.458	2914
809.6	2739
809.741	2762
809.883	2762
810.025	2819
810.166	2819
810.308	2838
810.45	2834
810.591	2804
810.733	2754
810.875	2849
811.016	2773
811.158	2746
811.299	2819
811.441	2883
811.582	2868
811.724	2800
811.865	2781
812.007	2872
812.148	2861
812.29	2792
812.431	2864
812.573	2925
812.714	2971
812.855	3055
812.997	3036
813.138	3104
813.279	2998
813.421	2944
813.562	2937
813.703	2811
813.845	2899
813.986	2746
814.127	2739
814.268	2777
814.41	2800
814.551	2754
814.692	2861
814.833	2796
814.974	2887
815.115	2902
815.256	2811
815.397	2788
815.539	2880
815.68	2769
815.821	2773
815.962	2891
816.103	2918
816.244	2880
816.385	2861
816.526	2994
816.666	2891
816.807	2720
816.948	2861
817.089	2895
817.23	2838
817.371	2777
817.512	2811
817.653	2838
817.793	2819
817.934	2914
818.075	2952
818.216	2982
818.356	3020
818.497	2880
818.638	2777
818.778	2785
818.919	2853
819.06	2785
819.2	2880
819.341	2815
819.481	2815
819.622	2937
819.762	3100
819.903	3085
820.043	2956
820.184	2944
820.324	2918
820.465	3043
820.605	3024
820.746	3058
820.886	2990
821.026	3108
821.167	3161
821.307	3275
821.447	3294
821.588	3283
821.728	3203
821.868	3268
822.008	3081
822.149	3230
822.289	3249
822.429	3123
822.569	3116
822.709	3237
822.849	3032
822.99	3104
823.13	3218
823.27	3230
823.41	3131
823.55	3184
823.69	3165
823.83	3173
823.97	3127
824.11	3055
824.25	3017
824.389	3062
824.529	3135
824.669	3112
824.809	3233
824.949	3298
825.089	3264
825.228	3211
825.368	3032
825.508	2975
825.648	3001
825.787	3005
825.927	3074
826.067	3032
826.206	2956
826.346	3097
826.485	3116
826.625	3157
826.765	3272
826.904	3241
827.044	3005
827.183	2960
827.323	2883
827.462	3047
827.601	2982
827.741	2979
827.88	2975
828.02	2895
828.159	3001
828.298	3081
828.437	3142
828.577	3058
828.716	3279
828.855	3116
828.994	2910
829.134	2929
829.273	2971
829.412	2880
829.551	2941
829.69	2887
829.829	3013
829.968	3146
830.107	3020
830.246	3028
830.385	2937
830.524	2918
830.663	2815
830.802	2766
830.941	2682
831.08	2682
831.219	2819
831.357	2773
831.496	2960
831.635	2743
831.774	2663
831.913	2689
832.051	2625
832.19	2617
832.329	2705
832.467	2549
832.606	2530
832.744	2590
832.883	2606
833.022	2606
833.16	2644
833.299	2727
833.437	2750
833.576	2712
833.714	2746
833.852	2758
833.991	2830
834.129	2845
834.267	2857
834.406	2811
834.544	2891
834.682	2914
834.821	2918
834.959	3070
835.097	2975
835.235	3097
835.373	3028
835.511	3085
835.65	3005
835.788	2971
835.926	2883
836.064	2849
836.202	2922
836.34	3077
836.478	3157
836.615	3112
836.753	3176
836.891	3222
837.029	3169
837.167	3123
837.305	3119
837.443	3077
837.58	3024
837.718	3123
837.856	3081
837.993	3039
838.131	3119
838.269	3112
838.406	3135
838.544	3135
838.681	2933
838.819	2960
838.956	2861
839.094	2834
839.231	2910
839.369	3036
839.506	3401
839.643	3233
839.781	3066
839.918	3009
840.055	3085
840.193	3077
840.33	3089
840.467	3097
840.604	3199
840.742	3409
840.879	3093
841.016	3062
841.153	3142
841.29	3340
841.427	3306
841.564	3310
841.701	3321
841.838	3226
841.975	3226
842.112	3241
842.249	3119
842.385	3047
842.522	3275
842.659	3089
842.796	3108
842.933	3157
843.069	3089
843.206	3062
843.343	3195
843.479	3138
843.616	3138
843.752	2925
843.889	2876
844.025	3100
844.162	2929
844.298	3077
844.435	2979
844.571	2952
844.708	3077
844.844	3211
844.98	3279
845.117	3233
845.253	3089
845.389	3055
845.525	3104
845.661	3100
845.798	3017
845.934	3138
846.07	3074
846.206	3211
846.342	3340
846.478	3241
846.614	3104
846.75	3070
846.886	3013
847.022	3249
847.158	3188
847.294	3199
847.429	3272
847.565	3233
847.701	3507
847.837	3051
847.972	3020
848.108	3192
848.244	3142
848.379	3020
848.515	2948
848.65	2922
848.786	3001
848.921	3039
849.057	3100
849.192	3154
849.328	3112
849.463	3116
849.598	3074
849.734	3100
849.869	3001
850.004	2956
850.14	2971
850.275	2952
850.41	2838
850.545	2887
850.68	2963
850.815	2967
850.95	3055
851.085	3237
851.22	3169
851.355	3074
851.49	3005
851.625	3039
851.76	3020
851.895	2986
852.03	2910
852.165	3066
852.299	3142
852.434	3195
852.569	3154
852.703	3218
852.838	3298
852.973	3340
853.107	3351
853.242	3184
853.376	3138
853.511	2990
853.645	3051
853.78	3199
853.914	3131
854.048	3108
854.183	3081
854.317	3192
854.451	3283
854.585	3138
854.72	3142
854.854	3226
854.988	3039
855.122	3070
855.256	2994
855.39	3146
855.524	3275
855.658	3230
855.792	3226
855.926	3211
856.06	3253
856.194	3279
856.327	3154
856.461	3070
856.595	3097
856.729	3100
856.862	3275
856.996	3184
857.13	3237
857.263	3249
857.397	3291
857.53	3173
857.664	3222
857.797	3264
857.931	3264
858.064	3188
858.197	3222
858.331	3161
858.464	3108
858.597	3055
858.731	3112
858.864	3138
858.997	3097
859.13	3184
859.263	3218
859.396	3211
859.529	3074
859.662	3108
859.795	3062
859.928	3188
860.061	3283
860.194	3306
860.327	3093
860.46	3089
860.592	3287
860.725	3256
860.858	3279
860.99	3112
861.123	3070
861.256	3055
861.388	3192
861.521	3785
861.653	2994
861.786	3032
861.918	3001
862.05	3085
862.183	3119
862.315	3142
862.447	3245
862.58	3112
862.712	2979
862.844	2899
862.976	3055
863.108	3058
863.24	3325
863.372	2880
863.504	2967
863.636	3001
863.768	3047
863.9	2975
864.032	2948
864.164	2933
864.296	3001
864.428	3127
864.559	3165
864.691	3089
864.823	3085
864.954	3039
865.086	3062
865.217	3017
865.349	2986
865.48	3005
865.612	3047
865.743	3154
865.875	3017
866.006	2960
866.137	3020
866.269	2975
866.4	2914
866.531	2948
866.662	2906
866.793	2891
866.924	2937
867.055	2979
867.186	2933
867.317	2918
867.448	2834
867.579	2845
867.71	2887
867.841	2807
867.972	2891
868.103	2944
868.233	2899
868.364	2872
868.495	2925
868.625	3119
868.756	3146
868.886	2971
869.017	3013
869.147	3176
869.278	3226
869.408	3047
869.539	3043
869.669	3112
869.799	3024
869.929	3154
870.06	3112
870.19	3355
870.32	3256
870.45	3359
870.58	3386
870.71	3428
870.84	3500
870.97	3329
871.1	3279
871.23	3481
871.36	3477
871.489	3382
871.619	3405
871.749	3424
871.879	3443
872.008	3534
872.138	3370
872.267	3275
872.397	3165
872.526	3116
872.656	3017
872.785	3097
872.915	3272
873.044	3321
873.173	3226
873.303	3283
873.432	3214
873.561	3222
873.69	3146
873.819	3165
873.948	3211
874.077	3097
874.206	3066
874.335	3116
874.464	3214
874.593	3348
874.722	3264
874.851	3412
874.979	3370
875.108	3340
875.237	3173
875.365	3165
875.494	3192
875.623	3253
875.751	3047
875.88	3146
876.008	3176
876.136	3233
876.265	3397
876.393	3523
876.521	3431
876.65	3363
876.778	3359
876.906	3272
877.034	3199
877.162	3256
877.29	3207
877.418	3222
877.546	3279
877.674	3249
877.802	3249
877.93	3241
878.058	3188
878.185	3161
878.313	3237
878.441	3230
878.568	3043
878.696	3176
878.824	3260
878.951	3306
879.079	3447
879.206	3614
879.333	3469
879.461	3317
879.588	3370
879.715	3481
879.842	3610
879.97	3344
880.097	3142
880.224	3157
880.351	3199
880.478	3241
880.605	3188
880.732	3195
880.859	3519
880.986	3313
881.112	3317
881.239	3226
881.366	3146
881.493	3009
881.619	3043
881.746	3100
881.872	3123
881.999	3066
882.125	3154
882.252	3237
882.378	3294
882.505	3416
882.631	3294
882.757	3138
882.883	3203
883.01	3222
883.136	3146
883.262	3119
883.388	3077
883.514	3321
883.64	3363
883.766	3340
883.892	3222
884.018	3230
884.143	3409
884.269	3553
884.395	3241
884.52	3184
884.646	3192
884.772	3100
884.897	3123
885.023	3176
885.148	3310
885.274	3412
885.399	3332
885.524	3287
885.65	3241
885.775	3374
885.9	3336
886.025	3435
886.15	3370
886.275	3325
886.4	3188
886.525	3351
886.65	3264
886.775	3294
886.9	3488
887.025	3641
887.149	3386
887.274	3256
887.399	3180
887.523	3180
887.648	3188
887.773	3173
887.897	3393
888.021	3420
888.146	3291
888.27	3450
888.395	3538
888.519	3462
888.643	3439
888.767	3435
888.891	3355
889.015	3275
889.139	3348
889.263	3233
889.387	3370
889.511	3511
889.635	3424
889.759	3249
889.883	3298
890.006	3355
890.13	3485
890.254	3291
890.377	3329
890.501	3230
890.624	3180
890.748	3310
890.871	3184
890.995	3119
891.118	3077
891.241	3207
891.364	3218
891.488	3321
891.611	3184
891.734	3214
891.857	3332
891.98	3245
892.103	3340
892.226	3264
892.349	3203
892.471	3081
892.594	3237
892.717	3268
892.839	3287
892.962	3291
893.085	3367
893.207	3310
893.33	3138
893.452	3188
893.575	3355
893.697	3268
893.819	3447
893.941	3526
894.064	3462
894.186	3321
894.308	3279
894.43	3469
894.552	3587
894.674	3466
894.796	3275
894.918	3332
895.04	3268
895.161	3397
895.283	3405
895.405	3340
895.526	3374
895.648	3405
895.769	3409
895.891	3443
896.012	3496
896.134	3469
896.255	3420
896.376	3416
896.498	3374
896.619	3412
896.74	3382
896.861	3367
896.982	3644
897.103	3876
897.224	3599
897.345	3526
897.466	3412
897.587	3462
897.708	3606
897.828	3523
897.949	3424
898.07	3329
898.19	3397
898.311	3584
898.431	3454
898.552	3504
898.672	3580
898.792	3618
898.913	3504
899.033	3412
899.153	3298
899.273	3233
899.393	3329
899.513	3325
899.633	3351
899.753	3340
899.873	3321
899.993	3389
900.113	3340
900.232	3397
900.352	3329
900.472	3298
900.591	3173
900.711	3279
900.83	3253
900.95	3469
901.069	3450
901.189	3336
901.308	3173
901.427	3119
901.546	3233
901.665	3329
901.784	3310
901.904	3207
902.023	3173
902.141	3020
902.26	3028
902.379	3176
902.498	3112
902.617	3017
902.735	3207
902.854	3241
902.973	3226
903.091	3043
903.21	3093
903.328	3135
903.446	3127
903.565	3123
903.683	3199
903.801	3112
903.919	3233
904.038	3279
904.156	3188
904.274	3275
904.392	3279
904.51	3272
904.627	3348
904.745	3431
904.863	3488
904.981	3272
905.098	3192
905.216	3230
905.334	3344
905.451	3294
905.569	3310
905.686	3485
905.803	3412
905.921	3291
906.038	3424
906.155	3348
906.272	3249
906.389	3367
906.506	3211
906.623	3237
906.74	3279
906.857	3184
906.974	3253
907.091	3435
907.208	3580
907.324	3428
907.441	3409
907.557	3230
907.674	3245
907.79	3180
907.907	3249
908.023	3389
908.139	3363
908.256	3340
908.372	3447
908.488	3386
908.604	3230
908.72	3233
908.836	3264
908.952	3329
909.068	3279
909.184	3507
909.3	3401
909.415	3500
909.531	3458
909.647	3298
909.762	3283
909.878	3294
909.993	3367
910.108	3336
910.224	3363
910.339	3424
910.454	3306
910.57	3275
910.685	3272
910.8	3572
910.915	3526
911.03	3428
911.145	3253
911.259	3264
911.374	3355
911.489	3237
911.604	3211
911.718	3108
911.833	3169
911.947	3020
912.062	2986
912.176	3138
912.291	3176
912.405	3241
912.519	3458
912.633	3443
912.748	3359
912.862	3268
912.976	3146
913.09	3097
913.204	3180
913.318	3226
913.431	3374
913.545	3355
913.659	3416
913.772	3313
913.886	3222
914	3214
914.113	3393
914.226	3412
914.34	3378
914.453	3192
914.566	3386
914.68	3310
914.793	3306
914.906	3123
915.019	3108
915.132	3024
915.245	3192
915.358	3165
915.47	3192
915.583	3264
915.696	3306
915.809	3401
915.921	3401
916.034	3268
916.146	3230
916.259	3249
916.371	3359
916.483	3378
916.595	3272
916.708	3351
916.82	3344
916.932	3313
917.044	3344
917.156	3348
917.268	3241
917.38	3291
917.491	3275
917.603	3416
917.715	3462
917.826	3450
917.938	3367
918.049	3291
918.161	3435
918.272	3564
918.384	3584
918.495	3477
918.606	3306
918.717	3287
918.828	3378
918.939	3389
919.05	3287
919.161	3355
919.272	3169
919.383	3268
919.494	3481
919.604	3660
919.715	3511
919.826	3393
919.936	3462
920.047	3561
920.157	3534
920.267	3724
920.378	3663
920.488	3568
920.598	3770
920.708	3983
920.818	3831
920.928	3808
921.038	4010
921.148	3975
921.258	3671
921.368	3641
921.477	3549
921.587	3447
921.697	3462
921.806	3648
921.916	3507
922.025	3313
922.134	3332
922.244	3359
922.353	3416
922.462	3283
922.571	3249
922.68	3104
922.789	3104
922.898	3112
923.007	3085
923.116	3207
923.224	3184
923.333	3161
923.442	3081
923.55	3104
923.659	3188
923.767	3207
923.876	3074
923.984	3233
924.092	3081
924.201	3226
924.309	3218
924.417	3230
924.525	3199
924.633	3245
924.741	4017
924.849	3017
924.956	3253
925.064	3108
925.172	3020
925.279	3097
925.387	3207
925.494	3199
925.602	3370
925.709	3367
925.816	3192
925.924	3264
926.031	3393
926.138	3325
926.245	3363
926.352	3226
926.459	3393
926.566	3466
926.673	3291
926.779	3249
926.886	3218
926.993	3195
927.099	3119
927.206	3112
927.312	3138
927.419	3249
927.525	3192
927.631	3241
927.737	3169
927.843	3112
927.95	3032
928.056	3116
928.162	3157
928.267	3275
928.373	3838
928.479	3325
928.585	3066
928.69	3241
928.796	3275
928.901	3150
929.007	3055
929.112	3203
929.218	3188
929.323	3157
929.428	3138
929.533	3332
929.638	3123
929.743	3207
929.848	3241
929.953	3230
930.058	3131
930.163	2994
930.267	3070
930.372	3226
930.477	3055
930.581	3283
930.685	3173
930.79	3058
930.894	3135
930.998	3123
931.103	3325
931.207	3001
931.311	2914
931.415	2918
931.519	2773
931.623	2826
