Data from test_V78500241_531.txt Node
Date: Fri Mar 25 16:18:52 CST 2022
User: usil
Spectrometer: V785-0024
Trigger mode: 0
Integration Time (sec): 4.000000E-1
Scans to average: 1
Nonlinearity correction enabled: false
Boxcar width: 0
Storing dark spectrum: false
XAxis mode: Wavelengths
Number of Pixels in Spectrum: 1024
>>>>>Begin Spectral Data<<<<<
801.071	2914
801.214	2925
801.356	2853
801.499	2906
801.641	2906
801.783	2902
801.926	3074
802.068	2971
802.211	2982
802.353	3081
802.496	2982
802.638	3032
802.78	3009
802.923	3066
803.065	3013
803.208	2864
803.35	2937
803.492	2960
803.635	2925
803.777	2750
803.919	2853
804.061	3180
804.204	2952
804.346	2891
804.488	2853
804.63	2986
804.773	2876
804.915	2914
805.057	3081
805.199	2971
805.341	2971
805.483	3039
805.626	2990
805.768	2967
805.91	3097
806.052	3116
806.194	3036
806.336	3207
806.478	3036
806.62	2948
806.762	2986
806.904	3043
807.046	3157
807.188	2963
807.33	2937
807.472	2963
807.614	2933
807.756	3001
807.898	2910
808.04	2887
808.182	2963
808.324	2944
808.465	2880
808.607	2902
808.749	2826
808.891	2861
809.033	2998
809.174	2975
809.316	2918
809.458	2887
809.6	2773
809.741	2792
809.883	2750
810.025	2876
810.166	2899
810.308	2842
810.45	2857
810.591	2777
810.733	2781
810.875	2883
811.016	2773
811.158	2739
811.299	2826
811.441	2956
811.582	2891
811.724	2823
811.865	2807
812.007	2899
812.148	2876
812.29	2857
812.431	2872
812.573	2918
812.714	2975
812.855	3058
812.997	3047
813.138	3138
813.279	3009
813.421	2971
813.562	2986
813.703	2849
813.845	2876
813.986	2777
814.127	2762
814.268	2815
814.41	2857
814.551	2788
814.692	2853
814.833	2811
814.974	2914
815.115	2971
815.256	2834
815.397	2815
815.539	2872
815.68	2758
815.821	2750
815.962	2918
816.103	2944
816.244	2883
816.385	2883
816.526	2975
816.666	2899
816.807	2731
816.948	2922
817.089	2906
817.23	2823
817.371	2800
817.512	2807
817.653	2861
817.793	2853
817.934	2868
818.075	2960
818.216	2994
818.356	3032
818.497	2914
818.638	2769
818.778	2842
818.919	2777
819.06	2746
819.2	2891
819.341	2781
819.481	2857
819.622	2929
819.762	3093
819.903	3032
820.043	2906
820.184	2895
820.324	2876
820.465	3005
820.605	3036
820.746	3013
820.886	2948
821.026	3081
821.167	3127
821.307	3253
821.447	3268
821.588	3260
821.728	3226
821.868	3180
822.008	3077
822.149	3173
822.289	3230
822.429	3097
822.569	3119
822.709	3188
822.849	3058
822.99	3081
823.13	3157
823.27	3199
823.41	3127
823.55	3157
823.69	3138
823.83	3203
823.97	3085
824.11	2994
824.25	2975
824.389	3070
824.529	3097
824.669	3066
824.809	3173
824.949	3245
825.089	3211
825.228	3180
825.368	2990
825.508	2944
825.648	2971
825.787	3009
825.927	3028
826.067	2956
826.206	2994
826.346	3028
826.485	3055
826.625	3062
826.765	3249
826.904	3165
827.044	3017
827.183	2922
827.323	2883
827.462	2967
827.601	2929
827.741	2933
827.88	2944
828.02	2864
828.159	2971
828.298	2982
828.437	3093
828.577	3032
828.716	3241
828.855	3085
828.994	2914
829.134	2872
829.273	2910
829.412	2864
829.551	2857
829.69	2948
829.829	2982
829.968	3119
830.107	2986
830.246	2994
830.385	2960
830.524	2876
830.663	2777
830.802	2739
830.941	2632
831.08	2590
831.219	2739
831.357	2762
831.496	2956
831.635	2712
831.774	2644
831.913	2659
832.051	2503
832.19	2587
832.329	2705
832.467	2526
832.606	2473
832.744	2575
832.883	2571
833.022	2575
833.16	2636
833.299	2640
833.437	2682
833.576	2739
833.714	2697
833.852	2716
833.991	2743
834.129	2815
834.267	2815
834.406	2807
834.544	2876
834.682	2880
834.821	2864
834.959	3039
835.097	2899
835.235	3051
835.373	2986
835.511	3005
835.65	2910
835.788	2952
835.926	2834
836.064	2762
836.202	2800
836.34	3104
836.478	3169
836.615	3043
836.753	3135
836.891	3211
837.029	3165
837.167	3081
837.305	3051
837.443	3043
837.58	2971
837.718	3112
837.856	3047
837.993	3024
838.131	3089
838.269	3112
838.406	3085
838.544	3077
838.681	2929
838.819	2918
838.956	2823
839.094	2830
839.231	2906
839.369	3024
839.506	3340
839.643	3211
839.781	2986
839.918	2952
840.055	3058
840.193	3013
840.33	3074
840.467	3081
840.604	3142
840.742	3386
840.879	3058
841.016	3043
841.153	3104
841.29	3329
841.427	3310
841.564	3245
841.701	3272
841.838	3199
841.975	3192
842.112	3218
842.249	3043
842.385	3066
842.522	3253
842.659	3081
842.796	3055
842.933	3100
843.069	3070
843.206	3036
843.343	3135
843.479	3108
843.616	3112
843.752	2883
843.889	2861
844.025	3100
844.162	2868
844.298	3085
844.435	2956
844.571	2902
844.708	3062
844.844	3165
844.98	3260
845.117	3195
845.253	3036
845.389	2967
845.525	3112
845.661	3066
845.798	2998
845.934	3108
846.07	3028
846.206	3214
846.342	3294
846.478	3214
846.614	3070
846.75	3028
846.886	2990
847.022	3230
847.158	3146
847.294	3180
847.429	3241
847.565	3226
847.701	3469
847.837	3017
847.972	2990
848.108	3150
848.244	3138
848.379	2960
848.515	2929
848.65	2952
848.786	2963
848.921	3013
849.057	3097
849.192	3161
849.328	3081
849.463	3104
849.598	3051
849.734	3024
849.869	2971
850.004	2925
850.14	2944
850.275	2918
850.41	2807
850.545	2922
850.68	2918
850.815	2933
850.95	2956
851.085	3176
851.22	3070
851.355	3013
851.49	2925
851.625	3005
851.76	3009
851.895	2922
852.03	2922
852.165	3017
852.299	3108
852.434	3211
852.569	3138
852.703	3195
852.838	3230
852.973	3336
853.107	3321
853.242	3157
853.376	3089
853.511	2956
853.645	3024
853.78	3226
853.914	3089
854.048	3100
854.183	3055
854.317	3138
854.451	3287
854.585	3142
854.72	3081
854.854	3188
854.988	3055
855.122	3062
855.256	2956
855.39	3062
855.524	3237
855.658	3180
855.792	3123
855.926	3195
856.06	3180
856.194	3226
856.327	3157
856.461	3070
856.595	3085
856.729	3074
856.862	3214
856.996	3161
857.13	3195
857.263	3245
857.397	3279
857.53	3100
857.664	3142
857.797	3218
857.931	3222
858.064	3173
858.197	3233
858.331	3123
858.464	3146
858.597	2998
858.731	3085
858.864	3104
858.997	3055
859.13	3123
859.263	3161
859.396	3142
859.529	3058
859.662	3058
859.795	3036
859.928	3131
860.061	3245
860.194	3256
860.327	3146
860.46	3043
860.592	3241
860.725	3253
860.858	3264
860.99	3097
861.123	3024
861.256	3066
861.388	3161
861.521	3964
861.653	3017
861.786	2990
861.918	3005
862.05	3047
862.183	3100
862.315	3127
862.447	3176
862.58	3104
862.712	2986
862.844	2895
862.976	3001
863.108	3017
863.24	3443
863.372	2868
863.504	2948
863.636	2979
863.768	2990
863.9	2994
864.032	2902
864.164	2929
864.296	2990
864.428	3051
864.559	3066
864.691	3070
864.823	3043
864.954	3043
865.086	3081
865.217	2979
865.349	2929
865.48	2963
865.612	2967
865.743	3150
865.875	2971
866.006	2937
866.137	2975
866.269	2933
866.4	2933
866.531	2918
866.662	2891
866.793	2887
866.924	2872
867.055	2960
867.186	2880
867.317	2868
867.448	2842
867.579	2864
867.71	2849
867.841	2849
867.972	2910
868.103	2883
868.233	2868
868.364	2849
868.495	2902
868.625	3100
868.756	3161
868.886	2979
869.017	3020
869.147	3138
869.278	3123
869.408	3036
869.539	3043
869.669	3127
869.799	3024
869.929	3173
870.06	3131
870.19	3291
870.32	3283
870.45	3321
870.58	3374
870.71	3428
870.84	3458
870.97	3233
871.1	3245
871.23	3473
871.36	3469
871.489	3329
871.619	3405
871.749	3378
871.879	3454
872.008	3481
872.138	3378
872.267	3283
872.397	3154
872.526	3051
872.656	3017
872.785	3112
872.915	3211
873.044	3317
873.173	3241
873.303	3230
873.432	3203
873.561	3237
873.69	3135
873.819	3123
873.948	3173
874.077	3123
874.206	3013
874.335	3074
874.464	3199
874.593	3351
874.722	3249
874.851	3374
874.979	3351
875.108	3302
875.237	3169
875.365	3165
875.494	3150
875.623	3230
875.751	3077
875.88	3112
876.008	3176
876.136	3245
876.265	3359
876.393	3530
876.521	3435
876.65	3386
876.778	3317
876.906	3245
877.034	3226
877.162	3237
877.29	3165
877.418	3237
877.546	3230
877.674	3241
877.802	3268
877.93	3222
878.058	3176
878.185	3097
878.313	3199
878.441	3207
878.568	3043
878.696	3157
878.824	3237
878.951	3279
879.079	3397
879.206	3606
879.333	3450
879.461	3321
879.588	3363
879.715	3466
879.842	3595
879.97	3409
880.097	3165
880.224	3142
880.351	3138
880.478	3222
880.605	3195
880.732	3195
880.859	3469
880.986	3268
881.112	3321
881.239	3230
881.366	3066
881.493	3028
881.619	3028
881.746	3051
881.872	3112
881.999	3089
882.125	3104
882.252	3218
882.378	3283
882.505	3431
882.631	3310
882.757	3161
882.883	3211
883.01	3211
883.136	3146
883.262	3100
883.388	3081
883.514	3287
883.64	3363
883.766	3302
883.892	3161
884.018	3161
884.143	3412
884.269	3477
884.395	3199
884.52	3135
884.646	3184
884.772	3138
884.897	3093
885.023	3207
885.148	3310
885.274	3424
885.399	3336
885.524	3279
885.65	3264
885.775	3363
885.9	3268
886.025	3439
886.15	3355
886.275	3256
886.4	3233
886.525	3275
886.65	3287
886.775	3256
886.9	3496
887.025	3584
887.149	3374
887.274	3237
887.399	3203
887.523	3199
887.648	3188
887.773	3180
887.897	3359
888.021	3382
888.146	3283
888.27	3420
888.395	3530
888.519	3424
888.643	3447
888.767	3420
888.891	3313
889.015	3245
889.139	3279
889.263	3222
889.387	3424
889.511	3515
889.635	3439
889.759	3260
889.883	3298
890.006	3355
890.13	3492
890.254	3275
890.377	3348
890.501	3211
890.624	3207
890.748	3313
890.871	3188
890.995	3097
891.118	3062
891.241	3188
891.364	3203
891.488	3332
891.611	3188
891.734	3214
891.857	3298
891.98	3245
892.103	3313
892.226	3287
892.349	3214
892.471	3077
892.594	3230
892.717	3287
892.839	3268
892.962	3321
893.085	3359
893.207	3275
893.33	3169
893.452	3226
893.575	3355
893.697	3268
893.819	3458
893.941	3477
894.064	3462
894.186	3275
894.308	3230
894.43	3409
894.552	3542
894.674	3466
894.796	3291
894.918	3336
895.04	3279
895.161	3412
895.283	3393
895.405	3344
895.526	3325
895.648	3412
895.769	3424
895.891	3450
896.012	3450
896.134	3447
896.255	3431
896.376	3351
896.498	3317
896.619	3431
896.74	3351
896.861	3393
896.982	3682
897.103	3831
897.224	3599
897.345	3500
897.466	3393
897.587	3485
897.708	3599
897.828	3538
897.949	3447
898.07	3344
898.19	3378
898.311	3591
898.431	3481
898.552	3515
898.672	3553
898.792	3595
898.913	3538
899.033	3424
899.153	3260
899.273	3222
899.393	3283
899.513	3302
899.633	3294
899.753	3310
899.873	3287
899.993	3336
900.113	3332
900.232	3401
900.352	3275
900.472	3294
900.591	3211
900.711	3275
900.83	3264
900.95	3428
901.069	3462
901.189	3329
901.308	3176
901.427	3138
901.546	3180
901.665	3275
901.784	3313
901.904	3169
902.023	3138
902.141	2982
902.26	3036
902.379	3142
902.498	3089
902.617	3024
902.735	3192
902.854	3237
902.973	3138
903.091	3066
903.21	3051
903.328	3150
903.446	3142
903.565	3089
903.683	3214
903.801	3108
903.919	3233
904.038	3291
904.156	3184
904.274	3272
904.392	3233
904.51	3264
904.627	3325
904.745	3447
904.863	3454
904.981	3275
905.098	3119
905.216	3230
905.334	3260
905.451	3298
905.569	3287
905.686	3447
905.803	3466
905.921	3279
906.038	3409
906.155	3336
906.272	3272
906.389	3313
906.506	3218
906.623	3233
906.74	3241
906.857	3176
906.974	3279
907.091	3435
907.208	3549
907.324	3466
907.441	3393
907.557	3218
907.674	3241
907.79	3241
907.907	3241
908.023	3370
908.139	3359
908.256	3302
908.372	3348
908.488	3348
908.604	3294
908.72	3207
908.836	3287
908.952	3287
909.068	3321
909.184	3458
909.3	3393
909.415	3530
909.531	3496
909.647	3245
909.762	3268
909.878	3233
909.993	3340
910.108	3367
910.224	3348
910.339	3412
910.454	3329
910.57	3275
910.685	3214
910.8	3576
910.915	3549
911.03	3439
911.145	3287
911.259	3192
911.374	3302
911.489	3233
911.604	3195
911.718	3123
911.833	3142
911.947	3077
912.062	2986
912.176	3207
912.291	3195
912.405	3211
912.519	3393
912.633	3454
912.748	3348
912.862	3249
912.976	3169
913.09	3047
913.204	3142
913.318	3180
913.431	3359
913.545	3321
913.659	3386
913.772	3317
913.886	3214
914	3203
914.113	3355
914.226	3374
914.34	3344
914.453	3226
914.566	3420
914.68	3272
914.793	3272
914.906	3138
915.019	3100
915.132	3055
915.245	3154
915.358	3161
915.47	3249
915.583	3260
915.696	3325
915.809	3409
915.921	3435
916.034	3302
916.146	3291
916.259	3195
916.371	3397
916.483	3351
916.595	3294
916.708	3332
916.82	3332
916.932	3367
917.044	3355
917.156	3374
917.268	3226
917.38	3287
917.491	3287
917.603	3378
917.715	3420
917.826	3450
917.938	3359
918.049	3268
918.161	3420
918.272	3595
918.384	3591
918.495	3481
918.606	3367
918.717	3253
918.828	3367
918.939	3428
919.05	3264
919.161	3374
919.272	3173
919.383	3272
919.494	3507
919.604	3671
919.715	3526
919.826	3409
919.936	3424
920.047	3568
920.157	3561
920.267	3778
920.378	3595
920.488	3572
920.598	3759
920.708	3949
920.818	3823
920.928	3789
921.038	4013
921.148	3968
921.258	3724
921.368	3660
921.477	3523
921.587	3530
921.697	3447
921.806	3637
921.916	3530
922.025	3332
922.134	3386
922.244	3340
922.353	3447
922.462	3302
922.571	3169
922.68	3123
922.789	3062
922.898	3135
923.007	3116
923.116	3199
923.224	3184
923.333	3199
923.442	3081
923.55	3077
923.659	3116
923.767	3237
923.876	3131
923.984	3272
924.092	3104
924.201	3203
924.309	3218
924.417	3233
924.525	3169
924.633	3249
924.741	4120
924.849	3043
924.956	3237
925.064	3112
925.172	3032
925.279	3104
925.387	3192
925.494	3207
925.602	3359
925.709	3310
925.816	3184
925.924	3264
926.031	3344
926.138	3329
926.245	3367
926.352	3214
926.459	3397
926.566	3450
926.673	3283
926.779	3237
926.886	3245
926.993	3146
927.099	3070
927.206	3116
927.312	3131
927.419	3230
927.525	3165
927.631	3226
927.737	3150
927.843	3150
927.95	3017
928.056	3119
928.162	3188
928.267	3260
928.373	3797
928.479	3310
928.585	3097
928.69	3226
928.796	3253
928.901	3154
929.007	3028
929.112	3165
929.218	3161
929.323	3150
929.428	3089
929.533	3298
929.638	3138
929.743	3188
929.848	3294
929.953	3192
930.058	3123
930.163	3005
930.267	3039
930.372	3157
930.477	3039
930.581	3340
930.685	3142
930.79	3047
930.894	3123
930.998	3089
931.103	3279
931.207	2948
931.311	2922
931.415	2899
931.519	2781
931.623	2792
