Data from test_V78500241_1014.txt Node
Date: Fri Mar 25 16:22:13 CST 2022
User: usil
Spectrometer: V785-0024
Trigger mode: 0
Integration Time (sec): 4.000000E-1
Scans to average: 1
Nonlinearity correction enabled: false
Boxcar width: 0
Storing dark spectrum: false
XAxis mode: Wavelengths
Number of Pixels in Spectrum: 1024
>>>>>Begin Spectral Data<<<<<
801.071	2922
801.214	2990
801.356	2902
801.499	2944
801.641	2899
801.783	2967
801.926	3085
802.068	2982
802.211	3017
802.353	3017
802.496	2979
802.638	3013
802.78	3077
802.923	3116
803.065	3058
803.208	2933
803.35	2948
803.492	2963
803.635	2967
803.777	2777
803.919	2899
804.061	3233
804.204	3005
804.346	2929
804.488	2872
804.63	2979
804.773	2857
804.915	2937
805.057	3085
805.199	2956
805.341	2979
805.483	3062
805.626	3047
805.768	2994
805.91	3112
806.052	3089
806.194	3051
806.336	3272
806.478	3058
806.62	2979
806.762	2994
806.904	3081
807.046	3188
807.188	3017
807.33	2922
807.472	2990
807.614	2948
807.756	3020
807.898	2922
808.04	2922
808.182	3009
808.324	2967
808.465	2948
808.607	2883
808.749	2800
808.891	2864
809.033	2963
809.174	2975
809.316	2948
809.458	2906
809.6	2785
809.741	2800
809.883	2781
810.025	2861
810.166	2864
810.308	2883
810.45	2861
810.591	2788
810.733	2773
810.875	2861
811.016	2819
811.158	2800
811.299	2826
811.441	2948
811.582	2922
811.724	2857
811.865	2849
812.007	2937
812.148	2914
812.29	2887
812.431	2910
812.573	2922
812.714	3001
812.855	3039
812.997	3043
813.138	3192
813.279	3013
813.421	3024
813.562	3001
813.703	2922
813.845	2906
813.986	2788
814.127	2754
814.268	2842
814.41	2876
814.551	2800
814.692	2876
814.833	2819
814.974	2918
815.115	2986
815.256	2826
815.397	2823
815.539	2849
815.68	2777
815.821	2826
815.962	2979
816.103	2948
816.244	2887
816.385	2891
816.526	2990
816.666	2937
816.807	2750
816.948	2952
817.089	2941
817.23	2887
817.371	2800
817.512	2826
817.653	2861
817.793	2834
817.934	2883
818.075	2960
818.216	3017
818.356	3047
818.497	2895
818.638	2804
818.778	2853
818.919	2777
819.06	2758
819.2	2899
819.341	2826
819.481	2849
819.622	2948
819.762	3119
819.903	3058
820.043	2944
820.184	2925
820.324	2891
820.465	3028
820.605	3058
820.746	3062
820.886	2948
821.026	3131
821.167	3169
821.307	3291
821.447	3298
821.588	3256
821.728	3214
821.868	3199
822.008	3100
822.149	3199
822.289	3241
822.429	3116
822.569	3116
822.709	3211
822.849	3066
822.99	3039
823.13	3165
823.27	3184
823.41	3093
823.55	3195
823.69	3169
823.83	3195
823.97	3131
824.11	2998
824.25	3024
824.389	3093
824.529	3135
824.669	3081
824.809	3165
824.949	3279
825.089	3218
825.228	3176
825.368	3043
825.508	2990
825.648	2998
825.787	2998
825.927	3036
826.067	2956
826.206	2998
826.346	3085
826.485	3081
826.625	3116
826.765	3256
826.904	3245
827.044	3009
827.183	2933
827.323	2887
827.462	3020
827.601	2925
827.741	2937
827.88	2944
828.02	2834
828.159	2963
828.298	3047
828.437	3157
828.577	3062
828.716	3245
828.855	3100
828.994	2948
829.134	2887
829.273	2922
829.412	2872
829.551	2853
829.69	2929
829.829	2971
829.968	3112
830.107	3020
830.246	2998
830.385	2952
830.524	2895
830.663	2796
830.802	2720
830.941	2701
831.08	2659
831.219	2800
831.357	2743
831.496	2933
831.635	2716
831.774	2617
831.913	2663
832.051	2560
832.19	2571
832.329	2701
832.467	2541
832.606	2454
832.744	2571
832.883	2606
833.022	2606
833.16	2693
833.299	2705
833.437	2678
833.576	2689
833.714	2739
833.852	2769
833.991	2750
834.129	2830
834.267	2823
834.406	2800
834.544	2861
834.682	2872
834.821	2838
834.959	3058
835.097	2941
835.235	3058
835.373	2982
835.511	3039
835.65	2952
835.788	2963
835.926	2807
836.064	2834
836.202	2864
836.34	3119
836.478	3180
836.615	3028
836.753	3131
836.891	3233
837.029	3142
837.167	3123
837.305	3085
837.443	3051
837.58	2990
837.718	3154
837.856	3043
837.993	3043
838.131	3089
838.269	3089
838.406	3146
838.544	3077
838.681	2982
838.819	2937
838.956	2796
839.094	2857
839.231	2937
839.369	3020
839.506	3348
839.643	3199
839.781	3024
839.918	2960
840.055	3062
840.193	3097
840.33	3062
840.467	3127
840.604	3138
840.742	3397
840.879	3062
841.016	3062
841.153	3127
841.29	3317
841.427	3283
841.564	3272
841.701	3321
841.838	3195
841.975	3161
842.112	3233
842.249	3081
842.385	3066
842.522	3291
842.659	3077
842.796	3055
842.933	3097
843.069	3036
843.206	3066
843.343	3195
843.479	3066
843.616	3108
843.752	2910
843.889	2872
844.025	3089
844.162	2880
844.298	3074
844.435	2948
844.571	2864
844.708	3085
844.844	3165
844.98	3226
845.117	3214
845.253	3047
845.389	2998
845.525	3074
845.661	3123
845.798	3024
845.934	3131
846.07	3047
846.206	3237
846.342	3294
846.478	3230
846.614	3074
846.75	3047
846.886	3036
847.022	3253
847.158	3112
847.294	3211
847.429	3249
847.565	3180
847.701	3458
847.837	3039
847.972	3020
848.108	3150
848.244	3146
848.379	2990
848.515	2986
848.65	2933
848.786	2925
848.921	3005
849.057	3108
849.192	3173
849.328	3108
849.463	3135
849.598	3074
849.734	3062
849.869	2967
850.004	2944
850.14	2975
850.275	2967
850.41	2830
850.545	2887
850.68	2899
850.815	2994
850.95	2975
851.085	3180
851.22	3119
851.355	3055
851.49	2967
851.625	2979
851.76	3043
851.895	2922
852.03	2891
852.165	3005
852.299	3127
852.434	3180
852.569	3154
852.703	3192
852.838	3256
852.973	3363
853.107	3367
853.242	3116
853.376	3112
853.511	2960
853.645	3036
853.78	3230
853.914	3100
854.048	3085
854.183	3077
854.317	3138
854.451	3279
854.585	3131
854.72	3100
854.854	3184
854.988	3028
855.122	3062
855.256	3028
855.39	3104
855.524	3237
855.658	3195
855.792	3169
855.926	3218
856.06	3199
856.194	3249
856.327	3169
856.461	3058
856.595	3100
856.729	3070
856.862	3222
856.996	3161
857.13	3211
857.263	3214
857.397	3249
857.53	3085
857.664	3203
857.797	3237
857.931	3245
858.064	3146
858.197	3218
858.331	3070
858.464	3104
858.597	3005
858.731	3112
858.864	3116
858.997	3051
859.13	3142
859.263	3180
859.396	3180
859.529	3104
859.662	3032
859.795	3020
859.928	3127
860.061	3294
860.194	3272
860.327	3097
860.46	3112
860.592	3264
860.725	3249
860.858	3237
860.99	3108
861.123	3097
861.256	3055
861.388	3169
861.521	3831
861.653	3020
861.786	2967
861.918	3001
862.05	3055
862.183	3058
862.315	3138
862.447	3226
862.58	3119
862.712	2963
862.844	2864
862.976	3001
863.108	3017
863.24	3401
863.372	2834
863.504	2986
863.636	2967
863.768	3028
863.9	2994
864.032	2902
864.164	2937
864.296	3009
864.428	3097
864.559	3085
864.691	3081
864.823	3062
864.954	3036
865.086	3036
865.217	2971
865.349	2937
865.48	2948
865.612	3020
865.743	3146
865.875	2986
866.006	2937
866.137	2967
866.269	2944
866.4	2906
866.531	2963
866.662	2914
866.793	2887
866.924	2963
867.055	2967
867.186	2941
867.317	2842
867.448	2800
867.579	2830
867.71	2845
867.841	2826
867.972	2880
868.103	2899
868.233	2864
868.364	2868
868.495	2887
868.625	3070
868.756	3157
868.886	2944
869.017	3001
869.147	3127
869.278	3123
869.408	3043
869.539	3024
869.669	3081
869.799	3013
869.929	3154
870.06	3070
870.19	3340
870.32	3294
870.45	3325
870.58	3359
870.71	3431
870.84	3393
870.97	3294
871.1	3260
871.23	3469
871.36	3469
871.489	3336
871.619	3416
871.749	3450
871.879	3405
872.008	3466
872.138	3344
872.267	3233
872.397	3150
872.526	3051
872.656	2994
872.785	3093
872.915	3245
873.044	3298
873.173	3165
873.303	3245
873.432	3226
873.561	3192
873.69	3150
873.819	3135
873.948	3188
874.077	3097
874.206	3036
874.335	3074
874.464	3233
874.593	3359
874.722	3211
874.851	3393
874.979	3310
875.108	3298
875.237	3188
875.365	3180
875.494	3161
875.623	3268
875.751	3100
875.88	3112
876.008	3173
876.136	3222
876.265	3351
876.393	3473
876.521	3428
876.65	3355
876.778	3332
876.906	3268
877.034	3241
877.162	3199
877.29	3192
877.418	3233
877.546	3241
877.674	3226
877.802	3264
877.93	3249
878.058	3123
878.185	3112
878.313	3184
878.441	3226
878.568	3058
878.696	3150
878.824	3253
878.951	3287
879.079	3412
879.206	3576
879.333	3428
879.461	3313
879.588	3344
879.715	3488
879.842	3564
879.97	3374
880.097	3157
880.224	3116
880.351	3203
880.478	3176
880.605	3203
880.732	3176
880.859	3485
880.986	3317
881.112	3298
881.239	3218
881.366	3066
881.493	3009
881.619	3020
881.746	3066
881.872	3081
881.999	3116
882.125	3150
882.252	3264
882.378	3283
882.505	3416
882.631	3298
882.757	3146
882.883	3218
883.01	3199
883.136	3157
883.262	3100
883.388	3112
883.514	3329
883.64	3355
883.766	3325
883.892	3188
884.018	3180
884.143	3428
884.269	3526
884.395	3169
884.52	3161
884.646	3165
884.772	3089
884.897	3138
885.023	3199
885.148	3336
885.274	3447
885.399	3374
885.524	3268
885.65	3249
885.775	3325
885.9	3260
886.025	3389
886.15	3397
886.275	3321
886.4	3199
886.525	3306
886.65	3249
886.775	3302
886.9	3526
887.025	3656
887.149	3374
887.274	3230
887.399	3188
887.523	3199
887.648	3180
887.773	3199
887.897	3363
888.021	3374
888.146	3264
888.27	3431
888.395	3526
888.519	3397
888.643	3458
888.767	3504
888.891	3287
889.015	3237
889.139	3298
889.263	3279
889.387	3401
889.511	3526
889.635	3466
889.759	3249
889.883	3306
890.006	3382
890.13	3454
890.254	3253
890.377	3340
890.501	3237
890.624	3199
890.748	3302
890.871	3203
890.995	3093
891.118	3070
891.241	3192
891.364	3176
891.488	3294
891.611	3176
891.734	3188
891.857	3283
891.98	3233
892.103	3310
892.226	3264
892.349	3222
892.471	3112
892.594	3233
892.717	3272
892.839	3272
892.962	3294
893.085	3374
893.207	3294
893.33	3138
893.452	3188
893.575	3306
893.697	3211
893.819	3485
893.941	3496
894.064	3428
894.186	3230
894.308	3237
894.43	3428
894.552	3496
894.674	3473
894.796	3275
894.918	3321
895.04	3264
895.161	3443
895.283	3359
895.405	3291
895.526	3348
895.648	3477
895.769	3428
895.891	3431
896.012	3466
896.134	3447
896.255	3431
896.376	3378
896.498	3389
896.619	3401
896.74	3351
896.861	3431
896.982	3675
897.103	3812
897.224	3603
897.345	3523
897.466	3405
897.587	3488
897.708	3625
897.828	3515
897.949	3431
898.07	3363
898.19	3435
898.311	3610
898.431	3424
898.552	3504
898.672	3557
898.792	3519
898.913	3492
899.033	3397
899.153	3336
899.273	3180
899.393	3279
899.513	3313
899.633	3275
899.753	3363
899.873	3329
899.993	3401
900.113	3306
900.232	3420
900.352	3351
900.472	3260
900.591	3142
900.711	3264
900.83	3180
900.95	3401
901.069	3450
901.189	3340
901.308	3233
901.427	3123
901.546	3192
901.665	3260
901.784	3340
901.904	3222
902.023	3127
902.141	3032
902.26	3001
902.379	3112
902.498	3100
902.617	3043
902.735	3180
902.854	3226
902.973	3192
903.091	3032
903.21	3017
903.328	3161
903.446	3100
903.565	3100
903.683	3203
903.801	3142
903.919	3237
904.038	3272
904.156	3176
904.274	3226
904.392	3253
904.51	3222
904.627	3287
904.745	3431
904.863	3492
904.981	3272
905.098	3173
905.216	3245
905.334	3294
905.451	3275
905.569	3317
905.686	3435
905.803	3386
905.921	3287
906.038	3405
906.155	3329
906.272	3298
906.389	3298
906.506	3218
906.623	3260
906.74	3268
906.857	3207
906.974	3272
907.091	3466
907.208	3584
907.324	3481
907.441	3401
907.557	3241
907.674	3218
907.79	3230
907.907	3283
908.023	3367
908.139	3378
908.256	3306
908.372	3378
908.488	3351
908.604	3241
908.72	3203
908.836	3291
908.952	3294
909.068	3340
909.184	3454
909.3	3363
909.415	3515
909.531	3435
909.647	3233
909.762	3272
909.878	3260
909.993	3355
910.108	3359
910.224	3367
910.339	3409
910.454	3340
910.57	3272
910.685	3249
910.8	3591
910.915	3526
911.03	3405
911.145	3268
911.259	3272
911.374	3325
911.489	3222
911.604	3241
911.718	3104
911.833	3154
911.947	3039
912.062	2979
912.176	3135
912.291	3214
912.405	3192
912.519	3435
912.633	3469
912.748	3340
912.862	3302
912.976	3142
913.09	3093
913.204	3119
913.318	3222
913.431	3348
913.545	3325
913.659	3405
913.772	3329
913.886	3195
914	3188
914.113	3412
914.226	3401
914.34	3367
914.453	3241
914.566	3431
914.68	3283
914.793	3310
914.906	3157
915.019	3100
915.132	3093
915.245	3184
915.358	3214
915.47	3188
915.583	3264
915.696	3317
915.809	3370
915.921	3420
916.034	3233
916.146	3260
916.259	3214
916.371	3348
916.483	3378
916.595	3253
916.708	3359
916.82	3332
916.932	3351
917.044	3306
917.156	3367
917.268	3268
917.38	3302
917.491	3279
917.603	3397
917.715	3439
917.826	3462
917.938	3351
918.049	3249
918.161	3447
918.272	3595
918.384	3606
918.495	3477
918.606	3332
918.717	3275
918.828	3348
918.939	3378
919.05	3310
919.161	3359
919.272	3195
919.383	3279
919.494	3511
919.604	3694
919.715	3481
919.826	3363
919.936	3477
920.047	3576
920.157	3584
920.267	3732
920.378	3580
920.488	3572
920.598	3717
920.708	3968
920.818	3808
920.928	3842
921.038	3972
921.148	3953
921.258	3724
921.368	3641
921.477	3568
921.587	3568
921.697	3443
921.806	3637
921.916	3504
922.025	3382
922.134	3370
922.244	3298
922.353	3420
922.462	3253
922.571	3214
922.68	3097
922.789	3074
922.898	3146
923.007	3074
923.116	3188
923.224	3138
923.333	3195
923.442	3150
923.55	3097
923.659	3104
923.767	3195
923.876	3127
923.984	3241
924.092	3097
924.201	3188
924.309	3211
924.417	3184
924.525	3176
924.633	3188
924.741	4188
924.849	3032
924.956	3256
925.064	3100
925.172	3051
925.279	3081
925.387	3184
925.494	3184
925.602	3351
925.709	3302
925.816	3214
925.924	3249
926.031	3389
926.138	3294
926.245	3340
926.352	3253
926.459	3397
926.566	3431
926.673	3310
926.779	3268
926.886	3230
926.993	3135
927.099	3131
927.206	3104
927.312	3100
927.419	3207
927.525	3184
927.631	3287
927.737	3112
927.843	3100
927.95	3005
928.056	3131
928.162	3165
928.267	3275
928.373	3865
928.479	3317
928.585	3039
928.69	3199
928.796	3268
928.901	3199
929.007	3039
929.112	3203
929.218	3192
929.323	3131
929.428	3116
929.533	3306
929.638	3108
929.743	3184
929.848	3249
929.953	3203
930.058	3154
930.163	2975
930.267	3051
930.372	3188
930.477	3020
930.581	3325
930.685	3173
930.79	3036
930.894	3112
930.998	3077
931.103	3275
931.207	2956
931.311	2929
931.415	2914
931.519	2781
931.623	2804
