Data from test_V78500241_653.txt Node
Date: Fri Mar 25 16:19:43 CST 2022
User: usil
Spectrometer: V785-0024
Trigger mode: 0
Integration Time (sec): 4.000000E-1
Scans to average: 1
Nonlinearity correction enabled: false
Boxcar width: 0
Storing dark spectrum: false
XAxis mode: Wavelengths
Number of Pixels in Spectrum: 1024
>>>>>Begin Spectral Data<<<<<
801.071	2906
801.214	2986
801.356	2902
801.499	2979
801.641	2910
801.783	2941
801.926	3089
802.068	3013
802.211	3039
802.353	3093
802.496	2994
802.638	3043
802.78	3074
802.923	3104
803.065	3020
803.208	2933
803.35	2937
803.492	3001
803.635	2979
803.777	2826
803.919	2906
804.061	3256
804.204	2990
804.346	2952
804.488	2914
804.63	3043
804.773	2933
804.915	2960
805.057	3131
805.199	2975
805.341	3032
805.483	3116
805.626	3020
805.768	3005
805.91	3089
806.052	3169
806.194	3089
806.336	3272
806.478	3055
806.62	3017
806.762	3017
806.904	3089
807.046	3222
807.188	3039
807.33	2967
807.472	3039
807.614	2952
807.756	3013
807.898	2933
808.04	2906
808.182	3020
808.324	2979
808.465	2922
808.607	2925
808.749	2792
808.891	2918
809.033	3024
809.174	2994
809.316	2899
809.458	2937
809.6	2823
809.741	2785
809.883	2758
810.025	2918
810.166	2902
810.308	2868
810.45	2864
810.591	2796
810.733	2781
810.875	2838
811.016	2800
811.158	2804
811.299	2834
811.441	2944
811.582	2925
811.724	2876
811.865	2899
812.007	2944
812.148	2922
812.29	2895
812.431	2902
812.573	2956
812.714	2982
812.855	3116
812.997	3085
813.138	3176
813.279	3032
813.421	3009
813.562	2979
813.703	2902
813.845	2918
813.986	2800
814.127	2735
814.268	2857
814.41	2861
814.551	2861
814.692	2876
814.833	2845
814.974	2941
815.115	2998
815.256	2868
815.397	2819
815.539	2922
815.68	2800
815.821	2819
815.962	2948
816.103	2937
816.244	2906
816.385	2902
816.526	2979
816.666	2937
816.807	2807
816.948	2925
817.089	2941
817.23	2876
817.371	2758
817.512	2823
817.653	2883
817.793	2872
817.934	2872
818.075	2986
818.216	3043
818.356	3077
818.497	2944
818.638	2857
818.778	2842
818.919	2823
819.06	2785
819.2	2891
819.341	2861
819.481	2845
819.622	2933
819.762	3138
819.903	3093
820.043	2941
820.184	2925
820.324	2937
820.465	3058
820.605	3013
820.746	3047
820.886	2956
821.026	3169
821.167	3169
821.307	3249
821.447	3279
821.588	3264
821.728	3195
821.868	3214
822.008	3097
822.149	3199
822.289	3256
822.429	3150
822.569	3138
822.709	3214
822.849	3074
822.99	3070
823.13	3180
823.27	3218
823.41	3150
823.55	3161
823.69	3150
823.83	3245
823.97	3116
824.11	3020
824.25	3017
824.389	3077
824.529	3112
824.669	3100
824.809	3218
824.949	3253
825.089	3264
825.228	3192
825.368	3017
825.508	2982
825.648	2998
825.787	3043
825.927	3074
826.067	2994
826.206	2975
826.346	3070
826.485	3100
826.625	3157
826.765	3275
826.904	3256
827.044	2998
827.183	2925
827.323	2883
827.462	3013
827.601	2952
827.741	2960
827.88	2982
828.02	2899
828.159	3001
828.298	3051
828.437	3116
828.577	3062
828.716	3264
828.855	3104
828.994	2944
829.134	2906
829.273	2933
829.412	2910
829.551	2849
829.69	2906
829.829	3009
829.968	3169
830.107	3070
830.246	3097
830.385	2941
830.524	2910
830.663	2842
830.802	2785
830.941	2682
831.08	2655
831.219	2758
831.357	2773
831.496	3001
831.635	2739
831.774	2659
831.913	2689
832.051	2575
832.19	2617
832.329	2712
832.467	2587
832.606	2484
832.744	2625
832.883	2587
833.022	2621
833.16	2697
833.299	2701
833.437	2720
833.576	2716
833.714	2739
833.852	2754
833.991	2804
834.129	2899
834.267	2838
834.406	2796
834.544	2899
834.682	2899
834.821	2902
834.959	3058
835.097	2902
835.235	3085
835.373	2998
835.511	3043
835.65	2975
835.788	2963
835.926	2872
836.064	2849
836.202	2845
836.34	3085
836.478	3176
836.615	3089
836.753	3157
836.891	3188
837.029	3188
837.167	3138
837.305	3089
837.443	3112
837.58	3009
837.718	3127
837.856	3085
837.993	3058
838.131	3142
838.269	3119
838.406	3123
838.544	3097
838.681	2994
838.819	2971
838.956	2864
839.094	2830
839.231	2918
839.369	3028
839.506	3393
839.643	3195
839.781	3039
839.918	2941
840.055	3036
840.193	3089
840.33	3085
840.467	3135
840.604	3173
840.742	3443
840.879	3055
841.016	3074
841.153	3085
841.29	3351
841.427	3294
841.564	3302
841.701	3325
841.838	3222
841.975	3192
842.112	3222
842.249	3089
842.385	3047
842.522	3245
842.659	3077
842.796	3085
842.933	3100
843.069	3070
843.206	3032
843.343	3184
843.479	3097
843.616	3093
843.752	2937
843.889	2918
844.025	3077
844.162	2899
844.298	3097
844.435	2963
844.571	2925
844.708	3097
844.844	3226
844.98	3268
845.117	3199
845.253	3055
845.389	3028
845.525	3097
845.661	3135
845.798	3024
845.934	3112
846.07	3039
846.206	3249
846.342	3302
846.478	3207
846.614	3074
846.75	3070
846.886	3055
847.022	3199
847.158	3154
847.294	3195
847.429	3279
847.565	3203
847.701	3485
847.837	3066
847.972	3005
848.108	3199
848.244	3165
848.379	2994
848.515	3001
848.65	2952
848.786	2975
848.921	3005
849.057	3138
849.192	3176
849.328	3062
849.463	3108
849.598	3085
849.734	3032
849.869	2956
850.004	2956
850.14	2975
850.275	2914
850.41	2925
850.545	2906
850.68	2899
850.815	2979
850.95	2986
851.085	3199
851.22	3119
851.355	3066
851.49	2990
851.625	2986
851.76	3009
851.895	2960
852.03	2963
852.165	3074
852.299	3108
852.434	3180
852.569	3146
852.703	3180
852.838	3256
852.973	3321
853.107	3374
853.242	3161
853.376	3070
853.511	3013
853.645	3043
853.78	3241
853.914	3138
854.048	3146
854.183	3097
854.317	3192
854.451	3313
854.585	3131
854.72	3112
854.854	3199
854.988	3085
855.122	3081
855.256	2948
855.39	3150
855.524	3260
855.658	3199
855.792	3199
855.926	3222
856.06	3214
856.194	3283
856.327	3165
856.461	3058
856.595	3070
856.729	3108
856.862	3211
856.996	3169
857.13	3218
857.263	3218
857.397	3264
857.53	3142
857.664	3214
857.797	3279
857.931	3268
858.064	3169
858.197	3195
858.331	3184
858.464	3142
858.597	2998
858.731	3135
858.864	3108
858.997	3089
859.13	3161
859.263	3192
859.396	3218
859.529	3116
859.662	3081
859.795	3055
859.928	3169
860.061	3283
860.194	3249
860.327	3131
860.46	3108
860.592	3253
860.725	3306
860.858	3241
860.99	3131
861.123	3058
861.256	3062
861.388	3142
861.521	3838
861.653	3036
861.786	3001
861.918	2990
862.05	3100
862.183	3131
862.315	3131
862.447	3192
862.58	3127
862.712	2967
862.844	2891
862.976	2994
863.108	2998
863.24	3382
863.372	2910
863.504	2967
863.636	2948
863.768	3066
863.9	3001
864.032	2910
864.164	2956
864.296	3013
864.428	3077
864.559	3104
864.691	3108
864.823	3039
864.954	3024
865.086	3032
865.217	3001
865.349	2967
865.48	3001
865.612	3047
865.743	3199
865.875	2986
866.006	2971
866.137	2956
866.269	2948
866.4	2933
866.531	2941
866.662	2887
866.793	2906
866.924	2880
867.055	2929
867.186	2967
867.317	2895
867.448	2891
867.579	2864
867.71	2853
867.841	2815
867.972	2922
868.103	2914
868.233	2891
868.364	2872
868.495	2925
868.625	3100
868.756	3161
868.886	2963
869.017	3066
869.147	3192
869.278	3188
869.408	3043
869.539	3036
869.669	3127
869.799	3020
869.929	3157
870.06	3104
870.19	3302
870.32	3291
870.45	3279
870.58	3382
870.71	3458
870.84	3477
870.97	3291
871.1	3245
871.23	3485
871.36	3450
871.489	3344
871.619	3405
871.749	3405
871.879	3428
872.008	3466
872.138	3389
872.267	3256
872.397	3154
872.526	3138
872.656	2990
872.785	3081
872.915	3237
873.044	3329
873.173	3222
873.303	3275
873.432	3233
873.561	3207
873.69	3154
873.819	3173
873.948	3230
874.077	3100
874.206	3051
874.335	3089
874.464	3218
874.593	3344
874.722	3245
874.851	3386
874.979	3321
875.108	3336
875.237	3199
875.365	3176
875.494	3192
875.623	3256
875.751	3051
875.88	3108
876.008	3188
876.136	3260
876.265	3374
876.393	3496
876.521	3424
876.65	3393
876.778	3332
876.906	3233
877.034	3195
877.162	3199
877.29	3157
877.418	3253
877.546	3253
877.674	3233
877.802	3199
877.93	3241
878.058	3180
878.185	3112
878.313	3195
878.441	3199
878.568	3077
878.696	3123
878.824	3264
878.951	3332
879.079	3424
879.206	3637
879.333	3439
879.461	3351
879.588	3351
879.715	3469
879.842	3641
879.97	3416
880.097	3203
880.224	3154
880.351	3180
880.478	3245
880.605	3192
880.732	3192
880.859	3519
880.986	3306
881.112	3302
881.239	3199
881.366	3093
881.493	3055
881.619	3039
881.746	3036
881.872	3089
881.999	3112
882.125	3176
882.252	3256
882.378	3291
882.505	3458
882.631	3298
882.757	3157
882.883	3237
883.01	3230
883.136	3150
883.262	3097
883.388	3119
883.514	3279
883.64	3367
883.766	3355
883.892	3154
884.018	3253
884.143	3397
884.269	3519
884.395	3233
884.52	3146
884.646	3195
884.772	3104
884.897	3070
885.023	3176
885.148	3329
885.274	3397
885.399	3317
885.524	3260
885.65	3264
885.775	3283
885.9	3275
886.025	3431
886.15	3386
886.275	3275
886.4	3226
886.525	3302
886.65	3298
886.775	3275
886.9	3500
887.025	3641
887.149	3378
887.274	3256
887.399	3192
887.523	3173
887.648	3157
887.773	3150
887.897	3317
888.021	3389
888.146	3306
888.27	3412
888.395	3538
888.519	3401
888.643	3447
888.767	3439
888.891	3310
889.015	3230
889.139	3283
889.263	3260
889.387	3401
889.511	3557
889.635	3466
889.759	3317
889.883	3287
890.006	3428
890.13	3504
890.254	3279
890.377	3340
890.501	3211
890.624	3176
890.748	3302
890.871	3150
890.995	3097
891.118	3051
891.241	3154
891.364	3218
891.488	3291
891.611	3146
891.734	3226
891.857	3291
891.98	3253
892.103	3332
892.226	3275
892.349	3176
892.471	3123
892.594	3245
892.717	3294
892.839	3294
892.962	3283
893.085	3348
893.207	3317
893.33	3150
893.452	3165
893.575	3317
893.697	3237
893.819	3481
893.941	3492
894.064	3416
894.186	3249
894.308	3302
894.43	3450
894.552	3538
894.674	3462
894.796	3298
894.918	3268
895.04	3275
895.161	3443
895.283	3393
895.405	3260
895.526	3367
895.648	3374
895.769	3435
895.891	3447
896.012	3473
896.134	3519
896.255	3389
896.376	3389
896.498	3370
896.619	3389
896.74	3367
896.861	3393
896.982	3675
897.103	3812
897.224	3610
897.345	3549
897.466	3374
897.587	3492
897.708	3644
897.828	3568
897.949	3431
898.07	3344
898.19	3389
898.311	3584
898.431	3447
898.552	3481
898.672	3580
898.792	3595
898.913	3511
899.033	3412
899.153	3275
899.273	3176
899.393	3249
899.513	3336
899.633	3298
899.753	3325
899.873	3291
899.993	3405
900.113	3294
900.232	3412
900.352	3321
900.472	3321
900.591	3218
900.711	3275
900.83	3184
900.95	3424
901.069	3523
901.189	3363
901.308	3184
901.427	3104
901.546	3165
901.665	3279
901.784	3329
901.904	3199
902.023	3131
902.141	3020
902.26	3005
902.379	3135
902.498	3081
902.617	3051
902.735	3211
902.854	3230
902.973	3180
903.091	3051
903.21	3032
903.328	3138
903.446	3077
903.565	3089
903.683	3207
903.801	3127
903.919	3256
904.038	3294
904.156	3150
904.274	3256
904.392	3272
904.51	3264
904.627	3313
904.745	3462
904.863	3477
904.981	3272
905.098	3173
905.216	3222
905.334	3275
905.451	3298
905.569	3321
905.686	3473
905.803	3435
905.921	3344
906.038	3473
906.155	3351
906.272	3260
906.389	3359
906.506	3237
906.623	3241
906.74	3249
906.857	3184
906.974	3237
907.091	3466
907.208	3576
907.324	3462
907.441	3351
907.557	3245
907.674	3249
907.79	3211
907.907	3283
908.023	3386
908.139	3367
908.256	3317
908.372	3348
908.488	3329
908.604	3249
908.72	3218
908.836	3294
908.952	3260
909.068	3332
909.184	3477
909.3	3382
909.415	3496
909.531	3428
909.647	3287
909.762	3279
909.878	3249
909.993	3351
910.108	3344
910.224	3336
910.339	3409
910.454	3370
910.57	3313
910.685	3226
910.8	3564
910.915	3515
911.03	3428
911.145	3260
911.259	3272
911.374	3306
911.489	3264
911.604	3218
911.718	3138
911.833	3112
911.947	2982
912.062	2975
912.176	3173
912.291	3188
912.405	3241
912.519	3420
912.633	3428
912.748	3355
912.862	3264
912.976	3161
913.09	3112
913.204	3142
913.318	3199
913.431	3279
913.545	3325
913.659	3382
913.772	3344
913.886	3180
914	3199
914.113	3336
914.226	3435
914.34	3382
914.453	3230
914.566	3409
914.68	3310
914.793	3287
914.906	3154
915.019	3093
915.132	3062
915.245	3142
915.358	3184
915.47	3218
915.583	3272
915.696	3279
915.809	3401
915.921	3416
916.034	3222
916.146	3241
916.259	3211
916.371	3416
916.483	3355
916.595	3291
916.708	3340
916.82	3344
916.932	3325
917.044	3332
917.156	3355
917.268	3294
917.38	3283
917.491	3298
917.603	3348
917.715	3431
917.826	3492
917.938	3367
918.049	3222
918.161	3458
918.272	3542
918.384	3557
918.495	3504
918.606	3329
918.717	3310
918.828	3363
918.939	3389
919.05	3268
919.161	3382
919.272	3161
919.383	3272
919.494	3504
919.604	3698
919.715	3500
919.826	3443
919.936	3412
920.047	3549
920.157	3549
920.267	3766
920.378	3580
920.488	3553
920.598	3766
920.708	3949
920.818	3781
920.928	3827
921.038	3991
921.148	3991
921.258	3686
921.368	3614
921.477	3564
921.587	3523
921.697	3447
921.806	3625
921.916	3545
922.025	3306
922.134	3321
922.244	3272
922.353	3473
922.462	3268
922.571	3230
922.68	3119
922.789	3077
922.898	3131
923.007	3100
923.116	3199
923.224	3184
923.333	3188
923.442	3112
923.55	3093
923.659	3142
923.767	3195
923.876	3077
923.984	3203
924.092	3077
924.201	3188
924.309	3226
924.417	3211
924.525	3188
924.633	3207
924.741	3956
924.849	3043
924.956	3264
925.064	3123
925.172	3055
925.279	3085
925.387	3211
925.494	3192
925.602	3378
925.709	3370
925.816	3222
925.924	3268
926.031	3370
926.138	3298
926.245	3344
926.352	3199
926.459	3431
926.566	3466
926.673	3298
926.779	3237
926.886	3256
926.993	3138
927.099	3157
927.206	3104
927.312	3097
927.419	3203
927.525	3211
927.631	3241
927.737	3157
927.843	3154
927.95	2986
928.056	3138
928.162	3138
928.267	3245
928.373	3766
928.479	3294
928.585	3097
928.69	3226
928.796	3264
928.901	3142
929.007	3055
929.112	3192
929.218	3180
929.323	3135
929.428	3123
929.533	3283
929.638	3093
929.743	3192
929.848	3214
929.953	3192
930.058	3142
930.163	2986
930.267	3047
930.372	3176
930.477	3013
930.581	3275
930.685	3180
930.79	3070
930.894	3097
930.998	3070
931.103	3291
931.207	2971
931.311	2925
931.415	2880
931.519	2762
931.623	2826
