Data from test_V78500241_1250.txt Node
Date: Fri Mar 25 16:23:51 CST 2022
User: usil
Spectrometer: V785-0024
Trigger mode: 0
Integration Time (sec): 4.000000E-1
Scans to average: 1
Nonlinearity correction enabled: false
Boxcar width: 0
Storing dark spectrum: false
XAxis mode: Wavelengths
Number of Pixels in Spectrum: 1024
>>>>>Begin Spectral Data<<<<<
801.071	2948
801.214	2937
801.356	2925
801.499	2918
801.641	2872
801.783	2944
801.926	3070
802.068	2971
802.211	2990
802.353	3043
802.496	2929
802.638	3028
802.78	3055
802.923	3112
803.065	3036
803.208	2906
803.35	2925
803.492	2948
803.635	2887
803.777	2785
803.919	2899
804.061	3230
804.204	2971
804.346	2937
804.488	2853
804.63	2990
804.773	2830
804.915	2922
805.057	3100
805.199	2971
805.341	2975
805.483	3047
805.626	3028
805.768	2982
805.91	3116
806.052	3135
806.194	3024
806.336	3253
806.478	3001
806.62	2952
806.762	2994
806.904	3097
807.046	3161
807.188	2990
807.33	2922
807.472	3013
807.614	2906
807.756	3001
807.898	2933
808.04	2887
808.182	2967
808.324	2948
808.465	2876
808.607	2861
808.749	2788
808.891	2857
809.033	2986
809.174	2982
809.316	2853
809.458	2899
809.6	2785
809.741	2796
809.883	2739
810.025	2895
810.166	2883
810.308	2868
810.45	2861
810.591	2788
810.733	2727
810.875	2845
811.016	2800
811.158	2785
811.299	2815
811.441	2929
811.582	2910
811.724	2849
811.865	2849
812.007	2899
812.148	2887
812.29	2887
812.431	2899
812.573	2941
812.714	3013
812.855	3017
812.997	3043
813.138	3097
813.279	3017
813.421	2956
813.562	2975
813.703	2910
813.845	2895
813.986	2800
814.127	2743
814.268	2800
814.41	2842
814.551	2853
814.692	2887
814.833	2842
814.974	2929
815.115	2967
815.256	2857
815.397	2800
815.539	2830
815.68	2788
815.821	2785
815.962	2944
816.103	2941
816.244	2883
816.385	2853
816.526	2982
816.666	2906
816.807	2758
816.948	2902
817.089	2933
817.23	2876
817.371	2792
817.512	2834
817.653	2842
817.793	2880
817.934	2887
818.075	2952
818.216	2986
818.356	3017
818.497	2895
818.638	2804
818.778	2807
818.919	2788
819.06	2781
819.2	2887
819.341	2815
819.481	2849
819.622	2937
819.762	3138
819.903	3093
820.043	2941
820.184	2899
820.324	2914
820.465	3013
820.605	2994
820.746	3013
820.886	2906
821.026	3104
821.167	3165
821.307	3298
821.447	3317
821.588	3233
821.728	3188
821.868	3195
822.008	3074
822.149	3184
822.289	3214
822.429	3123
822.569	3085
822.709	3154
822.849	3036
822.99	3089
823.13	3135
823.27	3180
823.41	3104
823.55	3135
823.69	3116
823.83	3173
823.97	3112
824.11	3009
824.25	2994
824.389	3047
824.529	3112
824.669	3074
824.809	3207
824.949	3207
825.089	3226
825.228	3150
825.368	3013
825.508	2960
825.648	2933
825.787	2998
825.927	3039
826.067	2971
826.206	2944
826.346	3074
826.485	3070
826.625	3089
826.765	3291
826.904	3222
827.044	3051
827.183	2910
827.323	2891
827.462	2971
827.601	2929
827.741	2937
827.88	2937
828.02	2815
828.159	2971
828.298	3039
828.437	3150
828.577	3066
828.716	3253
828.855	3062
828.994	2910
829.134	2922
829.273	2929
829.412	2834
829.551	2857
829.69	2922
829.829	2986
829.968	3123
830.107	3043
830.246	2998
830.385	2906
830.524	2872
830.663	2823
830.802	2758
830.941	2636
831.08	2655
831.219	2754
831.357	2705
831.496	2975
831.635	2708
831.774	2621
831.913	2667
832.051	2545
832.19	2575
832.329	2651
832.467	2530
832.606	2541
832.744	2587
832.883	2571
833.022	2598
833.16	2632
833.299	2716
833.437	2693
833.576	2697
833.714	2693
833.852	2724
833.991	2724
834.129	2861
834.267	2845
834.406	2792
834.544	2883
834.682	2880
834.821	2864
834.959	3066
835.097	2872
835.235	3066
835.373	2998
835.511	2998
835.65	2952
835.788	2937
835.926	2876
836.064	2796
836.202	2819
836.34	3039
836.478	3119
836.615	3036
836.753	3138
836.891	3203
837.029	3127
837.167	3119
837.305	3058
837.443	3001
837.58	2975
837.718	3150
837.856	3062
837.993	3039
838.131	3116
838.269	3100
838.406	3131
838.544	3043
838.681	2967
838.819	2914
838.956	2811
839.094	2785
839.231	2902
839.369	2986
839.506	3393
839.643	3211
839.781	3028
839.918	2956
840.055	3032
840.193	3039
840.33	3028
840.467	3104
840.604	3165
840.742	3378
840.879	3020
841.016	3058
841.153	3100
841.29	3332
841.427	3302
841.564	3264
841.701	3264
841.838	3237
841.975	3180
842.112	3211
842.249	3062
842.385	3055
842.522	3245
842.659	3028
842.796	3081
842.933	3074
843.069	3055
843.206	3009
843.343	3146
843.479	3108
843.616	3093
843.752	2910
843.889	2845
844.025	3070
844.162	2861
844.298	3070
844.435	2937
844.571	2944
844.708	3055
844.844	3176
844.98	3230
845.117	3192
845.253	3047
845.389	2994
845.525	3085
845.661	3077
845.798	2998
845.934	3112
846.07	3074
846.206	3222
846.342	3310
846.478	3260
846.614	3100
846.75	3062
846.886	3024
847.022	3222
847.158	3131
847.294	3214
847.429	3260
847.565	3188
847.701	3500
847.837	3013
847.972	2990
848.108	3154
848.244	3184
848.379	2979
848.515	2956
848.65	2929
848.786	2944
848.921	3028
849.057	3104
849.192	3135
849.328	3074
849.463	3093
849.598	3074
849.734	3017
849.869	2998
850.004	2895
850.14	2941
850.275	2899
850.41	2842
850.545	2861
850.68	2944
850.815	2979
850.95	2986
851.085	3184
851.22	3127
851.355	3081
851.49	2986
851.625	3001
851.76	3009
851.895	2902
852.03	2883
852.165	3036
852.299	3142
852.434	3188
852.569	3138
852.703	3161
852.838	3260
852.973	3313
853.107	3317
853.242	3123
853.376	3074
853.511	2929
853.645	3028
853.78	3260
853.914	3077
854.048	3119
854.183	3104
854.317	3138
854.451	3283
854.585	3104
854.72	3070
854.854	3211
854.988	3043
855.122	3093
855.256	2975
855.39	3131
855.524	3241
855.658	3195
855.792	3157
855.926	3192
856.06	3207
856.194	3272
856.327	3157
856.461	3097
856.595	3058
856.729	3077
856.862	3241
856.996	3119
857.13	3192
857.263	3233
857.397	3245
857.53	3093
857.664	3176
857.797	3237
857.931	3268
858.064	3150
858.197	3180
858.331	3077
858.464	3074
858.597	3017
858.731	3127
858.864	3138
858.997	3077
859.13	3154
859.263	3192
859.396	3188
859.529	3055
859.662	3032
859.795	3024
859.928	3127
860.061	3279
860.194	3275
860.327	3093
860.46	3081
860.592	3237
860.725	3214
860.858	3249
860.99	3100
861.123	3062
861.256	3039
861.388	3146
861.521	3732
861.653	3028
861.786	3013
861.918	3005
862.05	3077
862.183	3085
862.315	3112
862.447	3226
862.58	3100
862.712	2952
862.844	2872
862.976	3017
863.108	3013
863.24	3313
863.372	2857
863.504	2937
863.636	2975
863.768	2990
863.9	2982
864.032	2906
864.164	2963
864.296	3028
864.428	3066
864.559	3097
864.691	3074
864.823	3104
864.954	3047
865.086	3013
865.217	3009
865.349	2925
865.48	2960
865.612	3009
865.743	3116
865.875	2952
866.006	2906
866.137	2956
866.269	2937
866.4	2948
866.531	2910
866.662	2918
866.793	2880
866.924	2910
867.055	2960
867.186	2918
867.317	2891
867.448	2861
867.579	2842
867.71	2845
867.841	2811
867.972	2918
868.103	2895
868.233	2887
868.364	2849
868.495	2868
868.625	3043
868.756	3165
868.886	2986
869.017	3017
869.147	3195
869.278	3188
869.408	3017
869.539	3036
869.669	3074
869.799	3047
869.929	3104
870.06	3127
870.19	3302
870.32	3306
870.45	3291
870.58	3370
870.71	3401
870.84	3424
870.97	3291
871.1	3245
871.23	3492
871.36	3412
871.489	3348
871.619	3397
871.749	3397
871.879	3420
872.008	3496
872.138	3340
872.267	3272
872.397	3150
872.526	3097
872.656	3039
872.785	3097
872.915	3218
873.044	3332
873.173	3233
873.303	3180
873.432	3214
873.561	3180
873.69	3154
873.819	3135
873.948	3218
874.077	3093
874.206	3070
874.335	3062
874.464	3214
874.593	3351
874.722	3222
874.851	3389
874.979	3351
875.108	3348
875.237	3180
875.365	3180
875.494	3192
875.623	3211
875.751	3116
875.88	3097
876.008	3192
876.136	3245
876.265	3317
876.393	3488
876.521	3409
876.65	3416
876.778	3344
876.906	3195
877.034	3150
877.162	3199
877.29	3173
877.418	3230
877.546	3264
877.674	3222
877.802	3260
877.93	3245
878.058	3150
878.185	3119
878.313	3180
878.441	3173
878.568	3058
878.696	3127
878.824	3256
878.951	3275
879.079	3416
879.206	3606
879.333	3435
879.461	3313
879.588	3325
879.715	3481
879.842	3606
879.97	3409
880.097	3154
880.224	3135
880.351	3184
880.478	3173
880.605	3154
880.732	3184
880.859	3477
880.986	3317
881.112	3321
881.239	3203
881.366	3081
881.493	3055
881.619	3028
881.746	3062
881.872	3112
881.999	3108
882.125	3150
882.252	3272
882.378	3241
882.505	3397
882.631	3279
882.757	3150
882.883	3188
883.01	3195
883.136	3157
883.262	3108
883.388	3093
883.514	3272
883.64	3378
883.766	3321
883.892	3184
884.018	3218
884.143	3363
884.269	3500
884.395	3195
884.52	3135
884.646	3142
884.772	3108
884.897	3077
885.023	3180
885.148	3294
885.274	3409
885.399	3351
885.524	3272
885.65	3253
885.775	3283
885.9	3241
886.025	3439
886.15	3336
886.275	3279
886.4	3226
886.525	3298
886.65	3272
886.775	3283
886.9	3511
887.025	3614
887.149	3397
887.274	3195
887.399	3154
887.523	3169
887.648	3203
887.773	3199
887.897	3386
888.021	3393
888.146	3291
888.27	3420
888.395	3526
888.519	3439
888.643	3428
888.767	3397
888.891	3264
889.015	3275
889.139	3268
889.263	3230
889.387	3405
889.511	3485
889.635	3431
889.759	3298
889.883	3325
890.006	3374
890.13	3500
890.254	3253
890.377	3317
890.501	3195
890.624	3211
890.748	3306
890.871	3173
890.995	3081
891.118	3043
891.241	3157
891.364	3207
891.488	3313
891.611	3161
891.734	3249
891.857	3260
891.98	3272
892.103	3298
892.226	3249
892.349	3169
892.471	3089
892.594	3249
892.717	3272
892.839	3249
892.962	3294
893.085	3370
893.207	3275
893.33	3123
893.452	3161
893.575	3329
893.697	3233
893.819	3431
893.941	3515
894.064	3477
894.186	3230
894.308	3298
894.43	3420
894.552	3538
894.674	3466
894.796	3253
894.918	3310
895.04	3294
895.161	3409
895.283	3340
895.405	3283
895.526	3355
895.648	3367
895.769	3378
895.891	3439
896.012	3477
896.134	3515
896.255	3435
896.376	3378
896.498	3332
896.619	3458
896.74	3359
896.861	3389
896.982	3660
897.103	3850
897.224	3542
897.345	3485
897.466	3458
897.587	3466
897.708	3572
897.828	3534
897.949	3412
898.07	3336
898.19	3378
898.311	3587
898.431	3454
898.552	3504
898.672	3599
898.792	3561
898.913	3523
899.033	3389
899.153	3268
899.273	3230
899.393	3264
899.513	3275
899.633	3344
899.753	3279
899.873	3306
899.993	3389
900.113	3329
900.232	3370
900.352	3344
900.472	3287
900.591	3138
900.711	3283
900.83	3203
900.95	3401
901.069	3469
901.189	3348
901.308	3192
901.427	3123
901.546	3184
901.665	3310
901.784	3340
901.904	3203
902.023	3112
902.141	3001
902.26	2986
902.379	3112
902.498	3013
902.617	3028
902.735	3218
902.854	3233
902.973	3150
903.091	3043
903.21	3036
903.328	3108
903.446	3108
903.565	3055
903.683	3195
903.801	3074
903.919	3275
904.038	3256
904.156	3173
904.274	3253
904.392	3226
904.51	3287
904.627	3275
904.745	3401
904.863	3450
904.981	3287
905.098	3154
905.216	3226
905.334	3287
905.451	3313
905.569	3302
905.686	3401
905.803	3416
905.921	3294
906.038	3393
906.155	3348
906.272	3226
906.389	3325
906.506	3203
906.623	3222
906.74	3260
906.857	3173
906.974	3230
907.091	3435
907.208	3557
907.324	3469
907.441	3412
907.557	3207
907.674	3237
907.79	3176
907.907	3256
908.023	3370
908.139	3412
908.256	3306
908.372	3329
908.488	3363
908.604	3275
908.72	3192
908.836	3268
908.952	3283
909.068	3302
909.184	3469
909.3	3363
909.415	3481
909.531	3473
909.647	3241
909.762	3230
909.878	3249
909.993	3340
910.108	3294
910.224	3317
910.339	3412
910.454	3298
910.57	3294
910.685	3256
910.8	3580
910.915	3511
911.03	3412
911.145	3260
911.259	3241
911.374	3317
911.489	3226
911.604	3245
911.718	3097
911.833	3116
911.947	3028
912.062	2975
912.176	3135
912.291	3173
912.405	3199
912.519	3424
912.633	3450
912.748	3332
912.862	3249
912.976	3176
913.09	3051
913.204	3131
913.318	3237
913.431	3302
913.545	3302
913.659	3378
913.772	3332
913.886	3249
914	3230
914.113	3367
914.226	3359
914.34	3348
914.453	3211
914.566	3382
914.68	3294
914.793	3359
914.906	3135
915.019	3112
915.132	3119
915.245	3169
915.358	3241
915.47	3237
915.583	3287
915.696	3264
915.809	3409
915.921	3443
916.034	3268
916.146	3313
916.259	3256
916.371	3405
916.483	3416
916.595	3298
916.708	3370
916.82	3344
916.932	3363
917.044	3351
917.156	3386
917.268	3291
917.38	3344
917.491	3310
917.603	3405
917.715	3507
917.826	3477
917.938	3443
918.049	3321
918.161	3431
918.272	3572
918.384	3625
918.495	3553
918.606	3374
918.717	3344
918.828	3420
918.939	3466
919.05	3367
919.161	3386
919.272	3180
919.383	3306
919.494	3549
919.604	3747
919.715	3500
919.826	3424
919.936	3485
920.047	3599
920.157	3614
920.267	3789
920.378	3667
920.488	3595
920.598	3800
920.708	3972
920.818	3892
920.928	3857
921.038	4090
921.148	4017
921.258	3755
921.368	3663
921.477	3603
921.587	3564
921.697	3481
921.806	3675
921.916	3572
922.025	3424
922.134	3409
922.244	3348
922.353	3435
922.462	3310
922.571	3268
922.68	3154
922.789	3127
922.898	3180
923.007	3157
923.116	3222
923.224	3237
923.333	3214
923.442	3165
923.55	3127
923.659	3222
923.767	3233
923.876	3135
923.984	3275
924.092	3150
924.201	3241
924.309	3279
924.417	3302
924.525	3237
924.633	3253
924.741	4017
924.849	3100
924.956	3294
925.064	3112
925.172	3077
925.279	3112
925.387	3249
925.494	3222
925.602	3389
925.709	3348
925.816	3264
925.924	3344
926.031	3393
926.138	3363
926.245	3355
926.352	3321
926.459	3466
926.566	3511
926.673	3351
926.779	3306
926.886	3230
926.993	3184
927.099	3157
927.206	3135
927.312	3180
927.419	3249
927.525	3237
927.631	3329
927.737	3188
927.843	3169
927.95	3055
928.056	3176
928.162	3233
928.267	3253
928.373	3911
928.479	3317
928.585	3119
928.69	3253
928.796	3291
928.901	3211
929.007	3043
929.112	3275
929.218	3176
929.323	3154
929.428	3169
929.533	3348
929.638	3131
929.743	3237
929.848	3272
929.953	3237
930.058	3180
930.163	2986
930.267	3058
930.372	3207
930.477	3039
930.581	3340
930.685	3211
930.79	3097
930.894	3169
930.998	3131
931.103	3313
931.207	3009
931.311	2971
931.415	2975
931.519	2826
931.623	2857
