Data from test_V78500241_925.txt Node
Date: Fri Mar 25 16:21:36 CST 2022
User: usil
Spectrometer: V785-0024
Trigger mode: 0
Integration Time (sec): 4.000000E-1
Scans to average: 1
Nonlinearity correction enabled: false
Boxcar width: 0
Storing dark spectrum: false
XAxis mode: Wavelengths
Number of Pixels in Spectrum: 1024
>>>>>Begin Spectral Data<<<<<
801.071	2922
801.214	2918
801.356	2849
801.499	2906
801.641	2842
801.783	2944
801.926	3051
802.068	2956
802.211	3009
802.353	3017
802.496	2933
802.638	3005
802.78	3039
802.923	3058
803.065	2994
803.208	2887
803.35	2902
803.492	2929
803.635	2914
803.777	2766
803.919	2861
804.061	3161
804.204	2922
804.346	2899
804.488	2830
804.63	2963
804.773	2853
804.915	2948
805.057	3119
805.199	2922
805.341	2979
805.483	3043
805.626	2990
805.768	2975
805.91	3070
806.052	3051
806.194	3062
806.336	3256
806.478	3036
806.62	2941
806.762	2944
806.904	3043
807.046	3123
807.188	2975
807.33	2929
807.472	2979
807.614	2902
807.756	2990
807.898	2925
808.04	2910
808.182	2963
808.324	2956
808.465	2922
808.607	2861
808.749	2781
808.891	2845
809.033	2948
809.174	2948
809.316	2914
809.458	2876
809.6	2773
809.741	2750
809.883	2796
810.025	2834
810.166	2868
810.308	2807
810.45	2857
810.591	2773
810.733	2773
810.875	2807
811.016	2796
811.158	2773
811.299	2826
811.441	2941
811.582	2868
811.724	2815
811.865	2819
812.007	2922
812.148	2864
812.29	2853
812.431	2918
812.573	2937
812.714	2960
812.855	3032
812.997	3066
813.138	3100
813.279	2986
813.421	2963
813.562	2963
813.703	2876
813.845	2883
813.986	2796
814.127	2727
814.268	2853
814.41	2880
814.551	2788
814.692	2883
814.833	2826
814.974	2918
815.115	2971
815.256	2834
815.397	2804
815.539	2883
815.68	2773
815.821	2750
815.962	2952
816.103	2914
816.244	2868
816.385	2899
816.526	2941
816.666	2918
816.807	2754
816.948	2845
817.089	2937
817.23	2804
817.371	2746
817.512	2769
817.653	2845
817.793	2815
817.934	2880
818.075	2979
818.216	2975
818.356	3013
818.497	2895
818.638	2781
818.778	2830
818.919	2811
819.06	2739
819.2	2857
819.341	2766
819.481	2777
819.622	2925
819.762	3100
819.903	3020
820.043	2914
820.184	2899
820.324	2929
820.465	2986
820.605	3047
820.746	2998
820.886	2922
821.026	3123
821.167	3135
821.307	3264
821.447	3291
821.588	3233
821.728	3222
821.868	3184
822.008	3100
822.149	3169
822.289	3268
822.429	3047
822.569	3036
822.709	3192
822.849	3005
822.99	3074
823.13	3161
823.27	3226
823.41	3100
823.55	3154
823.69	3150
823.83	3211
823.97	3104
824.11	2971
824.25	3013
824.389	3051
824.529	3112
824.669	3085
824.809	3207
824.949	3249
825.089	3199
825.228	3154
825.368	3005
825.508	2963
825.648	2960
825.787	2979
825.927	3001
826.067	2956
826.206	2967
826.346	3020
826.485	3039
826.625	3085
826.765	3226
826.904	3207
827.044	2971
827.183	2914
827.323	2845
827.462	2979
827.601	2906
827.741	2933
827.88	2971
828.02	2838
828.159	2982
828.298	3055
828.437	3116
828.577	3039
828.716	3233
828.855	3081
828.994	2918
829.134	2880
829.273	2902
829.412	2842
829.551	2823
829.69	2895
829.829	2963
829.968	3104
830.107	3024
830.246	3001
830.385	2887
830.524	2872
830.663	2804
830.802	2705
830.941	2670
831.08	2678
831.219	2762
831.357	2758
831.496	2910
831.635	2701
831.774	2655
831.913	2644
832.051	2571
832.19	2564
832.329	2663
832.467	2556
832.606	2454
832.744	2590
832.883	2530
833.022	2552
833.16	2625
833.299	2674
833.437	2701
833.576	2659
833.714	2720
833.852	2697
833.991	2750
834.129	2849
834.267	2842
834.406	2807
834.544	2845
834.682	2891
834.821	2880
834.959	3051
835.097	2872
835.235	3097
835.373	2998
835.511	3001
835.65	2994
835.788	2941
835.926	2826
836.064	2807
836.202	2823
836.34	3108
836.478	3135
836.615	3028
836.753	3157
836.891	3173
837.029	3127
837.167	3097
837.305	3093
837.443	3032
837.58	2941
837.718	3135
837.856	3055
837.993	3028
838.131	3100
838.269	3062
838.406	3108
838.544	3036
838.681	2963
838.819	2902
838.956	2777
839.094	2796
839.231	2891
839.369	3005
839.506	3367
839.643	3214
839.781	2982
839.918	2948
840.055	3051
840.193	3043
840.33	3017
840.467	3108
840.604	3150
840.742	3374
840.879	3051
841.016	3047
841.153	3146
841.29	3378
841.427	3268
841.564	3256
841.701	3313
841.838	3237
841.975	3131
842.112	3188
842.249	3047
842.385	3047
842.522	3241
842.659	3074
842.796	3055
842.933	3085
843.069	3051
843.206	3017
843.343	3176
843.479	3085
843.616	3119
843.752	2868
843.889	2853
844.025	3104
844.162	2842
844.298	3097
844.435	2933
844.571	2883
844.708	3051
844.844	3142
844.98	3199
845.117	3184
845.253	3070
845.389	2982
845.525	3089
845.661	3100
845.798	2982
845.934	3161
846.07	3055
846.206	3237
846.342	3275
846.478	3260
846.614	3085
846.75	3074
846.886	3039
847.022	3226
847.158	3138
847.294	3230
847.429	3237
847.565	3203
847.701	3466
847.837	3036
847.972	2990
848.108	3188
848.244	3142
848.379	2990
848.515	2948
848.65	2933
848.786	2994
848.921	2956
849.057	3089
849.192	3150
849.328	3081
849.463	3081
849.598	3081
849.734	3043
849.869	2967
850.004	2883
850.14	2979
850.275	2891
850.41	2838
850.545	2880
850.68	2910
850.815	2948
850.95	2933
851.085	3169
851.22	3123
851.355	3020
851.49	2979
851.625	2979
851.76	3001
851.895	2933
852.03	2910
852.165	3047
852.299	3089
852.434	3169
852.569	3127
852.703	3161
852.838	3230
852.973	3351
853.107	3283
853.242	3138
853.376	3119
853.511	2952
853.645	3028
853.78	3207
853.914	3104
854.048	3089
854.183	3055
854.317	3123
854.451	3279
854.585	3119
854.72	3070
854.854	3195
854.988	3028
855.122	3089
855.256	2925
855.39	3081
855.524	3211
855.658	3127
855.792	3127
855.926	3157
856.06	3218
856.194	3226
856.327	3119
856.461	3104
856.595	3104
856.729	3066
856.862	3161
856.996	3104
857.13	3157
857.263	3241
857.397	3306
857.53	3116
857.664	3203
857.797	3241
857.931	3272
858.064	3161
858.197	3176
858.331	3108
858.464	3093
858.597	3017
858.731	3097
858.864	3070
858.997	3039
859.13	3146
859.263	3142
859.396	3188
859.529	3104
859.662	3028
859.795	3032
859.928	3138
860.061	3249
860.194	3268
860.327	3108
860.46	3081
860.592	3237
860.725	3245
860.858	3226
860.99	3131
861.123	3039
861.256	3028
861.388	3150
861.521	3804
861.653	2998
861.786	2986
861.918	3020
862.05	3074
862.183	3077
862.315	3135
862.447	3207
862.58	3108
862.712	2914
862.844	2876
862.976	2986
863.108	3013
863.24	3310
863.372	2868
863.504	2929
863.636	2952
863.768	2994
863.9	2982
864.032	2922
864.164	2956
864.296	2971
864.428	3089
864.559	3070
864.691	3077
864.823	3055
864.954	3043
865.086	3013
865.217	3009
865.349	2941
865.48	2975
865.612	3039
865.743	3135
865.875	2952
866.006	2922
866.137	2979
866.269	2963
866.4	2956
866.531	2887
866.662	2902
866.793	2872
866.924	2876
867.055	2975
867.186	2895
867.317	2891
867.448	2857
867.579	2826
867.71	2845
867.841	2804
867.972	2853
868.103	2902
868.233	2895
868.364	2868
868.495	2910
868.625	3047
868.756	3150
868.886	2979
869.017	2979
869.147	3169
869.278	3146
869.408	3024
869.539	3036
869.669	3055
869.799	3043
869.929	3093
870.06	3055
870.19	3256
870.32	3279
870.45	3294
870.58	3332
870.71	3386
870.84	3469
870.97	3291
871.1	3214
871.23	3435
871.36	3473
871.489	3336
871.619	3370
871.749	3424
871.879	3447
872.008	3462
872.138	3359
872.267	3260
872.397	3123
872.526	3108
872.656	2986
872.785	3097
872.915	3176
873.044	3283
873.173	3195
873.303	3245
873.432	3279
873.561	3230
873.69	3146
873.819	3112
873.948	3192
874.077	3100
874.206	3036
874.335	3062
874.464	3214
874.593	3351
874.722	3256
874.851	3378
874.979	3374
875.108	3340
875.237	3180
875.365	3154
875.494	3184
875.623	3245
875.751	3089
875.88	3112
876.008	3165
876.136	3222
876.265	3348
876.393	3462
876.521	3405
876.65	3386
876.778	3340
876.906	3230
877.034	3195
877.162	3192
877.29	3180
877.418	3233
877.546	3256
877.674	3214
877.802	3230
877.93	3195
878.058	3180
878.185	3081
878.313	3222
878.441	3207
878.568	3066
878.696	3100
878.824	3226
878.951	3325
879.079	3435
879.206	3625
879.333	3401
879.461	3317
879.588	3344
879.715	3454
879.842	3587
879.97	3344
880.097	3176
880.224	3062
880.351	3214
880.478	3199
880.605	3222
880.732	3214
880.859	3473
880.986	3275
881.112	3344
881.239	3218
881.366	3077
881.493	3013
881.619	2967
881.746	3055
881.872	3112
881.999	3123
882.125	3116
882.252	3207
882.378	3302
882.505	3405
882.631	3264
882.757	3161
882.883	3176
883.01	3203
883.136	3135
883.262	3066
883.388	3135
883.514	3321
883.64	3348
883.766	3310
883.892	3176
884.018	3188
884.143	3389
884.269	3511
884.395	3165
884.52	3150
884.646	3188
884.772	3093
884.897	3055
885.023	3214
885.148	3321
885.274	3389
885.399	3344
885.524	3253
885.65	3241
885.775	3332
885.9	3291
886.025	3443
886.15	3351
886.275	3272
886.4	3275
886.525	3325
886.65	3268
886.775	3275
886.9	3515
887.025	3629
887.149	3378
887.274	3256
887.399	3207
887.523	3230
887.648	3146
887.773	3199
887.897	3367
888.021	3386
888.146	3287
888.27	3424
888.395	3549
888.519	3435
888.643	3450
888.767	3428
888.891	3298
889.015	3207
889.139	3291
889.263	3249
889.387	3329
889.511	3515
889.635	3435
889.759	3310
889.883	3329
890.006	3378
890.13	3477
890.254	3253
890.377	3374
890.501	3249
890.624	3176
890.748	3272
890.871	3176
890.995	3119
891.118	3013
891.241	3211
891.364	3253
891.488	3336
891.611	3188
891.734	3188
891.857	3310
891.98	3256
892.103	3313
892.226	3298
892.349	3203
892.471	3100
892.594	3214
892.717	3279
892.839	3249
892.962	3294
893.085	3351
893.207	3294
893.33	3135
893.452	3173
893.575	3306
893.697	3253
893.819	3492
893.941	3481
894.064	3469
894.186	3233
894.308	3233
894.43	3443
894.552	3492
894.674	3458
894.796	3260
894.918	3291
895.04	3310
895.161	3386
895.283	3424
895.405	3302
895.526	3378
895.648	3401
895.769	3450
895.891	3454
896.012	3428
896.134	3481
896.255	3393
896.376	3374
896.498	3340
896.619	3435
896.74	3332
896.861	3374
896.982	3656
897.103	3861
897.224	3545
897.345	3507
897.466	3355
897.587	3500
897.708	3622
897.828	3523
897.949	3420
898.07	3310
898.19	3401
898.311	3580
898.431	3450
898.552	3515
898.672	3587
898.792	3553
898.913	3519
899.033	3424
899.153	3279
899.273	3214
899.393	3253
899.513	3291
899.633	3329
899.753	3332
899.873	3283
899.993	3359
900.113	3325
900.232	3370
900.352	3317
900.472	3272
900.591	3142
900.711	3256
900.83	3214
900.95	3405
901.069	3500
901.189	3367
901.308	3165
901.427	3131
901.546	3161
901.665	3298
901.784	3332
901.904	3176
902.023	3127
902.141	3043
902.26	3005
902.379	3116
902.498	3058
902.617	3032
902.735	3173
902.854	3211
902.973	3192
903.091	3047
903.21	3058
903.328	3108
903.446	3135
903.565	3119
903.683	3176
903.801	3127
903.919	3233
904.038	3272
904.156	3150
904.274	3283
904.392	3237
904.51	3283
904.627	3302
904.745	3416
904.863	3485
904.981	3272
905.098	3165
905.216	3176
905.334	3283
905.451	3291
905.569	3306
905.686	3401
905.803	3439
905.921	3287
906.038	3428
906.155	3351
906.272	3264
906.389	3275
906.506	3245
906.623	3218
906.74	3287
906.857	3138
906.974	3226
907.091	3447
907.208	3523
907.324	3466
907.441	3386
907.557	3222
907.674	3249
907.79	3184
907.907	3287
908.023	3386
908.139	3363
908.256	3332
908.372	3340
908.488	3363
908.604	3249
908.72	3180
908.836	3256
908.952	3245
909.068	3321
909.184	3458
909.3	3386
909.415	3500
909.531	3469
909.647	3268
909.762	3306
909.878	3253
909.993	3329
910.108	3348
910.224	3317
910.339	3344
910.454	3302
910.57	3264
910.685	3214
910.8	3584
910.915	3519
911.03	3378
911.145	3245
911.259	3279
911.374	3317
911.489	3211
911.604	3230
911.718	3097
911.833	3119
911.947	3001
912.062	2960
912.176	3173
912.291	3203
912.405	3180
912.519	3424
912.633	3447
912.748	3332
912.862	3233
912.976	3150
913.09	3043
913.204	3138
913.318	3188
913.431	3332
913.545	3275
913.659	3355
913.772	3325
913.886	3207
914	3199
914.113	3367
914.226	3363
914.34	3374
914.453	3222
914.566	3367
914.68	3256
914.793	3287
914.906	3135
915.019	3100
915.132	3051
915.245	3154
915.358	3176
915.47	3218
915.583	3256
915.696	3264
915.809	3397
915.921	3409
916.034	3268
916.146	3260
916.259	3218
916.371	3382
916.483	3348
916.595	3294
916.708	3329
916.82	3272
916.932	3298
917.044	3340
917.156	3302
917.268	3268
917.38	3340
917.491	3306
917.603	3367
917.715	3466
917.826	3424
917.938	3401
918.049	3260
918.161	3397
918.272	3599
918.384	3599
918.495	3481
918.606	3355
918.717	3272
918.828	3424
918.939	3439
919.05	3321
919.161	3401
919.272	3226
919.383	3287
919.494	3515
919.604	3720
919.715	3511
919.826	3454
919.936	3481
920.047	3618
920.157	3561
920.267	3823
920.378	3618
920.488	3553
920.598	3816
920.708	4002
920.818	3865
920.928	3880
921.038	4063
921.148	4025
921.258	3770
921.368	3682
921.477	3641
921.587	3587
921.697	3507
921.806	3652
921.916	3610
922.025	3386
922.134	3424
922.244	3389
922.353	3473
922.462	3283
922.571	3256
922.68	3150
922.789	3142
922.898	3154
923.007	3157
923.116	3249
923.224	3214
923.333	3180
923.442	3173
923.55	3173
923.659	3176
923.767	3245
923.876	3138
923.984	3272
924.092	3150
924.201	3226
924.309	3249
924.417	3283
924.525	3207
924.633	3325
924.741	4246
924.849	3100
924.956	3329
925.064	3123
925.172	3070
925.279	3150
925.387	3233
925.494	3214
925.602	3401
925.709	3370
925.816	3230
925.924	3287
926.031	3409
926.138	3389
926.245	3363
926.352	3313
926.459	3439
926.566	3504
926.673	3332
926.779	3313
926.886	3275
926.993	3176
927.099	3150
927.206	3150
927.312	3154
927.419	3253
927.525	3241
927.631	3329
927.737	3165
927.843	3161
927.95	3066
928.056	3154
928.162	3230
928.267	3264
928.373	3911
928.479	3348
928.585	3089
928.69	3211
928.796	3283
928.901	3230
929.007	3093
929.112	3207
929.218	3214
929.323	3173
929.428	3184
929.533	3332
929.638	3173
929.743	3199
929.848	3272
929.953	3241
930.058	3104
930.163	3028
930.267	3051
930.372	3230
930.477	3058
930.581	3355
930.685	3203
930.79	3093
930.894	3161
930.998	3119
931.103	3344
931.207	2994
931.311	3001
931.415	2944
931.519	2823
931.623	2838
