Data from test_V78500241_1780.txt Node
Date: Fri Mar 25 16:27:32 CST 2022
User: usil
Spectrometer: V785-0024
Trigger mode: 0
Integration Time (sec): 4.000000E-1
Scans to average: 1
Nonlinearity correction enabled: false
Boxcar width: 0
Storing dark spectrum: false
XAxis mode: Wavelengths
Number of Pixels in Spectrum: 1024
>>>>>Begin Spectral Data<<<<<
801.071	2887
801.214	2979
801.356	2902
801.499	2914
801.641	2922
801.783	2952
801.926	3062
802.068	2994
802.211	3020
802.353	3074
802.496	2986
802.638	3024
802.78	3081
802.923	3085
803.065	3039
803.208	2925
803.35	2933
803.492	2963
803.635	2944
803.777	2815
803.919	2868
804.061	3211
804.204	2975
804.346	2937
804.488	2868
804.63	2998
804.773	2906
804.915	2948
805.057	3127
805.199	2971
805.341	3017
805.483	3066
805.626	2998
805.768	3005
805.91	3161
806.052	3135
806.194	3074
806.336	3249
806.478	3062
806.62	2998
806.762	2994
806.904	3123
807.046	3241
807.188	3017
807.33	2933
807.472	3055
807.614	2944
807.756	2975
807.898	2952
808.04	2925
808.182	3001
808.324	2979
808.465	2891
808.607	2922
808.749	2815
808.891	2861
809.033	3036
809.174	3001
809.316	2925
809.458	2933
809.6	2788
809.741	2788
809.883	2766
810.025	2883
810.166	2876
810.308	2876
810.45	2876
810.591	2823
810.733	2800
810.875	2864
811.016	2826
811.158	2811
811.299	2864
811.441	2925
811.582	2941
811.724	2845
811.865	2872
812.007	2967
812.148	2937
812.29	2868
812.431	2918
812.573	2990
812.714	2982
812.855	3074
812.997	3093
813.138	3150
813.279	3032
813.421	3020
813.562	2982
813.703	2925
813.845	2918
813.986	2826
814.127	2754
814.268	2845
814.41	2876
814.551	2823
814.692	2910
814.833	2868
814.974	2937
815.115	2967
815.256	2838
815.397	2845
815.539	2868
815.68	2811
815.821	2826
815.962	2952
816.103	2971
816.244	2937
816.385	2872
816.526	3017
816.666	2944
816.807	2769
816.948	2937
817.089	2971
817.23	2906
817.371	2857
817.512	2823
817.653	2872
817.793	2868
817.934	2910
818.075	2979
818.216	2967
818.356	3032
818.497	2929
818.638	2864
818.778	2861
818.919	2838
819.06	2773
819.2	2906
819.341	2857
819.481	2819
819.622	2994
819.762	3108
819.903	3074
820.043	2967
820.184	2929
820.324	2971
820.465	3039
820.605	3028
820.746	3062
820.886	2956
821.026	3131
821.167	3184
821.307	3260
821.447	3340
821.588	3287
821.728	3214
821.868	3237
822.008	3123
822.149	3203
822.289	3287
822.429	3127
822.569	3108
822.709	3237
822.849	3074
822.99	3127
823.13	3184
823.27	3218
823.41	3127
823.55	3173
823.69	3180
823.83	3218
823.97	3154
824.11	3039
824.25	3058
824.389	3127
824.529	3161
824.669	3093
824.809	3245
824.949	3279
825.089	3249
825.228	3214
825.368	3047
825.508	2979
825.648	3005
825.787	3051
825.927	3043
826.067	2982
826.206	2944
826.346	3085
826.485	3077
826.625	3135
826.765	3287
826.904	3222
827.044	3020
827.183	2971
827.323	2861
827.462	3020
827.601	2941
827.741	2944
827.88	2971
828.02	2887
828.159	3005
828.298	3051
828.437	3169
828.577	3089
828.716	3313
828.855	3135
828.994	2925
829.134	2902
829.273	2971
829.412	2899
829.551	2918
829.69	2918
829.829	2994
829.968	3131
830.107	2998
830.246	3028
830.385	2979
830.524	2891
830.663	2845
830.802	2754
830.941	2693
831.08	2708
831.219	2773
831.357	2785
831.496	2948
831.635	2773
831.774	2686
831.913	2667
832.051	2598
832.19	2602
832.329	2689
832.467	2575
832.606	2507
832.744	2617
832.883	2613
833.022	2571
833.16	2678
833.299	2716
833.437	2701
833.576	2716
833.714	2792
833.852	2716
833.991	2788
834.129	2842
834.267	2826
834.406	2849
834.544	2868
834.682	2902
834.821	2853
834.959	3097
835.097	2944
835.235	3138
835.373	3051
835.511	3093
835.65	2979
835.788	3001
835.926	2861
836.064	2796
836.202	2849
836.34	3093
836.478	3161
836.615	3093
836.753	3135
836.891	3207
837.029	3180
837.167	3085
837.305	3081
837.443	3024
837.58	3005
837.718	3192
837.856	3116
837.993	3062
838.131	3146
838.269	3150
838.406	3070
838.544	3093
838.681	2948
838.819	2902
838.956	2826
839.094	2861
839.231	2933
839.369	3036
839.506	3367
839.643	3237
839.781	3020
839.918	2971
840.055	3104
840.193	3066
840.33	3077
840.467	3081
840.604	3131
840.742	3435
840.879	3055
841.016	3062
841.153	3157
841.29	3336
841.427	3287
841.564	3325
841.701	3351
841.838	3249
841.975	3184
842.112	3195
842.249	3112
842.385	3043
842.522	3283
842.659	3104
842.796	3081
842.933	3127
843.069	3058
843.206	3024
843.343	3192
843.479	3062
843.616	3161
843.752	2902
843.889	2891
844.025	3135
844.162	2925
844.298	3108
844.435	2994
844.571	2922
844.708	3108
844.844	3195
844.98	3283
845.117	3226
845.253	3062
845.389	3013
845.525	3131
845.661	3116
845.798	3013
845.934	3127
846.07	3131
846.206	3214
846.342	3313
846.478	3233
846.614	3104
846.75	3108
846.886	3062
847.022	3287
847.158	3165
847.294	3180
847.429	3279
847.565	3207
847.701	3481
847.837	3066
847.972	3009
848.108	3203
848.244	3184
848.379	2998
848.515	2971
848.65	2933
848.786	3013
848.921	3074
849.057	3127
849.192	3173
849.328	3097
849.463	3112
849.598	3081
849.734	3051
849.869	3005
850.004	2925
850.14	2937
850.275	2941
850.41	2899
850.545	2906
850.68	2990
850.815	2933
850.95	2979
851.085	3207
851.22	3116
851.355	3043
851.49	2967
851.625	3017
851.76	3020
851.895	2941
852.03	2929
852.165	3039
852.299	3135
852.434	3169
852.569	3123
852.703	3199
852.838	3272
852.973	3329
853.107	3321
853.242	3203
853.376	3116
853.511	3036
853.645	3039
853.78	3260
853.914	3138
854.048	3089
854.183	3131
854.317	3161
854.451	3298
854.585	3142
854.72	3062
854.854	3211
854.988	3070
855.122	3112
855.256	3017
855.39	3157
855.524	3245
855.658	3184
855.792	3180
855.926	3233
856.06	3230
856.194	3287
856.327	3127
856.461	3100
856.595	3081
856.729	3074
856.862	3226
856.996	3192
857.13	3188
857.263	3245
857.397	3272
857.53	3123
857.664	3184
857.797	3256
857.931	3283
858.064	3199
858.197	3192
858.331	3142
858.464	3135
858.597	2994
858.731	3131
858.864	3150
858.997	3108
859.13	3154
859.263	3184
859.396	3203
859.529	3093
859.662	3089
859.795	3055
859.928	3165
860.061	3283
860.194	3268
860.327	3161
860.46	3104
860.592	3218
860.725	3245
860.858	3237
860.99	3112
861.123	3074
861.256	3097
861.388	3161
861.521	3892
861.653	3013
861.786	3028
861.918	3013
862.05	3077
862.183	3100
862.315	3142
862.447	3199
862.58	3123
862.712	2929
862.844	2864
862.976	3036
863.108	3024
863.24	3332
863.372	2883
863.504	2986
863.636	2937
863.768	3017
863.9	2986
864.032	2902
864.164	2937
864.296	3036
864.428	3066
864.559	3112
864.691	3081
864.823	3062
864.954	2994
865.086	3058
865.217	3009
865.349	2941
865.48	3005
865.612	2990
865.743	3173
865.875	3013
866.006	2956
866.137	2986
866.269	2956
866.4	2967
866.531	2929
866.662	2914
866.793	2937
866.924	2914
867.055	2986
867.186	2952
867.317	2918
867.448	2857
867.579	2868
867.71	2891
867.841	2876
867.972	2960
868.103	2944
868.233	2891
868.364	2876
868.495	2906
868.625	3081
868.756	3192
868.886	3013
869.017	3047
869.147	3123
869.278	3157
869.408	3032
869.539	3017
869.669	3131
869.799	3093
869.929	3146
870.06	3085
870.19	3294
870.32	3310
870.45	3272
870.58	3416
870.71	3443
870.84	3504
870.97	3317
871.1	3230
871.23	3466
871.36	3473
871.489	3374
871.619	3454
871.749	3409
871.879	3462
872.008	3496
872.138	3367
872.267	3264
872.397	3138
872.526	3100
872.656	3028
872.785	3123
872.915	3233
873.044	3317
873.173	3253
873.303	3249
873.432	3275
873.561	3256
873.69	3192
873.819	3157
873.948	3180
874.077	3100
874.206	3055
874.335	3127
874.464	3233
874.593	3374
874.722	3283
874.851	3447
874.979	3340
875.108	3332
875.237	3180
875.365	3165
875.494	3150
875.623	3264
875.751	3108
875.88	3131
876.008	3180
876.136	3233
876.265	3393
876.393	3530
876.521	3412
876.65	3374
876.778	3359
876.906	3241
877.034	3203
877.162	3272
877.29	3192
877.418	3249
877.546	3260
877.674	3253
877.802	3241
877.93	3230
878.058	3127
878.185	3127
878.313	3222
878.441	3203
878.568	3070
878.696	3146
878.824	3264
878.951	3264
879.079	3431
879.206	3675
879.333	3405
879.461	3348
879.588	3409
879.715	3485
879.842	3610
879.97	3393
880.097	3142
880.224	3131
880.351	3176
880.478	3230
880.605	3195
880.732	3207
880.859	3496
880.986	3325
881.112	3329
881.239	3233
881.366	3085
881.493	3036
881.619	3039
881.746	3108
881.872	3077
881.999	3104
882.125	3142
882.252	3253
882.378	3313
882.505	3439
882.631	3291
882.757	3180
882.883	3199
883.01	3268
883.136	3199
883.262	3116
883.388	3104
883.514	3294
883.64	3355
883.766	3302
883.892	3207
884.018	3230
884.143	3397
884.269	3591
884.395	3176
884.52	3157
884.646	3188
884.772	3116
884.897	3123
885.023	3180
885.148	3321
885.274	3389
885.399	3397
885.524	3291
885.65	3256
885.775	3336
885.9	3283
886.025	3439
886.15	3374
886.275	3321
886.4	3222
886.525	3298
886.65	3268
886.775	3287
886.9	3530
887.025	3641
887.149	3416
887.274	3245
887.399	3188
887.523	3176
887.648	3199
887.773	3214
887.897	3351
888.021	3405
888.146	3283
888.27	3443
888.395	3530
888.519	3412
888.643	3454
888.767	3428
888.891	3317
889.015	3256
889.139	3283
889.263	3233
889.387	3409
889.511	3507
889.635	3431
889.759	3279
889.883	3291
890.006	3378
890.13	3485
890.254	3279
890.377	3313
890.501	3222
890.624	3165
890.748	3294
890.871	3176
890.995	3108
891.118	3085
891.241	3192
891.364	3176
891.488	3302
891.611	3192
891.734	3226
891.857	3287
891.98	3237
892.103	3325
892.226	3298
892.349	3173
892.471	3116
892.594	3222
892.717	3268
892.839	3256
892.962	3294
893.085	3332
893.207	3294
893.33	3135
893.452	3218
893.575	3348
893.697	3214
893.819	3469
893.941	3507
894.064	3458
894.186	3253
894.308	3287
894.43	3393
894.552	3542
894.674	3481
894.796	3256
894.918	3283
895.04	3287
895.161	3424
895.283	3378
895.405	3325
895.526	3351
895.648	3431
895.769	3435
895.891	3447
896.012	3431
896.134	3469
896.255	3420
896.376	3378
896.498	3382
896.619	3435
896.74	3363
896.861	3397
896.982	3705
897.103	3873
897.224	3580
897.345	3526
897.466	3435
897.587	3488
897.708	3603
897.828	3545
897.949	3450
898.07	3310
898.19	3409
898.311	3603
898.431	3447
898.552	3515
898.672	3614
898.792	3584
898.913	3523
899.033	3416
899.153	3256
899.273	3211
899.393	3268
899.513	3336
899.633	3317
899.753	3363
899.873	3313
899.993	3386
900.113	3313
900.232	3382
900.352	3340
900.472	3313
900.591	3203
900.711	3306
900.83	3203
900.95	3401
901.069	3488
901.189	3374
901.308	3161
901.427	3176
901.546	3154
901.665	3268
901.784	3344
901.904	3237
902.023	3150
902.141	3009
902.26	3001
902.379	3138
902.498	3070
902.617	3032
902.735	3176
902.854	3237
902.973	3203
903.091	3074
903.21	3047
903.328	3119
903.446	3108
903.565	3077
903.683	3192
903.801	3108
903.919	3218
904.038	3249
904.156	3161
904.274	3237
904.392	3253
904.51	3287
904.627	3329
904.745	3458
904.863	3538
904.981	3264
905.098	3173
905.216	3188
905.334	3279
905.451	3291
905.569	3302
905.686	3409
905.803	3443
905.921	3291
906.038	3397
906.155	3325
906.272	3313
906.389	3332
906.506	3233
906.623	3268
906.74	3245
906.857	3211
906.974	3237
907.091	3439
907.208	3576
907.324	3469
907.441	3401
907.557	3195
907.674	3233
907.79	3203
907.907	3298
908.023	3351
908.139	3363
908.256	3287
908.372	3370
908.488	3359
908.604	3226
908.72	3222
908.836	3302
908.952	3310
909.068	3298
909.184	3447
909.3	3393
909.415	3488
909.531	3477
909.647	3302
909.762	3279
909.878	3275
909.993	3359
910.108	3325
910.224	3351
910.339	3386
910.454	3378
910.57	3272
910.685	3233
910.8	3606
910.915	3485
911.03	3435
911.145	3245
911.259	3253
911.374	3351
911.489	3268
911.604	3214
911.718	3085
911.833	3100
911.947	3028
912.062	2941
912.176	3176
912.291	3180
912.405	3211
912.519	3447
912.633	3454
912.748	3336
912.862	3268
912.976	3157
913.09	3028
913.204	3135
913.318	3199
913.431	3313
913.545	3313
913.659	3374
913.772	3374
913.886	3192
914	3203
914.113	3370
914.226	3435
914.34	3355
914.453	3165
914.566	3393
914.68	3256
914.793	3313
914.906	3119
915.019	3123
915.132	3085
915.245	3192
915.358	3173
915.47	3222
915.583	3275
915.696	3302
915.809	3363
915.921	3382
916.034	3264
916.146	3241
916.259	3161
916.371	3389
916.483	3321
916.595	3279
916.708	3329
916.82	3329
916.932	3340
917.044	3340
917.156	3340
917.268	3241
917.38	3351
917.491	3279
917.603	3382
917.715	3462
917.826	3462
917.938	3332
918.049	3275
918.161	3420
918.272	3557
918.384	3538
918.495	3504
918.606	3321
918.717	3249
918.828	3370
918.939	3409
919.05	3294
919.161	3389
919.272	3154
919.383	3268
919.494	3469
919.604	3686
919.715	3458
919.826	3389
919.936	3500
920.047	3595
920.157	3542
920.267	3751
920.378	3614
920.488	3557
920.598	3816
920.708	3934
920.818	3827
920.928	3850
921.038	4044
921.148	3991
921.258	3698
921.368	3618
921.477	3549
921.587	3542
921.697	3454
921.806	3656
921.916	3519
922.025	3378
922.134	3321
922.244	3294
922.353	3405
922.462	3218
922.571	3233
922.68	3051
922.789	3055
922.898	3119
923.007	3085
923.116	3180
923.224	3165
923.333	3199
923.442	3108
923.55	3081
923.659	3127
923.767	3218
923.876	3104
923.984	3226
924.092	3089
924.201	3199
924.309	3207
924.417	3245
924.525	3184
924.633	3253
924.741	4067
924.849	3066
924.956	3306
925.064	3104
925.172	3047
925.279	3093
925.387	3165
925.494	3165
925.602	3351
925.709	3325
925.816	3188
925.924	3237
926.031	3389
926.138	3310
926.245	3351
926.352	3272
926.459	3401
926.566	3454
926.673	3344
926.779	3226
926.886	3249
926.993	3127
927.099	3058
927.206	3070
927.312	3104
927.419	3218
927.525	3138
927.631	3253
927.737	3142
927.843	3123
927.95	2960
928.056	3142
928.162	3150
928.267	3230
928.373	3873
928.479	3317
928.585	3043
928.69	3211
928.796	3264
928.901	3135
929.007	3047
929.112	3199
929.218	3199
929.323	3131
929.428	3154
929.533	3306
929.638	3116
929.743	3188
929.848	3260
929.953	3230
930.058	3131
930.163	2994
930.267	3043
930.372	3184
930.477	3036
930.581	3279
930.685	3195
930.79	3028
930.894	3097
930.998	3081
931.103	3256
931.207	2956
931.311	2948
931.415	2925
931.519	2762
931.623	2830
