Data from test_V78500241_1121.txt Node
Date: Fri Mar 25 16:22:58 CST 2022
User: usil
Spectrometer: V785-0024
Trigger mode: 0
Integration Time (sec): 4.000000E-1
Scans to average: 1
Nonlinearity correction enabled: false
Boxcar width: 0
Storing dark spectrum: false
XAxis mode: Wavelengths
Number of Pixels in Spectrum: 1024
>>>>>Begin Spectral Data<<<<<
801.071	2895
801.214	2960
801.356	2887
801.499	2895
801.641	2845
801.783	2906
801.926	3013
802.068	2990
802.211	3005
802.353	2994
802.496	2998
802.638	3017
802.78	3032
802.923	3017
803.065	2982
803.208	2880
803.35	2918
803.492	2941
803.635	2922
803.777	2735
803.919	2857
804.061	3203
804.204	2944
804.346	2906
804.488	2804
804.63	2971
804.773	2880
804.915	2937
805.057	3028
805.199	2963
805.341	2971
805.483	3039
805.626	3017
805.768	2979
805.91	3119
806.052	3097
806.194	3043
806.336	3272
806.478	3043
806.62	3001
806.762	2971
806.904	3058
807.046	3157
807.188	3001
807.33	2910
807.472	3001
807.614	2918
807.756	2979
807.898	2918
808.04	2902
808.182	2952
808.324	2975
808.465	2868
808.607	2876
808.749	2788
808.891	2853
809.033	2986
809.174	2998
809.316	2906
809.458	2880
809.6	2804
809.741	2716
809.883	2739
810.025	2857
810.166	2849
810.308	2853
810.45	2872
810.591	2762
810.733	2781
810.875	2845
811.016	2769
811.158	2766
811.299	2796
811.441	2918
811.582	2891
811.724	2842
811.865	2819
812.007	2887
812.148	2925
812.29	2876
812.431	2883
812.573	2895
812.714	2956
812.855	3036
812.997	3036
813.138	3108
813.279	3013
813.421	2998
813.562	2967
813.703	2876
813.845	2906
813.986	2785
814.127	2724
814.268	2819
814.41	2842
814.551	2796
814.692	2876
814.833	2830
814.974	2906
815.115	2990
815.256	2830
815.397	2796
815.539	2857
815.68	2758
815.821	2781
815.962	2929
816.103	2906
816.244	2880
816.385	2883
816.526	2963
816.666	2918
816.807	2762
816.948	2887
817.089	2914
817.23	2883
817.371	2811
817.512	2773
817.653	2853
817.793	2826
817.934	2834
818.075	2963
818.216	2975
818.356	3020
818.497	2914
818.638	2788
818.778	2830
818.919	2773
819.06	2754
819.2	2880
819.341	2845
819.481	2800
819.622	2906
819.762	3081
819.903	3051
820.043	2910
820.184	2910
820.324	2899
820.465	2979
820.605	3028
820.746	2986
820.886	2902
821.026	3135
821.167	3135
821.307	3272
821.447	3287
821.588	3249
821.728	3188
821.868	3192
822.008	3051
822.149	3184
822.289	3218
822.429	3055
822.569	3066
822.709	3169
822.849	3005
822.99	3043
823.13	3138
823.27	3180
823.41	3116
823.55	3123
823.69	3142
823.83	3116
823.97	3089
824.11	3043
824.25	2963
824.389	3043
824.529	3077
824.669	3024
824.809	3203
824.949	3237
825.089	3180
825.228	3142
825.368	3001
825.508	2963
825.648	2963
825.787	3066
825.927	2994
826.067	2960
826.206	2941
826.346	3051
826.485	3077
826.625	3066
826.765	3226
826.904	3211
827.044	2963
827.183	2941
827.323	2902
827.462	2975
827.601	2876
827.741	2937
827.88	2929
828.02	2823
828.159	2956
828.298	3043
828.437	3089
828.577	3043
828.716	3268
828.855	3055
828.994	2914
829.134	2895
829.273	2902
829.412	2872
829.551	2853
829.69	2891
829.829	2963
829.968	3142
830.107	3013
830.246	2975
830.385	2918
830.524	2857
830.663	2842
830.802	2724
830.941	2644
831.08	2655
831.219	2758
831.357	2758
831.496	2918
831.635	2674
831.774	2640
831.913	2636
832.051	2537
832.19	2552
832.329	2674
832.467	2552
832.606	2484
832.744	2598
832.883	2564
833.022	2602
833.16	2648
833.299	2686
833.437	2689
833.576	2693
833.714	2705
833.852	2731
833.991	2743
834.129	2834
834.267	2834
834.406	2807
834.544	2853
834.682	2861
834.821	2842
834.959	3047
835.097	2876
835.235	3062
835.373	2998
835.511	3028
835.65	2963
835.788	2960
835.926	2857
836.064	2819
836.202	2853
836.34	3112
836.478	3154
836.615	3058
836.753	3150
836.891	3203
837.029	3188
837.167	3100
837.305	3085
837.443	2990
837.58	2986
837.718	3108
837.856	3039
837.993	3070
838.131	3085
838.269	3112
838.406	3119
838.544	3074
838.681	2914
838.819	2895
838.956	2796
839.094	2834
839.231	2887
839.369	2986
839.506	3367
839.643	3161
839.781	3017
839.918	2944
840.055	3039
840.193	3039
840.33	3058
840.467	3093
840.604	3116
840.742	3420
840.879	3036
841.016	3047
841.153	3100
841.29	3310
841.427	3294
841.564	3249
841.701	3306
841.838	3211
841.975	3173
842.112	3214
842.249	3066
842.385	3066
842.522	3249
842.659	3093
842.796	3051
842.933	3070
843.069	3036
843.206	3066
843.343	3192
843.479	3112
843.616	3112
843.752	2891
843.889	2845
844.025	3062
844.162	2891
844.298	3047
844.435	2922
844.571	2891
844.708	3051
844.844	3157
844.98	3218
845.117	3192
845.253	3074
845.389	2971
845.525	3123
845.661	3089
845.798	2990
845.934	3135
846.07	3062
846.206	3226
846.342	3306
846.478	3192
846.614	3104
846.75	3036
846.886	2986
847.022	3222
847.158	3161
847.294	3180
847.429	3203
847.565	3211
847.701	3462
847.837	3036
847.972	3020
848.108	3138
848.244	3154
848.379	2971
848.515	2948
848.65	2899
848.786	2971
848.921	3001
849.057	3135
849.192	3123
849.328	3085
849.463	3135
849.598	3036
849.734	3005
849.869	2941
850.004	2922
850.14	2944
850.275	2941
850.41	2830
850.545	2902
850.68	2922
850.815	2944
850.95	2956
851.085	3176
851.22	3123
851.355	3013
851.49	2990
851.625	2979
851.76	2994
851.895	2914
852.03	2883
852.165	3043
852.299	3127
852.434	3176
852.569	3138
852.703	3169
852.838	3195
852.973	3336
853.107	3348
853.242	3154
853.376	3108
853.511	2979
853.645	3055
853.78	3150
853.914	3116
854.048	3119
854.183	3047
854.317	3165
854.451	3249
854.585	3123
854.72	3097
854.854	3222
854.988	3047
855.122	3100
855.256	2975
855.39	3077
855.524	3188
855.658	3176
855.792	3165
855.926	3180
856.06	3211
856.194	3211
856.327	3131
856.461	3062
856.595	3062
856.729	3097
856.862	3218
856.996	3165
857.13	3203
857.263	3207
857.397	3218
857.53	3093
857.664	3188
857.797	3249
857.931	3283
858.064	3150
858.197	3218
858.331	3142
858.464	3081
858.597	2971
858.731	3081
858.864	3112
858.997	3066
859.13	3169
859.263	3165
859.396	3188
859.529	3074
859.662	3047
859.795	3047
859.928	3135
860.061	3226
860.194	3253
860.327	3070
860.46	3055
860.592	3249
860.725	3237
860.858	3249
860.99	3066
861.123	3020
861.256	3070
861.388	3100
861.521	3736
861.653	3001
861.786	2948
861.918	2971
862.05	3077
862.183	3089
862.315	3161
862.447	3203
862.58	3077
862.712	2941
862.844	2864
862.976	2990
863.108	2986
863.24	3325
863.372	2868
863.504	2941
863.636	2944
863.768	3013
863.9	2982
864.032	2902
864.164	2933
864.296	3001
864.428	3051
864.559	3131
864.691	3100
864.823	3039
864.954	3032
865.086	3013
865.217	2990
865.349	2960
865.48	2952
865.612	3017
865.743	3176
865.875	2975
866.006	2899
866.137	2952
866.269	2929
866.4	2922
866.531	2914
866.662	2899
866.793	2857
866.924	2880
867.055	2979
867.186	2952
867.317	2876
867.448	2834
867.579	2834
867.71	2838
867.841	2838
867.972	2891
868.103	2872
868.233	2880
868.364	2868
868.495	2914
868.625	3058
868.756	3146
868.886	2975
869.017	3020
869.147	3131
869.278	3176
869.408	3051
869.539	3043
869.669	3077
869.799	3024
869.929	3119
870.06	3074
870.19	3313
870.32	3256
870.45	3279
870.58	3344
870.71	3443
870.84	3420
870.97	3260
871.1	3256
871.23	3469
871.36	3428
871.489	3355
871.619	3393
871.749	3420
871.879	3412
872.008	3485
872.138	3374
872.267	3272
872.397	3146
872.526	3066
872.656	2982
872.785	3085
872.915	3237
873.044	3306
873.173	3199
873.303	3241
873.432	3203
873.561	3272
873.69	3154
873.819	3146
873.948	3184
874.077	3127
874.206	2982
874.335	3089
874.464	3207
874.593	3329
874.722	3218
874.851	3401
874.979	3348
875.108	3321
875.237	3195
875.365	3157
875.494	3127
875.623	3268
875.751	3058
875.88	3081
876.008	3192
876.136	3218
876.265	3363
876.393	3504
876.521	3416
876.65	3359
876.778	3310
876.906	3237
877.034	3188
877.162	3226
877.29	3180
877.418	3279
877.546	3279
877.674	3237
877.802	3203
877.93	3207
878.058	3138
878.185	3089
878.313	3173
878.441	3222
878.568	3077
878.696	3146
878.824	3237
878.951	3306
879.079	3469
879.206	3625
879.333	3431
879.461	3329
879.588	3367
879.715	3473
879.842	3595
879.97	3363
880.097	3119
880.224	3146
880.351	3211
880.478	3203
880.605	3173
880.732	3161
880.859	3496
880.986	3298
881.112	3321
881.239	3165
881.366	3062
881.493	3028
881.619	3024
881.746	3089
881.872	3085
881.999	3077
882.125	3127
882.252	3268
882.378	3279
882.505	3412
882.631	3272
882.757	3142
882.883	3203
883.01	3180
883.136	3142
883.262	3051
883.388	3085
883.514	3291
883.64	3393
883.766	3329
883.892	3161
884.018	3199
884.143	3386
884.269	3526
884.395	3233
884.52	3150
884.646	3157
884.772	3131
884.897	3100
885.023	3180
885.148	3283
885.274	3382
885.399	3363
885.524	3264
885.65	3253
885.775	3344
885.9	3249
886.025	3435
886.15	3359
886.275	3287
886.4	3233
886.525	3317
886.65	3302
886.775	3260
886.9	3488
887.025	3641
887.149	3428
887.274	3211
887.399	3146
887.523	3218
887.648	3180
887.773	3180
887.897	3378
888.021	3454
888.146	3264
888.27	3462
888.395	3496
888.519	3420
888.643	3488
888.767	3454
888.891	3291
889.015	3207
889.139	3313
889.263	3211
889.387	3447
889.511	3477
889.635	3435
889.759	3275
889.883	3264
890.006	3340
890.13	3500
890.254	3253
890.377	3336
890.501	3199
890.624	3176
890.748	3313
890.871	3169
890.995	3116
891.118	3066
891.241	3188
891.364	3237
891.488	3310
891.611	3184
891.734	3203
891.857	3241
891.98	3249
892.103	3313
892.226	3279
892.349	3218
892.471	3081
892.594	3256
892.717	3272
892.839	3249
892.962	3306
893.085	3344
893.207	3313
893.33	3131
893.452	3222
893.575	3344
893.697	3245
893.819	3428
893.941	3492
894.064	3435
894.186	3279
894.308	3245
894.43	3435
894.552	3492
894.674	3469
894.796	3237
894.918	3336
895.04	3253
895.161	3428
895.283	3397
895.405	3306
895.526	3386
895.648	3416
895.769	3443
895.891	3454
896.012	3431
896.134	3466
896.255	3412
896.376	3367
896.498	3344
896.619	3424
896.74	3367
896.861	3389
896.982	3667
897.103	3812
897.224	3587
897.345	3507
897.466	3416
897.587	3477
897.708	3587
897.828	3530
897.949	3435
898.07	3332
898.19	3363
898.311	3591
898.431	3485
898.552	3488
898.672	3606
898.792	3568
898.913	3538
899.033	3405
899.153	3294
899.273	3222
899.393	3279
899.513	3336
899.633	3291
899.753	3317
899.873	3344
899.993	3321
900.113	3313
900.232	3405
900.352	3298
900.472	3283
900.591	3211
900.711	3291
900.83	3249
900.95	3412
901.069	3488
901.189	3325
901.308	3165
901.427	3089
901.546	3203
901.665	3336
901.784	3313
901.904	3214
902.023	3161
902.141	3032
902.26	2994
902.379	3131
902.498	3070
902.617	3055
902.735	3199
902.854	3222
902.973	3176
903.091	3028
903.21	3043
903.328	3161
903.446	3100
903.565	3131
903.683	3226
903.801	3131
903.919	3268
904.038	3264
904.156	3169
904.274	3306
904.392	3253
904.51	3306
904.627	3344
904.745	3443
904.863	3469
904.981	3275
905.098	3199
905.216	3218
905.334	3241
905.451	3340
905.569	3298
905.686	3435
905.803	3412
905.921	3275
906.038	3416
906.155	3355
906.272	3237
906.389	3336
906.506	3199
906.623	3218
906.74	3249
906.857	3195
906.974	3245
907.091	3435
907.208	3519
907.324	3481
907.441	3363
907.557	3287
907.674	3203
907.79	3241
907.907	3241
908.023	3378
908.139	3370
908.256	3329
908.372	3374
908.488	3382
908.604	3253
908.72	3218
908.836	3268
908.952	3283
909.068	3332
909.184	3469
909.3	3389
909.415	3488
909.531	3469
909.647	3279
909.762	3291
909.878	3233
909.993	3321
910.108	3283
910.224	3367
910.339	3389
910.454	3294
910.57	3294
910.685	3253
910.8	3584
910.915	3530
911.03	3431
911.145	3260
911.259	3249
911.374	3291
911.489	3264
911.604	3233
911.718	3135
911.833	3127
911.947	3093
912.062	2994
912.176	3173
912.291	3218
912.405	3161
912.519	3462
912.633	3447
912.748	3317
912.862	3302
912.976	3192
913.09	3058
913.204	3173
913.318	3211
913.431	3340
913.545	3317
913.659	3386
913.772	3310
913.886	3222
914	3199
914.113	3367
914.226	3420
914.34	3367
914.453	3173
914.566	3431
914.68	3294
914.793	3325
914.906	3093
915.019	3112
915.132	3089
915.245	3142
915.358	3180
915.47	3256
915.583	3253
915.696	3298
915.809	3389
915.921	3443
916.034	3249
916.146	3237
916.259	3218
916.371	3367
916.483	3386
916.595	3264
916.708	3321
916.82	3374
916.932	3298
917.044	3329
917.156	3336
917.268	3287
917.38	3298
917.491	3317
917.603	3355
917.715	3450
917.826	3466
917.938	3370
918.049	3233
918.161	3405
918.272	3610
918.384	3580
918.495	3439
918.606	3294
918.717	3287
918.828	3370
918.939	3401
919.05	3287
919.161	3336
919.272	3176
919.383	3268
919.494	3496
919.604	3671
919.715	3473
919.826	3397
919.936	3469
920.047	3580
920.157	3549
920.267	3812
920.378	3591
920.488	3549
920.598	3778
920.708	3941
920.818	3823
920.928	3823
921.038	3964
921.148	4017
921.258	3679
921.368	3648
921.477	3580
921.587	3504
921.697	3428
921.806	3637
921.916	3504
922.025	3374
922.134	3374
922.244	3313
922.353	3393
922.462	3302
922.571	3241
922.68	3093
922.789	3074
922.898	3157
923.007	3112
923.116	3184
923.224	3157
923.333	3184
923.442	3112
923.55	3100
923.659	3138
923.767	3195
923.876	3108
923.984	3214
924.092	3123
924.201	3203
924.309	3203
924.417	3260
924.525	3180
924.633	3214
924.741	4044
924.849	3066
924.956	3245
925.064	3089
925.172	3074
925.279	3093
925.387	3218
925.494	3195
925.602	3310
925.709	3348
925.816	3169
925.924	3325
926.031	3363
926.138	3283
926.245	3397
926.352	3253
926.459	3435
926.566	3473
926.673	3336
926.779	3211
926.886	3226
926.993	3150
927.099	3154
927.206	3131
927.312	3100
927.419	3211
927.525	3165
927.631	3272
927.737	3123
927.843	3104
927.95	3009
928.056	3097
928.162	3169
928.267	3237
928.373	3880
928.479	3306
928.585	3036
928.69	3199
928.796	3222
928.901	3116
929.007	3009
929.112	3222
929.218	3233
929.323	3123
929.428	3169
929.533	3294
929.638	3108
929.743	3150
929.848	3218
929.953	3192
930.058	3123
930.163	3017
930.267	3051
930.372	3176
930.477	3070
930.581	3321
930.685	3192
930.79	3074
930.894	3070
930.998	3116
931.103	3287
931.207	2944
931.311	2944
931.415	2910
931.519	2754
931.623	2834
