Data from test_V78500241_490.txt Node
Date: Fri Mar 25 16:18:35 CST 2022
User: usil
Spectrometer: V785-0024
Trigger mode: 0
Integration Time (sec): 4.000000E-1
Scans to average: 1
Nonlinearity correction enabled: false
Boxcar width: 0
Storing dark spectrum: false
XAxis mode: Wavelengths
Number of Pixels in Spectrum: 1024
>>>>>Begin Spectral Data<<<<<
801.071	2956
801.214	2963
801.356	2899
801.499	2944
801.641	2918
801.783	2925
801.926	3108
802.068	3009
802.211	3032
802.353	3089
802.496	3009
802.638	3036
802.78	3074
802.923	3077
803.065	3028
803.208	2910
803.35	2929
803.492	2948
803.635	2925
803.777	2819
803.919	2876
804.061	3199
804.204	2956
804.346	2944
804.488	2906
804.63	3024
804.773	2868
804.915	2925
805.057	3123
805.199	2948
805.341	3005
805.483	3081
805.626	3032
805.768	2922
805.91	3066
806.052	3161
806.194	3055
806.336	3241
806.478	3020
806.62	2956
806.762	2982
806.904	3036
807.046	3173
807.188	2986
807.33	2914
807.472	2994
807.614	2895
807.756	3039
807.898	2952
808.04	2902
808.182	2963
808.324	2982
808.465	2891
808.607	2922
808.749	2819
808.891	2864
809.033	2963
809.174	2963
809.316	2861
809.458	2918
809.6	2796
809.741	2796
809.883	2773
810.025	2842
810.166	2902
810.308	2853
810.45	2861
810.591	2792
810.733	2792
810.875	2880
811.016	2792
811.158	2826
811.299	2853
811.441	2929
811.582	2902
811.724	2876
811.865	2838
812.007	2922
812.148	2902
812.29	2868
812.431	2906
812.573	2967
812.714	2979
812.855	3055
812.997	3066
813.138	3169
813.279	3009
813.421	2948
813.562	2963
813.703	2887
813.845	2895
813.986	2785
814.127	2750
814.268	2857
814.41	2872
814.551	2800
814.692	2887
814.833	2883
814.974	2922
815.115	3005
815.256	2838
815.397	2826
815.539	2895
815.68	2773
815.821	2830
815.962	2956
816.103	2929
816.244	2906
816.385	2849
816.526	2982
816.666	2937
816.807	2743
816.948	2910
817.089	2899
817.23	2887
817.371	2823
817.512	2811
817.653	2830
817.793	2849
817.934	2899
818.075	3001
818.216	3005
818.356	3036
818.497	2910
818.638	2804
818.778	2819
818.919	2807
819.06	2762
819.2	2872
819.341	2826
819.481	2842
819.622	2933
819.762	3116
819.903	3066
820.043	2914
820.184	2971
820.324	2906
820.465	3039
820.605	3017
820.746	3039
820.886	2956
821.026	3097
821.167	3169
821.307	3256
821.447	3298
821.588	3253
821.728	3207
821.868	3249
822.008	3074
822.149	3207
822.289	3233
822.429	3116
822.569	3085
822.709	3195
822.849	3036
822.99	3077
823.13	3169
823.27	3188
823.41	3138
823.55	3135
823.69	3195
823.83	3188
823.97	3066
824.11	3005
824.25	2982
824.389	3108
824.529	3081
824.669	3108
824.809	3222
824.949	3264
825.089	3218
825.228	3165
825.368	3039
825.508	2933
825.648	2963
825.787	3028
825.927	2994
826.067	2982
826.206	2982
826.346	3100
826.485	3097
826.625	3142
826.765	3272
826.904	3233
827.044	2971
827.183	2948
827.323	2834
827.462	2990
827.601	2956
827.741	2906
827.88	2963
828.02	2868
828.159	2994
828.298	3062
828.437	3123
828.577	3062
828.716	3279
828.855	3100
828.994	2956
829.134	2925
829.273	2925
829.412	2864
829.551	2876
829.69	2899
829.829	3032
829.968	3154
830.107	3047
830.246	3074
830.385	2902
830.524	2902
830.663	2807
830.802	2754
830.941	2651
831.08	2648
831.219	2785
831.357	2777
831.496	2922
831.635	2746
831.774	2670
831.913	2644
832.051	2564
832.19	2606
832.329	2693
832.467	2545
832.606	2503
832.744	2621
832.883	2590
833.022	2625
833.16	2670
833.299	2686
833.437	2716
833.576	2727
833.714	2739
833.852	2739
833.991	2773
834.129	2853
834.267	2819
834.406	2826
834.544	2876
834.682	2906
834.821	2906
834.959	3085
835.097	2891
835.235	3097
835.373	3024
835.511	3066
835.65	2956
835.788	2948
835.926	2838
836.064	2842
836.202	2849
836.34	3066
836.478	3173
836.615	3081
836.753	3161
836.891	3241
837.029	3188
837.167	3119
837.305	3062
837.443	3066
837.58	2960
837.718	3135
837.856	3066
837.993	3051
838.131	3123
838.269	3085
838.406	3100
838.544	3100
838.681	2941
838.819	2948
838.956	2796
839.094	2849
839.231	2918
839.369	3055
839.506	3348
839.643	3207
839.781	3017
839.918	2979
840.055	3112
840.193	3028
840.33	3028
840.467	3093
840.604	3142
840.742	3409
840.879	3070
841.016	3043
841.153	3131
841.29	3332
841.427	3291
841.564	3275
841.701	3321
841.838	3211
841.975	3195
842.112	3214
842.249	3127
842.385	3036
842.522	3279
842.659	3089
842.796	3043
842.933	3116
843.069	3047
843.206	3089
843.343	3188
843.479	3131
843.616	3104
843.752	2929
843.889	2864
844.025	3081
844.162	2887
844.298	3104
844.435	2952
844.571	2933
844.708	3081
844.844	3184
844.98	3241
845.117	3192
845.253	3058
845.389	3001
845.525	3131
845.661	3097
845.798	3028
845.934	3131
846.07	3058
846.206	3222
846.342	3298
846.478	3256
846.614	3074
846.75	3066
846.886	3036
847.022	3272
847.158	3161
847.294	3142
847.429	3291
847.565	3233
847.701	3511
847.837	3039
847.972	3009
848.108	3150
848.244	3192
848.379	2990
848.515	2967
848.65	2918
848.786	2956
848.921	2998
849.057	3100
849.192	3154
849.328	3058
849.463	3119
849.598	3062
849.734	3047
849.869	3001
850.004	2910
850.14	2960
850.275	2929
850.41	2857
850.545	2899
850.68	2941
850.815	2952
850.95	2998
851.085	3161
851.22	3116
851.355	3070
851.49	2979
851.625	3024
851.76	2971
851.895	2944
852.03	2899
852.165	3032
852.299	3097
852.434	3188
852.569	3123
852.703	3165
852.838	3222
852.973	3348
853.107	3332
853.242	3119
853.376	3089
853.511	2967
853.645	3009
853.78	3268
853.914	3100
854.048	3108
854.183	3089
854.317	3127
854.451	3313
854.585	3119
854.72	3104
854.854	3211
854.988	3036
855.122	3100
855.256	2982
855.39	3112
855.524	3260
855.658	3233
855.792	3176
855.926	3218
856.06	3241
856.194	3214
856.327	3123
856.461	3028
856.595	3097
856.729	3116
856.862	3222
856.996	3135
857.13	3154
857.263	3245
857.397	3237
857.53	3173
857.664	3192
857.797	3214
857.931	3264
858.064	3165
858.197	3203
858.331	3135
858.464	3112
858.597	3013
858.731	3104
858.864	3135
858.997	3108
859.13	3154
859.263	3195
859.396	3203
859.529	3097
859.662	3081
859.795	3074
859.928	3119
860.061	3287
860.194	3325
860.327	3123
860.46	3097
860.592	3260
860.725	3222
860.858	3226
860.99	3097
861.123	3070
861.256	3039
861.388	3138
861.521	3838
861.653	3032
861.786	2994
861.918	3009
862.05	3074
862.183	3135
862.315	3161
862.447	3203
862.58	3097
862.712	2963
862.844	2868
862.976	3036
863.108	3028
863.24	3264
863.372	2880
863.504	2963
863.636	2918
863.768	3024
863.9	3005
864.032	2910
864.164	2922
864.296	3055
864.428	3093
864.559	3097
864.691	3043
864.823	3074
864.954	3039
865.086	3055
865.217	3013
865.349	2933
865.48	3013
865.612	2998
865.743	3138
865.875	2975
866.006	2941
866.137	2982
866.269	2960
866.4	2922
866.531	2925
866.662	2925
866.793	2937
866.924	2876
867.055	2982
867.186	2948
867.317	2853
867.448	2834
867.579	2876
867.71	2834
867.841	2830
867.972	2887
868.103	2922
868.233	2895
868.364	2845
868.495	2895
868.625	3085
868.756	3192
868.886	2948
869.017	3039
869.147	3161
869.278	3165
869.408	3047
869.539	3028
869.669	3104
869.799	3055
869.929	3135
870.06	3081
870.19	3302
870.32	3294
870.45	3302
870.58	3393
870.71	3473
870.84	3462
870.97	3351
871.1	3230
871.23	3458
871.36	3443
871.489	3329
871.619	3389
871.749	3397
871.879	3412
872.008	3435
872.138	3340
872.267	3294
872.397	3138
872.526	3062
872.656	2994
872.785	3138
872.915	3226
873.044	3294
873.173	3188
873.303	3237
873.432	3237
873.561	3245
873.69	3150
873.819	3142
873.948	3195
874.077	3131
874.206	3047
874.335	3116
874.464	3214
874.593	3336
874.722	3241
874.851	3370
874.979	3359
875.108	3306
875.237	3195
875.365	3192
875.494	3184
875.623	3245
875.751	3077
875.88	3108
876.008	3214
876.136	3245
876.265	3386
876.393	3466
876.521	3370
876.65	3336
876.778	3348
876.906	3256
877.034	3218
877.162	3226
877.29	3180
877.418	3253
877.546	3260
877.674	3230
877.802	3237
877.93	3241
878.058	3161
878.185	3093
878.313	3165
878.441	3214
878.568	3058
878.696	3161
878.824	3207
878.951	3313
879.079	3492
879.206	3614
879.333	3416
879.461	3321
879.588	3367
879.715	3462
879.842	3633
879.97	3332
880.097	3150
880.224	3123
880.351	3154
880.478	3173
880.605	3169
880.732	3195
880.859	3477
880.986	3268
881.112	3298
881.239	3203
881.366	3123
881.493	3009
881.619	3036
881.746	3093
881.872	3074
881.999	3112
882.125	3119
882.252	3268
882.378	3332
882.505	3393
882.631	3256
882.757	3157
882.883	3237
883.01	3195
883.136	3123
883.262	3093
883.388	3085
883.514	3329
883.64	3401
883.766	3329
883.892	3150
884.018	3230
884.143	3382
884.269	3534
884.395	3176
884.52	3146
884.646	3131
884.772	3097
884.897	3123
885.023	3188
885.148	3348
885.274	3401
885.399	3351
885.524	3272
885.65	3222
885.775	3344
885.9	3287
886.025	3454
886.15	3351
886.275	3313
886.4	3245
886.525	3302
886.65	3283
886.775	3253
886.9	3492
887.025	3606
887.149	3416
887.274	3245
887.399	3188
887.523	3165
887.648	3176
887.773	3165
887.897	3363
888.021	3428
888.146	3306
888.27	3462
888.395	3538
888.519	3435
888.643	3458
888.767	3492
888.891	3275
889.015	3256
889.139	3264
889.263	3199
889.387	3424
889.511	3496
889.635	3439
889.759	3275
889.883	3260
890.006	3382
890.13	3469
890.254	3291
890.377	3336
890.501	3203
890.624	3222
890.748	3294
890.871	3157
890.995	3070
891.118	3036
891.241	3154
891.364	3237
891.488	3291
891.611	3165
891.734	3211
891.857	3260
891.98	3253
892.103	3332
892.226	3294
892.349	3203
892.471	3119
892.594	3222
892.717	3291
892.839	3298
892.962	3279
893.085	3382
893.207	3329
893.33	3169
893.452	3199
893.575	3321
893.697	3272
893.819	3473
893.941	3488
894.064	3439
894.186	3287
894.308	3279
894.43	3389
894.552	3542
894.674	3439
894.796	3256
894.918	3298
895.04	3268
895.161	3378
895.283	3370
895.405	3313
895.526	3367
895.648	3435
895.769	3416
895.891	3454
896.012	3473
896.134	3450
896.255	3409
896.376	3386
896.498	3386
896.619	3416
896.74	3367
896.861	3401
896.982	3667
897.103	3842
897.224	3584
897.345	3481
897.466	3409
897.587	3469
897.708	3610
897.828	3561
897.949	3401
898.07	3321
898.19	3401
898.311	3610
898.431	3447
898.552	3530
898.672	3610
898.792	3603
898.913	3519
899.033	3397
899.153	3306
899.273	3211
899.393	3291
899.513	3329
899.633	3332
899.753	3313
899.873	3317
899.993	3344
900.113	3268
900.232	3363
900.352	3359
900.472	3287
900.591	3222
900.711	3306
900.83	3249
900.95	3405
901.069	3519
901.189	3340
901.308	3165
901.427	3116
901.546	3211
901.665	3283
901.784	3287
901.904	3195
902.023	3127
902.141	2986
902.26	2963
902.379	3108
902.498	3074
902.617	3070
902.735	3211
902.854	3233
902.973	3222
903.091	3055
903.21	3055
903.328	3150
903.446	3116
903.565	3089
903.683	3211
903.801	3161
903.919	3245
904.038	3253
904.156	3165
904.274	3317
904.392	3241
904.51	3245
904.627	3325
904.745	3454
904.863	3488
904.981	3272
905.098	3142
905.216	3211
905.334	3306
905.451	3325
905.569	3294
905.686	3439
905.803	3431
905.921	3279
906.038	3431
906.155	3348
906.272	3253
906.389	3317
906.506	3214
906.623	3260
906.74	3268
906.857	3211
906.974	3279
907.091	3439
907.208	3538
907.324	3466
907.441	3370
907.557	3222
907.674	3211
907.79	3222
907.907	3268
908.023	3389
908.139	3374
908.256	3283
908.372	3416
908.488	3325
908.604	3245
908.72	3230
908.836	3325
908.952	3298
909.068	3367
909.184	3462
909.3	3412
909.415	3507
909.531	3481
909.647	3291
909.762	3249
909.878	3260
909.993	3313
910.108	3325
910.224	3302
910.339	3389
910.454	3351
910.57	3256
910.685	3249
910.8	3599
910.915	3526
911.03	3405
911.145	3260
911.259	3291
911.374	3287
911.489	3207
911.604	3226
911.718	3104
911.833	3150
911.947	3043
912.062	2971
912.176	3169
912.291	3195
912.405	3237
912.519	3454
912.633	3473
912.748	3302
912.862	3260
912.976	3180
913.09	3039
913.204	3123
913.318	3214
913.431	3344
913.545	3336
913.659	3378
913.772	3291
913.886	3192
914	3165
914.113	3355
914.226	3428
914.34	3382
914.453	3188
914.566	3405
914.68	3245
914.793	3291
914.906	3161
915.019	3112
915.132	3039
915.245	3169
915.358	3184
915.47	3241
915.583	3233
915.696	3279
915.809	3397
915.921	3435
916.034	3268
916.146	3245
916.259	3241
916.371	3378
916.483	3359
916.595	3291
916.708	3382
916.82	3321
916.932	3329
917.044	3348
917.156	3348
917.268	3287
917.38	3283
917.491	3310
917.603	3367
917.715	3473
917.826	3424
917.938	3389
918.049	3249
918.161	3454
918.272	3515
918.384	3576
918.495	3488
918.606	3272
918.717	3275
918.828	3382
918.939	3393
919.05	3317
919.161	3386
919.272	3173
919.383	3245
919.494	3481
919.604	3671
919.715	3500
919.826	3405
919.936	3469
920.047	3568
920.157	3576
920.267	3743
920.378	3595
920.488	3549
920.598	3781
920.708	3899
920.818	3800
920.928	3804
921.038	4040
921.148	4025
921.258	3686
921.368	3629
921.477	3614
921.587	3523
921.697	3466
921.806	3591
921.916	3500
922.025	3348
922.134	3374
922.244	3310
922.353	3367
922.462	3264
922.571	3211
922.68	3138
922.789	3062
922.898	3089
923.007	3066
923.116	3195
923.224	3127
923.333	3154
923.442	3093
923.55	3077
923.659	3165
923.767	3222
923.876	3108
923.984	3230
924.092	3089
924.201	3157
924.309	3222
924.417	3222
924.525	3199
924.633	3249
924.741	4029
924.849	3017
924.956	3279
925.064	3077
925.172	3051
925.279	3066
925.387	3184
925.494	3218
925.602	3348
925.709	3321
925.816	3176
925.924	3302
926.031	3348
926.138	3332
926.245	3359
926.352	3245
926.459	3389
926.566	3458
926.673	3306
926.779	3207
926.886	3245
926.993	3131
927.099	3119
927.206	3131
927.312	3108
927.419	3222
927.525	3230
927.631	3275
927.737	3131
927.843	3135
927.95	3032
928.056	3112
928.162	3165
928.267	3233
928.373	3774
928.479	3283
928.585	3074
928.69	3188
928.796	3291
928.901	3173
929.007	3017
929.112	3195
929.218	3154
929.323	3157
929.428	3138
929.533	3279
929.638	3119
929.743	3169
929.848	3253
929.953	3192
930.058	3150
930.163	2979
930.267	3070
930.372	3214
930.477	3024
930.581	3332
930.685	3154
930.79	3077
930.894	3104
930.998	3100
931.103	3291
931.207	2944
931.311	2956
931.415	2937
931.519	2773
931.623	2807
