Data from test_V78500241_718.txt Node
Date: Fri Mar 25 16:20:10 CST 2022
User: usil
Spectrometer: V785-0024
Trigger mode: 0
Integration Time (sec): 4.000000E-1
Scans to average: 1
Nonlinearity correction enabled: false
Boxcar width: 0
Storing dark spectrum: false
XAxis mode: Wavelengths
Number of Pixels in Spectrum: 1024
>>>>>Begin Spectral Data<<<<<
801.071	2902
801.214	2956
801.356	2895
801.499	2937
801.641	2891
801.783	2975
801.926	3039
802.068	2982
802.211	3005
802.353	2998
802.496	2979
802.638	2998
802.78	3066
802.923	3070
803.065	3009
803.208	2895
803.35	2937
803.492	2967
803.635	2990
803.777	2792
803.919	2830
804.061	3180
804.204	2922
804.346	2929
804.488	2830
804.63	2982
804.773	2906
804.915	2941
805.057	3058
805.199	2948
805.341	2990
805.483	3024
805.626	2982
805.768	2975
805.91	3089
806.052	3093
806.194	3055
806.336	3237
806.478	3070
806.62	2960
806.762	2990
806.904	3070
807.046	3157
807.188	2990
807.33	2929
807.472	3005
807.614	2902
807.756	2982
807.898	2887
808.04	2868
808.182	2982
808.324	2925
808.465	2872
808.607	2864
808.749	2823
808.891	2861
809.033	3024
809.174	2990
809.316	2925
809.458	2899
809.6	2766
809.741	2804
809.883	2766
810.025	2849
810.166	2857
810.308	2857
810.45	2845
810.591	2792
810.733	2804
810.875	2887
811.016	2781
811.158	2762
811.299	2815
811.441	2960
811.582	2922
811.724	2819
811.865	2857
812.007	2925
812.148	2876
812.29	2861
812.431	2899
812.573	2941
812.714	2937
812.855	3055
812.997	3028
813.138	3097
813.279	3001
813.421	2979
813.562	2952
813.703	2872
813.845	2891
813.986	2788
814.127	2743
814.268	2819
814.41	2823
814.551	2796
814.692	2868
814.833	2815
814.974	2868
815.115	2963
815.256	2826
815.397	2823
815.539	2864
815.68	2807
815.821	2762
815.962	2937
816.103	2952
816.244	2876
816.385	2891
816.526	2952
816.666	2914
816.807	2754
816.948	2853
817.089	2910
817.23	2891
817.371	2792
817.512	2762
817.653	2838
817.793	2811
817.934	2902
818.075	2979
818.216	2982
818.356	3024
818.497	2910
818.638	2788
818.778	2800
818.919	2777
819.06	2750
819.2	2925
819.341	2788
819.481	2788
819.622	2918
819.762	3108
819.903	3032
820.043	2944
820.184	2872
820.324	2914
820.465	3013
820.605	3024
820.746	3036
820.886	2948
821.026	3089
821.167	3146
821.307	3230
821.447	3294
821.588	3233
821.728	3192
821.868	3150
822.008	3070
822.149	3180
822.289	3199
822.429	3093
822.569	3085
822.709	3176
822.849	3005
822.99	3077
823.13	3150
823.27	3199
823.41	3093
823.55	3131
823.69	3173
823.83	3192
823.97	3089
824.11	2994
824.25	2979
824.389	3020
824.529	3135
824.669	3077
824.809	3169
824.949	3222
825.089	3222
825.228	3203
825.368	2979
825.508	2967
825.648	2952
825.787	2998
825.927	3017
826.067	2982
826.206	2971
826.346	3062
826.485	3074
826.625	3100
826.765	3272
826.904	3173
827.044	2986
827.183	2963
827.323	2880
827.462	3005
827.601	2918
827.741	2910
827.88	2944
828.02	2857
828.159	2963
828.298	3028
828.437	3100
828.577	3032
828.716	3291
828.855	3047
828.994	2933
829.134	2902
829.273	2914
829.412	2876
829.551	2902
829.69	2922
829.829	2986
829.968	3100
830.107	3036
830.246	3001
830.385	2876
830.524	2891
830.663	2811
830.802	2708
830.941	2651
831.08	2674
831.219	2758
831.357	2743
831.496	2963
831.635	2689
831.774	2659
831.913	2640
832.051	2541
832.19	2575
832.329	2667
832.467	2530
832.606	2476
832.744	2602
832.883	2594
833.022	2564
833.16	2670
833.299	2720
833.437	2667
833.576	2720
833.714	2708
833.852	2735
833.991	2766
834.129	2849
834.267	2842
834.406	2796
834.544	2883
834.682	2891
834.821	2883
834.959	3051
835.097	2906
835.235	3051
835.373	3020
835.511	3024
835.65	2971
835.788	2967
835.926	2796
836.064	2800
836.202	2834
836.34	3081
836.478	3154
836.615	3066
836.753	3154
836.891	3230
837.029	3180
837.167	3138
837.305	3043
837.443	3039
837.58	2960
837.718	3146
837.856	3062
837.993	3074
838.131	3146
838.269	3097
838.406	3123
838.544	3089
838.681	2960
838.819	2906
838.956	2811
839.094	2823
839.231	2910
839.369	3051
839.506	3367
839.643	3222
839.781	2990
839.918	2952
840.055	3058
840.193	3062
840.33	3055
840.467	3051
840.604	3165
840.742	3409
840.879	3070
841.016	3024
841.153	3127
841.29	3317
841.427	3310
841.564	3249
841.701	3287
841.838	3233
841.975	3150
842.112	3184
842.249	3066
842.385	3020
842.522	3237
842.659	3097
842.796	3047
842.933	3089
843.069	3055
843.206	3001
843.343	3161
843.479	3116
843.616	3154
843.752	2861
843.889	2842
844.025	3104
844.162	2872
844.298	3058
844.435	2937
844.571	2895
844.708	3097
844.844	3180
844.98	3233
845.117	3157
845.253	3028
845.389	3028
845.525	3058
845.661	3097
845.798	3055
845.934	3142
846.07	3055
846.206	3199
846.342	3325
846.478	3218
846.614	3104
846.75	3066
846.886	2998
847.022	3203
847.158	3131
847.294	3199
847.429	3237
847.565	3230
847.701	3519
847.837	3036
847.972	2952
848.108	3165
848.244	3165
848.379	2960
848.515	2956
848.65	2937
848.786	2960
848.921	2986
849.057	3089
849.192	3150
849.328	3024
849.463	3135
849.598	3062
849.734	3051
849.869	2960
850.004	2925
850.14	2948
850.275	2918
850.41	2838
850.545	2902
850.68	2918
850.815	2963
850.95	2967
851.085	3199
851.22	3093
851.355	3024
851.49	2971
851.625	3017
851.76	2979
851.895	2948
852.03	2910
852.165	3024
852.299	3089
852.434	3211
852.569	3184
852.703	3173
852.838	3233
852.973	3321
853.107	3306
853.242	3150
853.376	3058
853.511	2967
853.645	3009
853.78	3214
853.914	3154
854.048	3108
854.183	3123
854.317	3104
854.451	3294
854.585	3108
854.72	3108
854.854	3199
854.988	3047
855.122	3074
855.256	2967
855.39	3108
855.524	3211
855.658	3169
855.792	3131
855.926	3188
856.06	3173
856.194	3298
856.327	3135
856.461	3070
856.595	3100
856.729	3100
856.862	3199
856.996	3135
857.13	3161
857.263	3207
857.397	3298
857.53	3131
857.664	3184
857.797	3233
857.931	3249
858.064	3138
858.197	3192
858.331	3108
858.464	3089
858.597	3028
858.731	3116
858.864	3138
858.997	3058
859.13	3157
859.263	3154
859.396	3195
859.529	3097
859.662	3066
859.795	3013
859.928	3112
860.061	3279
860.194	3321
860.327	3127
860.46	3070
860.592	3275
860.725	3245
860.858	3245
860.99	3108
861.123	3058
861.256	2998
861.388	3108
861.521	3918
861.653	3024
861.786	2975
861.918	3013
862.05	3062
862.183	3066
862.315	3131
862.447	3176
862.58	3100
862.712	2937
862.844	2880
862.976	3001
863.108	2971
863.24	3405
863.372	2891
863.504	2979
863.636	2933
863.768	3020
863.9	2975
864.032	2914
864.164	2933
864.296	2994
864.428	3062
864.559	3100
864.691	3039
864.823	3043
864.954	3013
865.086	3017
865.217	2986
865.349	2937
865.48	3005
865.612	3017
865.743	3138
865.875	2967
866.006	2929
866.137	2982
866.269	2925
866.4	2925
866.531	2880
866.662	2868
866.793	2883
866.924	2918
867.055	2960
867.186	2922
867.317	2857
867.448	2826
867.579	2864
867.71	2834
867.841	2804
867.972	2910
868.103	2887
868.233	2914
868.364	2853
868.495	2861
868.625	3074
868.756	3169
868.886	2979
869.017	2990
869.147	3192
869.278	3154
869.408	3043
869.539	3013
869.669	3043
869.799	3051
869.929	3104
870.06	3093
870.19	3332
870.32	3268
870.45	3317
870.58	3340
870.71	3424
870.84	3412
870.97	3253
871.1	3226
871.23	3447
871.36	3447
871.489	3378
871.619	3374
871.749	3397
871.879	3397
872.008	3477
872.138	3355
872.267	3294
872.397	3093
872.526	3097
872.656	2967
872.785	3123
872.915	3211
873.044	3298
873.173	3195
873.303	3245
873.432	3214
873.561	3287
873.69	3169
873.819	3138
873.948	3218
874.077	3074
874.206	3055
874.335	3058
874.464	3192
874.593	3336
874.722	3241
874.851	3344
874.979	3340
875.108	3306
875.237	3169
875.365	3157
875.494	3184
875.623	3203
875.751	3043
875.88	3135
876.008	3222
876.136	3222
876.265	3363
876.393	3488
876.521	3397
876.65	3397
876.778	3294
876.906	3233
877.034	3173
877.162	3211
877.29	3180
877.418	3268
877.546	3199
877.674	3256
877.802	3253
877.93	3218
878.058	3119
878.185	3119
878.313	3226
878.441	3199
878.568	3089
878.696	3131
878.824	3264
878.951	3306
879.079	3447
879.206	3629
879.333	3409
879.461	3332
879.588	3355
879.715	3504
879.842	3599
879.97	3397
880.097	3180
880.224	3116
880.351	3222
880.478	3214
880.605	3188
880.732	3199
880.859	3507
880.986	3245
881.112	3287
881.239	3237
881.366	3070
881.493	3009
881.619	3013
881.746	3039
881.872	3032
881.999	3112
882.125	3165
882.252	3237
882.378	3291
882.505	3412
882.631	3264
882.757	3142
882.883	3230
883.01	3233
883.136	3119
883.262	3070
883.388	3108
883.514	3348
883.64	3389
883.766	3294
883.892	3173
884.018	3245
884.143	3378
884.269	3496
884.395	3169
884.52	3100
884.646	3169
884.772	3138
884.897	3142
885.023	3211
885.148	3321
885.274	3397
885.399	3348
885.524	3279
885.65	3249
885.775	3313
885.9	3279
886.025	3397
886.15	3370
886.275	3275
886.4	3218
886.525	3302
886.65	3272
886.775	3287
886.9	3481
887.025	3625
887.149	3435
887.274	3222
887.399	3161
887.523	3207
887.648	3222
887.773	3180
887.897	3367
888.021	3397
888.146	3264
888.27	3416
888.395	3564
888.519	3439
888.643	3431
888.767	3496
888.891	3268
889.015	3237
889.139	3218
889.263	3199
889.387	3435
889.511	3481
889.635	3405
889.759	3294
889.883	3287
890.006	3363
890.13	3473
890.254	3237
890.377	3313
890.501	3203
890.624	3180
890.748	3313
890.871	3192
890.995	3146
891.118	3100
891.241	3192
891.364	3245
891.488	3287
891.611	3188
891.734	3233
891.857	3268
891.98	3233
892.103	3325
892.226	3249
892.349	3222
892.471	3089
892.594	3237
892.717	3298
892.839	3264
892.962	3268
893.085	3340
893.207	3279
893.33	3127
893.452	3199
893.575	3302
893.697	3218
893.819	3466
893.941	3488
894.064	3401
894.186	3275
894.308	3264
894.43	3412
894.552	3545
894.674	3466
894.796	3245
894.918	3310
895.04	3275
895.161	3393
895.283	3344
895.405	3325
895.526	3363
895.648	3420
895.769	3409
895.891	3469
896.012	3504
896.134	3488
896.255	3393
896.376	3367
896.498	3367
896.619	3454
896.74	3313
896.861	3367
896.982	3675
897.103	3812
897.224	3591
897.345	3450
897.466	3473
897.587	3500
897.708	3614
897.828	3572
897.949	3405
898.07	3291
898.19	3412
898.311	3584
898.431	3443
898.552	3481
898.672	3526
898.792	3538
898.913	3481
899.033	3401
899.153	3287
899.273	3218
899.393	3317
899.513	3298
899.633	3313
899.753	3344
899.873	3287
899.993	3374
900.113	3340
900.232	3351
900.352	3340
900.472	3237
900.591	3203
900.711	3310
900.83	3195
900.95	3378
901.069	3473
901.189	3283
901.308	3154
901.427	3161
901.546	3146
901.665	3275
901.784	3306
901.904	3161
902.023	3154
902.141	3032
902.26	2998
902.379	3135
902.498	3077
902.617	3024
902.735	3161
902.854	3233
902.973	3218
903.091	3036
903.21	3070
903.328	3157
903.446	3112
903.565	3089
903.683	3199
903.801	3104
903.919	3233
904.038	3291
904.156	3127
904.274	3264
904.392	3245
904.51	3306
904.627	3336
904.745	3405
904.863	3526
904.981	3211
905.098	3135
905.216	3214
905.334	3245
905.451	3249
905.569	3294
905.686	3450
905.803	3450
905.921	3306
906.038	3397
906.155	3378
906.272	3237
906.389	3317
906.506	3188
906.623	3233
906.74	3264
906.857	3184
906.974	3245
907.091	3447
907.208	3549
907.324	3454
907.441	3336
907.557	3184
907.674	3207
907.79	3199
907.907	3291
908.023	3370
908.139	3378
908.256	3313
908.372	3401
908.488	3317
908.604	3237
908.72	3230
908.836	3275
908.952	3283
909.068	3332
909.184	3466
909.3	3386
909.415	3515
909.531	3447
909.647	3272
909.762	3287
909.878	3245
909.993	3336
910.108	3310
910.224	3310
910.339	3370
910.454	3310
910.57	3298
910.685	3222
910.8	3599
910.915	3530
911.03	3416
911.145	3211
911.259	3283
911.374	3294
911.489	3241
911.604	3237
911.718	3085
911.833	3135
911.947	3036
912.062	2982
912.176	3165
912.291	3169
912.405	3192
912.519	3431
912.633	3469
912.748	3359
912.862	3249
912.976	3176
913.09	3085
913.204	3131
913.318	3188
913.431	3321
913.545	3325
913.659	3393
913.772	3332
913.886	3218
914	3161
914.113	3332
914.226	3416
914.34	3351
914.453	3188
914.566	3389
914.68	3264
914.793	3268
914.906	3085
915.019	3055
915.132	3119
915.245	3142
915.358	3176
915.47	3199
915.583	3268
915.696	3283
915.809	3397
915.921	3378
916.034	3207
916.146	3192
916.259	3256
916.371	3389
916.483	3401
916.595	3275
916.708	3351
916.82	3329
916.932	3378
917.044	3359
917.156	3359
917.268	3233
917.38	3329
917.491	3317
917.603	3397
917.715	3466
917.826	3469
917.938	3439
918.049	3321
918.161	3443
918.272	3625
918.384	3587
918.495	3526
918.606	3344
918.717	3264
918.828	3401
918.939	3447
919.05	3306
919.161	3405
919.272	3199
919.383	3321
919.494	3507
919.604	3743
919.715	3515
919.826	3458
919.936	3469
920.047	3625
920.157	3576
920.267	3781
920.378	3614
920.488	3591
920.598	3808
920.708	3991
920.818	3827
920.928	3884
921.038	4067
921.148	4032
921.258	3736
921.368	3682
921.477	3603
921.587	3591
921.697	3519
921.806	3648
921.916	3595
922.025	3409
922.134	3397
922.244	3386
922.353	3488
922.462	3294
922.571	3260
922.68	3169
922.789	3138
922.898	3214
923.007	3150
923.116	3268
923.224	3230
923.333	3203
923.442	3127
923.55	3154
923.659	3222
923.767	3237
923.876	3161
923.984	3260
924.092	3138
924.201	3218
924.309	3260
924.417	3287
924.525	3241
924.633	3275
924.741	4207
924.849	3062
924.956	3329
925.064	3100
925.172	3116
925.279	3161
925.387	3272
925.494	3241
925.602	3348
925.709	3359
925.816	3241
925.924	3348
926.031	3428
926.138	3374
926.245	3382
926.352	3313
926.459	3450
926.566	3504
926.673	3332
926.779	3291
926.886	3283
926.993	3169
927.099	3154
927.206	3165
927.312	3218
927.419	3256
927.525	3226
927.631	3302
927.737	3169
927.843	3180
927.95	3070
928.056	3142
928.162	3226
928.267	3294
928.373	3926
928.479	3329
928.585	3077
928.69	3237
928.796	3287
928.901	3173
929.007	3104
929.112	3260
929.218	3218
929.323	3207
929.428	3184
929.533	3351
929.638	3154
929.743	3195
929.848	3287
929.953	3233
930.058	3169
930.163	3024
930.267	3097
930.372	3256
930.477	3058
930.581	3340
930.685	3226
930.79	3058
930.894	3169
930.998	3085
931.103	3298
931.207	2975
931.311	3020
931.415	2937
931.519	2800
931.623	2868
