Data from test_V78500241_2000.txt Node
Date: Fri Mar 25 16:29:03 CST 2022
User: usil
Spectrometer: V785-0024
Trigger mode: 0
Integration Time (sec): 4.000000E-1
Scans to average: 1
Nonlinearity correction enabled: false
Boxcar width: 0
Storing dark spectrum: false
XAxis mode: Wavelengths
Number of Pixels in Spectrum: 1024
>>>>>Begin Spectral Data<<<<<
801.071	2899
801.214	2960
801.356	2880
801.499	2887
801.641	2906
801.783	2902
801.926	3039
802.068	2963
802.211	2975
802.353	2998
802.496	2944
802.638	2998
802.78	3047
802.923	3085
803.065	3001
803.208	2861
803.35	2899
803.492	2902
803.635	2925
803.777	2758
803.919	2868
804.061	3222
804.204	2975
804.346	2952
804.488	2876
804.63	2948
804.773	2887
804.915	2902
805.057	3100
805.199	2967
805.341	2990
805.483	3013
805.626	2998
805.768	2963
805.91	3070
806.052	3066
806.194	3051
806.336	3203
806.478	3032
806.62	2944
806.762	2982
806.904	3058
807.046	3184
807.188	2975
807.33	2914
807.472	3039
807.614	2902
807.756	2971
807.898	2906
808.04	2922
808.182	2914
808.324	2971
808.465	2868
808.607	2864
808.749	2788
808.891	2857
809.033	2967
809.174	2982
809.316	2895
809.458	2895
809.6	2777
809.741	2773
809.883	2792
810.025	2830
810.166	2861
810.308	2804
810.45	2842
810.591	2773
810.733	2788
810.875	2819
811.016	2785
811.158	2781
811.299	2777
811.441	2922
811.582	2895
811.724	2849
811.865	2830
812.007	2891
812.148	2857
812.29	2849
812.431	2880
812.573	2952
812.714	2986
812.855	3013
812.997	3024
813.138	3123
813.279	3028
813.421	2975
813.562	2971
813.703	2842
813.845	2899
813.986	2781
814.127	2727
814.268	2842
814.41	2861
814.551	2788
814.692	2883
814.833	2815
814.974	2872
815.115	2956
815.256	2826
815.397	2785
815.539	2872
815.68	2769
815.821	2777
815.962	2941
816.103	2891
816.244	2861
816.385	2849
816.526	2952
816.666	2929
816.807	2746
816.948	2902
817.089	2918
817.23	2857
817.371	2766
817.512	2792
817.653	2838
817.793	2785
817.934	2910
818.075	2933
818.216	2979
818.356	3039
818.497	2895
818.638	2769
818.778	2773
818.919	2788
819.06	2762
819.2	2887
819.341	2785
819.481	2800
819.622	2922
819.762	3047
819.903	3005
820.043	2899
820.184	2914
820.324	2941
820.465	3009
820.605	3009
820.746	3001
820.886	2929
821.026	3081
821.167	3116
821.307	3233
821.447	3260
821.588	3226
821.728	3207
821.868	3192
822.008	3081
822.149	3184
822.289	3256
822.429	3085
822.569	3116
822.709	3188
822.849	3028
822.99	3051
823.13	3142
823.27	3176
823.41	3085
823.55	3161
823.69	3150
823.83	3154
823.97	3089
824.11	2994
824.25	2963
824.389	3085
824.529	3074
824.669	3066
824.809	3157
824.949	3272
825.089	3230
825.228	3138
825.368	2998
825.508	2944
825.648	2975
825.787	3005
825.927	3005
826.067	2963
826.206	2990
826.346	3024
826.485	3089
826.625	3127
826.765	3233
826.904	3195
827.044	3009
827.183	2899
827.323	2876
827.462	2990
827.601	2887
827.741	2952
827.88	2933
828.02	2849
828.159	2941
828.298	3043
828.437	3100
828.577	3017
828.716	3237
828.855	3085
828.994	2918
829.134	2834
829.273	2902
829.412	2838
829.551	2857
829.69	2914
829.829	2979
829.968	3123
830.107	3020
830.246	3001
830.385	2895
830.524	2880
830.663	2830
830.802	2724
830.941	2670
831.08	2663
831.219	2766
831.357	2758
831.496	2925
831.635	2689
831.774	2651
831.913	2640
832.051	2533
832.19	2556
832.329	2667
832.467	2530
832.606	2473
832.744	2568
832.883	2564
833.022	2564
833.16	2651
833.299	2686
833.437	2686
833.576	2705
833.714	2705
833.852	2746
833.991	2743
834.129	2864
834.267	2796
834.406	2788
834.544	2887
834.682	2868
834.821	2868
834.959	3081
835.097	2902
835.235	3043
835.373	2990
835.511	2975
835.65	2990
835.788	2982
835.926	2819
836.064	2819
836.202	2819
836.34	3074
836.478	3150
836.615	3043
836.753	3093
836.891	3188
837.029	3165
837.167	3127
837.305	3043
837.443	3055
837.58	2956
837.718	3119
837.856	3032
837.993	2990
838.131	3112
838.269	3047
838.406	3077
838.544	3055
838.681	2925
838.819	2906
838.956	2804
839.094	2834
839.231	2891
839.369	3036
839.506	3355
839.643	3233
839.781	2990
839.918	2922
840.055	3024
840.193	3047
840.33	3055
840.467	3112
840.604	3161
840.742	3401
840.879	3047
841.016	3036
841.153	3138
841.29	3310
841.427	3287
841.564	3302
841.701	3317
841.838	3199
841.975	3142
842.112	3237
842.249	3097
842.385	3047
842.522	3230
842.659	3077
842.796	3066
842.933	3066
843.069	3017
843.206	3005
843.343	3207
843.479	3108
843.616	3154
843.752	2887
843.889	2853
844.025	3097
844.162	2864
844.298	3066
844.435	2948
844.571	2937
844.708	3093
844.844	3180
844.98	3260
845.117	3188
845.253	3032
845.389	2979
845.525	3085
845.661	3093
845.798	2982
845.934	3146
846.07	3062
846.206	3253
846.342	3291
846.478	3199
846.614	3058
846.75	3017
846.886	3024
847.022	3237
847.158	3100
847.294	3207
847.429	3218
847.565	3268
847.701	3473
847.837	3024
847.972	2979
848.108	3161
848.244	3119
848.379	3001
848.515	2899
848.65	2937
848.786	2925
848.921	2979
849.057	3081
849.192	3127
849.328	3032
849.463	3135
849.598	3074
849.734	3024
849.869	2971
850.004	2922
850.14	2922
850.275	2872
850.41	2849
850.545	2872
850.68	2910
850.815	2944
850.95	2979
851.085	3173
851.22	3081
851.355	3070
851.49	2979
851.625	3028
851.76	3005
851.895	2925
852.03	2914
852.165	3058
852.299	3123
852.434	3192
852.569	3119
852.703	3192
852.838	3226
852.973	3370
853.107	3310
853.242	3157
853.376	3081
853.511	2982
853.645	3039
853.78	3214
853.914	3077
854.048	3119
854.183	3085
854.317	3135
854.451	3268
854.585	3154
854.72	3097
854.854	3203
854.988	3085
855.122	3089
855.256	2982
855.39	3131
855.524	3245
855.658	3195
855.792	3154
855.926	3188
856.06	3226
856.194	3264
856.327	3157
856.461	3036
856.595	3047
856.729	3077
856.862	3203
856.996	3135
857.13	3161
857.263	3214
857.397	3275
857.53	3089
857.664	3184
857.797	3237
857.931	3272
858.064	3161
858.197	3180
858.331	3112
858.464	3081
858.597	3051
858.731	3097
858.864	3146
858.997	3089
859.13	3157
859.263	3138
859.396	3195
859.529	3047
859.662	3066
859.795	3047
859.928	3123
860.061	3275
860.194	3256
860.327	3047
860.46	3085
860.592	3233
860.725	3272
860.858	3256
860.99	3081
861.123	3062
861.256	3032
861.388	3135
861.521	3827
861.653	3032
861.786	2971
861.918	3017
862.05	3062
862.183	3127
862.315	3150
862.447	3195
862.58	3051
862.712	2933
862.844	2857
862.976	3017
863.108	2982
863.24	3313
863.372	2883
863.504	2982
863.636	2971
863.768	3009
863.9	2952
864.032	2895
864.164	2960
864.296	3017
864.428	3104
864.559	3058
864.691	3085
864.823	3070
864.954	3043
865.086	3058
865.217	3024
865.349	2944
865.48	2986
865.612	3039
865.743	3112
865.875	3001
866.006	2925
866.137	2952
866.269	2963
866.4	2933
866.531	2891
866.662	2849
866.793	2849
866.924	2929
867.055	2990
867.186	2914
867.317	2849
867.448	2826
867.579	2830
867.71	2845
867.841	2826
867.972	2925
868.103	2933
868.233	2887
868.364	2899
868.495	2876
868.625	3047
868.756	3161
868.886	2986
869.017	2975
869.147	3173
869.278	3161
869.408	3032
869.539	3028
869.669	3089
869.799	3051
869.929	3104
870.06	3085
870.19	3325
870.32	3294
870.45	3294
870.58	3416
870.71	3458
870.84	3431
870.97	3310
871.1	3218
871.23	3462
871.36	3424
871.489	3378
871.619	3367
871.749	3378
871.879	3458
872.008	3447
872.138	3332
872.267	3275
872.397	3157
872.526	3097
872.656	2990
872.785	3100
872.915	3214
873.044	3310
873.173	3211
873.303	3237
873.432	3237
873.561	3207
873.69	3138
873.819	3108
873.948	3192
874.077	3055
874.206	3020
874.335	3089
874.464	3233
874.593	3336
874.722	3245
874.851	3397
874.979	3359
875.108	3268
875.237	3161
875.365	3150
875.494	3142
875.623	3249
875.751	3108
875.88	3100
876.008	3211
876.136	3188
876.265	3367
876.393	3511
876.521	3439
876.65	3397
876.778	3302
876.906	3268
877.034	3207
877.162	3222
877.29	3173
877.418	3253
877.546	3260
877.674	3203
877.802	3230
877.93	3203
878.058	3195
878.185	3093
878.313	3142
878.441	3173
878.568	3062
878.696	3165
878.824	3233
878.951	3302
879.079	3428
879.206	3641
879.333	3458
879.461	3310
879.588	3359
879.715	3450
879.842	3603
879.97	3389
880.097	3142
880.224	3097
880.351	3173
880.478	3184
880.605	3199
880.732	3211
880.859	3500
880.986	3237
881.112	3321
881.239	3211
881.366	3070
881.493	3047
881.619	3043
881.746	3081
881.872	3085
881.999	3112
882.125	3123
882.252	3233
882.378	3287
882.505	3420
882.631	3291
882.757	3161
882.883	3233
883.01	3214
883.136	3119
883.262	3085
883.388	3123
883.514	3332
883.64	3386
883.766	3325
883.892	3214
884.018	3195
884.143	3389
884.269	3545
884.395	3195
884.52	3131
884.646	3176
884.772	3097
884.897	3116
885.023	3180
885.148	3329
885.274	3393
885.399	3363
885.524	3291
885.65	3279
885.775	3332
885.9	3283
886.025	3420
886.15	3329
886.275	3283
886.4	3275
886.525	3306
886.65	3291
886.775	3268
886.9	3496
887.025	3625
887.149	3393
887.274	3264
887.399	3135
887.523	3207
887.648	3142
887.773	3207
887.897	3332
888.021	3409
888.146	3287
888.27	3409
888.395	3553
888.519	3424
888.643	3458
888.767	3420
888.891	3294
889.015	3233
889.139	3256
889.263	3237
889.387	3363
889.511	3481
889.635	3443
889.759	3283
889.883	3264
890.006	3374
890.13	3462
890.254	3260
890.377	3283
890.501	3176
890.624	3211
890.748	3272
890.871	3169
890.995	3085
891.118	3036
891.241	3199
891.364	3211
891.488	3332
891.611	3150
891.734	3188
891.857	3287
891.98	3237
892.103	3344
892.226	3287
892.349	3233
892.471	3043
892.594	3275
892.717	3306
892.839	3317
892.962	3275
893.085	3363
893.207	3275
893.33	3157
893.452	3195
893.575	3310
893.697	3283
893.819	3386
893.941	3454
894.064	3447
894.186	3291
894.308	3287
894.43	3473
894.552	3534
894.674	3466
894.796	3256
894.918	3306
895.04	3256
895.161	3424
895.283	3409
895.405	3302
895.526	3367
895.648	3450
895.769	3431
895.891	3428
896.012	3416
896.134	3458
896.255	3424
896.376	3374
896.498	3389
896.619	3412
896.74	3363
896.861	3420
896.982	3660
897.103	3793
897.224	3599
897.345	3526
897.466	3435
897.587	3504
897.708	3603
897.828	3523
897.949	3462
898.07	3306
898.19	3378
898.311	3587
898.431	3431
898.552	3473
898.672	3587
898.792	3599
898.913	3488
899.033	3420
899.153	3298
899.273	3192
899.393	3291
899.513	3275
899.633	3313
899.753	3302
899.873	3340
899.993	3348
900.113	3302
900.232	3370
900.352	3348
900.472	3253
900.591	3173
900.711	3283
900.83	3249
900.95	3447
901.069	3496
901.189	3386
901.308	3188
901.427	3112
901.546	3180
901.665	3291
901.784	3321
901.904	3226
902.023	3154
902.141	3005
902.26	2994
902.379	3161
902.498	3066
902.617	3058
902.735	3222
902.854	3245
902.973	3199
903.091	3039
903.21	3100
903.328	3131
903.446	3093
903.565	3085
903.683	3150
903.801	3093
903.919	3245
904.038	3287
904.156	3142
904.274	3291
904.392	3222
904.51	3310
904.627	3355
904.745	3447
904.863	3500
904.981	3237
905.098	3173
905.216	3233
905.334	3245
905.451	3253
905.569	3317
905.686	3439
905.803	3435
905.921	3302
906.038	3435
906.155	3359
906.272	3253
906.389	3336
906.506	3192
906.623	3241
906.74	3256
906.857	3169
906.974	3245
907.091	3466
907.208	3557
907.324	3496
907.441	3405
907.557	3241
907.674	3237
907.79	3169
907.907	3291
908.023	3340
908.139	3351
908.256	3359
908.372	3348
908.488	3367
908.604	3302
908.72	3192
908.836	3310
908.952	3291
909.068	3332
909.184	3458
909.3	3351
909.415	3496
909.531	3454
909.647	3264
909.762	3241
909.878	3233
909.993	3348
910.108	3310
910.224	3329
910.339	3389
910.454	3336
910.57	3291
910.685	3249
910.8	3568
910.915	3557
911.03	3439
911.145	3253
911.259	3264
911.374	3283
911.489	3253
911.604	3222
911.718	3131
911.833	3116
911.947	3020
912.062	2982
912.176	3165
912.291	3226
912.405	3195
912.519	3412
912.633	3462
912.748	3348
912.862	3256
912.976	3157
913.09	3047
913.204	3116
913.318	3207
913.431	3340
913.545	3336
913.659	3405
913.772	3321
913.886	3218
914	3211
914.113	3317
914.226	3416
914.34	3340
914.453	3207
914.566	3389
914.68	3313
914.793	3279
914.906	3131
915.019	3127
915.132	3077
915.245	3184
915.358	3214
915.47	3226
915.583	3294
915.696	3275
915.809	3405
915.921	3367
916.034	3260
916.146	3279
916.259	3233
916.371	3344
916.483	3378
916.595	3275
916.708	3325
916.82	3298
916.932	3302
917.044	3329
917.156	3382
917.268	3264
917.38	3317
917.491	3283
917.603	3348
917.715	3420
917.826	3443
917.938	3382
918.049	3283
918.161	3431
918.272	3591
918.384	3553
918.495	3496
918.606	3348
918.717	3264
918.828	3370
918.939	3420
919.05	3306
919.161	3405
919.272	3154
919.383	3283
919.494	3477
919.604	3671
919.715	3488
919.826	3401
919.936	3454
920.047	3587
920.157	3523
920.267	3785
920.378	3603
920.488	3557
920.598	3804
920.708	3922
920.818	3785
920.928	3835
921.038	4044
921.148	3964
921.258	3694
921.368	3637
921.477	3584
921.587	3515
921.697	3466
921.806	3637
921.916	3511
922.025	3355
922.134	3344
922.244	3329
922.353	3393
922.462	3260
922.571	3226
922.68	3081
922.789	3097
922.898	3142
923.007	3097
923.116	3192
923.224	3161
923.333	3180
923.442	3112
923.55	3108
923.659	3138
923.767	3230
923.876	3100
923.984	3222
924.092	3116
924.201	3226
924.309	3249
924.417	3253
924.525	3192
924.633	3253
924.741	4192
924.849	3036
924.956	3264
925.064	3097
925.172	3017
925.279	3093
925.387	3207
925.494	3233
925.602	3329
925.709	3306
925.816	3214
925.924	3329
926.031	3370
926.138	3321
926.245	3336
926.352	3245
926.459	3409
926.566	3477
926.673	3264
926.779	3207
926.886	3264
926.993	3131
927.099	3097
927.206	3100
927.312	3150
927.419	3241
927.525	3188
927.631	3275
927.737	3138
927.843	3100
927.95	3009
928.056	3119
928.162	3154
928.267	3230
928.373	3876
928.479	3306
928.585	3062
928.69	3184
928.796	3283
928.901	3180
929.007	3039
929.112	3207
929.218	3146
929.323	3119
929.428	3161
929.533	3325
929.638	3104
929.743	3188
929.848	3226
929.953	3188
930.058	3165
930.163	2971
930.267	3062
930.372	3173
930.477	3028
930.581	3306
930.685	3188
930.79	3009
930.894	3093
930.998	3070
931.103	3241
931.207	2941
931.311	2941
931.415	2952
931.519	2750
931.623	2819
