Data from test_V78500241_1082.txt Node
Date: Fri Mar 25 16:22:41 CST 2022
User: usil
Spectrometer: V785-0024
Trigger mode: 0
Integration Time (sec): 4.000000E-1
Scans to average: 1
Nonlinearity correction enabled: false
Boxcar width: 0
Storing dark spectrum: false
XAxis mode: Wavelengths
Number of Pixels in Spectrum: 1024
>>>>>Begin Spectral Data<<<<<
801.071	2952
801.214	2956
801.356	2868
801.499	2922
801.641	2864
801.783	2914
801.926	3062
802.068	2967
802.211	2967
802.353	3074
802.496	2990
802.638	2990
802.78	3024
802.923	3074
803.065	2998
803.208	2872
803.35	2948
803.492	2960
803.635	2906
803.777	2762
803.919	2849
804.061	3214
804.204	2944
804.346	2902
804.488	2853
804.63	2990
804.773	2849
804.915	2914
805.057	3070
805.199	2937
805.341	2925
805.483	3032
805.626	3005
805.768	2937
805.91	3127
806.052	3119
806.194	3020
806.336	3226
806.478	3009
806.62	2948
806.762	2963
806.904	3066
807.046	3154
807.188	2944
807.33	2918
807.472	3039
807.614	2864
807.756	2956
807.898	2906
808.04	2925
808.182	2994
808.324	2963
808.465	2880
808.607	2853
808.749	2792
808.891	2830
809.033	2979
809.174	2967
809.316	2922
809.458	2883
809.6	2777
809.741	2792
809.883	2766
810.025	2849
810.166	2868
810.308	2826
810.45	2876
810.591	2769
810.733	2773
810.875	2838
811.016	2766
811.158	2746
811.299	2781
811.441	2944
811.582	2887
811.724	2868
811.865	2804
812.007	2899
812.148	2861
812.29	2838
812.431	2910
812.573	2937
812.714	2933
812.855	3066
812.997	3051
813.138	3154
813.279	2975
813.421	3009
813.562	2990
813.703	2872
813.845	2906
813.986	2788
814.127	2758
814.268	2838
814.41	2838
814.551	2811
814.692	2857
814.833	2823
814.974	2887
815.115	2944
815.256	2838
815.397	2819
815.539	2853
815.68	2754
815.821	2807
815.962	2952
816.103	2887
816.244	2876
816.385	2849
816.526	2948
816.666	2902
816.807	2750
816.948	2895
817.089	2899
817.23	2876
817.371	2796
817.512	2788
817.653	2849
817.793	2811
817.934	2880
818.075	2963
818.216	3024
818.356	3013
818.497	2880
818.638	2785
818.778	2842
818.919	2807
819.06	2754
819.2	2834
819.341	2826
819.481	2807
819.622	2925
819.762	3066
819.903	3039
820.043	2887
820.184	2895
820.324	2914
820.465	3017
820.605	2982
820.746	3009
820.886	2922
821.026	3089
821.167	3127
821.307	3237
821.447	3321
821.588	3245
821.728	3211
821.868	3150
822.008	3070
822.149	3214
822.289	3184
822.429	3097
822.569	3089
822.709	3207
822.849	3001
822.99	3058
823.13	3165
823.27	3169
823.41	3127
823.55	3169
823.69	3138
823.83	3176
823.97	3077
824.11	3013
824.25	2998
824.389	3077
824.529	3116
824.669	3062
824.809	3211
824.949	3260
825.089	3188
825.228	3157
825.368	2990
825.508	2925
825.648	2960
825.787	3028
825.927	3036
826.067	2998
826.206	2937
826.346	3032
826.485	3093
826.625	3112
826.765	3264
826.904	3222
827.044	2975
827.183	2933
827.323	2849
827.462	2967
827.601	2899
827.741	2933
827.88	2956
828.02	2842
828.159	2952
828.298	3039
828.437	3116
828.577	3074
828.716	3268
828.855	3047
828.994	2906
829.134	2891
829.273	2925
829.412	2853
829.551	2838
829.69	2883
829.829	3005
829.968	3116
830.107	2967
830.246	3039
830.385	2910
830.524	2868
830.663	2823
830.802	2739
830.941	2632
831.08	2663
831.219	2750
831.357	2754
831.496	2944
831.635	2735
831.774	2648
831.913	2632
832.051	2522
832.19	2556
832.329	2663
832.467	2537
832.606	2465
832.744	2545
832.883	2556
833.022	2610
833.16	2655
833.299	2648
833.437	2667
833.576	2686
833.714	2697
833.852	2720
833.991	2727
834.129	2838
834.267	2842
834.406	2785
834.544	2819
834.682	2853
834.821	2819
834.959	3036
835.097	2872
835.235	3066
835.373	2990
835.511	3032
835.65	2967
835.788	2960
835.926	2853
836.064	2826
836.202	2842
836.34	3085
836.478	3146
836.615	3055
836.753	3123
836.891	3218
837.029	3188
837.167	3077
837.305	3047
837.443	3051
837.58	2952
837.718	3127
837.856	3051
837.993	2994
838.131	3127
838.269	3104
838.406	3089
838.544	3055
838.681	2922
838.819	2910
838.956	2800
839.094	2853
839.231	2960
839.369	3051
839.506	3389
839.643	3176
839.781	3005
839.918	2967
840.055	3043
840.193	3051
840.33	3043
840.467	3077
840.604	3184
840.742	3378
840.879	3066
841.016	3032
841.153	3100
841.29	3310
841.427	3306
841.564	3226
841.701	3298
841.838	3211
841.975	3146
842.112	3203
842.249	3070
842.385	3043
842.522	3253
842.659	3108
842.796	3062
842.933	3112
843.069	3032
843.206	3005
843.343	3161
843.479	3112
843.616	3138
843.752	2914
843.889	2849
844.025	3039
844.162	2899
844.298	3039
844.435	2937
844.571	2906
844.708	3066
844.844	3173
844.98	3253
845.117	3180
845.253	3020
845.389	3024
845.525	3058
845.661	3119
845.798	2986
845.934	3093
846.07	3085
846.206	3230
846.342	3313
846.478	3195
846.614	3104
846.75	3036
846.886	3020
847.022	3256
847.158	3093
847.294	3218
847.429	3233
847.565	3184
847.701	3450
847.837	3066
847.972	3005
848.108	3150
848.244	3112
848.379	2994
848.515	2929
848.65	2891
848.786	2967
848.921	2994
849.057	3089
849.192	3150
849.328	3058
849.463	3138
849.598	3089
849.734	3028
849.869	2929
850.004	2899
850.14	2948
850.275	2876
850.41	2830
850.545	2876
850.68	2929
850.815	2929
850.95	2979
851.085	3199
851.22	3062
851.355	3013
851.49	2982
851.625	2956
851.76	2998
851.895	2944
852.03	2922
852.165	3005
852.299	3036
852.434	3154
852.569	3161
852.703	3176
852.838	3264
852.973	3298
853.107	3317
853.242	3157
853.376	3119
853.511	2979
853.645	2986
853.78	3195
853.914	3138
854.048	3100
854.183	3058
854.317	3123
854.451	3279
854.585	3138
854.72	3077
854.854	3233
854.988	3066
855.122	3085
855.256	2899
855.39	3100
855.524	3218
855.658	3173
855.792	3104
855.926	3180
856.06	3218
856.194	3226
856.327	3135
856.461	3043
856.595	3081
856.729	3074
856.862	3207
856.996	3142
857.13	3192
857.263	3237
857.397	3291
857.53	3142
857.664	3176
857.797	3249
857.931	3253
858.064	3150
858.197	3157
858.331	3112
858.464	3055
858.597	2998
858.731	3135
858.864	3135
858.997	3077
859.13	3150
859.263	3138
859.396	3203
859.529	3081
859.662	3074
859.795	3009
859.928	3112
860.061	3245
860.194	3279
860.327	3161
860.46	3116
860.592	3233
860.725	3272
860.858	3253
860.99	3070
861.123	3070
861.256	3039
861.388	3173
861.521	3762
861.653	3036
861.786	2971
861.918	2971
862.05	3047
862.183	3070
862.315	3112
862.447	3150
862.58	3039
862.712	2948
862.844	2887
862.976	3005
863.108	2994
863.24	3310
863.372	2891
863.504	2952
863.636	2933
863.768	3028
863.9	2925
864.032	2872
864.164	2956
864.296	2998
864.428	3074
864.559	3077
864.691	3097
864.823	3100
864.954	2982
865.086	3032
865.217	2998
865.349	2952
865.48	2990
865.612	2960
865.743	3123
865.875	2979
866.006	2937
866.137	2967
866.269	2944
866.4	2948
866.531	2910
866.662	2880
866.793	2887
866.924	2902
867.055	2941
867.186	2887
867.317	2876
867.448	2807
867.579	2807
867.71	2811
867.841	2811
867.972	2925
868.103	2914
868.233	2876
868.364	2872
868.495	2876
868.625	3047
868.756	3169
868.886	2982
869.017	2994
869.147	3157
869.278	3188
869.408	3047
869.539	3051
869.669	3135
869.799	3009
869.929	3131
870.06	3108
870.19	3321
870.32	3283
870.45	3329
870.58	3363
870.71	3397
870.84	3435
870.97	3272
871.1	3264
871.23	3428
871.36	3428
871.489	3344
871.619	3389
871.749	3389
871.879	3447
872.008	3447
872.138	3332
872.267	3256
872.397	3169
872.526	3112
872.656	2971
872.785	3100
872.915	3272
873.044	3256
873.173	3230
873.303	3214
873.432	3249
873.561	3218
873.69	3146
873.819	3119
873.948	3195
874.077	3108
874.206	3001
874.335	3104
874.464	3188
874.593	3298
874.722	3237
874.851	3344
874.979	3355
875.108	3317
875.237	3146
875.365	3176
875.494	3169
875.623	3245
875.751	3062
875.88	3074
876.008	3192
876.136	3256
876.265	3389
876.393	3507
876.521	3397
876.65	3370
876.778	3332
876.906	3264
877.034	3218
877.162	3199
877.29	3233
877.418	3256
877.546	3203
877.674	3233
877.802	3161
877.93	3188
878.058	3131
878.185	3127
878.313	3214
878.441	3211
878.568	3043
878.696	3108
878.824	3218
878.951	3317
879.079	3397
879.206	3629
879.333	3450
879.461	3306
879.588	3351
879.715	3424
879.842	3568
879.97	3370
880.097	3154
880.224	3112
880.351	3173
880.478	3241
880.605	3176
880.732	3161
880.859	3485
880.986	3260
881.112	3317
881.239	3192
881.366	3108
881.493	3043
881.619	3028
881.746	3077
881.872	3062
881.999	3104
882.125	3146
882.252	3233
882.378	3325
882.505	3439
882.631	3218
882.757	3119
882.883	3176
883.01	3207
883.136	3157
883.262	3062
883.388	3116
883.514	3287
883.64	3363
883.766	3310
883.892	3161
884.018	3214
884.143	3416
884.269	3504
884.395	3222
884.52	3135
884.646	3184
884.772	3161
884.897	3081
885.023	3169
885.148	3317
885.274	3416
885.399	3348
885.524	3268
885.65	3256
885.775	3291
885.9	3241
886.025	3389
886.15	3325
886.275	3287
886.4	3230
886.525	3321
886.65	3256
886.775	3237
886.9	3485
887.025	3622
887.149	3363
887.274	3226
887.399	3192
887.523	3161
887.648	3169
887.773	3188
887.897	3389
888.021	3405
888.146	3264
888.27	3431
888.395	3507
888.519	3420
888.643	3435
888.767	3477
888.891	3332
889.015	3211
889.139	3268
889.263	3287
889.387	3409
889.511	3511
889.635	3439
889.759	3306
889.883	3283
890.006	3382
890.13	3504
890.254	3268
890.377	3370
890.501	3218
890.624	3180
890.748	3260
890.871	3188
890.995	3138
891.118	3066
891.241	3192
891.364	3264
891.488	3313
891.611	3195
891.734	3260
891.857	3370
891.98	3275
892.103	3348
892.226	3291
892.349	3211
892.471	3157
892.594	3272
892.717	3317
892.839	3336
892.962	3310
893.085	3359
893.207	3321
893.33	3169
893.452	3253
893.575	3363
893.697	3306
893.819	3492
893.941	3526
894.064	3473
894.186	3291
894.308	3321
894.43	3492
894.552	3606
894.674	3542
894.796	3287
894.918	3382
895.04	3336
895.161	3500
895.283	3367
895.405	3367
895.526	3424
895.648	3443
895.769	3435
895.891	3515
896.012	3428
896.134	3492
896.255	3428
896.376	3412
896.498	3397
896.619	3488
896.74	3405
896.861	3424
896.982	3709
897.103	3838
897.224	3614
897.345	3538
897.466	3469
897.587	3545
897.708	3633
897.828	3553
897.949	3488
898.07	3382
898.19	3496
898.311	3576
898.431	3454
898.552	3568
898.672	3606
898.792	3656
898.913	3614
899.033	3454
899.153	3317
899.273	3199
899.393	3310
899.513	3348
899.633	3313
899.753	3351
899.873	3340
899.993	3431
900.113	3348
900.232	3431
900.352	3409
900.472	3313
900.591	3245
900.711	3351
900.83	3321
900.95	3458
901.069	3538
901.189	3416
901.308	3222
901.427	3176
901.546	3245
901.665	3302
901.784	3317
901.904	3233
902.023	3165
902.141	3055
902.26	3013
902.379	3173
902.498	3116
902.617	3123
902.735	3230
902.854	3233
902.973	3256
903.091	3055
903.21	3081
903.328	3142
903.446	3138
903.565	3135
903.683	3218
903.801	3123
903.919	3291
904.038	3287
904.156	3192
904.274	3325
904.392	3279
904.51	3294
904.627	3351
904.745	3466
904.863	3526
904.981	3279
905.098	3199
905.216	3214
905.334	3325
905.451	3325
905.569	3363
905.686	3439
905.803	3428
905.921	3317
906.038	3485
906.155	3363
906.272	3325
906.389	3359
906.506	3241
906.623	3321
906.74	3302
906.857	3199
906.974	3264
907.091	3439
907.208	3580
907.324	3530
907.441	3420
907.557	3256
907.674	3283
907.79	3222
907.907	3249
908.023	3386
908.139	3374
908.256	3329
908.372	3405
908.488	3359
908.604	3268
908.72	3256
908.836	3321
908.952	3249
909.068	3374
909.184	3492
909.3	3412
909.415	3538
909.531	3488
909.647	3317
909.762	3317
909.878	3287
909.993	3386
910.108	3382
910.224	3374
910.339	3435
910.454	3348
910.57	3325
910.685	3317
910.8	3618
910.915	3576
911.03	3485
911.145	3283
911.259	3291
911.374	3313
911.489	3279
911.604	3310
911.718	3138
911.833	3161
911.947	3097
912.062	3043
912.176	3176
912.291	3214
912.405	3256
912.519	3450
912.633	3485
912.748	3332
912.862	3253
912.976	3180
913.09	3074
913.204	3173
913.318	3233
913.431	3370
913.545	3393
913.659	3416
913.772	3389
913.886	3256
914	3203
914.113	3382
914.226	3447
914.34	3424
914.453	3253
914.566	3443
914.68	3389
914.793	3336
914.906	3199
915.019	3138
915.132	3097
915.245	3199
915.358	3264
915.47	3245
915.583	3256
915.696	3268
915.809	3454
915.921	3424
916.034	3287
916.146	3241
916.259	3260
916.371	3405
916.483	3405
916.595	3272
916.708	3363
916.82	3378
916.932	3359
917.044	3370
917.156	3370
917.268	3256
917.38	3317
917.491	3329
917.603	3386
917.715	3469
917.826	3477
917.938	3412
918.049	3306
918.161	3462
918.272	3580
918.384	3584
918.495	3500
918.606	3378
918.717	3298
918.828	3374
918.939	3401
919.05	3306
919.161	3367
919.272	3203
919.383	3329
919.494	3500
919.604	3709
919.715	3530
919.826	3420
919.936	3473
920.047	3561
920.157	3576
920.267	3778
920.378	3633
920.488	3614
920.598	3797
920.708	4013
920.818	3854
920.928	3861
921.038	4036
921.148	4029
921.258	3709
921.368	3637
921.477	3663
921.587	3564
921.697	3492
921.806	3644
921.916	3561
922.025	3325
922.134	3348
922.244	3317
922.353	3435
922.462	3291
922.571	3249
922.68	3161
922.789	3093
922.898	3180
923.007	3108
923.116	3241
923.224	3199
923.333	3214
923.442	3131
923.55	3127
923.659	3146
923.767	3237
923.876	3138
923.984	3264
924.092	3085
924.201	3214
924.309	3264
924.417	3272
924.525	3203
924.633	3241
924.741	3975
924.849	3100
924.956	3291
925.064	3119
925.172	3055
925.279	3150
925.387	3169
925.494	3233
925.602	3374
925.709	3351
925.816	3169
925.924	3321
926.031	3374
926.138	3344
926.245	3389
926.352	3279
926.459	3462
926.566	3473
926.673	3374
926.779	3268
926.886	3302
926.993	3207
927.099	3138
927.206	3131
927.312	3169
927.419	3264
927.525	3226
927.631	3275
927.737	3192
927.843	3116
927.95	3058
928.056	3184
928.162	3173
928.267	3264
928.373	3857
928.479	3351
928.585	3081
928.69	3279
928.796	3283
928.901	3192
929.007	3081
929.112	3222
929.218	3195
929.323	3138
929.428	3199
929.533	3355
929.638	3165
929.743	3180
929.848	3268
929.953	3237
930.058	3192
930.163	3043
930.267	3074
930.372	3218
930.477	3062
930.581	3370
930.685	3207
930.79	3119
930.894	3146
930.998	3112
931.103	3298
931.207	2994
931.311	2952
931.415	2948
931.519	2788
931.623	2849
