Data from test_V78500241_47.txt Node
Date: Fri Mar 25 16:15:31 CST 2022
User: usil
Spectrometer: V785-0024
Trigger mode: 0
Integration Time (sec): 4.000000E-1
Scans to average: 1
Nonlinearity correction enabled: false
Boxcar width: 0
Storing dark spectrum: false
XAxis mode: Wavelengths
Number of Pixels in Spectrum: 1024
>>>>>Begin Spectral Data<<<<<
801.071	2979
801.214	3013
801.356	2925
801.499	2960
801.641	2948
801.783	2967
801.926	3070
802.068	3047
802.211	3085
802.353	3074
802.496	3036
802.638	3085
802.78	3077
802.923	3131
803.065	3028
803.208	2967
803.35	2948
803.492	2994
803.635	2952
803.777	2811
803.919	2899
804.061	3222
804.204	2975
804.346	2944
804.488	2906
804.63	3051
804.773	2906
804.915	2994
805.057	3085
805.199	2975
805.341	3028
805.483	3089
805.626	3028
805.768	2998
805.91	3131
806.052	3169
806.194	3089
806.336	3291
806.478	3055
806.62	2994
806.762	3017
806.904	3093
807.046	3180
807.188	3020
807.33	2967
807.472	3020
807.614	2948
807.756	3047
807.898	2941
808.04	2925
808.182	3013
808.324	3020
808.465	2925
808.607	2933
808.749	2853
808.891	2899
809.033	3001
809.174	3036
809.316	2944
809.458	2922
809.6	2788
809.741	2785
809.883	2811
810.025	2880
810.166	2906
810.308	2902
810.45	2937
810.591	2807
810.733	2826
810.875	2876
811.016	2826
811.158	2807
811.299	2838
811.441	2998
811.582	2918
811.724	2853
811.865	2883
812.007	2967
812.148	2902
812.29	2891
812.431	2944
812.573	2971
812.714	2967
812.855	3085
812.997	3108
813.138	3184
813.279	3055
813.421	3039
813.562	2963
813.703	2929
813.845	2918
813.986	2826
814.127	2754
814.268	2830
814.41	2891
814.551	2853
814.692	2895
814.833	2876
814.974	2918
815.115	3020
815.256	2857
815.397	2819
815.539	2880
815.68	2796
815.821	2811
815.962	2979
816.103	2948
816.244	2933
816.385	2861
816.526	3005
816.666	2963
816.807	2792
816.948	2929
817.089	2925
817.23	2887
817.371	2845
817.512	2815
817.653	2853
817.793	2857
817.934	2922
818.075	2963
818.216	2986
818.356	3036
818.497	2918
818.638	2834
818.778	2861
818.919	2819
819.06	2826
819.2	2933
819.341	2834
819.481	2857
819.622	2975
819.762	3127
819.903	3089
820.043	2941
820.184	2979
820.324	2937
820.465	3081
820.605	3058
820.746	3089
820.886	2990
821.026	3165
821.167	3169
821.307	3306
821.447	3325
821.588	3279
821.728	3275
821.868	3245
822.008	3154
822.149	3211
822.289	3294
822.429	3157
822.569	3184
822.709	3237
822.849	3077
822.99	3119
823.13	3203
823.27	3283
823.41	3195
823.55	3233
823.69	3230
823.83	3298
823.97	3146
824.11	3036
824.25	3116
824.389	3173
824.529	3154
824.669	3157
824.809	3268
824.949	3363
825.089	3313
825.228	3268
825.368	3074
825.508	3058
825.648	3013
825.787	3085
825.927	3131
826.067	3032
826.206	3043
826.346	3089
826.485	3142
826.625	3188
826.765	3363
826.904	3272
827.044	3089
827.183	3043
827.323	2963
827.462	3051
827.601	3009
827.741	3020
827.88	3062
828.02	2918
828.159	3036
828.298	3077
828.437	3180
828.577	3142
828.716	3298
828.855	3131
828.994	2990
829.134	2948
829.273	2986
829.412	2918
829.551	2963
829.69	2960
829.829	3066
829.968	3211
830.107	3097
830.246	3066
830.385	2990
830.524	2948
830.663	2853
830.802	2815
830.941	2716
831.08	2735
831.219	2842
831.357	2823
831.496	3051
831.635	2746
831.774	2731
831.913	2731
832.051	2610
832.19	2663
832.329	2750
832.467	2644
832.606	2545
832.744	2640
832.883	2663
833.022	2655
833.16	2697
833.299	2785
833.437	2758
833.576	2743
833.714	2838
833.852	2792
833.991	2864
834.129	2941
834.267	2891
834.406	2853
834.544	2914
834.682	2925
834.821	2944
834.959	3119
835.097	2979
835.235	3127
835.373	3058
835.511	3100
835.65	3055
835.788	3013
835.926	2872
836.064	2861
836.202	2906
836.34	3150
836.478	3245
836.615	3142
836.753	3230
836.891	3245
837.029	3222
837.167	3188
837.305	3146
837.443	3119
837.58	3001
837.718	3192
837.856	3127
837.993	3074
838.131	3203
838.269	3192
838.406	3195
838.544	3157
838.681	3017
838.819	2975
838.956	2872
839.094	2922
839.231	3017
839.369	3085
839.506	3458
839.643	3306
839.781	3074
839.918	3039
840.055	3097
840.193	3161
840.33	3123
840.467	3131
840.604	3233
840.742	3450
840.879	3097
841.016	3119
841.153	3199
841.29	3405
841.427	3359
841.564	3310
841.701	3389
841.838	3291
841.975	3241
842.112	3275
842.249	3150
842.385	3138
842.522	3298
842.659	3142
842.796	3138
842.933	3188
843.069	3116
843.206	3116
843.343	3233
843.479	3142
843.616	3237
843.752	2975
843.889	2918
844.025	3135
844.162	2975
844.298	3135
844.435	3032
844.571	2956
844.708	3116
844.844	3253
844.98	3283
845.117	3313
845.253	3165
845.389	3070
845.525	3180
845.661	3199
845.798	3074
845.934	3241
846.07	3123
846.206	3279
846.342	3389
846.478	3279
846.614	3157
846.75	3127
846.886	3119
847.022	3321
847.158	3176
847.294	3264
847.429	3272
847.565	3317
847.701	3568
847.837	3100
847.972	3116
848.108	3222
848.244	3188
848.379	3093
848.515	3013
848.65	2990
848.786	2994
848.921	3051
849.057	3131
849.192	3214
849.328	3142
849.463	3173
849.598	3116
849.734	3055
849.869	2998
850.004	2998
850.14	3043
850.275	2967
850.41	2906
850.545	2944
850.68	3024
850.815	3020
850.95	3020
851.085	3253
851.22	3146
851.355	3100
851.49	3032
851.625	3062
851.76	3100
851.895	2990
852.03	2941
852.165	3070
852.299	3199
852.434	3237
852.569	3195
852.703	3207
852.838	3298
852.973	3439
853.107	3416
853.242	3207
853.376	3169
853.511	3028
853.645	3055
853.78	3291
853.914	3146
854.048	3203
854.183	3157
854.317	3207
854.451	3367
854.585	3199
854.72	3142
854.854	3279
854.988	3131
855.122	3165
855.256	3039
855.39	3188
855.524	3283
855.658	3249
855.792	3249
855.926	3249
856.06	3283
856.194	3348
856.327	3233
856.461	3127
856.595	3142
856.729	3176
856.862	3245
856.996	3237
857.13	3283
857.263	3313
857.397	3329
857.53	3165
857.664	3283
857.797	3302
857.931	3325
858.064	3291
858.197	3275
858.331	3222
858.464	3150
858.597	3097
858.731	3192
858.864	3222
858.997	3108
859.13	3211
859.263	3272
859.396	3287
859.529	3173
859.662	3123
859.795	3055
859.928	3203
860.061	3313
860.194	3351
860.327	3184
860.46	3165
860.592	3291
860.725	3279
860.858	3294
860.99	3180
861.123	3097
861.256	3135
861.388	3184
861.521	3941
861.653	3093
861.786	3055
861.918	3070
862.05	3127
862.183	3157
862.315	3226
862.447	3287
862.58	3142
862.712	2994
862.844	2929
862.976	3108
863.108	3093
863.24	3389
863.372	2952
863.504	3017
863.636	3032
863.768	3104
863.9	3028
864.032	2975
864.164	3013
864.296	3077
864.428	3165
864.559	3142
864.691	3131
864.823	3135
864.954	3066
865.086	3085
865.217	3066
865.349	3039
865.48	3032
865.612	3051
865.743	3226
865.875	3036
866.006	2990
866.137	3013
866.269	2971
866.4	2979
866.531	2971
866.662	2937
866.793	2944
866.924	2933
867.055	3051
867.186	3032
867.317	2967
867.448	2910
867.579	2883
867.71	2902
867.841	2895
867.972	2971
868.103	2956
868.233	2960
868.364	2960
868.495	2982
868.625	3123
868.756	3241
868.886	3058
869.017	3089
869.147	3264
869.278	3214
869.408	3100
869.539	3085
869.669	3116
869.799	3089
869.929	3207
870.06	3150
870.19	3378
870.32	3317
870.45	3363
870.58	3458
870.71	3504
870.84	3466
870.97	3374
871.1	3325
871.23	3603
871.36	3504
871.489	3431
871.619	3462
871.749	3454
871.879	3485
872.008	3538
872.138	3386
872.267	3317
872.397	3195
872.526	3173
872.656	3055
872.785	3161
872.915	3313
873.044	3344
873.173	3272
873.303	3351
873.432	3291
873.561	3302
873.69	3211
873.819	3218
873.948	3291
874.077	3138
874.206	3085
874.335	3119
874.464	3317
874.593	3397
874.722	3287
874.851	3447
874.979	3405
875.108	3409
875.237	3264
875.365	3230
875.494	3180
875.623	3310
875.751	3146
875.88	3169
876.008	3260
876.136	3298
876.265	3428
876.393	3595
876.521	3485
876.65	3416
876.778	3386
876.906	3321
877.034	3272
877.162	3272
877.29	3226
877.418	3291
877.546	3310
877.674	3302
877.802	3310
877.93	3287
878.058	3161
878.185	3127
878.313	3253
878.441	3241
878.568	3138
878.696	3195
878.824	3351
878.951	3374
879.079	3492
879.206	3660
879.333	3488
879.461	3386
879.588	3370
879.715	3557
879.842	3660
879.97	3458
880.097	3230
880.224	3165
880.351	3233
880.478	3287
880.605	3272
880.732	3237
880.859	3606
880.986	3344
881.112	3367
881.239	3249
881.366	3146
881.493	3070
881.619	3047
881.746	3108
881.872	3123
881.999	3138
882.125	3214
882.252	3313
882.378	3321
882.505	3488
882.631	3340
882.757	3180
882.883	3268
883.01	3264
883.136	3176
883.262	3146
883.388	3157
883.514	3378
883.64	3435
883.766	3370
883.892	3253
884.018	3310
884.143	3504
884.269	3610
884.395	3245
884.52	3192
884.646	3264
884.772	3184
884.897	3146
885.023	3241
885.148	3351
885.274	3485
885.399	3397
885.524	3340
885.65	3310
885.775	3389
885.9	3340
886.025	3504
886.15	3393
886.275	3344
886.4	3294
886.525	3340
886.65	3332
886.775	3321
886.9	3557
887.025	3690
887.149	3416
887.274	3336
887.399	3237
887.523	3294
887.648	3264
887.773	3218
887.897	3458
888.021	3511
888.146	3325
888.27	3477
888.395	3614
888.519	3511
888.643	3519
888.767	3534
888.891	3355
889.015	3272
889.139	3344
889.263	3325
889.387	3454
889.511	3576
889.635	3473
889.759	3332
889.883	3317
890.006	3454
890.13	3534
890.254	3325
890.377	3389
890.501	3260
890.624	3230
890.748	3389
890.871	3226
890.995	3135
891.118	3112
891.241	3249
891.364	3264
891.488	3389
891.611	3233
891.734	3249
891.857	3355
891.98	3298
892.103	3374
892.226	3325
892.349	3241
892.471	3165
892.594	3329
892.717	3321
892.839	3340
892.962	3336
893.085	3401
893.207	3348
893.33	3207
893.452	3241
893.575	3348
893.697	3317
893.819	3507
893.941	3549
894.064	3458
894.186	3332
894.308	3344
894.43	3500
894.552	3629
894.674	3511
894.796	3306
894.918	3405
895.04	3336
895.161	3504
895.283	3447
895.405	3351
895.526	3450
895.648	3477
895.769	3477
895.891	3530
896.012	3523
896.134	3507
896.255	3454
896.376	3424
896.498	3454
896.619	3458
896.74	3443
896.861	3454
896.982	3755
897.103	3896
897.224	3656
897.345	3599
897.466	3500
897.587	3545
897.708	3732
897.828	3580
897.949	3481
898.07	3393
898.19	3481
898.311	3629
898.431	3530
898.552	3564
898.672	3675
898.792	3622
898.913	3587
899.033	3492
899.153	3348
899.273	3249
899.393	3317
899.513	3374
899.633	3378
899.753	3374
899.873	3378
899.993	3458
900.113	3409
900.232	3412
900.352	3424
900.472	3336
900.591	3260
900.711	3332
900.83	3313
900.95	3447
901.069	3526
901.189	3378
901.308	3226
901.427	3161
901.546	3226
901.665	3355
901.784	3386
901.904	3256
902.023	3211
902.141	3097
902.26	3066
902.379	3199
902.498	3074
902.617	3138
902.735	3233
902.854	3256
902.973	3199
903.091	3127
903.21	3093
903.328	3176
903.446	3154
903.565	3176
903.683	3256
903.801	3222
903.919	3283
904.038	3332
904.156	3180
904.274	3340
904.392	3287
904.51	3329
904.627	3378
904.745	3481
904.863	3542
904.981	3340
905.098	3226
905.216	3325
905.334	3363
905.451	3355
905.569	3363
905.686	3454
905.803	3496
905.921	3329
906.038	3500
906.155	3386
906.272	3317
906.389	3370
906.506	3310
906.623	3298
906.74	3370
906.857	3195
906.974	3313
907.091	3519
907.208	3587
907.324	3538
907.441	3462
907.557	3302
907.674	3275
907.79	3226
907.907	3302
908.023	3435
908.139	3443
908.256	3359
908.372	3458
908.488	3382
908.604	3294
908.72	3294
908.836	3310
908.952	3348
909.068	3359
909.184	3584
909.3	3424
909.415	3549
909.531	3496
909.647	3321
909.762	3340
909.878	3279
909.993	3416
910.108	3424
910.224	3370
910.339	3416
910.454	3401
910.57	3325
910.685	3256
910.8	3648
910.915	3595
911.03	3481
911.145	3321
911.259	3351
911.374	3397
911.489	3272
911.604	3298
911.718	3157
911.833	3176
911.947	3051
912.062	3013
912.176	3230
912.291	3245
912.405	3233
912.519	3496
912.633	3519
912.748	3370
912.862	3325
912.976	3237
913.09	3093
913.204	3173
913.318	3218
913.431	3386
913.545	3393
913.659	3469
913.772	3389
913.886	3272
914	3245
914.113	3412
914.226	3488
914.34	3424
914.453	3298
914.566	3447
914.68	3389
914.793	3310
914.906	3218
915.019	3165
915.132	3100
915.245	3207
915.358	3275
915.47	3226
915.583	3313
915.696	3313
915.809	3496
915.921	3481
916.034	3298
916.146	3329
916.259	3272
916.371	3386
916.483	3409
916.595	3294
916.708	3420
916.82	3355
916.932	3374
917.044	3416
917.156	3382
917.268	3317
917.38	3359
917.491	3351
917.603	3386
917.715	3447
917.826	3492
917.938	3428
918.049	3310
918.161	3473
918.272	3625
918.384	3629
918.495	3519
918.606	3412
918.717	3317
918.828	3443
918.939	3462
919.05	3344
919.161	3401
919.272	3199
919.383	3272
919.494	3557
919.604	3724
919.715	3549
919.826	3447
919.936	3492
920.047	3637
920.157	3603
920.267	3804
920.378	3618
920.488	3644
920.598	3797
920.708	4002
920.818	3884
920.928	3918
921.038	4048
921.148	4021
921.258	3785
921.368	3682
921.477	3618
921.587	3591
921.697	3507
921.806	3732
921.916	3542
922.025	3428
922.134	3393
922.244	3386
922.353	3500
922.462	3298
922.571	3287
922.68	3154
922.789	3093
922.898	3192
923.007	3138
923.116	3241
923.224	3207
923.333	3233
923.442	3108
923.55	3127
923.659	3195
923.767	3241
923.876	3180
923.984	3283
924.092	3180
924.201	3230
924.309	3230
924.417	3272
924.525	3230
924.633	3272
924.741	4257
924.849	3119
924.956	3302
925.064	3127
925.172	3081
925.279	3138
925.387	3241
925.494	3230
925.602	3382
925.709	3389
925.816	3222
925.924	3283
926.031	3435
926.138	3344
926.245	3359
926.352	3279
926.459	3485
926.566	3530
926.673	3344
926.779	3294
926.886	3310
926.993	3199
927.099	3199
927.206	3173
927.312	3138
927.419	3275
927.525	3264
927.631	3306
927.737	3207
927.843	3146
927.95	3062
928.056	3199
928.162	3218
928.267	3298
928.373	3793
928.479	3363
928.585	3104
928.69	3230
928.796	3283
928.901	3241
929.007	3058
929.112	3253
929.218	3226
929.323	3169
929.428	3195
929.533	3370
929.638	3165
929.743	3233
929.848	3272
929.953	3279
930.058	3207
930.163	3036
930.267	3062
930.372	3233
930.477	3032
930.581	3359
930.685	3218
930.79	3081
930.894	3150
930.998	3138
931.103	3329
931.207	3032
931.311	2975
931.415	2914
931.519	2815
931.623	2853
