Data from test_V78500241_368.txt Node
Date: Fri Mar 25 16:17:45 CST 2022
User: usil
Spectrometer: V785-0024
Trigger mode: 0
Integration Time (sec): 4.000000E-1
Scans to average: 1
Nonlinearity correction enabled: false
Boxcar width: 0
Storing dark spectrum: false
XAxis mode: Wavelengths
Number of Pixels in Spectrum: 1024
>>>>>Begin Spectral Data<<<<<
801.071	2872
801.214	2956
801.356	2864
801.499	2902
801.641	2872
801.783	2963
801.926	3032
802.068	2975
802.211	3024
802.353	3062
802.496	2952
802.638	3017
802.78	3036
802.923	3077
803.065	2982
803.208	2883
803.35	2899
803.492	2952
803.635	2925
803.777	2762
803.919	2834
804.061	3211
804.204	2948
804.346	2906
804.488	2857
804.63	2979
804.773	2906
804.915	2922
805.057	3070
805.199	2960
805.341	2971
805.483	3013
805.626	2986
805.768	2952
805.91	3066
806.052	3123
806.194	3058
806.336	3203
806.478	3039
806.62	2944
806.762	2986
806.904	3028
807.046	3173
807.188	3001
807.33	2925
807.472	2975
807.614	2891
807.756	2994
807.898	2918
808.04	2891
808.182	2971
808.324	2967
808.465	2864
808.607	2891
808.749	2800
808.891	2834
809.033	2982
809.174	2986
809.316	2902
809.458	2880
809.6	2754
809.741	2773
809.883	2773
810.025	2861
810.166	2838
810.308	2861
810.45	2857
810.591	2804
810.733	2758
810.875	2853
811.016	2758
811.158	2769
811.299	2857
811.441	2937
811.582	2861
811.724	2834
811.865	2849
812.007	2910
812.148	2895
812.29	2815
812.431	2914
812.573	2948
812.714	2918
812.855	3005
812.997	3062
813.138	3142
813.279	2979
813.421	2941
813.562	2948
813.703	2895
813.845	2914
813.986	2773
814.127	2686
814.268	2800
814.41	2834
814.551	2800
814.692	2895
814.833	2811
814.974	2891
815.115	2960
815.256	2826
815.397	2842
815.539	2861
815.68	2781
815.821	2769
815.962	2918
816.103	2944
816.244	2826
816.385	2887
816.526	2933
816.666	2899
816.807	2750
816.948	2872
817.089	2906
817.23	2830
817.371	2766
817.512	2804
817.653	2842
817.793	2815
817.934	2887
818.075	2952
818.216	2963
818.356	3055
818.497	2857
818.638	2769
818.778	2796
818.919	2769
819.06	2769
819.2	2838
819.341	2845
819.481	2807
819.622	2922
819.762	3100
819.903	3039
820.043	2906
820.184	2891
820.324	2876
820.465	3039
820.605	2990
820.746	3009
820.886	2960
821.026	3100
821.167	3154
821.307	3230
821.447	3306
821.588	3241
821.728	3222
821.868	3207
822.008	3062
822.149	3195
822.289	3222
822.429	3093
822.569	3135
822.709	3157
822.849	3020
822.99	3020
823.13	3188
823.27	3226
823.41	3108
823.55	3150
823.69	3123
823.83	3192
823.97	3074
824.11	3001
824.25	3005
824.389	3093
824.529	3135
824.669	3043
824.809	3195
824.949	3268
825.089	3226
825.228	3157
825.368	3020
825.508	2937
825.648	3009
825.787	3024
825.927	3001
826.067	2975
826.206	2971
826.346	3047
826.485	3104
826.625	3097
826.765	3245
826.904	3211
827.044	3005
827.183	2937
827.323	2876
827.462	2986
827.601	2910
827.741	2937
827.88	2956
828.02	2815
828.159	2960
828.298	3036
828.437	3097
828.577	3005
828.716	3207
828.855	3081
828.994	2910
829.134	2842
829.273	2899
829.412	2887
829.551	2861
829.69	2895
829.829	2994
829.968	3131
830.107	2990
830.246	2982
830.385	2906
830.524	2895
830.663	2823
830.802	2693
830.941	2663
831.08	2598
831.219	2754
831.357	2739
831.496	2944
831.635	2716
831.774	2644
831.913	2651
832.051	2514
832.19	2556
832.329	2682
832.467	2549
832.606	2484
832.744	2564
832.883	2568
833.022	2579
833.16	2640
833.299	2663
833.437	2708
833.576	2712
833.714	2739
833.852	2701
833.991	2754
834.129	2807
834.267	2819
834.406	2815
834.544	2872
834.682	2838
834.821	2853
834.959	3058
835.097	2887
835.235	3062
835.373	2990
835.511	3013
835.65	2929
835.788	2910
835.926	2811
836.064	2849
836.202	2857
836.34	3081
836.478	3131
836.615	3017
836.753	3154
836.891	3195
837.029	3157
837.167	3116
837.305	3085
837.443	3066
837.58	2956
837.718	3127
837.856	3058
837.993	3055
838.131	3127
838.269	3116
838.406	3066
838.544	3119
838.681	2925
838.819	2925
838.956	2804
839.094	2826
839.231	2941
839.369	2998
839.506	3367
839.643	3203
839.781	3017
839.918	2990
840.055	3043
840.193	3036
840.33	3104
840.467	3085
840.604	3142
840.742	3374
840.879	3032
841.016	3047
841.153	3093
841.29	3317
841.427	3260
841.564	3291
841.701	3287
841.838	3180
841.975	3211
842.112	3222
842.249	3112
842.385	3032
842.522	3287
842.659	3116
842.796	3066
842.933	3112
843.069	3051
843.206	3024
843.343	3199
843.479	3074
843.616	3150
843.752	2918
843.889	2914
844.025	3066
844.162	2887
844.298	3074
844.435	2937
844.571	2922
844.708	3066
844.844	3218
844.98	3237
845.117	3180
845.253	3070
845.389	3001
845.525	3047
845.661	3119
845.798	3001
845.934	3119
846.07	3039
846.206	3222
846.342	3291
846.478	3199
846.614	3116
846.75	3024
846.886	3001
847.022	3249
847.158	3100
847.294	3211
847.429	3256
847.565	3218
847.701	3450
847.837	3062
847.972	2994
848.108	3154
848.244	3138
848.379	3005
848.515	2899
848.65	2952
848.786	2967
848.921	2979
849.057	3089
849.192	3146
849.328	3047
849.463	3081
849.598	3066
849.734	3017
849.869	2941
850.004	2895
850.14	2956
850.275	2910
850.41	2826
850.545	2868
850.68	2937
850.815	2933
850.95	2960
851.085	3218
851.22	3104
851.355	3005
851.49	2982
851.625	3001
851.76	3005
851.895	2925
852.03	2891
852.165	3028
852.299	3127
852.434	3146
852.569	3161
852.703	3146
852.838	3230
852.973	3291
853.107	3344
853.242	3157
853.376	3089
853.511	2967
853.645	3017
853.78	3230
853.914	3093
854.048	3074
854.183	3112
854.317	3123
854.451	3275
854.585	3127
854.72	3058
854.854	3199
854.988	3039
855.122	3085
855.256	2979
855.39	3112
855.524	3253
855.658	3138
855.792	3112
855.926	3180
856.06	3211
856.194	3272
856.327	3142
856.461	3055
856.595	3074
856.729	3070
856.862	3188
856.996	3150
857.13	3169
857.263	3218
857.397	3241
857.53	3104
857.664	3184
857.797	3222
857.931	3233
858.064	3150
858.197	3233
858.331	3161
858.464	3104
858.597	2979
858.731	3173
858.864	3070
858.997	3093
859.13	3146
859.263	3180
859.396	3142
859.529	3093
859.662	3058
859.795	3036
859.928	3123
860.061	3264
860.194	3268
860.327	3085
860.46	3142
860.592	3226
860.725	3283
860.858	3222
860.99	3100
861.123	3020
861.256	3043
861.388	3127
861.521	3835
861.653	3013
861.786	2990
861.918	2975
862.05	3066
862.183	3051
862.315	3165
862.447	3192
862.58	3097
862.712	2948
862.844	2861
862.976	3039
863.108	2998
863.24	3370
863.372	2891
863.504	2960
863.636	2933
863.768	3028
863.9	2979
864.032	2887
864.164	2963
864.296	2986
864.428	3089
864.559	3058
864.691	3074
864.823	3070
864.954	2994
865.086	3062
865.217	2986
865.349	2933
865.48	2948
865.612	2986
865.743	3157
865.875	2963
866.006	2941
866.137	2948
866.269	2960
866.4	2967
866.531	2922
866.662	2887
866.793	2864
866.924	2880
867.055	2952
867.186	2922
867.317	2887
867.448	2842
867.579	2842
867.71	2834
867.841	2804
867.972	2861
868.103	2914
868.233	2910
868.364	2849
868.495	2864
868.625	3077
868.756	3180
868.886	2979
869.017	2990
869.147	3165
869.278	3131
869.408	3062
869.539	2994
869.669	3119
869.799	3024
869.929	3123
870.06	3112
870.19	3298
870.32	3241
870.45	3287
870.58	3344
870.71	3435
870.84	3481
870.97	3313
871.1	3214
871.23	3500
871.36	3473
871.489	3344
871.619	3367
871.749	3363
871.879	3431
872.008	3439
872.138	3321
872.267	3294
872.397	3154
872.526	3104
872.656	3017
872.785	3135
872.915	3222
873.044	3329
873.173	3199
873.303	3253
873.432	3226
873.561	3226
873.69	3127
873.819	3161
873.948	3195
874.077	3081
874.206	3024
874.335	3085
874.464	3157
874.593	3340
874.722	3214
874.851	3378
874.979	3367
875.108	3325
875.237	3180
875.365	3150
875.494	3135
875.623	3222
875.751	3097
875.88	3074
876.008	3207
876.136	3226
876.265	3367
876.393	3462
876.521	3378
876.65	3351
876.778	3317
876.906	3249
877.034	3161
877.162	3192
877.29	3154
877.418	3272
877.546	3256
877.674	3214
877.802	3195
877.93	3184
878.058	3104
878.185	3154
878.313	3195
878.441	3176
878.568	3085
878.696	3154
878.824	3237
878.951	3283
879.079	3443
879.206	3606
879.333	3397
879.461	3317
879.588	3317
879.715	3511
879.842	3591
879.97	3370
880.097	3188
880.224	3081
880.351	3173
880.478	3176
880.605	3218
880.732	3192
880.859	3458
880.986	3302
881.112	3325
881.239	3188
881.366	3119
881.493	3058
881.619	3013
881.746	3043
881.872	3104
881.999	3058
882.125	3123
882.252	3230
882.378	3302
882.505	3428
882.631	3249
882.757	3165
882.883	3264
883.01	3184
883.136	3184
883.262	3116
883.388	3165
883.514	3321
883.64	3344
883.766	3294
883.892	3123
884.018	3230
884.143	3443
884.269	3526
884.395	3173
884.52	3123
884.646	3165
884.772	3100
884.897	3055
885.023	3184
885.148	3340
885.274	3363
885.399	3363
885.524	3256
885.65	3283
885.775	3306
885.9	3287
886.025	3397
886.15	3382
886.275	3272
886.4	3214
886.525	3317
886.65	3283
886.775	3291
886.9	3492
887.025	3614
887.149	3401
887.274	3268
887.399	3176
887.523	3203
887.648	3203
887.773	3169
887.897	3374
888.021	3412
888.146	3302
888.27	3454
888.395	3545
888.519	3409
888.643	3428
888.767	3496
888.891	3336
889.015	3241
889.139	3294
889.263	3272
889.387	3401
889.511	3526
889.635	3447
889.759	3306
889.883	3291
890.006	3367
890.13	3481
890.254	3283
890.377	3351
890.501	3226
890.624	3214
890.748	3329
890.871	3188
890.995	3135
891.118	3077
891.241	3218
891.364	3256
891.488	3325
891.611	3199
891.734	3233
891.857	3302
891.98	3291
892.103	3370
892.226	3325
892.349	3245
892.471	3123
892.594	3302
892.717	3310
892.839	3329
892.962	3363
893.085	3412
893.207	3317
893.33	3188
893.452	3268
893.575	3401
893.697	3253
893.819	3519
893.941	3515
894.064	3466
894.186	3317
894.308	3287
894.43	3477
894.552	3542
894.674	3538
894.796	3321
894.918	3367
895.04	3313
895.161	3458
895.283	3424
895.405	3321
895.526	3428
895.648	3458
895.769	3458
895.891	3500
896.012	3507
896.134	3526
896.255	3477
896.376	3439
896.498	3405
896.619	3443
896.74	3397
896.861	3428
896.982	3709
897.103	3892
897.224	3633
897.345	3584
897.466	3443
897.587	3511
897.708	3675
897.828	3595
897.949	3496
898.07	3340
898.19	3431
898.311	3648
898.431	3500
898.552	3526
898.672	3648
898.792	3591
898.913	3523
899.033	3450
899.153	3249
899.273	3272
899.393	3317
899.513	3359
899.633	3359
899.753	3370
899.873	3351
899.993	3462
900.113	3367
900.232	3397
900.352	3344
900.472	3317
900.591	3249
900.711	3344
900.83	3310
900.95	3458
901.069	3526
901.189	3378
901.308	3249
901.427	3142
901.546	3211
901.665	3317
901.784	3367
901.904	3253
902.023	3165
902.141	3051
902.26	3032
902.379	3138
902.498	3093
902.617	3074
902.735	3237
902.854	3294
902.973	3184
903.091	3097
903.21	3089
903.328	3161
903.446	3150
903.565	3154
903.683	3226
903.801	3138
903.919	3245
904.038	3340
904.156	3203
904.274	3317
904.392	3283
904.51	3355
904.627	3351
904.745	3481
904.863	3526
904.981	3313
905.098	3207
905.216	3214
905.334	3329
905.451	3325
905.569	3317
905.686	3458
905.803	3458
905.921	3351
906.038	3492
906.155	3386
906.272	3291
906.389	3367
906.506	3256
906.623	3325
906.74	3287
906.857	3230
906.974	3287
907.091	3511
907.208	3610
907.324	3500
907.441	3443
907.557	3214
907.674	3249
907.79	3256
907.907	3306
908.023	3393
908.139	3412
908.256	3370
908.372	3367
908.488	3416
908.604	3298
908.72	3260
908.836	3302
908.952	3302
909.068	3370
909.184	3519
909.3	3374
909.415	3515
909.531	3530
909.647	3287
909.762	3325
909.878	3279
909.993	3397
910.108	3374
910.224	3370
910.339	3439
910.454	3374
910.57	3329
910.685	3264
910.8	3606
910.915	3561
911.03	3473
911.145	3237
911.259	3291
911.374	3370
911.489	3321
911.604	3268
911.718	3123
911.833	3195
911.947	3062
912.062	3001
912.176	3184
912.291	3233
912.405	3253
912.519	3462
912.633	3481
912.748	3374
912.862	3367
912.976	3192
913.09	3089
913.204	3180
913.318	3264
913.431	3359
913.545	3389
913.659	3454
913.772	3355
913.886	3283
914	3214
914.113	3382
914.226	3458
914.34	3393
914.453	3283
914.566	3412
914.68	3355
914.793	3336
914.906	3169
915.019	3097
915.132	3104
915.245	3180
915.358	3264
915.47	3253
915.583	3329
915.696	3336
915.809	3439
915.921	3458
916.034	3264
916.146	3272
916.259	3287
916.371	3420
916.483	3389
916.595	3287
916.708	3363
916.82	3363
916.932	3344
917.044	3336
917.156	3428
917.268	3302
917.38	3359
917.491	3329
917.603	3363
917.715	3492
917.826	3454
917.938	3416
918.049	3298
918.161	3435
918.272	3580
918.384	3622
918.495	3485
918.606	3363
918.717	3332
918.828	3401
918.939	3397
919.05	3359
919.161	3340
919.272	3195
919.383	3287
919.494	3511
919.604	3759
919.715	3507
919.826	3443
919.936	3481
920.047	3595
920.157	3591
920.267	3778
920.378	3622
920.488	3625
920.598	3835
920.708	3979
920.818	3850
920.928	3854
921.038	4040
921.148	4006
921.258	3736
921.368	3675
921.477	3618
921.587	3545
921.697	3477
921.806	3652
921.916	3530
922.025	3374
922.134	3367
922.244	3344
922.353	3450
922.462	3272
922.571	3272
922.68	3112
922.789	3089
922.898	3173
923.007	3116
923.116	3237
923.224	3195
923.333	3226
923.442	3146
923.55	3146
923.659	3184
923.767	3279
923.876	3150
923.984	3272
924.092	3112
924.201	3214
924.309	3237
924.417	3241
924.525	3264
924.633	3283
924.741	4181
924.849	3089
924.956	3275
925.064	3138
925.172	3047
925.279	3135
925.387	3211
925.494	3226
925.602	3344
925.709	3382
925.816	3230
925.924	3348
926.031	3405
926.138	3332
926.245	3378
926.352	3268
926.459	3450
926.566	3515
926.673	3344
926.779	3275
926.886	3279
926.993	3195
927.099	3165
927.206	3127
927.312	3150
927.419	3275
927.525	3199
927.631	3268
927.737	3173
927.843	3142
927.95	3039
928.056	3154
928.162	3211
928.267	3321
928.373	3907
928.479	3348
928.585	3104
928.69	3245
928.796	3283
928.901	3176
929.007	3043
929.112	3253
929.218	3192
929.323	3173
929.428	3169
929.533	3348
929.638	3135
929.743	3199
929.848	3302
929.953	3256
930.058	3165
930.163	3020
930.267	3047
930.372	3253
930.477	3036
930.581	3317
930.685	3203
930.79	3112
930.894	3142
930.998	3097
931.103	3294
931.207	2971
931.311	2918
931.415	2975
931.519	2785
931.623	2807
