Data from test_V78500241_662.txt Node
Date: Fri Mar 25 16:19:47 CST 2022
User: usil
Spectrometer: V785-0024
Trigger mode: 0
Integration Time (sec): 4.000000E-1
Scans to average: 1
Nonlinearity correction enabled: false
Boxcar width: 0
Storing dark spectrum: false
XAxis mode: Wavelengths
Number of Pixels in Spectrum: 1024
>>>>>Begin Spectral Data<<<<<
801.071	2933
801.214	2986
801.356	2880
801.499	2891
801.641	2849
801.783	2944
801.926	3070
802.068	2998
802.211	3020
802.353	3043
802.496	2979
802.638	3009
802.78	3001
802.923	3024
803.065	2998
803.208	2910
803.35	2937
803.492	2929
803.635	2948
803.777	2743
803.919	2891
804.061	3188
804.204	2960
804.346	2899
804.488	2838
804.63	2971
804.773	2883
804.915	2887
805.057	3104
805.199	2929
805.341	2952
805.483	3051
805.626	3009
805.768	2960
805.91	3089
806.052	3112
806.194	3017
806.336	3218
806.478	2998
806.62	2956
806.762	2952
806.904	3062
807.046	3138
807.188	2979
807.33	2902
807.472	2982
807.614	2891
807.756	2998
807.898	2941
808.04	2876
808.182	2937
808.324	2910
808.465	2933
808.607	2880
808.749	2762
808.891	2826
809.033	2963
809.174	2967
809.316	2910
809.458	2883
809.6	2746
809.741	2785
809.883	2739
810.025	2876
810.166	2864
810.308	2845
810.45	2849
810.591	2773
810.733	2777
810.875	2815
811.016	2735
811.158	2754
811.299	2773
811.441	2902
811.582	2918
811.724	2842
811.865	2807
812.007	2899
812.148	2861
812.29	2872
812.431	2842
812.573	2948
812.714	2986
812.855	3047
812.997	3036
813.138	3097
813.279	2990
813.421	2994
813.562	2944
813.703	2883
813.845	2883
813.986	2773
814.127	2705
814.268	2842
814.41	2796
814.551	2815
814.692	2857
814.833	2834
814.974	2902
815.115	2975
815.256	2834
815.397	2819
815.539	2849
815.68	2785
815.821	2830
815.962	2948
816.103	2925
816.244	2868
816.385	2857
816.526	2952
816.666	2902
816.807	2762
816.948	2876
817.089	2876
817.23	2883
817.371	2800
817.512	2796
817.653	2804
817.793	2849
817.934	2864
818.075	2971
818.216	2944
818.356	2998
818.497	2853
818.638	2800
818.778	2815
818.919	2758
819.06	2727
819.2	2861
819.341	2792
819.481	2815
819.622	2944
819.762	3066
819.903	3024
820.043	2925
820.184	2857
820.324	2853
820.465	2975
820.605	2994
820.746	3009
820.886	2944
821.026	3097
821.167	3142
821.307	3226
821.447	3256
821.588	3207
821.728	3176
821.868	3188
822.008	3036
822.149	3203
822.289	3230
822.429	3066
822.569	3085
822.709	3135
822.849	3009
822.99	3070
823.13	3150
823.27	3218
823.41	3089
823.55	3157
823.69	3131
823.83	3199
823.97	3108
824.11	2986
824.25	3001
824.389	3074
824.529	3119
824.669	3066
824.809	3184
824.949	3264
825.089	3253
825.228	3188
825.368	3013
825.508	3005
825.648	3001
825.787	3039
825.927	3020
826.067	2986
826.206	3009
826.346	3081
826.485	3062
826.625	3127
826.765	3306
826.904	3226
827.044	3017
827.183	2963
827.323	2899
827.462	2982
827.601	2960
827.741	2944
827.88	2982
828.02	2887
828.159	2990
828.298	3062
828.437	3157
828.577	3077
828.716	3321
828.855	3112
828.994	2975
829.134	2944
829.273	2944
829.412	2929
829.551	2902
829.69	2937
829.829	3001
829.968	3165
830.107	3032
830.246	3062
830.385	2979
830.524	2906
830.663	2876
830.802	2750
830.941	2708
831.08	2674
831.219	2788
831.357	2766
831.496	3009
831.635	2743
831.774	2712
831.913	2697
832.051	2587
832.19	2598
832.329	2739
832.467	2560
832.606	2480
832.744	2617
832.883	2636
833.022	2617
833.16	2682
833.299	2746
833.437	2712
833.576	2739
833.714	2766
833.852	2785
833.991	2807
834.129	2864
834.267	2868
834.406	2781
834.544	2876
834.682	2918
834.821	2891
834.959	3070
835.097	2918
835.235	3093
835.373	3032
835.511	3051
835.65	3001
835.788	3020
835.926	2872
836.064	2891
836.202	2861
836.34	3089
836.478	3241
836.615	3085
836.753	3180
836.891	3226
837.029	3211
837.167	3100
837.305	3081
837.443	3077
837.58	3013
837.718	3161
837.856	3104
837.993	3058
838.131	3180
838.269	3104
838.406	3146
838.544	3108
838.681	2975
838.819	2975
838.956	2864
839.094	2861
839.231	2925
839.369	3013
839.506	3397
839.643	3253
839.781	3100
839.918	2967
840.055	3097
840.193	3077
840.33	3108
840.467	3150
840.604	3184
840.742	3428
840.879	3081
841.016	3085
841.153	3161
841.29	3386
841.427	3329
841.564	3287
841.701	3359
841.838	3226
841.975	3214
842.112	3222
842.249	3142
842.385	3077
842.522	3310
842.659	3146
842.796	3108
842.933	3138
843.069	3074
843.206	3077
843.343	3233
843.479	3165
843.616	3138
843.752	2906
843.889	2941
844.025	3112
844.162	2910
844.298	3097
844.435	2948
844.571	2971
844.708	3085
844.844	3241
844.98	3272
845.117	3241
845.253	3093
845.389	3032
845.525	3116
845.661	3157
845.798	3028
845.934	3150
846.07	3066
846.206	3264
846.342	3389
846.478	3253
846.614	3085
846.75	3116
846.886	3036
847.022	3268
847.158	3169
847.294	3241
847.429	3264
847.565	3256
847.701	3492
847.837	3055
847.972	3024
848.108	3184
848.244	3169
848.379	3032
848.515	2960
848.65	2975
848.786	2990
848.921	3062
849.057	3135
849.192	3188
849.328	3097
849.463	3093
849.598	3093
849.734	3066
849.869	3039
850.004	2937
850.14	3001
850.275	2929
850.41	2902
850.545	2922
850.68	2944
850.815	2937
850.95	2998
851.085	3230
851.22	3127
851.355	3055
851.49	2990
851.625	3017
851.76	3077
851.895	2948
852.03	2941
852.165	3074
852.299	3127
852.434	3199
852.569	3161
852.703	3192
852.838	3260
852.973	3370
853.107	3344
853.242	3214
853.376	3085
853.511	2990
853.645	3028
853.78	3245
853.914	3169
854.048	3180
854.183	3131
854.317	3169
854.451	3279
854.585	3165
854.72	3138
854.854	3211
854.988	3077
855.122	3112
855.256	3039
855.39	3146
855.524	3283
855.658	3184
855.792	3184
855.926	3241
856.06	3230
856.194	3275
856.327	3169
856.461	3085
856.595	3108
856.729	3135
856.862	3233
856.996	3195
857.13	3203
857.263	3268
857.397	3298
857.53	3135
857.664	3184
857.797	3272
857.931	3260
858.064	3203
858.197	3184
858.331	3154
858.464	3116
858.597	3047
858.731	3123
858.864	3154
858.997	3077
859.13	3180
859.263	3184
859.396	3214
859.529	3081
859.662	3066
859.795	3077
859.928	3192
860.061	3294
860.194	3313
860.327	3150
860.46	3127
860.592	3230
860.725	3260
860.858	3249
860.99	3089
861.123	3093
861.256	3081
861.388	3161
861.521	3846
861.653	3039
861.786	3005
861.918	2994
862.05	3081
862.183	3093
862.315	3123
862.447	3249
862.58	3093
862.712	2963
862.844	2891
862.976	3051
863.108	2979
863.24	3447
863.372	2906
863.504	2998
863.636	2982
863.768	3058
863.9	3032
864.032	2922
864.164	3001
864.296	3017
864.428	3116
864.559	3119
864.691	3055
864.823	3108
864.954	3058
865.086	3085
865.217	3001
865.349	2982
865.48	3017
865.612	3020
865.743	3157
865.875	2952
866.006	2933
866.137	3020
866.269	2994
866.4	2963
866.531	2925
866.662	2868
866.793	2861
866.924	2937
867.055	2933
867.186	2952
867.317	2876
867.448	2826
867.579	2861
867.71	2872
867.841	2845
867.972	2933
868.103	2887
868.233	2918
868.364	2918
868.495	2944
868.625	3085
868.756	3157
868.886	3009
869.017	3047
869.147	3173
869.278	3203
869.408	3062
869.539	3036
869.669	3116
869.799	3058
869.929	3180
870.06	3119
870.19	3329
870.32	3306
870.45	3340
870.58	3382
870.71	3462
870.84	3450
870.97	3287
871.1	3245
871.23	3507
871.36	3458
871.489	3355
871.619	3393
871.749	3439
871.879	3435
872.008	3526
872.138	3367
872.267	3253
872.397	3127
872.526	3135
872.656	3039
872.785	3119
872.915	3272
873.044	3332
873.173	3256
873.303	3291
873.432	3230
873.561	3253
873.69	3157
873.819	3165
873.948	3214
874.077	3127
874.206	3077
874.335	3127
874.464	3230
874.593	3355
874.722	3253
874.851	3416
874.979	3367
875.108	3351
875.237	3218
875.365	3176
875.494	3173
875.623	3275
875.751	3116
875.88	3142
876.008	3264
876.136	3237
876.265	3348
876.393	3530
876.521	3447
876.65	3401
876.778	3355
876.906	3260
877.034	3207
877.162	3272
877.29	3161
877.418	3279
877.546	3272
877.674	3279
877.802	3207
877.93	3211
878.058	3192
878.185	3093
878.313	3222
878.441	3222
878.568	3062
878.696	3161
878.824	3279
878.951	3325
879.079	3485
879.206	3629
879.333	3473
879.461	3336
879.588	3370
879.715	3485
879.842	3629
879.97	3370
880.097	3173
880.224	3131
880.351	3203
880.478	3249
880.605	3203
880.732	3207
880.859	3545
880.986	3306
881.112	3351
881.239	3195
881.366	3112
881.493	3047
881.619	3070
881.746	3131
881.872	3138
881.999	3112
882.125	3173
882.252	3256
882.378	3306
882.505	3431
882.631	3313
882.757	3123
882.883	3253
883.01	3211
883.136	3192
883.262	3123
883.388	3104
883.514	3389
883.64	3412
883.766	3302
883.892	3188
884.018	3298
884.143	3416
884.269	3549
884.395	3230
884.52	3135
884.646	3211
884.772	3135
884.897	3108
885.023	3233
885.148	3344
885.274	3458
885.399	3367
885.524	3268
885.65	3355
885.775	3355
885.9	3283
886.025	3439
886.15	3401
886.275	3313
886.4	3256
886.525	3291
886.65	3306
886.775	3310
886.9	3492
887.025	3660
887.149	3431
887.274	3256
887.399	3211
887.523	3245
887.648	3199
887.773	3203
887.897	3370
888.021	3405
888.146	3313
888.27	3450
888.395	3553
888.519	3443
888.643	3458
888.767	3500
888.891	3340
889.015	3233
889.139	3294
889.263	3241
889.387	3439
889.511	3504
889.635	3454
889.759	3226
889.883	3310
890.006	3412
890.13	3496
890.254	3291
890.377	3355
890.501	3176
890.624	3226
890.748	3351
890.871	3184
890.995	3081
891.118	3104
891.241	3226
891.364	3268
891.488	3313
891.611	3226
891.734	3211
891.857	3336
891.98	3218
892.103	3310
892.226	3287
892.349	3253
892.471	3108
892.594	3260
892.717	3287
892.839	3264
892.962	3291
893.085	3367
893.207	3317
893.33	3157
893.452	3241
893.575	3351
893.697	3275
893.819	3492
893.941	3530
894.064	3469
894.186	3279
894.308	3291
894.43	3435
894.552	3545
894.674	3488
894.796	3287
894.918	3332
895.04	3306
895.161	3420
895.283	3428
895.405	3275
895.526	3348
895.648	3447
895.769	3431
895.891	3458
896.012	3496
896.134	3477
896.255	3431
896.376	3393
896.498	3359
896.619	3412
896.74	3351
896.861	3401
896.982	3644
897.103	3827
897.224	3606
897.345	3568
897.466	3458
897.587	3477
897.708	3599
897.828	3553
897.949	3462
898.07	3287
898.19	3416
898.311	3637
898.431	3473
898.552	3526
898.672	3629
898.792	3595
898.913	3538
899.033	3412
899.153	3272
899.273	3230
899.393	3287
899.513	3310
899.633	3332
899.753	3325
899.873	3306
899.993	3386
900.113	3363
900.232	3405
900.352	3348
900.472	3306
900.591	3195
900.711	3294
900.83	3241
900.95	3443
901.069	3504
901.189	3344
901.308	3195
901.427	3154
901.546	3184
901.665	3321
901.784	3317
901.904	3188
902.023	3203
902.141	3036
902.26	2998
902.379	3161
902.498	3100
902.617	3055
902.735	3237
902.854	3203
902.973	3226
903.091	3013
903.21	3070
903.328	3138
903.446	3104
903.565	3085
903.683	3230
903.801	3135
903.919	3241
904.038	3272
904.156	3157
904.274	3332
904.392	3226
904.51	3272
904.627	3329
904.745	3424
904.863	3473
904.981	3256
905.098	3176
905.216	3230
905.334	3287
905.451	3325
905.569	3310
905.686	3401
905.803	3409
905.921	3313
906.038	3416
906.155	3363
906.272	3291
906.389	3363
906.506	3233
906.623	3287
906.74	3237
906.857	3138
906.974	3256
907.091	3462
907.208	3553
907.324	3481
907.441	3382
907.557	3283
907.674	3222
907.79	3195
907.907	3268
908.023	3370
908.139	3367
908.256	3329
908.372	3386
908.488	3386
908.604	3291
908.72	3233
908.836	3291
908.952	3264
909.068	3332
909.184	3526
909.3	3382
909.415	3477
909.531	3477
909.647	3275
909.762	3298
909.878	3268
909.993	3389
910.108	3348
910.224	3317
910.339	3412
910.454	3378
910.57	3298
910.685	3264
910.8	3584
910.915	3572
911.03	3481
911.145	3272
911.259	3279
911.374	3298
911.489	3264
911.604	3218
911.718	3138
911.833	3173
911.947	3032
912.062	2982
912.176	3192
912.291	3180
912.405	3222
912.519	3401
912.633	3462
912.748	3351
912.862	3275
912.976	3146
913.09	3051
913.204	3184
913.318	3230
913.431	3378
913.545	3310
913.659	3412
913.772	3344
913.886	3192
914	3211
914.113	3393
914.226	3405
914.34	3378
914.453	3199
914.566	3405
914.68	3332
914.793	3332
914.906	3154
915.019	3116
915.132	3058
915.245	3127
915.358	3207
915.47	3214
915.583	3298
915.696	3317
915.809	3412
915.921	3412
916.034	3253
916.146	3260
916.259	3253
916.371	3344
916.483	3401
916.595	3291
916.708	3348
916.82	3298
916.932	3355
917.044	3313
917.156	3351
917.268	3237
917.38	3268
917.491	3291
917.603	3382
917.715	3435
917.826	3439
917.938	3367
918.049	3279
918.161	3412
918.272	3591
918.384	3591
918.495	3485
918.606	3317
918.717	3268
918.828	3351
918.939	3405
919.05	3321
919.161	3359
919.272	3199
919.383	3355
919.494	3523
919.604	3728
919.715	3481
919.826	3382
919.936	3485
920.047	3587
920.157	3553
920.267	3747
920.378	3576
920.488	3549
920.598	3785
920.708	3911
920.818	3842
920.928	3850
921.038	4025
921.148	4013
921.258	3701
921.368	3652
921.477	3549
921.587	3553
921.697	3443
921.806	3587
921.916	3515
922.025	3382
922.134	3370
922.244	3313
922.353	3420
922.462	3230
922.571	3233
922.68	3104
922.789	3051
922.898	3138
923.007	3112
923.116	3203
923.224	3176
923.333	3207
923.442	3097
923.55	3108
923.659	3150
923.767	3203
923.876	3104
923.984	3218
924.092	3112
924.201	3203
924.309	3253
924.417	3203
924.525	3184
924.633	3214
924.741	4029
924.849	3009
924.956	3230
925.064	3093
925.172	3062
925.279	3058
925.387	3195
925.494	3226
925.602	3332
925.709	3310
925.816	3169
925.924	3298
926.031	3378
926.138	3370
926.245	3378
926.352	3222
926.459	3409
926.566	3507
926.673	3340
926.779	3268
926.886	3283
926.993	3123
927.099	3184
927.206	3108
927.312	3119
927.419	3260
927.525	3199
927.631	3237
927.737	3173
927.843	3146
927.95	3036
928.056	3119
928.162	3176
928.267	3241
928.373	3793
928.479	3325
928.585	3085
928.69	3226
928.796	3287
928.901	3142
929.007	3032
929.112	3176
929.218	3180
929.323	3142
929.428	3104
929.533	3310
929.638	3104
929.743	3176
929.848	3275
929.953	3264
930.058	3135
930.163	2982
930.267	3051
930.372	3199
930.477	2979
930.581	3310
930.685	3207
930.79	3024
930.894	3146
930.998	3100
931.103	3283
931.207	2975
931.311	2937
931.415	2895
931.519	2785
931.623	2777
