Data from test_V78500241_1050.txt Node
Date: Fri Mar 25 16:22:28 CST 2022
User: usil
Spectrometer: V785-0024
Trigger mode: 0
Integration Time (sec): 4.000000E-1
Scans to average: 1
Nonlinearity correction enabled: false
Boxcar width: 0
Storing dark spectrum: false
XAxis mode: Wavelengths
Number of Pixels in Spectrum: 1024
>>>>>Begin Spectral Data<<<<<
801.071	2891
801.214	2937
801.356	2876
801.499	2918
801.641	2887
801.783	2880
801.926	3077
802.068	2948
802.211	3001
802.353	3020
802.496	2982
802.638	3001
802.78	3074
802.923	3070
803.065	3028
803.208	2887
803.35	2910
803.492	2944
803.635	2880
803.777	2750
803.919	2887
804.061	3253
804.204	2963
804.346	2929
804.488	2864
804.63	3024
804.773	2880
804.915	2902
805.057	3104
805.199	2918
805.341	2952
805.483	3039
805.626	2986
805.768	2944
805.91	3104
806.052	3150
806.194	3039
806.336	3233
806.478	3013
806.62	2986
806.762	2975
806.904	3058
807.046	3192
807.188	2990
807.33	2914
807.472	3001
807.614	2948
807.756	2986
807.898	2933
808.04	2910
808.182	3020
808.324	2963
808.465	2891
808.607	2880
808.749	2811
808.891	2853
809.033	2982
809.174	2986
809.316	2880
809.458	2880
809.6	2758
809.741	2769
809.883	2785
810.025	2842
810.166	2899
810.308	2868
810.45	2876
810.591	2792
810.733	2758
810.875	2861
811.016	2807
811.158	2766
811.299	2807
811.441	2922
811.582	2922
811.724	2845
811.865	2861
812.007	2922
812.148	2933
812.29	2853
812.431	2937
812.573	2922
812.714	2967
812.855	3058
812.997	3043
813.138	3100
813.279	3032
813.421	3005
813.562	2967
813.703	2872
813.845	2883
813.986	2773
814.127	2705
814.268	2834
814.41	2845
814.551	2807
814.692	2887
814.833	2826
814.974	2902
815.115	2967
815.256	2819
815.397	2830
815.539	2887
815.68	2766
815.821	2796
815.962	2925
816.103	2952
816.244	2895
816.385	2868
816.526	2986
816.666	2937
816.807	2792
816.948	2910
817.089	2910
817.23	2895
817.371	2777
817.512	2796
817.653	2864
817.793	2819
817.934	2895
818.075	2937
818.216	3013
818.356	3043
818.497	2876
818.638	2811
818.778	2826
818.919	2777
819.06	2785
819.2	2895
819.341	2807
819.481	2834
819.622	2979
819.762	3093
819.903	3058
820.043	2933
820.184	2887
820.324	2883
820.465	3020
820.605	3051
820.746	3051
820.886	2956
821.026	3089
821.167	3199
821.307	3264
821.447	3275
821.588	3245
821.728	3230
821.868	3207
822.008	3081
822.149	3176
822.289	3241
822.429	3119
822.569	3089
822.709	3192
822.849	3017
822.99	3112
823.13	3169
823.27	3207
823.41	3093
823.55	3192
823.69	3176
823.83	3241
823.97	3112
824.11	3024
824.25	3013
824.389	3055
824.529	3123
824.669	3085
824.809	3214
824.949	3268
825.089	3233
825.228	3165
825.368	3005
825.508	2952
825.648	2956
825.787	3020
825.927	2990
826.067	2971
826.206	2948
826.346	3074
826.485	3104
826.625	3100
826.765	3302
826.904	3207
827.044	2948
827.183	2937
827.323	2914
827.462	2982
827.601	2933
827.741	2937
827.88	2941
828.02	2876
828.159	2975
828.298	3024
828.437	3127
828.577	3028
828.716	3241
828.855	3085
828.994	2929
829.134	2910
829.273	2922
829.412	2876
829.551	2887
829.69	2891
829.829	2956
829.968	3112
830.107	3001
830.246	3070
830.385	2922
830.524	2864
830.663	2811
830.802	2739
830.941	2625
831.08	2651
831.219	2773
831.357	2804
831.496	2941
831.635	2735
831.774	2625
831.913	2678
832.051	2549
832.19	2594
832.329	2674
832.467	2571
832.606	2526
832.744	2575
832.883	2579
833.022	2564
833.16	2678
833.299	2689
833.437	2731
833.576	2689
833.714	2739
833.852	2735
833.991	2754
834.129	2845
834.267	2823
834.406	2804
834.544	2880
834.682	2868
834.821	2853
834.959	3066
835.097	2902
835.235	3085
835.373	3013
835.511	3005
835.65	2963
835.788	2998
835.926	2819
836.064	2807
836.202	2880
836.34	3119
836.478	3192
836.615	3051
836.753	3100
836.891	3188
837.029	3165
837.167	3085
837.305	3028
837.443	3005
837.58	2963
837.718	3116
837.856	3077
837.993	3013
838.131	3127
838.269	3070
838.406	3116
838.544	3085
838.681	2933
838.819	2937
838.956	2819
839.094	2830
839.231	2895
839.369	3009
839.506	3382
839.643	3188
839.781	3058
839.918	2979
840.055	3039
840.193	3039
840.33	3074
840.467	3081
840.604	3173
840.742	3435
840.879	3043
841.016	3017
841.153	3116
841.29	3351
841.427	3283
841.564	3279
841.701	3310
841.838	3211
841.975	3150
842.112	3180
842.249	3047
842.385	3066
842.522	3256
842.659	3066
842.796	3058
842.933	3119
843.069	3058
843.206	3047
843.343	3184
843.479	3123
843.616	3104
843.752	2902
843.889	2868
844.025	3070
844.162	2868
844.298	3097
844.435	2937
844.571	2929
844.708	3077
844.844	3173
844.98	3211
845.117	3192
845.253	3055
845.389	3013
845.525	3062
845.661	3112
845.798	2998
845.934	3161
846.07	3051
846.206	3256
846.342	3275
846.478	3241
846.614	3066
846.75	3032
846.886	3005
847.022	3245
847.158	3154
847.294	3161
847.429	3222
847.565	3176
847.701	3458
847.837	3058
847.972	2971
848.108	3146
848.244	3119
848.379	3005
848.515	2929
848.65	2952
848.786	2944
848.921	2994
849.057	3074
849.192	3169
849.328	3047
849.463	3135
849.598	3089
849.734	3051
849.869	2941
850.004	2948
850.14	2963
850.275	2876
850.41	2845
850.545	2902
850.68	2941
850.815	2944
850.95	2975
851.085	3169
851.22	3104
851.355	3017
851.49	3005
851.625	2994
851.76	3013
851.895	2933
852.03	2883
852.165	2990
852.299	3138
852.434	3192
852.569	3150
852.703	3176
852.838	3214
852.973	3340
853.107	3310
853.242	3116
853.376	3077
853.511	2975
853.645	3058
853.78	3207
853.914	3112
854.048	3123
854.183	3081
854.317	3138
854.451	3256
854.585	3100
854.72	3070
854.854	3226
854.988	3039
855.122	3081
855.256	2956
855.39	3100
855.524	3245
855.658	3161
855.792	3161
855.926	3180
856.06	3222
856.194	3272
856.327	3142
856.461	3062
856.595	3085
856.729	3066
856.862	3203
856.996	3142
857.13	3188
857.263	3241
857.397	3291
857.53	3104
857.664	3192
857.797	3222
857.931	3272
858.064	3157
858.197	3214
858.331	3112
858.464	3081
858.597	3024
858.731	3119
858.864	3119
858.997	3100
859.13	3157
859.263	3165
859.396	3207
859.529	3116
859.662	3051
859.795	3074
859.928	3138
860.061	3268
860.194	3283
860.327	3146
860.46	3097
860.592	3253
860.725	3249
860.858	3249
860.99	3089
861.123	3070
861.256	3085
861.388	3119
861.521	3819
861.653	3013
861.786	3020
861.918	3013
862.05	3066
862.183	3081
862.315	3150
862.447	3173
862.58	3081
862.712	2922
862.844	2864
862.976	3020
863.108	2990
863.24	3405
863.372	2887
863.504	2952
863.636	2967
863.768	3043
863.9	2956
864.032	2914
864.164	2986
864.296	3032
864.428	3097
864.559	3085
864.691	3081
864.823	3051
864.954	3039
865.086	3036
865.217	2982
865.349	2925
865.48	3028
865.612	3001
865.743	3157
865.875	2956
866.006	2914
866.137	2971
866.269	2944
866.4	2960
866.531	2910
866.662	2880
866.793	2880
866.924	2918
867.055	2986
867.186	2887
867.317	2887
867.448	2823
867.579	2857
867.71	2842
867.841	2842
867.972	2880
868.103	2925
868.233	2899
868.364	2895
868.495	2956
868.625	3062
868.756	3173
868.886	2986
869.017	3051
869.147	3146
869.278	3154
869.408	3043
869.539	3005
869.669	3104
869.799	3017
869.929	3138
870.06	3112
870.19	3306
870.32	3264
870.45	3291
870.58	3393
870.71	3504
870.84	3401
870.97	3279
871.1	3256
871.23	3450
871.36	3424
871.489	3363
871.619	3370
871.749	3416
871.879	3431
872.008	3458
872.138	3363
872.267	3237
872.397	3180
872.526	3077
872.656	3013
872.785	3062
872.915	3260
873.044	3298
873.173	3233
873.303	3275
873.432	3264
873.561	3260
873.69	3119
873.819	3108
873.948	3218
874.077	3112
874.206	3051
874.335	3062
874.464	3245
874.593	3321
874.722	3291
874.851	3367
874.979	3336
875.108	3310
875.237	3192
875.365	3173
875.494	3169
875.623	3260
875.751	3074
875.88	3074
876.008	3199
876.136	3203
876.265	3351
876.393	3523
876.521	3416
876.65	3348
876.778	3313
876.906	3268
877.034	3203
877.162	3249
877.29	3203
877.418	3249
877.546	3268
877.674	3253
877.802	3245
877.93	3199
878.058	3127
878.185	3074
878.313	3195
878.441	3188
878.568	3047
878.696	3146
878.824	3264
878.951	3260
879.079	3447
879.206	3576
879.333	3389
879.461	3294
879.588	3340
879.715	3473
879.842	3572
879.97	3367
880.097	3165
880.224	3077
880.351	3165
880.478	3203
880.605	3199
880.732	3188
880.859	3504
880.986	3298
881.112	3291
881.239	3218
881.366	3123
881.493	3024
881.619	3070
881.746	3085
881.872	3074
881.999	3135
882.125	3135
882.252	3195
882.378	3268
882.505	3428
882.631	3283
882.757	3165
882.883	3226
883.01	3222
883.136	3123
883.262	3093
883.388	3104
883.514	3298
883.64	3374
883.766	3313
883.892	3173
884.018	3230
884.143	3401
884.269	3526
884.395	3188
884.52	3180
884.646	3203
884.772	3135
884.897	3097
885.023	3211
885.148	3325
885.274	3412
885.399	3389
885.524	3279
885.65	3226
885.775	3313
885.9	3260
886.025	3431
886.15	3325
886.275	3302
886.4	3253
886.525	3291
886.65	3275
886.775	3310
886.9	3485
887.025	3652
887.149	3416
887.274	3214
887.399	3192
887.523	3188
887.648	3176
887.773	3180
887.897	3405
888.021	3405
888.146	3325
888.27	3439
888.395	3530
888.519	3389
888.643	3500
888.767	3424
888.891	3256
889.015	3264
889.139	3317
889.263	3237
889.387	3397
889.511	3576
889.635	3443
889.759	3298
889.883	3298
890.006	3359
890.13	3447
890.254	3287
890.377	3351
890.501	3214
890.624	3165
890.748	3310
890.871	3192
890.995	3070
891.118	3036
891.241	3192
891.364	3222
891.488	3302
891.611	3173
891.734	3214
891.857	3310
891.98	3222
892.103	3313
892.226	3291
892.349	3226
892.471	3104
892.594	3256
892.717	3283
892.839	3283
892.962	3302
893.085	3355
893.207	3283
893.33	3131
893.452	3176
893.575	3348
893.697	3245
893.819	3462
893.941	3488
894.064	3466
894.186	3241
894.308	3302
894.43	3439
894.552	3561
894.674	3496
894.796	3306
894.918	3310
895.04	3283
895.161	3386
895.283	3401
895.405	3302
895.526	3367
895.648	3431
895.769	3431
895.891	3462
896.012	3466
896.134	3469
896.255	3412
896.376	3363
896.498	3348
896.619	3439
896.74	3332
896.861	3405
896.982	3644
897.103	3835
897.224	3644
897.345	3507
897.466	3412
897.587	3458
897.708	3629
897.828	3557
897.949	3454
898.07	3329
898.19	3386
898.311	3603
898.431	3428
898.552	3466
898.672	3618
898.792	3606
898.913	3507
899.033	3367
899.153	3283
899.273	3207
899.393	3249
899.513	3310
899.633	3321
899.753	3332
899.873	3298
899.993	3397
900.113	3321
900.232	3355
900.352	3313
900.472	3298
900.591	3165
900.711	3332
900.83	3253
900.95	3401
901.069	3477
901.189	3386
901.308	3169
901.427	3119
901.546	3180
901.665	3275
901.784	3321
901.904	3195
902.023	3135
902.141	2994
902.26	3013
902.379	3131
902.498	3070
902.617	3047
902.735	3195
902.854	3218
902.973	3169
903.091	3058
903.21	3047
903.328	3154
903.446	3112
903.565	3119
903.683	3195
903.801	3127
903.919	3241
904.038	3275
904.156	3176
904.274	3287
904.392	3272
904.51	3306
904.627	3306
904.745	3431
904.863	3511
904.981	3241
905.098	3161
905.216	3249
905.334	3298
905.451	3321
905.569	3340
905.686	3428
905.803	3393
905.921	3298
906.038	3447
906.155	3325
906.272	3268
906.389	3348
906.506	3222
906.623	3260
906.74	3256
906.857	3169
906.974	3245
907.091	3420
907.208	3564
907.324	3469
907.441	3409
907.557	3211
907.674	3176
907.79	3207
907.907	3245
908.023	3420
908.139	3374
908.256	3294
908.372	3351
908.488	3374
908.604	3237
908.72	3222
908.836	3302
908.952	3245
909.068	3317
909.184	3488
909.3	3382
909.415	3523
909.531	3481
909.647	3218
909.762	3275
909.878	3260
909.993	3306
910.108	3317
910.224	3359
910.339	3389
910.454	3325
910.57	3283
910.685	3222
910.8	3587
910.915	3515
911.03	3447
911.145	3291
911.259	3272
911.374	3310
911.489	3226
911.604	3218
911.718	3104
911.833	3142
911.947	3047
912.062	2952
912.176	3154
912.291	3169
912.405	3207
912.519	3431
912.633	3477
912.748	3367
912.862	3294
912.976	3165
913.09	3039
913.204	3131
913.318	3207
913.431	3351
913.545	3332
913.659	3397
913.772	3310
913.886	3222
914	3253
914.113	3367
914.226	3409
914.34	3355
914.453	3241
914.566	3374
914.68	3272
914.793	3264
914.906	3142
915.019	3093
915.132	3070
915.245	3146
915.358	3214
915.47	3211
915.583	3313
915.696	3291
915.809	3431
915.921	3409
916.034	3287
916.146	3249
916.259	3237
916.371	3374
916.483	3363
916.595	3298
916.708	3348
916.82	3310
916.932	3321
917.044	3344
917.156	3355
917.268	3233
917.38	3351
917.491	3287
917.603	3298
917.715	3454
917.826	3454
917.938	3378
918.049	3260
918.161	3374
918.272	3580
918.384	3572
918.495	3519
918.606	3321
918.717	3275
918.828	3340
918.939	3401
919.05	3306
919.161	3378
919.272	3180
919.383	3294
919.494	3511
919.604	3686
919.715	3458
919.826	3401
919.936	3469
920.047	3576
920.157	3557
920.267	3789
920.378	3564
920.488	3561
920.598	3785
920.708	3930
920.818	3819
920.928	3846
921.038	4036
921.148	3968
921.258	3720
921.368	3595
921.477	3599
921.587	3496
921.697	3462
921.806	3625
921.916	3485
922.025	3370
922.134	3329
922.244	3355
922.353	3374
922.462	3279
922.571	3249
922.68	3108
922.789	3058
922.898	3116
923.007	3119
923.116	3222
923.224	3207
923.333	3222
923.442	3100
923.55	3062
923.659	3150
923.767	3237
923.876	3123
923.984	3233
924.092	3097
924.201	3237
924.309	3192
924.417	3272
924.525	3157
924.633	3272
924.741	4215
924.849	3066
924.956	3260
925.064	3116
925.172	3055
925.279	3100
925.387	3176
925.494	3180
925.602	3355
925.709	3306
925.816	3188
925.924	3313
926.031	3363
926.138	3332
926.245	3389
926.352	3253
926.459	3401
926.566	3462
926.673	3291
926.779	3230
926.886	3249
926.993	3165
927.099	3123
927.206	3116
927.312	3131
927.419	3233
927.525	3203
927.631	3260
927.737	3154
927.843	3119
927.95	3009
928.056	3112
928.162	3138
928.267	3287
928.373	3918
928.479	3287
928.585	3081
928.69	3222
928.796	3245
928.901	3157
929.007	3055
929.112	3192
929.218	3203
929.323	3161
929.428	3157
929.533	3287
929.638	3089
929.743	3199
929.848	3291
929.953	3211
930.058	3108
930.163	2979
930.267	3066
930.372	3195
930.477	3058
930.581	3325
930.685	3154
930.79	3047
930.894	3081
930.998	3135
931.103	3260
931.207	2963
931.311	2922
931.415	2914
931.519	2750
931.623	2785
