Data from test_V78500241_1060.txt Node
Date: Fri Mar 25 16:22:32 CST 2022
User: usil
Spectrometer: V785-0024
Trigger mode: 0
Integration Time (sec): 4.000000E-1
Scans to average: 1
Nonlinearity correction enabled: false
Boxcar width: 0
Storing dark spectrum: false
XAxis mode: Wavelengths
Number of Pixels in Spectrum: 1024
>>>>>Begin Spectral Data<<<<<
801.071	2918
801.214	2952
801.356	2868
801.499	2883
801.641	2845
801.783	2944
801.926	3043
802.068	2925
802.211	2998
802.353	3028
802.496	2952
802.638	3047
802.78	3024
802.923	3100
803.065	3017
803.208	2891
803.35	2960
803.492	2914
803.635	2925
803.777	2762
803.919	2872
804.061	3184
804.204	2941
804.346	2899
804.488	2857
804.63	2982
804.773	2895
804.915	2929
805.057	3081
805.199	2944
805.341	2975
805.483	2982
805.626	2990
805.768	2941
805.91	3116
806.052	3097
806.194	3043
806.336	3222
806.478	3047
806.62	2956
806.762	2998
806.904	3051
807.046	3173
807.188	2963
807.33	2918
807.472	2998
807.614	2899
807.756	2986
807.898	2906
808.04	2899
808.182	2967
808.324	2967
808.465	2872
808.607	2880
808.749	2838
808.891	2819
809.033	2944
809.174	2952
809.316	2895
809.458	2918
809.6	2769
809.741	2754
809.883	2766
810.025	2815
810.166	2872
810.308	2826
810.45	2834
810.591	2834
810.733	2750
810.875	2838
811.016	2777
811.158	2739
811.299	2781
811.441	2948
811.582	2891
811.724	2807
811.865	2800
812.007	2929
812.148	2887
812.29	2899
812.431	2891
812.573	2956
812.714	2967
812.855	3013
812.997	3055
813.138	3146
813.279	3043
813.421	3009
813.562	2952
813.703	2853
813.845	2918
813.986	2735
814.127	2754
814.268	2830
814.41	2857
814.551	2781
814.692	2876
814.833	2807
814.974	2883
815.115	2986
815.256	2811
815.397	2819
815.539	2845
815.68	2785
815.821	2804
815.962	2990
816.103	2902
816.244	2906
816.385	2872
816.526	2963
816.666	2922
816.807	2754
816.948	2902
817.089	2899
817.23	2838
817.371	2785
817.512	2807
817.653	2815
817.793	2826
817.934	2883
818.075	2986
818.216	2998
818.356	3032
818.497	2861
818.638	2762
818.778	2830
818.919	2777
819.06	2746
819.2	2861
819.341	2819
819.481	2785
819.622	2918
819.762	3081
819.903	3009
820.043	2876
820.184	2872
820.324	2914
820.465	3020
820.605	3001
820.746	3043
820.886	2941
821.026	3089
821.167	3146
821.307	3264
821.447	3298
821.588	3226
821.728	3211
821.868	3169
822.008	3108
822.149	3188
822.289	3249
822.429	3104
822.569	3043
822.709	3165
822.849	3020
822.99	3062
823.13	3154
823.27	3184
823.41	3093
823.55	3165
823.69	3173
823.83	3222
823.97	3119
824.11	2986
824.25	2952
824.389	3062
824.529	3108
824.669	3081
824.809	3211
824.949	3211
825.089	3199
825.228	3176
825.368	3001
825.508	2960
825.648	2975
825.787	3005
825.927	3028
826.067	2933
826.206	2902
826.346	3024
826.485	3070
826.625	3081
826.765	3233
826.904	3214
827.044	3001
827.183	2933
827.323	2842
827.462	2982
827.601	2891
827.741	2910
827.88	2876
828.02	2861
828.159	2952
828.298	3028
828.437	3093
828.577	3058
828.716	3279
828.855	3070
828.994	2891
829.134	2887
829.273	2899
829.412	2872
829.551	2823
829.69	2899
829.829	2963
829.968	3150
830.107	2998
830.246	3013
830.385	2887
830.524	2868
830.663	2834
830.802	2701
830.941	2617
831.08	2632
831.219	2716
831.357	2743
831.496	2937
831.635	2712
831.774	2648
831.913	2659
832.051	2533
832.19	2560
832.329	2613
832.467	2537
832.606	2461
832.744	2610
832.883	2549
833.022	2556
833.16	2613
833.299	2659
833.437	2648
833.576	2716
833.714	2693
833.852	2708
833.991	2735
834.129	2830
834.267	2830
834.406	2792
834.544	2872
834.682	2842
834.821	2834
834.959	3028
835.097	2872
835.235	3009
835.373	2979
835.511	3032
835.65	2979
835.788	2922
835.926	2842
836.064	2819
836.202	2853
836.34	3108
836.478	3131
836.615	3028
836.753	3138
836.891	3199
837.029	3157
837.167	3127
837.305	3020
837.443	3020
837.58	2956
837.718	3112
837.856	3039
837.993	3051
838.131	3112
838.269	3116
838.406	3058
838.544	3085
838.681	2960
838.819	2906
838.956	2815
839.094	2842
839.231	2922
839.369	2979
839.506	3405
839.643	3207
839.781	3017
839.918	2971
840.055	3036
840.193	3032
840.33	3077
840.467	3100
840.604	3104
840.742	3370
840.879	3013
841.016	3047
841.153	3123
841.29	3344
841.427	3249
841.564	3272
841.701	3310
841.838	3218
841.975	3154
842.112	3218
842.249	3058
842.385	3028
842.522	3241
842.659	3074
842.796	3047
842.933	3131
843.069	3070
843.206	3009
843.343	3176
843.479	3127
843.616	3112
843.752	2895
843.889	2899
844.025	3085
844.162	2861
844.298	3123
844.435	2937
844.571	2864
844.708	3051
844.844	3195
844.98	3226
845.117	3222
845.253	3051
845.389	3001
845.525	3097
845.661	3093
845.798	3028
845.934	3081
846.07	3024
846.206	3180
846.342	3302
846.478	3230
846.614	3093
846.75	3036
846.886	3024
847.022	3214
847.158	3119
847.294	3184
847.429	3245
847.565	3195
847.701	3496
847.837	3047
847.972	2979
848.108	3146
848.244	3169
848.379	2979
848.515	2960
848.65	2941
848.786	2960
848.921	3009
849.057	3112
849.192	3161
849.328	3036
849.463	3100
849.598	3085
849.734	3039
849.869	2998
850.004	2902
850.14	2979
850.275	2906
850.41	2834
850.545	2868
850.68	2914
850.815	2971
850.95	2963
851.085	3142
851.22	3112
851.355	2998
851.49	3013
851.625	2982
851.76	2982
851.895	2914
852.03	2922
852.165	2979
852.299	3100
852.434	3135
852.569	3119
852.703	3165
852.838	3268
852.973	3329
853.107	3325
853.242	3131
853.376	3085
853.511	2971
853.645	3020
853.78	3203
853.914	3127
854.048	3077
854.183	3097
854.317	3195
854.451	3310
854.585	3146
854.72	3097
854.854	3195
854.988	3036
855.122	3112
855.256	2956
855.39	3135
855.524	3218
855.658	3116
855.792	3100
855.926	3165
856.06	3203
856.194	3253
856.327	3100
856.461	3028
856.595	3062
856.729	3097
856.862	3226
856.996	3176
857.13	3203
857.263	3233
857.397	3298
857.53	3104
857.664	3199
857.797	3260
857.931	3275
858.064	3138
858.197	3230
858.331	3085
858.464	3108
858.597	3005
858.731	3119
858.864	3135
858.997	3074
859.13	3123
859.263	3154
859.396	3192
859.529	3119
859.662	3127
859.795	3066
859.928	3104
860.061	3275
860.194	3325
860.327	3146
860.46	3085
860.592	3218
860.725	3253
860.858	3233
860.99	3116
861.123	3081
861.256	3066
861.388	3169
861.521	3789
861.653	2998
861.786	2979
861.918	2956
862.05	3062
862.183	3062
862.315	3150
862.447	3176
862.58	3077
862.712	2963
862.844	2849
862.976	3020
863.108	3017
863.24	3405
863.372	2864
863.504	2982
863.636	2967
863.768	3043
863.9	2952
864.032	2899
864.164	2948
864.296	3001
864.428	3089
864.559	3135
864.691	3047
864.823	3043
864.954	3036
865.086	3024
865.217	3001
865.349	2956
865.48	2990
865.612	2994
865.743	3154
865.875	2944
866.006	2948
866.137	2941
866.269	2937
866.4	2914
866.531	2906
866.662	2902
866.793	2883
866.924	2899
867.055	2952
867.186	2922
867.317	2857
867.448	2857
867.579	2868
867.71	2857
867.841	2796
867.972	2914
868.103	2861
868.233	2868
868.364	2925
868.495	2895
868.625	3108
868.756	3138
868.886	3001
869.017	3058
869.147	3176
869.278	3146
869.408	3055
869.539	3024
869.669	3100
869.799	3028
869.929	3146
870.06	3112
870.19	3325
870.32	3245
870.45	3321
870.58	3359
870.71	3409
870.84	3409
870.97	3256
871.1	3237
871.23	3488
871.36	3462
871.489	3317
871.619	3401
871.749	3405
871.879	3447
872.008	3428
872.138	3363
872.267	3279
872.397	3173
872.526	3081
872.656	3028
872.785	3104
872.915	3203
873.044	3298
873.173	3222
873.303	3233
873.432	3214
873.561	3256
873.69	3157
873.819	3116
873.948	3222
874.077	3104
874.206	3028
874.335	3085
874.464	3192
874.593	3344
874.722	3230
874.851	3370
874.979	3344
875.108	3302
875.237	3192
875.365	3161
875.494	3154
875.623	3233
875.751	3070
875.88	3119
876.008	3184
876.136	3226
876.265	3359
876.393	3507
876.521	3435
876.65	3370
876.778	3340
876.906	3241
877.034	3214
877.162	3233
877.29	3184
877.418	3253
877.546	3207
877.674	3207
877.802	3230
877.93	3260
878.058	3112
878.185	3089
878.313	3195
878.441	3214
878.568	3066
878.696	3138
878.824	3260
878.951	3306
879.079	3435
879.206	3648
879.333	3412
879.461	3287
879.588	3378
879.715	3462
879.842	3599
879.97	3386
880.097	3169
880.224	3116
880.351	3188
880.478	3218
880.605	3142
880.732	3173
880.859	3462
880.986	3298
881.112	3351
881.239	3195
881.366	3116
881.493	3062
881.619	3017
881.746	3089
881.872	3093
881.999	3108
882.125	3169
882.252	3260
882.378	3260
882.505	3428
882.631	3272
882.757	3207
882.883	3192
883.01	3233
883.136	3165
883.262	3127
883.388	3100
883.514	3317
883.64	3374
883.766	3313
883.892	3192
884.018	3226
884.143	3428
884.269	3549
884.395	3207
884.52	3142
884.646	3173
884.772	3093
884.897	3104
885.023	3207
885.148	3340
885.274	3431
885.399	3363
885.524	3294
885.65	3260
885.775	3302
885.9	3264
886.025	3439
886.15	3359
886.275	3275
886.4	3256
886.525	3355
886.65	3256
886.775	3291
886.9	3492
887.025	3610
887.149	3393
887.274	3180
887.399	3165
887.523	3203
887.648	3169
887.773	3226
887.897	3393
888.021	3405
888.146	3294
888.27	3424
888.395	3538
888.519	3450
888.643	3435
888.767	3420
888.891	3275
889.015	3245
889.139	3294
889.263	3249
889.387	3378
889.511	3504
889.635	3473
889.759	3310
889.883	3317
890.006	3386
890.13	3469
890.254	3279
890.377	3344
890.501	3176
890.624	3176
890.748	3298
890.871	3154
890.995	3097
891.118	3058
891.241	3199
891.364	3214
891.488	3340
891.611	3169
891.734	3230
891.857	3253
891.98	3237
892.103	3336
892.226	3222
892.349	3195
892.471	3146
892.594	3222
892.717	3268
892.839	3253
892.962	3245
893.085	3329
893.207	3264
893.33	3116
893.452	3260
893.575	3348
893.697	3249
893.819	3477
893.941	3485
894.064	3458
894.186	3218
894.308	3249
894.43	3431
894.552	3538
894.674	3466
894.796	3253
894.918	3291
895.04	3317
895.161	3412
895.283	3420
895.405	3283
895.526	3344
895.648	3454
895.769	3443
895.891	3458
896.012	3439
896.134	3477
896.255	3420
896.376	3393
896.498	3291
896.619	3447
896.74	3405
896.861	3420
896.982	3679
897.103	3804
897.224	3572
897.345	3504
897.466	3439
897.587	3504
897.708	3614
897.828	3549
897.949	3450
898.07	3355
898.19	3405
898.311	3618
898.431	3420
898.552	3534
898.672	3572
898.792	3610
898.913	3492
899.033	3405
899.153	3294
899.273	3233
899.393	3253
899.513	3294
899.633	3325
899.753	3291
899.873	3317
899.993	3374
900.113	3306
900.232	3359
900.352	3359
900.472	3260
900.591	3184
900.711	3321
900.83	3279
900.95	3405
901.069	3526
901.189	3317
901.308	3211
901.427	3116
901.546	3169
901.665	3264
901.784	3348
901.904	3192
902.023	3146
902.141	3009
902.26	2963
902.379	3116
902.498	3058
902.617	3043
902.735	3211
902.854	3283
902.973	3173
903.091	3062
903.21	3062
903.328	3081
903.446	3119
903.565	3085
903.683	3131
903.801	3127
903.919	3245
904.038	3272
904.156	3161
904.274	3272
904.392	3260
904.51	3291
904.627	3310
904.745	3450
904.863	3488
904.981	3230
905.098	3199
905.216	3214
905.334	3317
905.451	3294
905.569	3317
905.686	3420
905.803	3447
905.921	3241
906.038	3397
906.155	3340
906.272	3287
906.389	3329
906.506	3245
906.623	3279
906.74	3294
906.857	3165
906.974	3233
907.091	3458
907.208	3591
907.324	3454
907.441	3389
907.557	3260
907.674	3260
907.79	3180
907.907	3275
908.023	3363
908.139	3351
908.256	3351
908.372	3397
908.488	3370
908.604	3241
908.72	3241
908.836	3302
908.952	3287
909.068	3344
909.184	3504
909.3	3405
909.415	3511
909.531	3466
909.647	3272
909.762	3233
909.878	3253
909.993	3351
910.108	3355
910.224	3302
910.339	3378
910.454	3340
910.57	3256
910.685	3233
910.8	3614
910.915	3530
911.03	3439
911.145	3260
911.259	3253
911.374	3363
911.489	3218
911.604	3214
911.718	3119
911.833	3123
911.947	3020
912.062	2979
912.176	3165
912.291	3176
912.405	3157
912.519	3412
912.633	3473
912.748	3344
912.862	3237
912.976	3169
913.09	3051
913.204	3176
913.318	3199
913.431	3302
913.545	3317
913.659	3424
913.772	3298
913.886	3245
914	3230
914.113	3355
914.226	3431
914.34	3378
914.453	3249
914.566	3378
914.68	3298
914.793	3321
914.906	3154
915.019	3138
915.132	3070
915.245	3161
915.358	3214
915.47	3245
915.583	3264
915.696	3291
915.809	3431
915.921	3450
916.034	3249
916.146	3241
916.259	3188
916.371	3348
916.483	3351
916.595	3283
916.708	3317
916.82	3359
916.932	3348
917.044	3325
917.156	3298
917.268	3260
917.38	3302
917.491	3310
917.603	3359
917.715	3431
917.826	3458
917.938	3397
918.049	3245
918.161	3393
918.272	3553
918.384	3557
918.495	3515
918.606	3363
918.717	3275
918.828	3386
918.939	3424
919.05	3291
919.161	3382
919.272	3192
919.383	3264
919.494	3473
919.604	3682
919.715	3477
919.826	3412
919.936	3466
920.047	3561
920.157	3576
920.267	3770
920.378	3603
920.488	3576
920.598	3812
920.708	3937
920.818	3838
920.928	3819
921.038	3998
921.148	3953
921.258	3694
921.368	3599
921.477	3599
921.587	3545
921.697	3462
921.806	3614
921.916	3492
922.025	3310
922.134	3344
922.244	3317
922.353	3435
922.462	3264
922.571	3173
922.68	3100
922.789	3047
922.898	3119
923.007	3104
923.116	3218
923.224	3188
923.333	3161
923.442	3028
923.55	3123
923.659	3138
923.767	3245
923.876	3135
923.984	3260
924.092	3097
924.201	3169
924.309	3169
924.417	3272
924.525	3180
924.633	3226
924.741	4150
924.849	3028
924.956	3241
925.064	3100
925.172	3066
925.279	3043
925.387	3222
925.494	3218
925.602	3382
925.709	3310
925.816	3138
925.924	3287
926.031	3412
926.138	3340
926.245	3355
926.352	3256
926.459	3435
926.566	3450
926.673	3329
926.779	3237
926.886	3195
926.993	3146
927.099	3138
927.206	3100
927.312	3112
927.419	3214
927.525	3195
927.631	3233
927.737	3119
927.843	3100
927.95	3020
928.056	3097
928.162	3135
928.267	3272
928.373	3850
928.479	3268
928.585	3051
928.69	3245
928.796	3230
928.901	3176
929.007	3039
929.112	3195
929.218	3173
929.323	3142
929.428	3070
929.533	3317
929.638	3104
929.743	3176
929.848	3253
929.953	3195
930.058	3138
930.163	3032
930.267	3047
930.372	3222
930.477	3017
930.581	3272
930.685	3165
930.79	3043
930.894	3108
930.998	3116
931.103	3241
931.207	2986
931.311	2956
931.415	2933
931.519	2796
931.623	2807
