Data from test_V78500241_94.txt Node
Date: Fri Mar 25 16:15:51 CST 2022
User: usil
Spectrometer: V785-0024
Trigger mode: 0
Integration Time (sec): 4.000000E-1
Scans to average: 1
Nonlinearity correction enabled: false
Boxcar width: 0
Storing dark spectrum: false
XAxis mode: Wavelengths
Number of Pixels in Spectrum: 1024
>>>>>Begin Spectral Data<<<<<
801.071	2925
801.214	2933
801.356	2899
801.499	2933
801.641	2883
801.783	2963
801.926	3036
802.068	2994
802.211	3009
802.353	3058
802.496	3005
802.638	3039
802.78	3077
802.923	3070
803.065	2998
803.208	2918
803.35	2937
803.492	2948
803.635	2941
803.777	2815
803.919	2883
804.061	3203
804.204	2963
804.346	2918
804.488	2849
804.63	3043
804.773	2910
804.915	2929
805.057	3112
805.199	2952
805.341	2986
805.483	3070
805.626	3013
805.768	2967
805.91	3100
806.052	3157
806.194	3062
806.336	3275
806.478	3024
806.62	2944
806.762	3017
806.904	3074
807.046	3199
807.188	2979
807.33	2922
807.472	3020
807.614	2952
807.756	2990
807.898	2960
808.04	2902
808.182	2998
808.324	2963
808.465	2914
808.607	2922
808.749	2823
808.891	2876
809.033	2986
809.174	2971
809.316	2902
809.458	2922
809.6	2788
809.741	2762
809.883	2834
810.025	2895
810.166	2899
810.308	2849
810.45	2861
810.591	2830
810.733	2800
810.875	2838
811.016	2773
811.158	2773
811.299	2845
811.441	2979
811.582	2925
811.724	2834
811.865	2842
812.007	2925
812.148	2929
812.29	2853
812.431	2895
812.573	2963
812.714	2979
812.855	3074
812.997	3047
813.138	3150
813.279	3028
813.421	3020
813.562	2979
813.703	2895
813.845	2918
813.986	2811
814.127	2777
814.268	2883
814.41	2845
814.551	2834
814.692	2906
814.833	2819
814.974	2960
815.115	2975
815.256	2826
815.397	2807
815.539	2914
815.68	2788
815.821	2811
815.962	2952
816.103	2944
816.244	2956
816.385	2902
816.526	2963
816.666	2956
816.807	2800
816.948	2899
817.089	2952
817.23	2891
817.371	2792
817.512	2826
817.653	2838
817.793	2830
817.934	2868
818.075	2967
818.216	3017
818.356	3070
818.497	2880
818.638	2826
818.778	2838
818.919	2826
819.06	2800
819.2	2914
819.341	2815
819.481	2807
819.622	2960
819.762	3104
819.903	3058
820.043	2929
820.184	2910
820.324	2914
820.465	3066
820.605	3043
820.746	3024
820.886	2956
821.026	3112
821.167	3237
821.307	3256
821.447	3294
821.588	3253
821.728	3207
821.868	3176
822.008	3123
822.149	3199
822.289	3237
822.429	3077
822.569	3127
822.709	3230
822.849	3070
822.99	3119
823.13	3192
823.27	3241
823.41	3138
823.55	3169
823.69	3154
823.83	3253
823.97	3097
824.11	3047
824.25	3020
824.389	3108
824.529	3150
824.669	3089
824.809	3237
824.949	3260
825.089	3298
825.228	3180
825.368	3039
825.508	3005
825.648	2971
825.787	3024
825.927	3020
826.067	3028
826.206	2963
826.346	3074
826.485	3154
826.625	3108
826.765	3283
826.904	3199
827.044	3017
827.183	2971
827.323	2872
827.462	3005
827.601	2922
827.741	2960
827.88	2963
828.02	2902
828.159	2963
828.298	3097
828.437	3146
828.577	3058
828.716	3272
828.855	3138
828.994	2929
829.134	2895
829.273	2902
829.412	2891
829.551	2910
829.69	2891
829.829	3043
829.968	3157
830.107	3051
830.246	3051
830.385	2929
830.524	2929
830.663	2823
830.802	2754
830.941	2648
831.08	2636
831.219	2758
831.357	2777
831.496	2933
831.635	2754
831.774	2648
831.913	2651
832.051	2541
832.19	2613
832.329	2693
832.467	2549
832.606	2507
832.744	2587
832.883	2594
833.022	2610
833.16	2617
833.299	2708
833.437	2731
833.576	2708
833.714	2720
833.852	2743
833.991	2796
834.129	2876
834.267	2857
834.406	2811
834.544	2861
834.682	2906
834.821	2838
834.959	3097
835.097	2941
835.235	3085
835.373	3013
835.511	3055
835.65	2998
835.788	2956
835.926	2819
836.064	2815
836.202	2849
836.34	3116
836.478	3180
836.615	3039
836.753	3195
836.891	3230
837.029	3192
837.167	3123
837.305	3104
837.443	3051
837.58	2956
837.718	3157
837.856	3070
837.993	3051
838.131	3119
838.269	3100
838.406	3123
838.544	3119
838.681	2956
838.819	2975
838.956	2868
839.094	2853
839.231	2948
839.369	3028
839.506	3393
839.643	3264
839.781	3036
839.918	3005
840.055	3066
840.193	3089
840.33	3070
840.467	3112
840.604	3184
840.742	3420
840.879	3085
841.016	3070
841.153	3157
841.29	3393
841.427	3306
841.564	3340
841.701	3313
841.838	3272
841.975	3176
842.112	3241
842.249	3093
842.385	3093
842.522	3275
842.659	3081
842.796	3062
842.933	3123
843.069	3089
843.206	3055
843.343	3218
843.479	3093
843.616	3176
843.752	2876
843.889	2872
844.025	3055
844.162	2864
844.298	3100
844.435	3024
844.571	2937
844.708	3100
844.844	3214
844.98	3306
845.117	3222
845.253	3058
845.389	3047
845.525	3146
845.661	3138
845.798	3005
845.934	3195
846.07	3093
846.206	3233
846.342	3378
846.478	3218
846.614	3123
846.75	3085
846.886	3062
847.022	3291
847.158	3176
847.294	3249
847.429	3241
847.565	3226
847.701	3511
847.837	3066
847.972	3005
848.108	3184
848.244	3195
848.379	2982
848.515	2998
848.65	2944
848.786	2986
848.921	3024
849.057	3135
849.192	3161
849.328	3070
849.463	3127
849.598	3055
849.734	3058
849.869	2998
850.004	2925
850.14	2979
850.275	2941
850.41	2857
850.545	2925
850.68	2929
850.815	2948
850.95	2994
851.085	3199
851.22	3108
851.355	3047
851.49	3005
851.625	3024
851.76	3047
851.895	2960
852.03	2937
852.165	3081
852.299	3116
852.434	3222
852.569	3173
852.703	3188
852.838	3294
852.973	3389
853.107	3363
853.242	3157
853.376	3131
853.511	2948
853.645	3074
853.78	3253
853.914	3165
854.048	3180
854.183	3135
854.317	3119
854.451	3317
854.585	3138
854.72	3100
854.854	3188
854.988	3051
855.122	3108
855.256	3001
855.39	3089
855.524	3302
855.658	3207
855.792	3157
855.926	3195
856.06	3272
856.194	3241
856.327	3192
856.461	3081
856.595	3127
856.729	3108
856.862	3222
856.996	3188
857.13	3218
857.263	3233
857.397	3283
857.53	3146
857.664	3184
857.797	3264
857.931	3287
858.064	3192
858.197	3249
858.331	3146
858.464	3089
858.597	3024
858.731	3104
858.864	3146
858.997	3100
859.13	3138
859.263	3218
859.396	3249
859.529	3112
859.662	3081
859.795	3055
859.928	3214
860.061	3287
860.194	3313
860.327	3131
860.46	3100
860.592	3264
860.725	3260
860.858	3275
860.99	3169
861.123	3097
861.256	3032
861.388	3184
861.521	3705
861.653	3028
861.786	2990
861.918	3013
862.05	3047
862.183	3131
862.315	3176
862.447	3207
862.58	3123
862.712	2971
862.844	2918
862.976	3024
863.108	3036
863.24	3447
863.372	2864
863.504	2982
863.636	2982
863.768	3047
863.9	2956
864.032	2948
864.164	2979
864.296	3036
864.428	3112
864.559	3154
864.691	3085
864.823	3039
864.954	3036
865.086	3062
865.217	2971
865.349	2971
865.48	3020
865.612	3081
865.743	3192
865.875	3009
866.006	2963
866.137	2998
866.269	2967
866.4	2925
866.531	2918
866.662	2891
866.793	2941
866.924	2948
867.055	3001
867.186	2891
867.317	2910
867.448	2861
867.579	2887
867.71	2861
867.841	2834
867.972	2944
868.103	2941
868.233	2922
868.364	2902
868.495	2941
868.625	3058
868.756	3199
868.886	3005
869.017	3024
869.147	3222
869.278	3184
869.408	3081
869.539	3077
869.669	3112
869.799	3005
869.929	3142
870.06	3146
870.19	3370
870.32	3321
870.45	3321
870.58	3351
870.71	3519
870.84	3469
870.97	3325
871.1	3279
871.23	3519
871.36	3435
871.489	3405
871.619	3416
871.749	3420
871.879	3428
872.008	3481
872.138	3378
872.267	3287
872.397	3131
872.526	3135
872.656	3039
872.785	3093
872.915	3268
873.044	3336
873.173	3272
873.303	3264
873.432	3298
873.561	3272
873.69	3165
873.819	3169
873.948	3222
874.077	3142
874.206	3077
874.335	3085
874.464	3241
874.593	3389
874.722	3294
874.851	3401
874.979	3389
875.108	3332
875.237	3230
875.365	3188
875.494	3211
875.623	3325
875.751	3081
875.88	3150
876.008	3245
876.136	3230
876.265	3367
876.393	3526
876.521	3405
876.65	3416
876.778	3355
876.906	3268
877.034	3237
877.162	3237
877.29	3203
877.418	3275
877.546	3275
877.674	3268
877.802	3256
877.93	3249
878.058	3195
878.185	3081
878.313	3249
878.441	3241
878.568	3062
878.696	3214
878.824	3260
878.951	3325
879.079	3477
879.206	3629
879.333	3507
879.461	3389
879.588	3378
879.715	3481
879.842	3603
879.97	3374
880.097	3192
880.224	3135
880.351	3241
880.478	3279
880.605	3218
880.732	3214
880.859	3523
880.986	3332
881.112	3344
881.239	3245
881.366	3146
881.493	3058
881.619	3028
881.746	3104
881.872	3112
881.999	3097
882.125	3157
882.252	3272
882.378	3340
882.505	3485
882.631	3321
882.757	3157
882.883	3241
883.01	3203
883.136	3165
883.262	3127
883.388	3108
883.514	3325
883.64	3397
883.766	3355
883.892	3184
884.018	3264
884.143	3412
884.269	3507
884.395	3233
884.52	3184
884.646	3207
884.772	3142
884.897	3142
885.023	3184
885.148	3367
885.274	3428
885.399	3386
885.524	3291
885.65	3317
885.775	3298
885.9	3321
886.025	3447
886.15	3382
886.275	3355
886.4	3275
886.525	3336
886.65	3325
886.775	3329
886.9	3507
887.025	3641
887.149	3412
887.274	3313
887.399	3211
887.523	3203
887.648	3222
887.773	3218
887.897	3370
888.021	3431
888.146	3325
888.27	3435
888.395	3545
888.519	3420
888.643	3466
888.767	3485
888.891	3329
889.015	3260
889.139	3321
889.263	3260
889.387	3401
889.511	3553
889.635	3469
889.759	3302
889.883	3321
890.006	3424
890.13	3553
890.254	3310
890.377	3370
890.501	3222
890.624	3211
890.748	3355
890.871	3214
890.995	3157
891.118	3081
891.241	3222
891.364	3272
891.488	3344
891.611	3203
891.734	3245
891.857	3268
891.98	3249
892.103	3348
892.226	3298
892.349	3272
892.471	3161
892.594	3283
892.717	3283
892.839	3294
892.962	3359
893.085	3374
893.207	3283
893.33	3195
893.452	3230
893.575	3393
893.697	3245
893.819	3496
893.941	3515
894.064	3492
894.186	3283
894.308	3283
894.43	3454
894.552	3564
894.674	3500
894.796	3279
894.918	3344
895.04	3340
895.161	3443
895.283	3382
895.405	3329
895.526	3374
895.648	3439
895.769	3450
895.891	3496
896.012	3515
896.134	3511
896.255	3454
896.376	3393
896.498	3405
896.619	3523
896.74	3363
896.861	3389
896.982	3686
897.103	3831
897.224	3633
897.345	3561
897.466	3500
897.587	3523
897.708	3652
897.828	3603
897.949	3466
898.07	3370
898.19	3439
898.311	3629
898.431	3477
898.552	3553
898.672	3610
898.792	3572
898.913	3545
899.033	3462
899.153	3351
899.273	3249
899.393	3321
899.513	3348
899.633	3355
899.753	3340
899.873	3329
899.993	3424
900.113	3355
900.232	3389
900.352	3386
900.472	3313
900.591	3188
900.711	3298
900.83	3272
900.95	3454
901.069	3507
901.189	3359
901.308	3195
901.427	3150
901.546	3264
901.665	3336
901.784	3386
901.904	3241
902.023	3161
902.141	3047
902.26	3028
902.379	3180
902.498	3089
902.617	3070
902.735	3233
902.854	3260
902.973	3245
903.091	3089
903.21	3097
903.328	3146
903.446	3104
903.565	3135
903.683	3233
903.801	3135
903.919	3272
904.038	3313
904.156	3253
904.274	3321
904.392	3245
904.51	3313
904.627	3359
904.745	3462
904.863	3534
904.981	3317
905.098	3199
905.216	3268
905.334	3344
905.451	3340
905.569	3363
905.686	3409
905.803	3443
905.921	3272
906.038	3447
906.155	3359
906.272	3268
906.389	3348
906.506	3291
906.623	3275
906.74	3344
906.857	3222
906.974	3279
907.091	3473
907.208	3610
907.324	3485
907.441	3401
907.557	3256
907.674	3245
907.79	3241
907.907	3298
908.023	3409
908.139	3405
908.256	3348
908.372	3405
908.488	3409
908.604	3310
908.72	3268
908.836	3291
908.952	3344
909.068	3397
909.184	3511
909.3	3428
909.415	3511
909.531	3492
909.647	3317
909.762	3294
909.878	3287
909.993	3412
910.108	3340
910.224	3389
910.339	3420
910.454	3344
910.57	3325
910.685	3275
910.8	3644
910.915	3576
911.03	3481
911.145	3306
911.259	3283
911.374	3302
911.489	3249
911.604	3264
911.718	3150
911.833	3207
911.947	3058
912.062	2971
912.176	3173
912.291	3245
912.405	3230
912.519	3439
912.633	3466
912.748	3382
912.862	3298
912.976	3176
913.09	3112
913.204	3188
913.318	3264
913.431	3321
913.545	3348
913.659	3481
913.772	3359
913.886	3233
914	3184
914.113	3401
914.226	3450
914.34	3443
914.453	3256
914.566	3473
914.68	3340
914.793	3351
914.906	3165
915.019	3119
915.132	3081
915.245	3211
915.358	3226
915.47	3249
915.583	3306
915.696	3317
915.809	3424
915.921	3431
916.034	3249
916.146	3264
916.259	3275
916.371	3439
916.483	3412
916.595	3313
916.708	3386
916.82	3363
916.932	3386
917.044	3374
917.156	3370
917.268	3249
917.38	3325
917.491	3321
917.603	3409
917.715	3481
917.826	3500
917.938	3405
918.049	3287
918.161	3458
918.272	3591
918.384	3595
918.495	3542
918.606	3382
918.717	3336
918.828	3386
918.939	3409
919.05	3348
919.161	3397
919.272	3222
919.383	3306
919.494	3561
919.604	3728
919.715	3561
919.826	3431
919.936	3515
920.047	3618
920.157	3553
920.267	3793
920.378	3610
920.488	3606
920.598	3823
920.708	3979
920.818	3850
920.928	3865
921.038	4029
921.148	4025
921.258	3720
921.368	3671
921.477	3587
921.587	3568
921.697	3481
921.806	3629
921.916	3538
922.025	3386
922.134	3355
922.244	3340
922.353	3462
922.462	3291
922.571	3241
922.68	3165
922.789	3100
922.898	3188
923.007	3097
923.116	3233
923.224	3230
923.333	3222
923.442	3123
923.55	3146
923.659	3131
923.767	3268
923.876	3161
923.984	3272
924.092	3131
924.201	3203
924.309	3279
924.417	3329
924.525	3230
924.633	3256
924.741	4234
924.849	3051
924.956	3291
925.064	3085
925.172	3055
925.279	3112
925.387	3192
925.494	3192
925.602	3355
925.709	3351
925.816	3199
925.924	3363
926.031	3405
926.138	3363
926.245	3420
926.352	3283
926.459	3454
926.566	3488
926.673	3348
926.779	3291
926.886	3287
926.993	3165
927.099	3199
927.206	3146
927.312	3184
927.419	3237
927.525	3249
927.631	3264
927.737	3207
927.843	3165
927.95	3039
928.056	3161
928.162	3207
928.267	3279
928.373	3850
928.479	3336
928.585	3055
928.69	3230
928.796	3302
928.901	3188
929.007	3066
929.112	3260
929.218	3188
929.323	3150
929.428	3142
929.533	3325
929.638	3135
929.743	3161
929.848	3268
929.953	3253
930.058	3180
930.163	3013
930.267	3062
930.372	3241
930.477	3047
930.581	3355
930.685	3161
930.79	3070
930.894	3173
930.998	3150
931.103	3283
931.207	2967
931.311	3005
931.415	2937
931.519	2819
931.623	2830
