Data from test_V78500241_176.txt Node
Date: Fri Mar 25 16:16:25 CST 2022
User: usil
Spectrometer: V785-0024
Trigger mode: 0
Integration Time (sec): 4.000000E-1
Scans to average: 1
Nonlinearity correction enabled: false
Boxcar width: 0
Storing dark spectrum: false
XAxis mode: Wavelengths
Number of Pixels in Spectrum: 1024
>>>>>Begin Spectral Data<<<<<
801.071	2941
801.214	3001
801.356	2925
801.499	2960
801.641	2891
801.783	2975
801.926	3127
802.068	3036
802.211	3089
802.353	3070
802.496	2960
802.638	3024
802.78	3070
802.923	3146
803.065	3005
803.208	2895
803.35	2963
803.492	2952
803.635	2952
803.777	2788
803.919	2883
804.061	3230
804.204	2990
804.346	2906
804.488	2872
804.63	2979
804.773	2906
804.915	2944
805.057	3116
805.199	2960
805.341	3017
805.483	3047
805.626	3024
805.768	2967
805.91	3150
806.052	3154
806.194	3081
806.336	3306
806.478	3017
806.62	3001
806.762	3032
806.904	3108
807.046	3214
807.188	3013
807.33	2952
807.472	3062
807.614	2914
807.756	3032
807.898	2960
808.04	2941
808.182	2990
808.324	2975
808.465	2918
808.607	2948
808.749	2861
808.891	2868
809.033	3032
809.174	3024
809.316	2925
809.458	2922
809.6	2823
809.741	2804
809.883	2773
810.025	2899
810.166	2880
810.308	2872
810.45	2914
810.591	2823
810.733	2796
810.875	2868
811.016	2800
811.158	2842
811.299	2823
811.441	2982
811.582	2922
811.724	2842
811.865	2842
812.007	2986
812.148	2933
812.29	2883
812.431	2956
812.573	3005
812.714	2956
812.855	3085
812.997	3051
813.138	3161
813.279	3039
813.421	3039
813.562	2998
813.703	2937
813.845	2937
813.986	2834
814.127	2773
814.268	2845
814.41	2868
814.551	2880
814.692	2891
814.833	2838
814.974	2956
815.115	2994
815.256	2857
815.397	2823
815.539	2899
815.68	2826
815.821	2826
815.962	2994
816.103	2971
816.244	2922
816.385	2918
816.526	3009
816.666	2948
816.807	2758
816.948	2918
817.089	2948
817.23	2876
817.371	2857
817.512	2792
817.653	2849
817.793	2811
817.934	2963
818.075	2956
818.216	3032
818.356	3077
818.497	2941
818.638	2811
818.778	2842
818.919	2834
819.06	2773
819.2	2895
819.341	2830
819.481	2868
819.622	2948
819.762	3108
819.903	3051
820.043	2944
820.184	2944
820.324	2933
820.465	3032
820.605	3024
820.746	3066
820.886	2982
821.026	3104
821.167	3165
821.307	3275
821.447	3298
821.588	3264
821.728	3241
821.868	3203
822.008	3112
822.149	3222
822.289	3283
822.429	3135
822.569	3108
822.709	3230
822.849	3070
822.99	3100
823.13	3188
823.27	3268
823.41	3146
823.55	3173
823.69	3157
823.83	3230
823.97	3161
824.11	3024
824.25	3024
824.389	3100
824.529	3127
824.669	3058
824.809	3218
824.949	3256
825.089	3279
825.228	3180
825.368	3017
825.508	3009
825.648	3013
825.787	3058
825.927	3036
826.067	2975
826.206	3013
826.346	3081
826.485	3119
826.625	3112
826.765	3275
826.904	3226
827.044	3028
827.183	2998
827.323	2906
827.462	2994
827.601	2933
827.741	2956
827.88	2998
828.02	2895
828.159	3009
828.298	3055
828.437	3176
828.577	3081
828.716	3317
828.855	3089
828.994	2975
829.134	2925
829.273	3009
829.412	2895
829.551	2872
829.69	2937
829.829	3032
829.968	3176
830.107	3020
830.246	3013
830.385	2960
830.524	2918
830.663	2823
830.802	2750
830.941	2659
831.08	2663
831.219	2781
831.357	2754
831.496	2975
831.635	2716
831.774	2663
831.913	2689
832.051	2594
832.19	2617
832.329	2693
832.467	2564
832.606	2518
832.744	2602
832.883	2579
833.022	2583
833.16	2659
833.299	2693
833.437	2739
833.576	2731
833.714	2724
833.852	2743
833.991	2777
834.129	2891
834.267	2861
834.406	2853
834.544	2899
834.682	2918
834.821	2872
834.959	3123
835.097	2910
835.235	3070
835.373	3013
835.511	3055
835.65	2982
835.788	2971
835.926	2861
836.064	2800
836.202	2872
836.34	3119
836.478	3165
836.615	3058
836.753	3146
836.891	3253
837.029	3180
837.167	3146
837.305	3089
837.443	3100
837.58	3005
837.718	3154
837.856	3089
837.993	3119
838.131	3154
838.269	3142
838.406	3093
838.544	3146
838.681	2933
838.819	2956
838.956	2834
839.094	2861
839.231	2960
839.369	3039
839.506	3401
839.643	3256
839.781	3028
839.918	2960
840.055	3058
840.193	3066
840.33	3104
840.467	3123
840.604	3157
840.742	3439
840.879	3062
841.016	3074
841.153	3150
841.29	3405
841.427	3279
841.564	3283
841.701	3351
841.838	3222
841.975	3176
842.112	3214
842.249	3104
842.385	3062
842.522	3279
842.659	3119
842.796	3089
842.933	3138
843.069	3051
843.206	3051
843.343	3222
843.479	3104
843.616	3138
843.752	2948
843.889	2880
844.025	3093
844.162	2883
844.298	3119
844.435	2998
844.571	2967
844.708	3097
844.844	3184
844.98	3245
845.117	3188
845.253	3070
845.389	3077
845.525	3081
845.661	3161
845.798	3055
845.934	3127
846.07	3081
846.206	3230
846.342	3359
846.478	3222
846.614	3100
846.75	3093
846.886	3058
847.022	3268
847.158	3138
847.294	3203
847.429	3256
847.565	3192
847.701	3523
847.837	3062
847.972	3024
848.108	3222
848.244	3135
848.379	3013
848.515	2925
848.65	2979
848.786	2960
848.921	3028
849.057	3142
849.192	3150
849.328	3081
849.463	3131
849.598	3093
849.734	3043
849.869	3028
850.004	2933
850.14	2986
850.275	2929
850.41	2899
850.545	2895
850.68	2937
850.815	2941
850.95	2994
851.085	3184
851.22	3135
851.355	3043
851.49	2994
851.625	3032
851.76	3032
851.895	2960
852.03	2918
852.165	3055
852.299	3127
852.434	3203
852.569	3188
852.703	3222
852.838	3256
852.973	3332
853.107	3344
853.242	3199
853.376	3119
853.511	2963
853.645	3051
853.78	3272
853.914	3089
854.048	3135
854.183	3116
854.317	3165
854.451	3298
854.585	3173
854.72	3123
854.854	3218
854.988	3043
855.122	3123
855.256	2982
855.39	3165
855.524	3264
855.658	3169
855.792	3184
855.926	3192
856.06	3260
856.194	3275
856.327	3157
856.461	3047
856.595	3055
856.729	3112
856.862	3233
856.996	3154
857.13	3192
857.263	3218
857.397	3302
857.53	3135
857.664	3218
857.797	3264
857.931	3294
858.064	3203
858.197	3222
858.331	3150
858.464	3093
858.597	3001
858.731	3146
858.864	3161
858.997	3131
859.13	3199
859.263	3184
859.396	3195
859.529	3108
859.662	3127
859.795	3039
859.928	3173
860.061	3306
860.194	3302
860.327	3180
860.46	3127
860.592	3264
860.725	3272
860.858	3260
860.99	3146
861.123	3077
861.256	3058
861.388	3138
861.521	3800
861.653	3085
861.786	3001
861.918	3013
862.05	3135
862.183	3135
862.315	3142
862.447	3207
862.58	3116
862.712	2937
862.844	2910
862.976	3058
863.108	3013
863.24	3332
863.372	2899
863.504	3005
863.636	2971
863.768	3043
863.9	3028
864.032	2941
864.164	2948
864.296	3028
864.428	3116
864.559	3097
864.691	3085
864.823	3097
864.954	3032
865.086	3047
865.217	2998
865.349	2986
865.48	2986
865.612	3036
865.743	3165
865.875	2998
866.006	2975
866.137	3047
866.269	2990
866.4	2933
866.531	2971
866.662	2941
866.793	2918
866.924	2922
867.055	2998
867.186	2922
867.317	2880
867.448	2845
867.579	2876
867.71	2899
867.841	2845
867.972	2918
868.103	2902
868.233	2861
868.364	2883
868.495	2963
868.625	3127
868.756	3176
868.886	2982
869.017	3028
869.147	3173
869.278	3169
869.408	3055
869.539	3047
869.669	3127
869.799	3062
869.929	3180
870.06	3104
870.19	3294
870.32	3321
870.45	3329
870.58	3329
870.71	3481
870.84	3458
870.97	3336
871.1	3272
871.23	3458
871.36	3488
871.489	3424
871.619	3431
871.749	3428
871.879	3473
872.008	3504
872.138	3340
872.267	3294
872.397	3131
872.526	3127
872.656	3032
872.785	3085
872.915	3241
873.044	3317
873.173	3237
873.303	3287
873.432	3249
873.561	3249
873.69	3146
873.819	3138
873.948	3188
874.077	3150
874.206	3055
874.335	3077
874.464	3207
874.593	3363
874.722	3272
874.851	3401
874.979	3367
875.108	3351
875.237	3161
875.365	3188
875.494	3161
875.623	3260
875.751	3062
875.88	3161
876.008	3203
876.136	3268
876.265	3428
876.393	3504
876.521	3485
876.65	3409
876.778	3359
876.906	3317
877.034	3222
877.162	3245
877.29	3214
877.418	3287
877.546	3317
877.674	3241
877.802	3256
877.93	3211
878.058	3180
878.185	3146
878.313	3222
878.441	3195
878.568	3066
878.696	3157
878.824	3272
878.951	3313
879.079	3488
879.206	3614
879.333	3454
879.461	3359
879.588	3344
879.715	3534
879.842	3622
879.97	3412
880.097	3226
880.224	3116
880.351	3192
880.478	3218
880.605	3192
880.732	3195
880.859	3481
880.986	3329
881.112	3291
881.239	3199
881.366	3097
881.493	3039
881.619	3047
881.746	3100
881.872	3081
881.999	3176
882.125	3180
882.252	3233
882.378	3294
882.505	3454
882.631	3302
882.757	3195
882.883	3226
883.01	3222
883.136	3180
883.262	3135
883.388	3146
883.514	3302
883.64	3435
883.766	3302
883.892	3176
884.018	3222
884.143	3386
884.269	3545
884.395	3230
884.52	3154
884.646	3192
884.772	3146
884.897	3108
885.023	3214
885.148	3325
885.274	3443
885.399	3340
885.524	3272
885.65	3253
885.775	3340
885.9	3313
886.025	3454
886.15	3386
886.275	3313
886.4	3237
886.525	3329
886.65	3268
886.775	3294
886.9	3542
887.025	3625
887.149	3405
887.274	3306
887.399	3165
887.523	3195
887.648	3230
887.773	3214
887.897	3405
888.021	3409
888.146	3313
888.27	3466
888.395	3538
888.519	3431
888.643	3450
888.767	3393
888.891	3351
889.015	3241
889.139	3325
889.263	3233
889.387	3431
889.511	3507
889.635	3492
889.759	3317
889.883	3298
890.006	3397
890.13	3496
890.254	3302
890.377	3382
890.501	3207
890.624	3214
890.748	3310
890.871	3188
890.995	3127
891.118	3077
891.241	3226
891.364	3256
891.488	3329
891.611	3195
891.734	3245
891.857	3329
891.98	3260
892.103	3359
892.226	3302
892.349	3203
892.471	3157
892.594	3306
892.717	3302
892.839	3298
892.962	3291
893.085	3378
893.207	3310
893.33	3165
893.452	3211
893.575	3416
893.697	3306
893.819	3469
893.941	3492
894.064	3439
894.186	3294
894.308	3313
894.43	3458
894.552	3561
894.674	3500
894.796	3249
894.918	3325
895.04	3245
895.161	3454
895.283	3409
895.405	3298
895.526	3382
895.648	3443
895.769	3428
895.891	3469
896.012	3496
896.134	3477
896.255	3435
896.376	3355
896.498	3355
896.619	3397
896.74	3389
896.861	3424
896.982	3698
897.103	3861
897.224	3637
897.345	3511
897.466	3397
897.587	3553
897.708	3629
897.828	3587
897.949	3454
898.07	3336
898.19	3439
898.311	3599
898.431	3454
898.552	3496
898.672	3606
898.792	3618
898.913	3526
899.033	3435
899.153	3317
899.273	3203
899.393	3313
899.513	3336
899.633	3340
899.753	3382
899.873	3348
899.993	3393
900.113	3336
900.232	3397
900.352	3340
900.472	3279
900.591	3154
900.711	3317
900.83	3275
900.95	3405
901.069	3530
901.189	3355
901.308	3184
901.427	3135
901.546	3195
901.665	3294
901.784	3332
901.904	3207
902.023	3135
902.141	3020
902.26	2986
902.379	3138
902.498	3100
902.617	3085
902.735	3214
902.854	3256
902.973	3176
903.091	3055
903.21	3070
903.328	3161
903.446	3150
903.565	3131
903.683	3218
903.801	3188
903.919	3260
904.038	3291
904.156	3192
904.274	3317
904.392	3279
904.51	3321
904.627	3329
904.745	3435
904.863	3511
904.981	3291
905.098	3180
905.216	3245
905.334	3302
905.451	3325
905.569	3321
905.686	3435
905.803	3477
905.921	3310
906.038	3458
906.155	3378
906.272	3279
906.389	3336
906.506	3211
906.623	3264
906.74	3253
906.857	3214
906.974	3287
907.091	3412
907.208	3530
907.324	3485
907.441	3416
907.557	3207
907.674	3264
907.79	3233
907.907	3294
908.023	3405
908.139	3420
908.256	3363
908.372	3370
908.488	3374
908.604	3310
908.72	3211
908.836	3275
908.952	3329
909.068	3370
909.184	3519
909.3	3439
909.415	3469
909.531	3462
909.647	3302
909.762	3279
909.878	3268
909.993	3378
910.108	3378
910.224	3332
910.339	3435
910.454	3378
910.57	3291
910.685	3268
910.8	3618
910.915	3542
911.03	3424
911.145	3272
911.259	3283
911.374	3363
911.489	3241
911.604	3237
911.718	3146
911.833	3157
911.947	3020
912.062	2998
912.176	3226
912.291	3199
912.405	3237
912.519	3466
912.633	3447
912.748	3344
912.862	3317
912.976	3184
913.09	3100
913.204	3188
913.318	3218
913.431	3359
913.545	3340
913.659	3428
913.772	3348
913.886	3245
914	3176
914.113	3370
914.226	3416
914.34	3378
914.453	3249
914.566	3443
914.68	3321
914.793	3325
914.906	3173
915.019	3100
915.132	3089
915.245	3176
915.358	3192
915.47	3268
915.583	3291
915.696	3298
915.809	3412
915.921	3454
916.034	3268
916.146	3268
916.259	3218
916.371	3420
916.483	3401
916.595	3298
916.708	3386
916.82	3378
916.932	3378
917.044	3332
917.156	3340
917.268	3241
917.38	3291
917.491	3313
917.603	3363
917.715	3462
917.826	3492
917.938	3409
918.049	3272
918.161	3450
918.272	3606
918.384	3587
918.495	3496
918.606	3370
918.717	3302
918.828	3416
918.939	3428
919.05	3279
919.161	3382
919.272	3176
919.383	3302
919.494	3526
919.604	3663
919.715	3526
919.826	3443
919.936	3488
920.047	3584
920.157	3587
920.267	3766
920.378	3595
920.488	3564
920.598	3774
920.708	3987
920.818	3804
920.928	3831
921.038	4059
921.148	4048
921.258	3747
921.368	3667
921.477	3580
921.587	3549
921.697	3492
921.806	3644
921.916	3519
922.025	3386
922.134	3382
922.244	3306
922.353	3409
922.462	3249
922.571	3249
922.68	3104
922.789	3104
922.898	3161
923.007	3108
923.116	3233
923.224	3192
923.333	3180
923.442	3135
923.55	3108
923.659	3176
923.767	3237
923.876	3146
923.984	3283
924.092	3127
924.201	3188
924.309	3222
924.417	3279
924.525	3237
924.633	3226
924.741	4169
924.849	3077
924.956	3287
925.064	3112
925.172	3036
925.279	3097
925.387	3222
925.494	3207
925.602	3393
925.709	3332
925.816	3230
925.924	3340
926.031	3416
926.138	3397
926.245	3397
926.352	3237
926.459	3389
926.566	3504
926.673	3359
926.779	3283
926.886	3211
926.993	3154
927.099	3146
927.206	3150
927.312	3108
927.419	3241
927.525	3237
927.631	3272
927.737	3138
927.843	3169
927.95	3039
928.056	3199
928.162	3188
928.267	3264
928.373	3869
928.479	3313
928.585	3085
928.69	3230
928.796	3272
928.901	3184
929.007	3039
929.112	3226
929.218	3195
929.323	3173
929.428	3199
929.533	3374
929.638	3108
929.743	3176
929.848	3279
929.953	3222
930.058	3131
930.163	3032
930.267	3108
930.372	3245
930.477	3051
930.581	3283
930.685	3214
930.79	3074
930.894	3161
930.998	3119
931.103	3279
931.207	2998
931.311	2929
931.415	2941
931.519	2800
931.623	2796
