Data from test_V78500241_1101.txt Node
Date: Fri Mar 25 16:22:49 CST 2022
User: usil
Spectrometer: V785-0024
Trigger mode: 0
Integration Time (sec): 4.000000E-1
Scans to average: 1
Nonlinearity correction enabled: false
Boxcar width: 0
Storing dark spectrum: false
XAxis mode: Wavelengths
Number of Pixels in Spectrum: 1024
>>>>>Begin Spectral Data<<<<<
801.071	2929
801.214	2956
801.356	2952
801.499	2918
801.641	2891
801.783	2956
801.926	3055
802.068	2998
802.211	3020
802.353	3085
802.496	3017
802.638	3036
802.78	3077
802.923	3093
803.065	3013
803.208	2929
803.35	2895
803.492	2998
803.635	2906
803.777	2762
803.919	2891
804.061	3195
804.204	2971
804.346	2925
804.488	2872
804.63	3017
804.773	2864
804.915	2902
805.057	3074
805.199	2925
805.341	2975
805.483	3058
805.626	2990
805.768	2967
805.91	3074
806.052	3127
806.194	3051
806.336	3264
806.478	3062
806.62	2994
806.762	2933
806.904	3081
807.046	3180
807.188	3005
807.33	2914
807.472	3001
807.614	2906
807.756	2979
807.898	2960
808.04	2906
808.182	2986
808.324	2975
808.465	2883
808.607	2910
808.749	2853
808.891	2834
809.033	3032
809.174	2952
809.316	2929
809.458	2910
809.6	2792
809.741	2743
809.883	2777
810.025	2887
810.166	2883
810.308	2868
810.45	2834
810.591	2792
810.733	2750
810.875	2864
811.016	2785
811.158	2773
811.299	2800
811.441	2929
811.582	2876
811.724	2796
811.865	2857
812.007	2918
812.148	2883
812.29	2880
812.431	2887
812.573	2944
812.714	2990
812.855	3020
812.997	3081
813.138	3097
813.279	3017
813.421	3013
813.562	2963
813.703	2895
813.845	2887
813.986	2792
814.127	2792
814.268	2838
814.41	2876
814.551	2823
814.692	2857
814.833	2815
814.974	2899
815.115	2971
815.256	2830
815.397	2807
815.539	2883
815.68	2777
815.821	2807
815.962	2941
816.103	2910
816.244	2880
816.385	2887
816.526	2956
816.666	2925
816.807	2735
816.948	2883
817.089	2910
817.23	2845
817.371	2792
817.512	2823
817.653	2864
817.793	2838
817.934	2845
818.075	2979
818.216	3013
818.356	3032
818.497	2864
818.638	2769
818.778	2823
818.919	2796
819.06	2769
819.2	2880
819.341	2834
819.481	2807
819.622	2941
819.762	3104
819.903	3093
820.043	2963
820.184	2895
820.324	2902
820.465	3058
820.605	3024
820.746	3062
820.886	2918
821.026	3104
821.167	3180
821.307	3291
821.447	3275
821.588	3222
821.728	3226
821.868	3157
822.008	3100
822.149	3195
822.289	3249
822.429	3074
822.569	3131
822.709	3176
822.849	3028
822.99	3085
823.13	3131
823.27	3211
823.41	3127
823.55	3173
823.69	3104
823.83	3176
823.97	3108
824.11	3009
824.25	2971
824.389	3051
824.529	3146
824.669	3085
824.809	3230
824.949	3207
825.089	3214
825.228	3161
825.368	3028
825.508	2933
825.648	2948
825.787	2975
825.927	3005
826.067	2960
826.206	2979
826.346	3043
826.485	3070
826.625	3119
826.765	3268
826.904	3211
827.044	2982
827.183	2948
827.323	2864
827.462	2971
827.601	2944
827.741	2925
827.88	2975
828.02	2880
828.159	2998
828.298	3051
828.437	3112
828.577	2982
828.716	3256
828.855	3100
828.994	2895
829.134	2918
829.273	2948
829.412	2910
829.551	2876
829.69	2887
829.829	2971
829.968	3157
830.107	3036
830.246	3036
830.385	2925
830.524	2876
830.663	2796
830.802	2758
830.941	2655
831.08	2667
831.219	2735
831.357	2750
831.496	2948
831.635	2727
831.774	2644
831.913	2655
832.051	2537
832.19	2606
832.329	2705
832.467	2552
832.606	2476
832.744	2575
832.883	2625
833.022	2587
833.16	2655
833.299	2667
833.437	2716
833.576	2701
833.714	2712
833.852	2739
833.991	2766
834.129	2864
834.267	2864
834.406	2815
834.544	2891
834.682	2861
834.821	2906
834.959	3066
835.097	2922
835.235	3077
835.373	2990
835.511	3024
835.65	2929
835.788	2990
835.926	2819
836.064	2834
836.202	2849
836.34	3104
836.478	3192
836.615	3039
836.753	3127
836.891	3211
837.029	3150
837.167	3131
837.305	3047
837.443	3081
837.58	2963
837.718	3154
837.856	3097
837.993	3028
838.131	3116
838.269	3089
838.406	3116
838.544	3074
838.681	2929
838.819	2937
838.956	2807
839.094	2811
839.231	2937
839.369	3020
839.506	3393
839.643	3214
839.781	2986
839.918	3017
840.055	3039
840.193	3017
840.33	3058
840.467	3131
840.604	3131
840.742	3435
840.879	3055
841.016	3005
841.153	3108
841.29	3363
841.427	3329
841.564	3287
841.701	3325
841.838	3233
841.975	3165
842.112	3207
842.249	3074
842.385	3062
842.522	3268
842.659	3070
842.796	3047
842.933	3123
843.069	3070
843.206	3024
843.343	3203
843.479	3093
843.616	3154
843.752	2918
843.889	2887
844.025	3112
844.162	2872
844.298	3058
844.435	2979
844.571	2933
844.708	3081
844.844	3199
844.98	3218
845.117	3237
845.253	3062
845.389	3009
845.525	3093
845.661	3055
845.798	3036
845.934	3135
846.07	3039
846.206	3199
846.342	3275
846.478	3230
846.614	3112
846.75	3058
846.886	3028
847.022	3233
847.158	3100
847.294	3195
847.429	3245
847.565	3226
847.701	3469
847.837	3058
847.972	3001
848.108	3146
848.244	3119
848.379	2994
848.515	2925
848.65	2925
848.786	2982
848.921	3024
849.057	3116
849.192	3150
849.328	3089
849.463	3104
849.598	3055
849.734	3024
849.869	2986
850.004	2914
850.14	2929
850.275	2910
850.41	2811
850.545	2872
850.68	2941
850.815	2906
850.95	2941
851.085	3188
851.22	3081
851.355	3043
851.49	2967
851.625	3001
851.76	3001
851.895	2948
852.03	2948
852.165	3043
852.299	3116
852.434	3195
852.569	3104
852.703	3161
852.838	3233
852.973	3336
853.107	3310
853.242	3150
853.376	3062
853.511	2979
853.645	3051
853.78	3180
853.914	3085
854.048	3146
854.183	3070
854.317	3157
854.451	3283
854.585	3108
854.72	3085
854.854	3199
854.988	3055
855.122	3074
855.256	2982
855.39	3097
855.524	3226
855.658	3165
855.792	3119
855.926	3184
856.06	3157
856.194	3199
856.327	3154
856.461	3097
856.595	3066
856.729	3062
856.862	3169
856.996	3150
857.13	3165
857.263	3241
857.397	3256
857.53	3085
857.664	3176
857.797	3222
857.931	3264
858.064	3169
858.197	3180
858.331	3116
858.464	3093
858.597	2975
858.731	3112
858.864	3100
858.997	3081
859.13	3146
859.263	3146
859.396	3184
859.529	3108
859.662	3089
859.795	3017
859.928	3146
860.061	3279
860.194	3272
860.327	3116
860.46	3077
860.592	3241
860.725	3245
860.858	3237
860.99	3131
861.123	3066
861.256	3070
861.388	3154
861.521	3690
861.653	3024
861.786	3028
861.918	2982
862.05	3085
862.183	3116
862.315	3154
862.447	3173
862.58	3074
862.712	2956
862.844	2853
862.976	2994
863.108	3013
863.24	3389
863.372	2876
863.504	2952
863.636	2922
863.768	3051
863.9	2971
864.032	2910
864.164	2929
864.296	2998
864.428	3089
864.559	3081
864.691	3062
864.823	3066
864.954	3017
865.086	3020
865.217	2986
865.349	2941
865.48	3005
865.612	3013
865.743	3142
865.875	2948
866.006	2914
866.137	2967
866.269	2937
866.4	2933
866.531	2902
866.662	2868
866.793	2864
866.924	2872
867.055	2956
867.186	2910
867.317	2861
867.448	2849
867.579	2853
867.71	2834
867.841	2842
867.972	2887
868.103	2895
868.233	2868
868.364	2857
868.495	2868
868.625	3100
868.756	3154
868.886	2979
869.017	3032
869.147	3195
869.278	3157
869.408	3017
869.539	3005
869.669	3097
869.799	3036
869.929	3093
870.06	3085
870.19	3310
870.32	3340
870.45	3298
870.58	3348
870.71	3469
870.84	3424
870.97	3279
871.1	3241
871.23	3488
871.36	3450
871.489	3332
871.619	3367
871.749	3351
871.879	3428
872.008	3473
872.138	3386
872.267	3256
872.397	3146
872.526	3100
872.656	2975
872.785	3077
872.915	3211
873.044	3302
873.173	3237
873.303	3253
873.432	3253
873.561	3192
873.69	3138
873.819	3161
873.948	3157
874.077	3085
874.206	3055
874.335	3127
874.464	3195
874.593	3340
874.722	3222
874.851	3397
874.979	3317
875.108	3306
875.237	3146
875.365	3188
875.494	3195
875.623	3256
875.751	3074
875.88	3119
876.008	3199
876.136	3214
876.265	3348
876.393	3511
876.521	3412
876.65	3420
876.778	3340
876.906	3260
877.034	3203
877.162	3233
877.29	3180
877.418	3249
877.546	3233
877.674	3233
877.802	3226
877.93	3203
878.058	3138
878.185	3104
878.313	3180
878.441	3222
878.568	3062
878.696	3173
878.824	3245
878.951	3275
879.079	3447
879.206	3587
879.333	3412
879.461	3325
879.588	3359
879.715	3473
879.842	3614
879.97	3374
880.097	3127
880.224	3097
880.351	3188
880.478	3211
880.605	3214
880.732	3199
880.859	3492
880.986	3310
881.112	3344
881.239	3195
881.366	3081
881.493	3032
881.619	3047
881.746	3089
881.872	3097
881.999	3097
882.125	3165
882.252	3207
882.378	3249
882.505	3454
882.631	3256
882.757	3138
882.883	3241
883.01	3184
883.136	3161
883.262	3123
883.388	3100
883.514	3321
883.64	3359
883.766	3287
883.892	3203
884.018	3230
884.143	3424
884.269	3511
884.395	3203
884.52	3165
884.646	3195
884.772	3131
884.897	3058
885.023	3230
885.148	3321
885.274	3412
885.399	3351
885.524	3245
885.65	3222
885.775	3313
885.9	3287
886.025	3416
886.15	3351
886.275	3287
886.4	3233
886.525	3272
886.65	3256
886.775	3294
886.9	3477
887.025	3606
887.149	3409
887.274	3253
887.399	3218
887.523	3214
887.648	3188
887.773	3180
887.897	3378
888.021	3401
888.146	3268
888.27	3450
888.395	3564
888.519	3412
888.643	3462
888.767	3447
888.891	3325
889.015	3264
889.139	3294
889.263	3237
889.387	3378
889.511	3515
889.635	3412
889.759	3298
889.883	3298
890.006	3363
890.13	3477
890.254	3275
890.377	3317
890.501	3184
890.624	3157
890.748	3294
890.871	3184
890.995	3097
891.118	3070
891.241	3173
891.364	3207
891.488	3317
891.611	3169
891.734	3211
891.857	3241
891.98	3272
892.103	3340
892.226	3260
892.349	3192
892.471	3074
892.594	3249
892.717	3272
892.839	3287
892.962	3302
893.085	3340
893.207	3317
893.33	3165
893.452	3214
893.575	3310
893.697	3283
893.819	3458
893.941	3469
894.064	3504
894.186	3302
894.308	3249
894.43	3477
894.552	3500
894.674	3424
894.796	3245
894.918	3298
895.04	3253
895.161	3435
895.283	3344
895.405	3321
895.526	3351
895.648	3397
895.769	3409
895.891	3500
896.012	3447
896.134	3477
896.255	3363
896.376	3393
896.498	3336
896.619	3412
896.74	3393
896.861	3416
896.982	3682
897.103	3873
897.224	3610
897.345	3473
897.466	3428
897.587	3511
897.708	3545
897.828	3515
897.949	3412
898.07	3336
898.19	3359
898.311	3576
898.431	3431
898.552	3515
898.672	3603
898.792	3618
898.913	3504
899.033	3405
899.153	3294
899.273	3226
899.393	3272
899.513	3348
899.633	3332
899.753	3325
899.873	3291
899.993	3389
900.113	3355
900.232	3382
900.352	3332
900.472	3279
900.591	3203
900.711	3279
900.83	3237
900.95	3386
901.069	3485
901.189	3370
901.308	3131
901.427	3154
901.546	3199
901.665	3272
901.784	3329
901.904	3154
902.023	3157
902.141	3032
902.26	2982
902.379	3135
902.498	3055
902.617	3028
902.735	3176
902.854	3241
902.973	3165
903.091	3062
903.21	3058
903.328	3131
903.446	3127
903.565	3142
903.683	3188
903.801	3116
903.919	3226
904.038	3291
904.156	3195
904.274	3306
904.392	3256
904.51	3306
904.627	3340
904.745	3450
904.863	3504
904.981	3245
905.098	3161
905.216	3233
905.334	3245
905.451	3287
905.569	3264
905.686	3416
905.803	3454
905.921	3264
906.038	3389
906.155	3306
906.272	3313
906.389	3336
906.506	3230
906.623	3272
906.74	3245
906.857	3188
906.974	3245
907.091	3473
907.208	3545
907.324	3443
907.441	3378
907.557	3237
907.674	3260
907.79	3233
907.907	3241
908.023	3351
908.139	3386
908.256	3306
908.372	3359
908.488	3329
908.604	3241
908.72	3203
908.836	3283
908.952	3283
909.068	3340
909.184	3477
909.3	3386
909.415	3450
909.531	3454
909.647	3249
909.762	3279
909.878	3211
909.993	3336
910.108	3363
910.224	3382
910.339	3409
910.454	3351
910.57	3298
910.685	3195
910.8	3595
910.915	3523
911.03	3458
911.145	3222
911.259	3260
911.374	3348
911.489	3260
911.604	3192
911.718	3108
911.833	3176
911.947	3032
912.062	2982
912.176	3138
912.291	3195
912.405	3214
912.519	3416
912.633	3454
912.748	3344
912.862	3256
912.976	3138
913.09	3017
913.204	3119
913.318	3233
913.431	3302
913.545	3313
913.659	3389
913.772	3351
913.886	3249
914	3230
914.113	3370
914.226	3401
914.34	3386
914.453	3218
914.566	3431
914.68	3302
914.793	3317
914.906	3146
915.019	3112
915.132	3062
915.245	3184
915.358	3199
915.47	3195
915.583	3302
915.696	3302
915.809	3393
915.921	3416
916.034	3230
916.146	3279
916.259	3230
916.371	3370
916.483	3382
916.595	3245
916.708	3336
916.82	3344
916.932	3332
917.044	3367
917.156	3310
917.268	3230
917.38	3294
917.491	3253
917.603	3363
917.715	3458
917.826	3439
917.938	3397
918.049	3313
918.161	3416
918.272	3511
918.384	3599
918.495	3473
918.606	3397
918.717	3241
918.828	3363
918.939	3412
919.05	3291
919.161	3382
919.272	3180
919.383	3272
919.494	3485
919.604	3682
919.715	3511
919.826	3370
919.936	3420
920.047	3606
920.157	3580
920.267	3743
920.378	3599
920.488	3580
920.598	3812
920.708	3918
920.818	3827
920.928	3812
921.038	3983
921.148	3979
921.258	3705
921.368	3648
921.477	3542
921.587	3572
921.697	3458
921.806	3648
921.916	3511
922.025	3382
922.134	3389
922.244	3310
922.353	3416
922.462	3302
922.571	3222
922.68	3089
922.789	3081
922.898	3135
923.007	3108
923.116	3199
923.224	3211
923.333	3192
923.442	3116
923.55	3081
923.659	3127
923.767	3203
923.876	3089
923.984	3245
924.092	3104
924.201	3226
924.309	3165
924.417	3226
924.525	3176
924.633	3211
924.741	3979
924.849	3074
924.956	3245
925.064	3089
925.172	3017
925.279	3104
925.387	3192
925.494	3195
925.602	3351
925.709	3317
925.816	3180
925.924	3253
926.031	3382
926.138	3325
926.245	3325
926.352	3226
926.459	3359
926.566	3466
926.673	3294
926.779	3268
926.886	3268
926.993	3108
927.099	3123
927.206	3097
927.312	3142
927.419	3195
927.525	3245
927.631	3272
927.737	3192
927.843	3097
927.95	3032
928.056	3138
928.162	3131
928.267	3245
928.373	3865
928.479	3256
928.585	3070
928.69	3245
928.796	3260
928.901	3157
929.007	3020
929.112	3180
929.218	3154
929.323	3142
929.428	3138
929.533	3336
929.638	3116
929.743	3161
929.848	3199
929.953	3199
930.058	3173
930.163	3017
930.267	3043
930.372	3199
930.477	3009
930.581	3340
930.685	3131
930.79	3077
930.894	3157
930.998	3085
931.103	3321
931.207	2933
931.311	2925
931.415	2910
931.519	2781
931.623	2815
