Data from test_V78500241_292.txt Node
Date: Fri Mar 25 16:17:13 CST 2022
User: usil
Spectrometer: V785-0024
Trigger mode: 0
Integration Time (sec): 4.000000E-1
Scans to average: 1
Nonlinearity correction enabled: false
Boxcar width: 0
Storing dark spectrum: false
XAxis mode: Wavelengths
Number of Pixels in Spectrum: 1024
>>>>>Begin Spectral Data<<<<<
801.071	2937
801.214	2963
801.356	2914
801.499	2899
801.641	2895
801.783	2948
801.926	3032
802.068	3005
802.211	3070
802.353	3066
802.496	3005
802.638	3036
802.78	3108
802.923	3119
803.065	3024
803.208	2948
803.35	2952
803.492	2933
803.635	2937
803.777	2823
803.919	2861
804.061	3233
804.204	2960
804.346	2910
804.488	2876
804.63	2967
804.773	2906
804.915	2956
805.057	3097
805.199	2963
805.341	2956
805.483	3020
805.626	2982
805.768	2960
805.91	3074
806.052	3036
806.194	3081
806.336	3249
806.478	3005
806.62	2982
806.762	2990
806.904	3032
807.046	3176
807.188	2975
807.33	2956
807.472	3020
807.614	2902
807.756	3005
807.898	2960
808.04	2895
808.182	2994
808.324	2963
808.465	2895
808.607	2872
808.749	2781
808.891	2853
809.033	2994
809.174	2979
809.316	2914
809.458	2906
809.6	2800
809.741	2769
809.883	2769
810.025	2842
810.166	2872
810.308	2842
810.45	2849
810.591	2785
810.733	2766
810.875	2849
811.016	2815
811.158	2754
811.299	2804
811.441	2941
811.582	2925
811.724	2857
811.865	2807
812.007	2925
812.148	2883
812.29	2876
812.431	2868
812.573	2948
812.714	2982
812.855	3055
812.997	3081
813.138	3161
813.279	3005
813.421	2971
813.562	2944
813.703	2918
813.845	2891
813.986	2754
814.127	2766
814.268	2845
814.41	2849
814.551	2838
814.692	2842
814.833	2842
814.974	2933
815.115	2975
815.256	2864
815.397	2807
815.539	2910
815.68	2762
815.821	2811
815.962	2963
816.103	2933
816.244	2864
816.385	2922
816.526	2990
816.666	2906
816.807	2754
816.948	2902
817.089	2906
817.23	2804
817.371	2773
817.512	2811
817.653	2815
817.793	2861
817.934	2853
818.075	2975
818.216	3013
818.356	3028
818.497	2899
818.638	2785
818.778	2834
818.919	2804
819.06	2746
819.2	2880
819.341	2819
819.481	2800
819.622	2922
819.762	3089
819.903	3024
820.043	2948
820.184	2906
820.324	2899
820.465	3009
820.605	3024
820.746	3066
820.886	2937
821.026	3112
821.167	3218
821.307	3310
821.447	3317
821.588	3256
821.728	3249
821.868	3199
822.008	3100
822.149	3188
822.289	3237
822.429	3093
822.569	3077
822.709	3192
822.849	3062
822.99	3074
823.13	3173
823.27	3218
823.41	3074
823.55	3150
823.69	3173
823.83	3211
823.97	3089
824.11	3013
824.25	2960
824.389	3066
824.529	3104
824.669	3062
824.809	3207
824.949	3218
825.089	3233
825.228	3173
825.368	3032
825.508	2967
825.648	3009
825.787	3047
825.927	2979
826.067	2960
826.206	2986
826.346	3077
826.485	3081
826.625	3100
826.765	3268
826.904	3214
827.044	3013
827.183	2933
827.323	2861
827.462	2971
827.601	2929
827.741	2929
827.88	2937
828.02	2891
828.159	2960
828.298	3089
828.437	3146
828.577	3039
828.716	3237
828.855	3119
828.994	2902
829.134	2914
829.273	2918
829.412	2857
829.551	2853
829.69	2929
829.829	2982
829.968	3108
830.107	3036
830.246	3024
830.385	2914
830.524	2880
830.663	2834
830.802	2766
830.941	2659
831.08	2644
831.219	2777
831.357	2766
831.496	2994
831.635	2754
831.774	2678
831.913	2659
832.051	2560
832.19	2610
832.329	2689
832.467	2503
832.606	2488
832.744	2587
832.883	2533
833.022	2613
833.16	2655
833.299	2682
833.437	2655
833.576	2712
833.714	2720
833.852	2785
833.991	2762
834.129	2830
834.267	2811
834.406	2804
834.544	2853
834.682	2883
834.821	2864
834.959	3051
835.097	2933
835.235	3066
835.373	3001
835.511	2982
835.65	2963
835.788	2986
835.926	2834
836.064	2811
836.202	2868
836.34	3077
836.478	3154
836.615	3055
836.753	3116
836.891	3222
837.029	3188
837.167	3104
837.305	3119
837.443	3074
837.58	3028
837.718	3123
837.856	3066
837.993	3047
838.131	3116
838.269	3138
838.406	3135
838.544	3074
838.681	2941
838.819	2956
838.956	2838
839.094	2834
839.231	2933
839.369	3051
839.506	3389
839.643	3245
839.781	3001
839.918	2975
840.055	3066
840.193	3070
840.33	3085
840.467	3077
840.604	3176
840.742	3431
840.879	3062
841.016	3051
841.153	3104
841.29	3332
841.427	3325
841.564	3283
841.701	3313
841.838	3226
841.975	3195
842.112	3218
842.249	3077
842.385	3020
842.522	3249
842.659	3100
842.796	3074
842.933	3089
843.069	3047
843.206	3039
843.343	3188
843.479	3138
843.616	3188
843.752	2883
843.889	2864
844.025	3077
844.162	2883
844.298	3097
844.435	2982
844.571	2910
844.708	3070
844.844	3218
844.98	3253
845.117	3211
845.253	3062
845.389	3024
845.525	3119
845.661	3123
845.798	2990
845.934	3119
846.07	3043
846.206	3207
846.342	3291
846.478	3233
846.614	3081
846.75	3081
846.886	3036
847.022	3272
847.158	3127
847.294	3199
847.429	3256
847.565	3195
847.701	3462
847.837	3032
847.972	2994
848.108	3169
848.244	3135
848.379	2975
848.515	2937
848.65	2937
848.786	2971
848.921	3028
849.057	3093
849.192	3150
849.328	3077
849.463	3089
849.598	3047
849.734	3036
849.869	2963
850.004	2922
850.14	2956
850.275	2906
850.41	2834
850.545	2883
850.68	2918
850.815	2960
850.95	2990
851.085	3218
851.22	3131
851.355	3066
851.49	3001
851.625	2979
851.76	3020
851.895	2967
852.03	2906
852.165	3055
852.299	3119
852.434	3184
852.569	3119
852.703	3138
852.838	3233
852.973	3348
853.107	3340
853.242	3165
853.376	3089
853.511	2990
853.645	3070
853.78	3264
853.914	3135
854.048	3104
854.183	3116
854.317	3150
854.451	3272
854.585	3119
854.72	3104
854.854	3233
854.988	3051
855.122	3100
855.256	3009
855.39	3131
855.524	3214
855.658	3154
855.792	3142
855.926	3226
856.06	3211
856.194	3302
856.327	3154
856.461	3089
856.595	3074
856.729	3074
856.862	3199
856.996	3188
857.13	3211
857.263	3199
857.397	3302
857.53	3165
857.664	3203
857.797	3260
857.931	3264
858.064	3127
858.197	3199
858.331	3112
858.464	3119
858.597	2998
858.731	3154
858.864	3150
858.997	3081
859.13	3157
859.263	3169
859.396	3195
859.529	3104
859.662	3074
859.795	3013
859.928	3161
860.061	3241
860.194	3302
860.327	3161
860.46	3097
860.592	3233
860.725	3203
860.858	3275
860.99	3104
861.123	3066
861.256	3028
861.388	3146
861.521	3846
861.653	3039
861.786	3017
861.918	3013
862.05	3043
862.183	3119
862.315	3157
862.447	3195
862.58	3104
862.712	2960
862.844	2861
862.976	3024
863.108	2975
863.24	3294
863.372	2902
863.504	2948
863.636	2952
863.768	3051
863.9	2960
864.032	2914
864.164	2952
864.296	3024
864.428	3085
864.559	3093
864.691	3062
864.823	3058
864.954	3028
865.086	3032
865.217	2998
865.349	2963
865.48	2979
865.612	3047
865.743	3154
865.875	2971
866.006	2883
866.137	2975
866.269	2967
866.4	2933
866.531	2960
866.662	2891
866.793	2853
866.924	2876
867.055	2960
867.186	2925
867.317	2899
867.448	2861
867.579	2861
867.71	2819
867.841	2857
867.972	2868
868.103	2887
868.233	2887
868.364	2880
868.495	2918
868.625	3085
868.756	3180
868.886	2971
869.017	3020
869.147	3150
869.278	3161
869.408	3074
869.539	3020
869.669	3074
869.799	3047
869.929	3116
870.06	3062
870.19	3317
870.32	3313
870.45	3317
870.58	3378
870.71	3439
870.84	3469
870.97	3264
871.1	3230
871.23	3492
871.36	3469
871.489	3336
871.619	3412
871.749	3374
871.879	3447
872.008	3492
872.138	3370
872.267	3294
872.397	3150
872.526	3161
872.656	2994
872.785	3043
872.915	3230
873.044	3340
873.173	3203
873.303	3268
873.432	3272
873.561	3203
873.69	3154
873.819	3135
873.948	3173
874.077	3104
874.206	3066
874.335	3055
874.464	3207
874.593	3359
874.722	3245
874.851	3397
874.979	3355
875.108	3294
875.237	3161
875.365	3173
875.494	3184
875.623	3245
875.751	3081
875.88	3142
876.008	3211
876.136	3245
876.265	3370
876.393	3481
876.521	3439
876.65	3424
876.778	3317
876.906	3237
877.034	3230
877.162	3218
877.29	3150
877.418	3291
877.546	3260
877.674	3264
877.802	3253
877.93	3233
878.058	3173
878.185	3093
878.313	3226
878.441	3207
878.568	3066
878.696	3131
878.824	3245
878.951	3310
879.079	3469
879.206	3622
879.333	3447
879.461	3351
879.588	3329
879.715	3458
879.842	3545
879.97	3355
880.097	3192
880.224	3165
880.351	3188
880.478	3249
880.605	3237
880.732	3214
880.859	3515
880.986	3302
881.112	3294
881.239	3176
881.366	3112
881.493	3020
881.619	3051
881.746	3077
881.872	3058
881.999	3108
882.125	3127
882.252	3207
882.378	3329
882.505	3412
882.631	3272
882.757	3135
882.883	3199
883.01	3218
883.136	3176
883.262	3100
883.388	3165
883.514	3332
883.64	3367
883.766	3275
883.892	3192
884.018	3230
884.143	3420
884.269	3488
884.395	3199
884.52	3180
884.646	3150
884.772	3135
884.897	3093
885.023	3146
885.148	3367
885.274	3397
885.399	3370
885.524	3321
885.65	3302
885.775	3302
885.9	3275
886.025	3420
886.15	3359
886.275	3321
886.4	3237
886.525	3332
886.65	3260
886.775	3260
886.9	3511
887.025	3637
887.149	3435
887.274	3241
887.399	3157
887.523	3199
887.648	3226
887.773	3165
887.897	3367
888.021	3420
888.146	3306
888.27	3443
888.395	3530
888.519	3431
888.643	3462
888.767	3481
888.891	3336
889.015	3237
889.139	3283
889.263	3241
889.387	3431
889.511	3481
889.635	3450
889.759	3260
889.883	3291
890.006	3370
890.13	3507
890.254	3283
890.377	3321
890.501	3222
890.624	3173
890.748	3302
890.871	3173
890.995	3131
891.118	3028
891.241	3192
891.364	3214
891.488	3310
891.611	3214
891.734	3233
891.857	3294
891.98	3253
892.103	3336
892.226	3264
892.349	3192
892.471	3112
892.594	3218
892.717	3283
892.839	3294
892.962	3294
893.085	3370
893.207	3336
893.33	3135
893.452	3207
893.575	3336
893.697	3230
893.819	3469
893.941	3515
894.064	3424
894.186	3283
894.308	3237
894.43	3431
894.552	3515
894.674	3477
894.796	3272
894.918	3313
895.04	3310
895.161	3397
895.283	3363
895.405	3306
895.526	3344
895.648	3397
895.769	3447
895.891	3466
896.012	3454
896.134	3481
896.255	3397
896.376	3348
896.498	3370
896.619	3405
896.74	3378
896.861	3374
896.982	3701
897.103	3846
897.224	3599
897.345	3488
897.466	3431
897.587	3454
897.708	3663
897.828	3557
897.949	3439
898.07	3317
898.19	3420
898.311	3610
898.431	3439
898.552	3504
898.672	3564
898.792	3610
898.913	3564
899.033	3428
899.153	3264
899.273	3237
899.393	3275
899.513	3302
899.633	3321
899.753	3313
899.873	3317
899.993	3389
900.113	3344
900.232	3412
900.352	3325
900.472	3313
900.591	3230
900.711	3298
900.83	3211
900.95	3389
901.069	3447
901.189	3405
901.308	3150
901.427	3119
901.546	3184
901.665	3291
901.784	3359
901.904	3222
902.023	3127
902.141	3005
902.26	3001
902.379	3142
902.498	3066
902.617	3051
902.735	3199
902.854	3264
902.973	3222
903.091	3043
903.21	3013
903.328	3135
903.446	3127
903.565	3108
903.683	3184
903.801	3127
903.919	3260
904.038	3294
904.156	3123
904.274	3317
904.392	3268
904.51	3291
904.627	3344
904.745	3443
904.863	3515
904.981	3264
905.098	3169
905.216	3230
905.334	3336
905.451	3298
905.569	3298
905.686	3431
905.803	3477
905.921	3294
906.038	3409
906.155	3329
906.272	3268
906.389	3317
906.506	3218
906.623	3264
906.74	3291
906.857	3195
906.974	3249
907.091	3428
907.208	3576
907.324	3462
907.441	3374
907.557	3249
907.674	3245
907.79	3214
907.907	3256
908.023	3389
908.139	3359
908.256	3310
908.372	3359
908.488	3355
908.604	3249
908.72	3214
908.836	3310
908.952	3310
909.068	3348
909.184	3481
909.3	3424
909.415	3496
909.531	3462
909.647	3291
909.762	3294
909.878	3283
909.993	3340
910.108	3336
910.224	3325
910.339	3386
910.454	3351
910.57	3294
910.685	3230
910.8	3633
910.915	3553
911.03	3405
911.145	3291
911.259	3287
911.374	3321
911.489	3237
911.604	3233
911.718	3100
911.833	3150
911.947	3036
912.062	2971
912.176	3165
912.291	3176
912.405	3195
912.519	3424
912.633	3469
912.748	3306
912.862	3230
912.976	3150
913.09	3066
913.204	3119
913.318	3222
913.431	3329
913.545	3344
913.659	3405
913.772	3344
913.886	3192
914	3233
914.113	3340
914.226	3420
914.34	3351
914.453	3192
914.566	3397
914.68	3268
914.793	3302
914.906	3176
915.019	3089
915.132	3074
915.245	3184
915.358	3214
915.47	3211
915.583	3260
915.696	3306
915.809	3412
915.921	3405
916.034	3253
916.146	3294
916.259	3211
916.371	3382
916.483	3348
916.595	3283
916.708	3348
916.82	3317
916.932	3332
917.044	3363
917.156	3313
917.268	3245
917.38	3313
917.491	3264
917.603	3367
917.715	3488
917.826	3469
917.938	3389
918.049	3272
918.161	3450
918.272	3572
918.384	3576
918.495	3469
918.606	3325
918.717	3264
918.828	3393
918.939	3416
919.05	3359
919.161	3367
919.272	3192
919.383	3325
919.494	3458
919.604	3701
919.715	3469
919.826	3397
919.936	3450
920.047	3591
920.157	3557
920.267	3789
920.378	3599
920.488	3587
920.598	3808
920.708	3998
920.818	3823
920.928	3842
921.038	4017
921.148	4063
921.258	3690
921.368	3633
921.477	3576
921.587	3534
921.697	3454
921.806	3633
921.916	3538
922.025	3351
922.134	3374
922.244	3313
922.353	3416
922.462	3279
922.571	3253
922.68	3116
922.789	3058
922.898	3184
923.007	3100
923.116	3226
923.224	3150
923.333	3173
923.442	3100
923.55	3085
923.659	3173
923.767	3237
923.876	3142
923.984	3260
924.092	3093
924.201	3192
924.309	3192
924.417	3256
924.525	3195
924.633	3241
924.741	4211
924.849	3070
924.956	3256
925.064	3089
925.172	3074
925.279	3085
925.387	3192
925.494	3264
925.602	3348
925.709	3321
925.816	3188
925.924	3302
926.031	3424
926.138	3310
926.245	3355
926.352	3264
926.459	3443
926.566	3466
926.673	3291
926.779	3256
926.886	3245
926.993	3116
927.099	3138
927.206	3135
927.312	3135
927.419	3233
927.525	3188
927.631	3268
927.737	3131
927.843	3138
927.95	3032
928.056	3123
928.162	3188
928.267	3256
928.373	3865
928.479	3283
928.585	3089
928.69	3230
928.796	3302
928.901	3184
929.007	3062
929.112	3222
929.218	3173
929.323	3138
929.428	3157
929.533	3325
929.638	3074
929.743	3195
929.848	3233
929.953	3230
930.058	3157
930.163	3005
930.267	3055
930.372	3199
930.477	3047
930.581	3294
930.685	3195
930.79	3051
930.894	3157
930.998	3093
931.103	3294
931.207	2963
931.311	2937
931.415	2929
931.519	2781
931.623	2800
