Data from test_V78500241_379.txt Node
Date: Fri Mar 25 16:17:49 CST 2022
User: usil
Spectrometer: V785-0024
Trigger mode: 0
Integration Time (sec): 4.000000E-1
Scans to average: 1
Nonlinearity correction enabled: false
Boxcar width: 0
Storing dark spectrum: false
XAxis mode: Wavelengths
Number of Pixels in Spectrum: 1024
>>>>>Begin Spectral Data<<<<<
801.071	2910
801.214	2998
801.356	2876
801.499	2925
801.641	2861
801.783	2933
801.926	3058
802.068	2975
802.211	3020
802.353	3024
802.496	2967
802.638	3009
802.78	3024
802.923	3047
803.065	3020
803.208	2880
803.35	2925
803.492	2899
803.635	2937
803.777	2773
803.919	2868
804.061	3207
804.204	2967
804.346	2906
804.488	2834
804.63	3005
804.773	2857
804.915	2922
805.057	3070
805.199	2933
805.341	2979
805.483	3032
805.626	2990
805.768	2956
805.91	3085
806.052	3165
806.194	3077
806.336	3237
806.478	3028
806.62	2963
806.762	2971
806.904	3062
807.046	3135
807.188	2979
807.33	2883
807.472	2982
807.614	2922
807.756	3009
807.898	2937
808.04	2891
808.182	2994
808.324	2918
808.465	2883
808.607	2864
808.749	2807
808.891	2861
809.033	2963
809.174	2941
809.316	2887
809.458	2857
809.6	2754
809.741	2766
809.883	2754
810.025	2857
810.166	2887
810.308	2819
810.45	2868
810.591	2788
810.733	2781
810.875	2826
811.016	2796
811.158	2762
811.299	2815
811.441	2899
811.582	2933
811.724	2811
811.865	2826
812.007	2876
812.148	2906
812.29	2864
812.431	2944
812.573	2918
812.714	2963
812.855	3058
812.997	3062
813.138	3097
813.279	3005
813.421	2986
813.562	2944
813.703	2872
813.845	2861
813.986	2773
814.127	2708
814.268	2796
814.41	2845
814.551	2830
814.692	2902
814.833	2811
814.974	2864
815.115	2956
815.256	2842
815.397	2815
815.539	2872
815.68	2785
815.821	2766
815.962	2899
816.103	2918
816.244	2876
816.385	2868
816.526	2971
816.666	2891
816.807	2754
816.948	2883
817.089	2910
817.23	2876
817.371	2788
817.512	2800
817.653	2834
817.793	2823
817.934	2887
818.075	2971
818.216	2982
818.356	2982
818.497	2887
818.638	2804
818.778	2834
818.919	2834
819.06	2758
819.2	2891
819.341	2823
819.481	2788
819.622	2910
819.762	3093
819.903	3013
820.043	2937
820.184	2883
820.324	2929
820.465	3028
820.605	3051
820.746	3062
820.886	2944
821.026	3104
821.167	3203
821.307	3237
821.447	3260
821.588	3237
821.728	3241
821.868	3222
822.008	3058
822.149	3192
822.289	3268
822.429	3123
822.569	3081
822.709	3241
822.849	3043
822.99	3089
823.13	3207
823.27	3222
823.41	3097
823.55	3188
823.69	3184
823.83	3226
823.97	3142
824.11	3047
824.25	3024
824.389	3089
824.529	3131
824.669	3097
824.809	3253
824.949	3291
825.089	3256
825.228	3226
825.368	3020
825.508	2990
825.648	3017
825.787	3062
825.927	3028
826.067	3005
826.206	2990
826.346	3089
826.485	3077
826.625	3146
826.765	3291
826.904	3230
827.044	3047
827.183	2979
827.323	2895
827.462	3032
827.601	2979
827.741	2986
827.88	2982
828.02	2891
828.159	3036
828.298	3093
828.437	3157
828.577	3074
828.716	3283
828.855	3100
828.994	2963
829.134	2941
829.273	2952
829.412	2902
829.551	2895
829.69	2941
829.829	3024
829.968	3169
830.107	3066
830.246	3108
830.385	2975
830.524	2906
830.663	2853
830.802	2754
830.941	2701
831.08	2663
831.219	2838
831.357	2769
831.496	2975
831.635	2750
831.774	2682
831.913	2727
832.051	2579
832.19	2602
832.329	2716
832.467	2549
832.606	2514
832.744	2613
832.883	2617
833.022	2636
833.16	2701
833.299	2712
833.437	2716
833.576	2746
833.714	2796
833.852	2762
833.991	2754
834.129	2857
834.267	2876
834.406	2857
834.544	2895
834.682	2929
834.821	2902
834.959	3119
835.097	2941
835.235	3081
835.373	3017
835.511	2986
835.65	2986
835.788	2948
835.926	2902
836.064	2872
836.202	2872
836.34	3104
836.478	3195
836.615	3127
836.753	3173
836.891	3222
837.029	3169
837.167	3154
837.305	3093
837.443	3051
837.58	2994
837.718	3169
837.856	3127
837.993	3051
838.131	3138
838.269	3150
838.406	3127
838.544	3123
838.681	2948
838.819	2937
838.956	2853
839.094	2857
839.231	2971
839.369	3039
839.506	3416
839.643	3260
839.781	3028
839.918	3047
840.055	3097
840.193	3055
840.33	3097
840.467	3135
840.604	3180
840.742	3447
840.879	3081
841.016	3093
841.153	3154
841.29	3382
841.427	3329
841.564	3275
841.701	3321
841.838	3230
841.975	3214
842.112	3237
842.249	3138
842.385	3062
842.522	3287
842.659	3112
842.796	3097
842.933	3142
843.069	3051
843.206	3093
843.343	3233
843.479	3108
843.616	3192
843.752	2902
843.889	2925
844.025	3146
844.162	2891
844.298	3123
844.435	2986
844.571	2971
844.708	3123
844.844	3203
844.98	3272
845.117	3199
845.253	3100
845.389	3051
845.525	3150
845.661	3104
845.798	3047
845.934	3135
846.07	3081
846.206	3211
846.342	3321
846.478	3237
846.614	3161
846.75	3081
846.886	3051
847.022	3237
847.158	3135
847.294	3230
847.429	3279
847.565	3237
847.701	3488
847.837	3047
847.972	3017
848.108	3211
848.244	3161
848.379	2982
848.515	3001
848.65	2963
848.786	3009
848.921	3036
849.057	3146
849.192	3188
849.328	3043
849.463	3135
849.598	3119
849.734	3093
849.869	2998
850.004	2933
850.14	3017
850.275	2922
850.41	2864
850.545	2906
850.68	2967
850.815	2941
850.95	2990
851.085	3245
851.22	3123
851.355	3066
851.49	3039
851.625	2994
851.76	3039
851.895	2948
852.03	2918
852.165	3097
852.299	3131
852.434	3207
852.569	3157
852.703	3176
852.838	3298
852.973	3374
853.107	3321
853.242	3165
853.376	3100
853.511	2998
853.645	3043
853.78	3264
853.914	3142
854.048	3108
854.183	3112
854.317	3165
854.451	3310
854.585	3165
854.72	3085
854.854	3226
854.988	3116
855.122	3119
855.256	3005
855.39	3112
855.524	3279
855.658	3195
855.792	3142
855.926	3222
856.06	3249
856.194	3302
856.327	3184
856.461	3070
856.595	3100
856.729	3123
856.862	3241
856.996	3180
857.13	3233
857.263	3222
857.397	3264
857.53	3146
857.664	3207
857.797	3233
857.931	3275
858.064	3176
858.197	3241
858.331	3192
858.464	3146
858.597	3062
858.731	3165
858.864	3116
858.997	3123
859.13	3203
859.263	3249
859.396	3237
859.529	3131
859.662	3097
859.795	3070
859.928	3138
860.061	3317
860.194	3340
860.327	3173
860.46	3108
860.592	3249
860.725	3268
860.858	3233
860.99	3119
861.123	3089
861.256	3051
861.388	3192
861.521	3861
861.653	3032
861.786	2963
861.918	3043
862.05	3051
862.183	3108
862.315	3142
862.447	3211
862.58	3119
862.712	2963
862.844	2933
862.976	3036
863.108	2979
863.24	3485
863.372	2937
863.504	2971
863.636	3009
863.768	3043
863.9	3013
864.032	2952
864.164	3013
864.296	3074
864.428	3066
864.559	3142
864.691	3066
864.823	3097
864.954	3077
865.086	3058
865.217	3009
865.349	2944
865.48	2979
865.612	3032
865.743	3195
865.875	3036
866.006	2952
866.137	2967
866.269	2975
866.4	2967
866.531	2910
866.662	2914
866.793	2922
866.924	2937
867.055	2986
867.186	2910
867.317	2887
867.448	2819
867.579	2857
867.71	2887
867.841	2804
867.972	2933
868.103	2948
868.233	2895
868.364	2895
868.495	2902
868.625	3089
868.756	3165
868.886	2990
869.017	3039
869.147	3150
869.278	3195
869.408	3047
869.539	3047
869.669	3138
869.799	3028
869.929	3154
870.06	3123
870.19	3287
870.32	3325
870.45	3325
870.58	3386
870.71	3431
870.84	3477
870.97	3283
871.1	3264
871.23	3549
871.36	3477
871.489	3344
871.619	3431
871.749	3447
871.879	3462
872.008	3496
872.138	3386
872.267	3287
872.397	3138
872.526	3116
872.656	3028
872.785	3108
872.915	3249
873.044	3340
873.173	3218
873.303	3272
873.432	3241
873.561	3245
873.69	3184
873.819	3173
873.948	3218
874.077	3150
874.206	3085
874.335	3119
874.464	3230
874.593	3386
874.722	3245
874.851	3397
874.979	3321
875.108	3340
875.237	3199
875.365	3226
875.494	3135
875.623	3237
875.751	3081
875.88	3146
876.008	3195
876.136	3226
876.265	3367
876.393	3515
876.521	3439
876.65	3401
876.778	3382
876.906	3233
877.034	3214
877.162	3245
877.29	3203
877.418	3302
877.546	3256
877.674	3260
877.802	3279
877.93	3207
878.058	3173
878.185	3097
878.313	3218
878.441	3214
878.568	3108
878.696	3154
878.824	3237
878.951	3325
879.079	3466
879.206	3629
879.333	3462
879.461	3363
879.588	3409
879.715	3504
879.842	3614
879.97	3382
880.097	3214
880.224	3127
880.351	3241
880.478	3253
880.605	3195
880.732	3218
880.859	3473
880.986	3321
881.112	3336
881.239	3188
881.366	3127
881.493	3043
881.619	3005
881.746	3077
881.872	3112
881.999	3127
882.125	3195
882.252	3260
882.378	3310
882.505	3458
882.631	3279
882.757	3150
882.883	3249
883.01	3184
883.136	3165
883.262	3089
883.388	3112
883.514	3325
883.64	3374
883.766	3329
883.892	3207
884.018	3256
884.143	3454
884.269	3595
884.395	3218
884.52	3192
884.646	3226
884.772	3127
884.897	3169
885.023	3173
885.148	3344
885.274	3401
885.399	3382
885.524	3275
885.65	3310
885.775	3298
885.9	3310
886.025	3450
886.15	3382
886.275	3317
886.4	3245
886.525	3363
886.65	3245
886.775	3321
886.9	3492
887.025	3667
887.149	3393
887.274	3256
887.399	3226
887.523	3188
887.648	3199
887.773	3184
887.897	3382
888.021	3424
888.146	3287
888.27	3462
888.395	3530
888.519	3458
888.643	3412
888.767	3462
888.891	3298
889.015	3226
889.139	3336
889.263	3272
889.387	3424
889.511	3492
889.635	3439
889.759	3264
889.883	3302
890.006	3401
890.13	3473
890.254	3298
890.377	3310
890.501	3226
890.624	3218
890.748	3283
890.871	3211
890.995	3119
891.118	3085
891.241	3180
891.364	3245
891.488	3359
891.611	3188
891.734	3214
891.857	3310
891.98	3218
892.103	3336
892.226	3294
892.349	3207
892.471	3138
892.594	3260
892.717	3298
892.839	3291
892.962	3291
893.085	3367
893.207	3340
893.33	3154
893.452	3230
893.575	3348
893.697	3222
893.819	3454
893.941	3523
894.064	3469
894.186	3256
894.308	3249
894.43	3458
894.552	3515
894.674	3488
894.796	3298
894.918	3317
895.04	3310
895.161	3416
895.283	3412
895.405	3313
895.526	3351
895.648	3412
895.769	3466
895.891	3447
896.012	3496
896.134	3492
896.255	3416
896.376	3393
896.498	3363
896.619	3443
896.74	3386
896.861	3397
896.982	3747
897.103	3789
897.224	3599
897.345	3519
897.466	3401
897.587	3507
897.708	3618
897.828	3538
897.949	3439
898.07	3340
898.19	3374
898.311	3622
898.431	3469
898.552	3526
898.672	3591
898.792	3580
898.913	3545
899.033	3401
899.153	3275
899.273	3245
899.393	3287
899.513	3359
899.633	3325
899.753	3378
899.873	3351
899.993	3409
900.113	3367
900.232	3386
900.352	3374
900.472	3272
900.591	3222
900.711	3287
900.83	3226
900.95	3409
901.069	3492
901.189	3325
901.308	3154
901.427	3112
901.546	3241
901.665	3317
901.784	3355
901.904	3214
902.023	3169
902.141	2982
902.26	2990
902.379	3135
902.498	3104
902.617	3001
902.735	3188
902.854	3268
902.973	3249
903.091	3032
903.21	3104
903.328	3131
903.446	3131
903.565	3135
903.683	3233
903.801	3116
903.919	3264
904.038	3268
904.156	3127
904.274	3275
904.392	3268
904.51	3321
904.627	3355
904.745	3447
904.863	3500
904.981	3264
905.098	3169
905.216	3253
905.334	3306
905.451	3332
905.569	3317
905.686	3466
905.803	3428
905.921	3317
906.038	3424
906.155	3359
906.272	3260
906.389	3329
906.506	3214
906.623	3249
906.74	3340
906.857	3192
906.974	3268
907.091	3424
907.208	3599
907.324	3488
907.441	3412
907.557	3237
907.674	3211
907.79	3230
907.907	3306
908.023	3382
908.139	3351
908.256	3340
908.372	3393
908.488	3370
908.604	3218
908.72	3253
908.836	3249
908.952	3272
909.068	3386
909.184	3488
909.3	3412
909.415	3511
909.531	3481
909.647	3272
909.762	3302
909.878	3268
909.993	3344
910.108	3344
910.224	3321
910.339	3393
910.454	3344
910.57	3260
910.685	3241
910.8	3580
910.915	3496
911.03	3409
911.145	3283
911.259	3256
911.374	3287
911.489	3249
911.604	3214
911.718	3135
911.833	3138
911.947	3005
912.062	2960
912.176	3188
912.291	3249
912.405	3192
912.519	3424
912.633	3488
912.748	3321
912.862	3268
912.976	3203
913.09	3055
913.204	3116
913.318	3222
913.431	3310
913.545	3355
913.659	3424
913.772	3336
913.886	3253
914	3188
914.113	3370
914.226	3393
914.34	3359
914.453	3214
914.566	3382
914.68	3302
914.793	3279
914.906	3180
915.019	3112
915.132	3077
915.245	3184
915.358	3218
915.47	3287
915.583	3291
915.696	3294
915.809	3332
915.921	3416
916.034	3260
916.146	3237
916.259	3230
916.371	3378
916.483	3355
916.595	3279
916.708	3359
916.82	3325
916.932	3283
917.044	3344
917.156	3340
917.268	3241
917.38	3298
917.491	3310
917.603	3306
917.715	3439
917.826	3424
917.938	3370
918.049	3241
918.161	3424
918.272	3580
918.384	3538
918.495	3538
918.606	3336
918.717	3348
918.828	3386
918.939	3378
919.05	3332
919.161	3416
919.272	3176
919.383	3279
919.494	3443
919.604	3644
919.715	3492
919.826	3439
919.936	3420
920.047	3580
920.157	3515
920.267	3747
920.378	3610
920.488	3549
920.598	3808
920.708	3918
920.818	3819
920.928	3812
921.038	4029
921.148	4002
921.258	3713
921.368	3599
921.477	3618
921.587	3507
921.697	3504
921.806	3618
921.916	3519
922.025	3332
922.134	3359
922.244	3332
922.353	3401
922.462	3313
922.571	3184
922.68	3119
922.789	3089
922.898	3108
923.007	3081
923.116	3207
923.224	3161
923.333	3207
923.442	3097
923.55	3112
923.659	3123
923.767	3237
923.876	3104
923.984	3218
924.092	3108
924.201	3192
924.309	3230
924.417	3241
924.525	3192
924.633	3218
924.741	4177
924.849	3062
924.956	3245
925.064	3077
925.172	3028
925.279	3077
925.387	3207
925.494	3214
925.602	3313
925.709	3344
925.816	3195
925.924	3260
926.031	3409
926.138	3348
926.245	3378
926.352	3256
926.459	3405
926.566	3469
926.673	3332
926.779	3199
926.886	3264
926.993	3165
927.099	3131
927.206	3108
927.312	3123
927.419	3207
927.525	3176
927.631	3260
927.737	3169
927.843	3119
927.95	3036
928.056	3123
928.162	3161
928.267	3233
928.373	3857
928.479	3302
928.585	3051
928.69	3184
928.796	3272
928.901	3131
929.007	3066
929.112	3222
929.218	3195
929.323	3150
929.428	3119
929.533	3332
929.638	3142
929.743	3127
929.848	3245
929.953	3199
930.058	3116
930.163	3032
930.267	3028
930.372	3188
930.477	3013
930.581	3306
930.685	3176
930.79	3055
930.894	3085
930.998	3081
931.103	3237
931.207	2963
931.311	2887
931.415	2937
931.519	2811
931.623	2804
