Data from test_V78500241_371.txt Node
Date: Fri Mar 25 16:17:46 CST 2022
User: usil
Spectrometer: V785-0024
Trigger mode: 0
Integration Time (sec): 4.000000E-1
Scans to average: 1
Nonlinearity correction enabled: false
Boxcar width: 0
Storing dark spectrum: false
XAxis mode: Wavelengths
Number of Pixels in Spectrum: 1024
>>>>>Begin Spectral Data<<<<<
801.071	2914
801.214	2902
801.356	2872
801.499	2861
801.641	2872
801.783	2918
801.926	3070
802.068	2944
802.211	2990
802.353	2998
802.496	2929
802.638	3013
802.78	3055
802.923	3074
803.065	2998
803.208	2910
803.35	2918
803.492	2925
803.635	2902
803.777	2777
803.919	2823
804.061	3154
804.204	2914
804.346	2853
804.488	2861
804.63	2979
804.773	2883
804.915	2925
805.057	3062
805.199	2933
805.341	2944
805.483	3017
805.626	3013
805.768	2986
805.91	3047
806.052	3066
806.194	3013
806.336	3176
806.478	2979
806.62	2952
806.762	2952
806.904	3070
807.046	3173
807.188	2990
807.33	2933
807.472	2979
807.614	2891
807.756	3009
807.898	2922
808.04	2891
808.182	2994
808.324	2937
808.465	2872
808.607	2906
808.749	2792
808.891	2826
809.033	2952
809.174	2956
809.316	2902
809.458	2883
809.6	2762
809.741	2773
809.883	2750
810.025	2857
810.166	2880
810.308	2895
810.45	2849
810.591	2785
810.733	2769
810.875	2826
811.016	2769
811.158	2766
811.299	2815
811.441	2918
811.582	2929
811.724	2788
811.865	2853
812.007	2891
812.148	2880
812.29	2823
812.431	2868
812.573	2933
812.714	2971
812.855	2975
812.997	3055
813.138	3161
813.279	3009
813.421	2979
813.562	2948
813.703	2876
813.845	2857
813.986	2746
814.127	2708
814.268	2834
814.41	2864
814.551	2807
814.692	2918
814.833	2823
814.974	2895
815.115	2971
815.256	2842
815.397	2811
815.539	2845
815.68	2735
815.821	2792
815.962	2887
816.103	2929
816.244	2887
816.385	2853
816.526	2933
816.666	2937
816.807	2762
816.948	2891
817.089	2883
817.23	2864
817.371	2758
817.512	2781
817.653	2868
817.793	2823
817.934	2887
818.075	2952
818.216	3009
818.356	2990
818.497	2864
818.638	2766
818.778	2796
818.919	2807
819.06	2746
819.2	2838
819.341	2792
819.481	2769
819.622	2933
819.762	3089
819.903	3005
820.043	2922
820.184	2868
820.324	2853
820.465	2979
820.605	2998
820.746	3017
820.886	2918
821.026	3093
821.167	3165
821.307	3211
821.447	3287
821.588	3264
821.728	3195
821.868	3169
822.008	3093
822.149	3146
822.289	3218
822.429	3104
822.569	3081
822.709	3184
822.849	3066
822.99	3039
823.13	3150
823.27	3226
823.41	3081
823.55	3135
823.69	3150
823.83	3214
823.97	3081
824.11	2975
824.25	2982
824.389	3028
824.529	3093
824.669	3055
824.809	3176
824.949	3260
825.089	3245
825.228	3127
825.368	2979
825.508	2960
825.648	2990
825.787	2982
825.927	3036
826.067	2986
826.206	2944
826.346	3032
826.485	3093
826.625	3154
826.765	3294
826.904	3188
827.044	3039
827.183	2960
827.323	2902
827.462	2998
827.601	2982
827.741	2952
827.88	2956
828.02	2861
828.159	2998
828.298	3036
828.437	3135
828.577	3055
828.716	3264
828.855	3036
828.994	2952
829.134	2902
829.273	2933
829.412	2887
829.551	2902
829.69	2941
829.829	3017
829.968	3176
830.107	3058
830.246	3070
830.385	2998
830.524	2952
830.663	2857
830.802	2796
830.941	2693
831.08	2686
831.219	2823
831.357	2785
831.496	2956
831.635	2762
831.774	2716
831.913	2701
832.051	2583
832.19	2610
832.329	2720
832.467	2575
832.606	2492
832.744	2625
832.883	2625
833.022	2606
833.16	2712
833.299	2754
833.437	2739
833.576	2739
833.714	2766
833.852	2750
833.991	2800
834.129	2872
834.267	2872
834.406	2853
834.544	2925
834.682	2929
834.821	2914
834.959	3066
835.097	2910
835.235	3074
835.373	3051
835.511	3043
835.65	3017
835.788	2979
835.926	2883
836.064	2842
836.202	2864
836.34	3142
836.478	3207
836.615	3055
836.753	3199
836.891	3203
837.029	3203
837.167	3142
837.305	3119
837.443	3085
837.58	3001
837.718	3176
837.856	3119
837.993	3074
838.131	3135
838.269	3146
838.406	3146
838.544	3161
838.681	3001
838.819	2952
838.956	2838
839.094	2880
839.231	2941
839.369	3062
839.506	3435
839.643	3268
839.781	3070
839.918	3024
840.055	3085
840.193	3062
840.33	3104
840.467	3127
840.604	3165
840.742	3443
840.879	3051
841.016	3077
841.153	3146
841.29	3401
841.427	3367
841.564	3325
841.701	3355
841.838	3245
841.975	3226
842.112	3260
842.249	3116
842.385	3058
842.522	3336
842.659	3108
842.796	3116
842.933	3112
843.069	3062
843.206	3081
843.343	3207
843.479	3154
843.616	3188
843.752	2948
843.889	2864
844.025	3146
844.162	2918
844.298	3089
844.435	3001
844.571	2967
844.708	3146
844.844	3218
844.98	3268
845.117	3211
845.253	3058
845.389	3001
845.525	3157
845.661	3093
845.798	3077
845.934	3135
846.07	3119
846.206	3230
846.342	3321
846.478	3275
846.614	3146
846.75	3089
846.886	3062
847.022	3283
847.158	3173
847.294	3237
847.429	3279
847.565	3230
847.701	3526
847.837	3055
847.972	3032
848.108	3161
848.244	3184
848.379	3024
848.515	3009
848.65	2986
848.786	2994
848.921	3062
849.057	3146
849.192	3165
849.328	3097
849.463	3142
849.598	3074
849.734	3070
849.869	3001
850.004	2937
850.14	3020
850.275	2922
850.41	2872
850.545	2891
850.68	2956
850.815	2952
850.95	3001
851.085	3203
851.22	3127
851.355	3047
851.49	3009
851.625	3066
851.76	3066
851.895	2986
852.03	2922
852.165	3043
852.299	3169
852.434	3211
852.569	3176
852.703	3203
852.838	3264
852.973	3367
853.107	3355
853.242	3142
853.376	3138
853.511	2967
853.645	3089
853.78	3256
853.914	3119
854.048	3150
854.183	3138
854.317	3150
854.451	3359
854.585	3131
854.72	3062
854.854	3233
854.988	3112
855.122	3127
855.256	3047
855.39	3123
855.524	3241
855.658	3222
855.792	3188
855.926	3214
856.06	3233
856.194	3298
856.327	3173
856.461	3089
856.595	3100
856.729	3104
856.862	3226
856.996	3203
857.13	3222
857.263	3233
857.397	3344
857.53	3135
857.664	3173
857.797	3264
857.931	3287
858.064	3154
858.197	3268
858.331	3192
858.464	3165
858.597	3024
858.731	3165
858.864	3142
858.997	3127
859.13	3146
859.263	3211
859.396	3253
859.529	3116
859.662	3108
859.795	3047
859.928	3173
860.061	3294
860.194	3340
860.327	3135
860.46	3127
860.592	3256
860.725	3275
860.858	3256
860.99	3108
861.123	3104
861.256	3085
861.388	3169
861.521	3880
861.653	3043
861.786	2979
861.918	3024
862.05	3089
862.183	3138
862.315	3176
862.447	3233
862.58	3127
862.712	2986
862.844	2891
862.976	3028
863.108	3028
863.24	3458
863.372	2929
863.504	2982
863.636	2975
863.768	3085
863.9	3028
864.032	2925
864.164	2956
864.296	3055
864.428	3131
864.559	3135
864.691	3108
864.823	3104
864.954	3013
865.086	3055
865.217	3005
865.349	2975
865.48	3055
865.612	3020
865.743	3180
865.875	3005
866.006	2982
866.137	2971
866.269	2975
866.4	2944
866.531	2979
866.662	2944
866.793	2929
866.924	2929
867.055	2998
867.186	2937
867.317	2910
867.448	2826
867.579	2864
867.71	2842
867.841	2804
867.972	2918
868.103	2929
868.233	2922
868.364	2906
868.495	2944
868.625	3070
868.756	3184
868.886	2979
869.017	3070
869.147	3176
869.278	3199
869.408	3070
869.539	3036
869.669	3150
869.799	3074
869.929	3154
870.06	3131
870.19	3329
870.32	3264
870.45	3344
870.58	3393
870.71	3439
870.84	3477
870.97	3317
871.1	3294
871.23	3473
871.36	3492
871.489	3359
871.619	3389
871.749	3439
871.879	3473
872.008	3511
872.138	3374
872.267	3310
872.397	3161
872.526	3127
872.656	3047
872.785	3157
872.915	3245
873.044	3351
873.173	3268
873.303	3268
873.432	3264
873.561	3245
873.69	3169
873.819	3161
873.948	3226
874.077	3146
874.206	3062
874.335	3116
874.464	3245
874.593	3382
874.722	3256
874.851	3401
874.979	3351
875.108	3332
875.237	3207
875.365	3180
875.494	3192
875.623	3245
875.751	3104
875.88	3123
876.008	3211
876.136	3275
876.265	3378
876.393	3553
876.521	3454
876.65	3412
876.778	3348
876.906	3291
877.034	3233
877.162	3264
877.29	3245
877.418	3272
877.546	3264
877.674	3302
877.802	3256
877.93	3233
878.058	3188
878.185	3138
878.313	3226
878.441	3253
878.568	3077
878.696	3161
878.824	3279
878.951	3336
879.079	3458
879.206	3610
879.333	3454
879.461	3370
879.588	3359
879.715	3511
879.842	3599
879.97	3428
880.097	3154
880.224	3146
880.351	3203
880.478	3233
880.605	3150
880.732	3203
880.859	3496
880.986	3344
881.112	3329
881.239	3207
881.366	3112
881.493	3066
881.619	3055
881.746	3089
881.872	3123
881.999	3085
882.125	3161
882.252	3249
882.378	3344
882.505	3443
882.631	3348
882.757	3165
882.883	3241
883.01	3192
883.136	3161
883.262	3116
883.388	3085
883.514	3359
883.64	3405
883.766	3344
883.892	3188
884.018	3260
884.143	3462
884.269	3603
884.395	3184
884.52	3199
884.646	3184
884.772	3146
884.897	3135
885.023	3199
885.148	3363
885.274	3458
885.399	3378
885.524	3275
885.65	3279
885.775	3351
885.9	3313
886.025	3428
886.15	3389
886.275	3332
886.4	3279
886.525	3321
886.65	3268
886.775	3329
886.9	3500
887.025	3622
887.149	3431
887.274	3245
887.399	3195
887.523	3180
887.648	3211
887.773	3188
887.897	3416
888.021	3401
888.146	3321
888.27	3469
888.395	3538
888.519	3462
888.643	3458
888.767	3504
888.891	3298
889.015	3253
889.139	3302
889.263	3275
889.387	3397
889.511	3504
889.635	3454
889.759	3317
889.883	3325
890.006	3431
890.13	3542
890.254	3264
890.377	3321
890.501	3203
890.624	3188
890.748	3321
890.871	3195
890.995	3131
891.118	3108
891.241	3192
891.364	3249
891.488	3310
891.611	3173
891.734	3180
891.857	3287
891.98	3260
892.103	3336
892.226	3291
892.349	3226
892.471	3112
892.594	3233
892.717	3302
892.839	3294
892.962	3275
893.085	3431
893.207	3317
893.33	3135
893.452	3226
893.575	3321
893.697	3245
893.819	3428
893.941	3519
894.064	3477
894.186	3253
894.308	3294
894.43	3443
894.552	3519
894.674	3466
894.796	3302
894.918	3321
895.04	3321
895.161	3466
895.283	3374
895.405	3310
895.526	3367
895.648	3447
895.769	3401
895.891	3492
896.012	3481
896.134	3496
896.255	3447
896.376	3401
896.498	3363
896.619	3450
896.74	3374
896.861	3397
896.982	3694
897.103	3850
897.224	3606
897.345	3561
897.466	3458
897.587	3542
897.708	3663
897.828	3542
897.949	3481
898.07	3306
898.19	3420
898.311	3545
898.431	3462
898.552	3519
898.672	3603
898.792	3618
898.913	3515
899.033	3374
899.153	3317
899.273	3218
899.393	3302
899.513	3317
899.633	3310
899.753	3329
899.873	3340
899.993	3386
900.113	3340
900.232	3389
900.352	3363
900.472	3294
900.591	3230
900.711	3329
900.83	3253
900.95	3412
901.069	3504
901.189	3359
901.308	3180
901.427	3123
901.546	3161
901.665	3329
901.784	3344
901.904	3233
902.023	3154
902.141	2990
902.26	2998
902.379	3142
902.498	3097
902.617	3074
902.735	3199
902.854	3237
902.973	3222
903.091	3055
903.21	3077
903.328	3157
903.446	3119
903.565	3142
903.683	3230
903.801	3138
903.919	3268
904.038	3283
904.156	3154
904.274	3306
904.392	3275
904.51	3310
904.627	3344
904.745	3439
904.863	3553
904.981	3279
905.098	3214
905.216	3222
905.334	3294
905.451	3313
905.569	3317
905.686	3439
905.803	3443
905.921	3336
906.038	3443
906.155	3332
906.272	3283
906.389	3359
906.506	3249
906.623	3264
906.74	3256
906.857	3169
906.974	3306
907.091	3462
907.208	3580
907.324	3485
907.441	3367
907.557	3256
907.674	3245
907.79	3199
907.907	3245
908.023	3401
908.139	3386
908.256	3325
908.372	3374
908.488	3382
908.604	3283
908.72	3226
908.836	3310
908.952	3294
909.068	3382
909.184	3488
909.3	3405
909.415	3473
909.531	3515
909.647	3279
909.762	3264
909.878	3272
909.993	3370
910.108	3351
910.224	3344
910.339	3431
910.454	3374
910.57	3298
910.685	3233
910.8	3656
910.915	3530
911.03	3428
911.145	3310
911.259	3298
911.374	3363
911.489	3264
911.604	3222
911.718	3142
911.833	3169
911.947	3066
912.062	3013
912.176	3207
912.291	3169
912.405	3241
912.519	3443
912.633	3450
912.748	3359
912.862	3275
912.976	3165
913.09	3085
913.204	3138
913.318	3260
913.431	3313
913.545	3355
913.659	3401
913.772	3310
913.886	3222
914	3195
914.113	3401
914.226	3420
914.34	3393
914.453	3230
914.566	3439
914.68	3302
914.793	3321
914.906	3119
915.019	3157
915.132	3070
915.245	3138
915.358	3218
915.47	3237
915.583	3298
915.696	3348
915.809	3412
915.921	3412
916.034	3249
916.146	3256
916.259	3226
916.371	3389
916.483	3344
916.595	3275
916.708	3363
916.82	3332
916.932	3313
917.044	3340
917.156	3329
917.268	3253
917.38	3336
917.491	3306
917.603	3374
917.715	3462
917.826	3492
917.938	3401
918.049	3291
918.161	3447
918.272	3591
918.384	3591
918.495	3477
918.606	3355
918.717	3287
918.828	3374
918.939	3428
919.05	3294
919.161	3363
919.272	3188
919.383	3283
919.494	3500
919.604	3724
919.715	3500
919.826	3405
919.936	3428
920.047	3595
920.157	3545
920.267	3770
920.378	3561
920.488	3572
920.598	3781
920.708	3960
920.818	3789
920.928	3816
921.038	4029
921.148	4051
921.258	3720
921.368	3648
921.477	3584
921.587	3561
921.697	3473
921.806	3641
921.916	3523
922.025	3386
922.134	3386
922.244	3298
922.353	3435
922.462	3233
922.571	3192
922.68	3154
922.789	3138
922.898	3150
923.007	3100
923.116	3195
923.224	3180
923.333	3188
923.442	3123
923.55	3093
923.659	3150
923.767	3230
923.876	3154
923.984	3249
924.092	3081
924.201	3218
924.309	3237
924.417	3222
924.525	3131
924.633	3260
924.741	4154
924.849	3074
924.956	3264
925.064	3100
925.172	3089
925.279	3093
925.387	3192
925.494	3214
925.602	3363
925.709	3332
925.816	3192
925.924	3283
926.031	3340
926.138	3317
926.245	3401
926.352	3245
926.459	3412
926.566	3485
926.673	3329
926.779	3268
926.886	3264
926.993	3169
927.099	3173
927.206	3112
927.312	3123
927.419	3241
927.525	3207
927.631	3275
927.737	3157
927.843	3146
927.95	3001
928.056	3161
928.162	3116
928.267	3253
928.373	3892
928.479	3317
928.585	3039
928.69	3211
928.796	3222
928.901	3154
929.007	3024
929.112	3233
929.218	3199
929.323	3119
929.428	3173
929.533	3310
929.638	3135
929.743	3214
929.848	3241
929.953	3207
930.058	3123
930.163	3020
930.267	3070
930.372	3192
930.477	3047
930.581	3264
930.685	3188
930.79	3081
930.894	3112
930.998	3043
931.103	3260
931.207	2925
931.311	2941
931.415	2925
931.519	2739
931.623	2796
