Data from test_V78500241_575.txt Node
Date: Fri Mar 25 16:19:11 CST 2022
User: usil
Spectrometer: V785-0024
Trigger mode: 0
Integration Time (sec): 4.000000E-1
Scans to average: 1
Nonlinearity correction enabled: false
Boxcar width: 0
Storing dark spectrum: false
XAxis mode: Wavelengths
Number of Pixels in Spectrum: 1024
>>>>>Begin Spectral Data<<<<<
801.071	2933
801.214	2944
801.356	2876
801.499	2956
801.641	2872
801.783	2963
801.926	3051
802.068	3028
802.211	3032
802.353	3024
802.496	2994
802.638	3036
802.78	3066
802.923	3081
803.065	3055
803.208	2933
803.35	2937
803.492	2944
803.635	2944
803.777	2750
803.919	2857
804.061	3195
804.204	2948
804.346	2918
804.488	2845
804.63	2975
804.773	2849
804.915	2929
805.057	3066
805.199	2941
805.341	3005
805.483	3028
805.626	3009
805.768	2994
805.91	3097
806.052	3119
806.194	3055
806.336	3279
806.478	3017
806.62	2956
806.762	2986
806.904	3043
807.046	3192
807.188	3001
807.33	2918
807.472	3005
807.614	2960
807.756	2990
807.898	2887
808.04	2914
808.182	2982
808.324	2975
808.465	2857
808.607	2880
808.749	2823
808.891	2849
809.033	2979
809.174	2979
809.316	2929
809.458	2918
809.6	2792
809.741	2766
809.883	2766
810.025	2845
810.166	2857
810.308	2849
810.45	2872
810.591	2815
810.733	2788
810.875	2830
811.016	2766
811.158	2769
811.299	2811
811.441	2929
811.582	2872
811.724	2842
811.865	2823
812.007	2895
812.148	2880
812.29	2857
812.431	2891
812.573	2929
812.714	2952
812.855	3039
812.997	3020
813.138	3131
813.279	2990
813.421	2975
813.562	2960
813.703	2868
813.845	2887
813.986	2754
814.127	2746
814.268	2834
814.41	2857
814.551	2769
814.692	2864
814.833	2773
814.974	2868
815.115	2956
815.256	2796
815.397	2823
815.539	2864
815.68	2796
815.821	2785
815.962	2922
816.103	2929
816.244	2891
816.385	2887
816.526	2948
816.666	2922
816.807	2735
816.948	2868
817.089	2933
817.23	2830
817.371	2807
817.512	2811
817.653	2853
817.793	2815
817.934	2880
818.075	2967
818.216	3017
818.356	3013
818.497	2914
818.638	2777
818.778	2834
818.919	2792
819.06	2758
819.2	2876
819.341	2834
819.481	2830
819.622	2941
819.762	3100
819.903	3043
820.043	2944
820.184	2910
820.324	2902
820.465	2998
820.605	2990
820.746	3020
820.886	2929
821.026	3112
821.167	3180
821.307	3214
821.447	3298
821.588	3233
821.728	3214
821.868	3184
822.008	3089
822.149	3169
822.289	3233
822.429	3123
822.569	3104
822.709	3161
822.849	3009
822.99	3055
823.13	3176
823.27	3195
823.41	3085
823.55	3123
823.69	3165
823.83	3180
823.97	3104
824.11	3024
824.25	3001
824.389	3062
824.529	3127
824.669	3070
824.809	3199
824.949	3230
825.089	3233
825.228	3157
825.368	2975
825.508	2929
825.648	2982
825.787	3001
825.927	3005
826.067	2967
826.206	2982
826.346	3047
826.485	3081
826.625	3089
826.765	3260
826.904	3214
827.044	2990
827.183	2948
827.323	2872
827.462	2948
827.601	2918
827.741	2944
827.88	2994
828.02	2849
828.159	2956
828.298	3077
828.437	3116
828.577	3047
828.716	3237
828.855	3062
828.994	2902
829.134	2857
829.273	2906
829.412	2872
829.551	2857
829.69	2906
829.829	2990
829.968	3142
830.107	2994
830.246	3020
830.385	2952
830.524	2895
830.663	2807
830.802	2686
830.941	2644
831.08	2655
831.219	2762
831.357	2731
831.496	2933
831.635	2727
831.774	2659
831.913	2648
832.051	2571
832.19	2610
832.329	2689
832.467	2526
832.606	2507
832.744	2587
832.883	2564
833.022	2579
833.16	2640
833.299	2720
833.437	2697
833.576	2720
833.714	2701
833.852	2769
833.991	2781
834.129	2868
834.267	2819
834.406	2788
834.544	2902
834.682	2845
834.821	2880
834.959	3093
835.097	2883
835.235	3028
835.373	3020
835.511	3024
835.65	2902
835.788	3005
835.926	2819
836.064	2826
836.202	2899
836.34	3089
836.478	3154
836.615	3058
836.753	3070
836.891	3233
837.029	3146
837.167	3123
837.305	3055
837.443	3024
837.58	2933
837.718	3161
837.856	3089
837.993	2998
838.131	3123
838.269	3123
838.406	3058
838.544	3062
838.681	2971
838.819	2906
838.956	2788
839.094	2838
839.231	2883
839.369	3001
839.506	3386
839.643	3199
839.781	3047
839.918	2948
840.055	3036
840.193	3055
840.33	3043
840.467	3089
840.604	3154
840.742	3435
840.879	3032
841.016	3039
841.153	3138
841.29	3344
841.427	3317
841.564	3253
841.701	3298
841.838	3226
841.975	3173
842.112	3218
842.249	3077
842.385	3058
842.522	3214
842.659	3104
842.796	2998
842.933	3112
843.069	3055
843.206	3039
843.343	3188
843.479	3089
843.616	3074
843.752	2883
843.889	2842
844.025	3077
844.162	2834
844.298	3089
844.435	2925
844.571	2902
844.708	3055
844.844	3161
844.98	3230
845.117	3169
845.253	3028
845.389	3039
845.525	3131
845.661	3112
845.798	3028
845.934	3135
846.07	3036
846.206	3192
846.342	3302
846.478	3237
846.614	3081
846.75	3070
846.886	3005
847.022	3237
847.158	3127
847.294	3253
847.429	3272
847.565	3195
847.701	3488
847.837	3028
847.972	3017
848.108	3169
848.244	3150
848.379	3036
848.515	2967
848.65	2929
848.786	2979
848.921	3043
849.057	3135
849.192	3150
849.328	3089
849.463	3138
849.598	3093
849.734	3055
849.869	2986
850.004	2960
850.14	2963
850.275	2956
850.41	2899
850.545	2910
850.68	2971
850.815	3013
850.95	2998
851.085	3195
851.22	3161
851.355	3119
851.49	3028
851.625	3024
851.76	3085
851.895	2994
852.03	2975
852.165	3100
852.299	3127
852.434	3207
852.569	3207
852.703	3207
852.838	3298
852.973	3325
853.107	3382
853.242	3180
853.376	3123
853.511	3020
853.645	3074
853.78	3264
853.914	3157
854.048	3138
854.183	3169
854.317	3180
854.451	3367
854.585	3138
854.72	3112
854.854	3264
854.988	3123
855.122	3127
855.256	3058
855.39	3173
855.524	3313
855.658	3195
855.792	3199
855.926	3237
856.06	3241
856.194	3310
856.327	3195
856.461	3119
856.595	3142
856.729	3097
856.862	3283
856.996	3180
857.13	3260
857.263	3283
857.397	3317
857.53	3165
857.664	3222
857.797	3268
857.931	3291
858.064	3211
858.197	3245
858.331	3146
858.464	3131
858.597	3055
858.731	3169
858.864	3173
858.997	3135
859.13	3165
859.263	3169
859.396	3230
859.529	3112
859.662	3112
859.795	3062
859.928	3150
860.061	3329
860.194	3313
860.327	3169
860.46	3176
860.592	3283
860.725	3298
860.858	3329
860.99	3131
861.123	3089
861.256	3093
861.388	3192
861.521	3747
861.653	3089
861.786	3047
861.918	3005
862.05	3100
862.183	3123
862.315	3218
862.447	3272
862.58	3135
862.712	3017
862.844	2922
862.976	3077
863.108	3062
863.24	3458
863.372	2902
863.504	3009
863.636	3001
863.768	3081
863.9	2971
864.032	2967
864.164	2998
864.296	3024
864.428	3142
864.559	3135
864.691	3131
864.823	3089
864.954	3062
865.086	3097
865.217	2990
865.349	2990
865.48	3020
865.612	3013
865.743	3207
865.875	3039
866.006	2990
866.137	2998
866.269	2990
866.4	2948
866.531	2929
866.662	2891
866.793	2925
866.924	2929
867.055	3005
867.186	2948
867.317	2880
867.448	2880
867.579	2887
867.71	2899
867.841	2861
867.972	2918
868.103	2899
868.233	2925
868.364	2902
868.495	2956
868.625	3142
868.756	3165
868.886	3013
869.017	3020
869.147	3199
869.278	3184
869.408	3097
869.539	3017
869.669	3119
869.799	3028
869.929	3146
870.06	3119
870.19	3332
870.32	3302
870.45	3291
870.58	3386
870.71	3469
870.84	3496
870.97	3336
871.1	3344
871.23	3496
871.36	3488
871.489	3389
871.619	3454
871.749	3492
871.879	3481
872.008	3511
872.138	3397
872.267	3306
872.397	3192
872.526	3119
872.656	3028
872.785	3131
872.915	3260
873.044	3329
873.173	3253
873.303	3249
873.432	3275
873.561	3264
873.69	3180
873.819	3203
873.948	3192
874.077	3131
874.206	3043
874.335	3116
874.464	3253
874.593	3351
874.722	3275
874.851	3447
874.979	3359
875.108	3332
875.237	3211
875.365	3211
875.494	3199
875.623	3211
875.751	3119
875.88	3195
876.008	3241
876.136	3260
876.265	3363
876.393	3542
876.521	3443
876.65	3428
876.778	3336
876.906	3291
877.034	3241
877.162	3237
877.29	3195
877.418	3279
877.546	3298
877.674	3321
877.802	3275
877.93	3233
878.058	3176
878.185	3180
878.313	3272
878.441	3211
878.568	3104
878.696	3146
878.824	3275
878.951	3329
879.079	3481
879.206	3682
879.333	3435
879.461	3340
879.588	3386
879.715	3496
879.842	3652
879.97	3431
880.097	3211
880.224	3150
880.351	3207
880.478	3222
880.605	3207
880.732	3207
880.859	3515
880.986	3279
881.112	3340
881.239	3195
881.366	3116
881.493	3089
881.619	3055
881.746	3085
881.872	3104
881.999	3150
882.125	3203
882.252	3256
882.378	3332
882.505	3458
882.631	3291
882.757	3188
882.883	3214
883.01	3233
883.136	3192
883.262	3161
883.388	3123
883.514	3336
883.64	3412
883.766	3351
883.892	3226
884.018	3283
884.143	3447
884.269	3561
884.395	3218
884.52	3222
884.646	3199
884.772	3165
884.897	3154
885.023	3188
885.148	3374
885.274	3443
885.399	3405
885.524	3306
885.65	3268
885.775	3329
885.9	3310
886.025	3466
886.15	3405
886.275	3332
886.4	3256
886.525	3321
886.65	3313
886.775	3272
886.9	3507
887.025	3648
887.149	3435
887.274	3264
887.399	3214
887.523	3211
887.648	3207
887.773	3199
887.897	3420
888.021	3428
888.146	3329
888.27	3416
888.395	3526
888.519	3447
888.643	3458
888.767	3488
888.891	3287
889.015	3291
889.139	3310
889.263	3253
889.387	3447
889.511	3504
889.635	3477
889.759	3313
889.883	3321
890.006	3409
890.13	3496
890.254	3264
890.377	3332
890.501	3237
890.624	3199
890.748	3321
890.871	3230
890.995	3135
891.118	3081
891.241	3218
891.364	3283
891.488	3363
891.611	3180
891.734	3260
891.857	3279
891.98	3241
892.103	3351
892.226	3325
892.349	3230
892.471	3135
892.594	3226
892.717	3291
892.839	3298
892.962	3291
893.085	3340
893.207	3329
893.33	3176
893.452	3237
893.575	3370
893.697	3291
893.819	3511
893.941	3500
894.064	3450
894.186	3256
894.308	3317
894.43	3477
894.552	3542
894.674	3481
894.796	3283
894.918	3272
895.04	3332
895.161	3466
895.283	3405
895.405	3310
895.526	3348
895.648	3462
895.769	3405
895.891	3477
896.012	3534
896.134	3496
896.255	3431
896.376	3412
896.498	3397
896.619	3450
896.74	3382
896.861	3412
896.982	3679
897.103	3846
897.224	3633
897.345	3530
897.466	3412
897.587	3469
897.708	3682
897.828	3538
897.949	3443
898.07	3393
898.19	3424
898.311	3618
898.431	3439
898.552	3542
898.672	3641
898.792	3580
898.913	3519
899.033	3382
899.153	3329
899.273	3226
899.393	3310
899.513	3325
899.633	3340
899.753	3344
899.873	3321
899.993	3401
900.113	3370
900.232	3386
900.352	3367
900.472	3302
900.591	3245
900.711	3283
900.83	3264
900.95	3412
901.069	3466
901.189	3340
901.308	3169
901.427	3138
901.546	3222
901.665	3325
901.784	3359
901.904	3230
902.023	3154
902.141	3028
902.26	2986
902.379	3116
902.498	3077
902.617	3089
902.735	3218
902.854	3260
902.973	3230
903.091	3032
903.21	3112
903.328	3154
903.446	3138
903.565	3135
903.683	3207
903.801	3131
903.919	3264
904.038	3287
904.156	3192
904.274	3291
904.392	3313
904.51	3287
904.627	3340
904.745	3469
904.863	3530
904.981	3268
905.098	3169
905.216	3230
905.334	3275
905.451	3317
905.569	3294
905.686	3435
905.803	3450
905.921	3317
906.038	3428
906.155	3374
906.272	3294
906.389	3321
906.506	3226
906.623	3275
906.74	3291
906.857	3192
906.974	3279
907.091	3466
907.208	3553
907.324	3492
907.441	3412
907.557	3233
907.674	3218
907.79	3237
907.907	3302
908.023	3397
908.139	3382
908.256	3321
908.372	3393
908.488	3405
908.604	3260
908.72	3230
908.836	3298
908.952	3325
909.068	3370
909.184	3500
909.3	3382
909.415	3488
909.531	3481
909.647	3291
909.762	3313
909.878	3287
909.993	3374
910.108	3370
910.224	3329
910.339	3466
910.454	3348
910.57	3310
910.685	3268
910.8	3587
910.915	3549
911.03	3450
911.145	3256
911.259	3272
911.374	3329
911.489	3237
911.604	3237
911.718	3138
911.833	3176
911.947	3066
912.062	3017
912.176	3192
912.291	3226
912.405	3207
912.519	3473
912.633	3485
912.748	3332
912.862	3272
912.976	3169
913.09	3062
913.204	3184
913.318	3233
913.431	3325
913.545	3329
913.659	3412
913.772	3351
913.886	3214
914	3218
914.113	3393
914.226	3412
914.34	3378
914.453	3233
914.566	3378
914.68	3302
914.793	3291
914.906	3157
915.019	3135
915.132	3089
915.245	3195
915.358	3237
915.47	3245
915.583	3268
915.696	3321
915.809	3382
915.921	3462
916.034	3268
916.146	3256
916.259	3245
916.371	3397
916.483	3367
916.595	3302
916.708	3317
916.82	3348
916.932	3351
917.044	3355
917.156	3367
917.268	3283
917.38	3325
917.491	3321
917.603	3321
917.715	3469
917.826	3443
917.938	3409
918.049	3287
918.161	3435
918.272	3561
918.384	3599
918.495	3496
918.606	3310
918.717	3279
918.828	3363
918.939	3405
919.05	3291
919.161	3401
919.272	3173
919.383	3294
919.494	3473
919.604	3701
919.715	3450
919.826	3439
919.936	3473
920.047	3610
920.157	3584
920.267	3781
920.378	3614
920.488	3599
920.598	3743
920.708	3972
920.818	3827
920.928	3907
921.038	4051
921.148	3979
921.258	3705
921.368	3629
921.477	3587
921.587	3580
921.697	3420
921.806	3625
921.916	3530
922.025	3363
922.134	3382
922.244	3329
922.353	3439
922.462	3272
922.571	3233
922.68	3142
922.789	3081
922.898	3157
923.007	3081
923.116	3222
923.224	3161
923.333	3169
923.442	3089
923.55	3097
923.659	3119
923.767	3230
923.876	3116
923.984	3268
924.092	3100
924.201	3188
924.309	3226
924.417	3268
924.525	3207
924.633	3233
924.741	4036
924.849	3077
924.956	3264
925.064	3123
925.172	3051
925.279	3127
925.387	3199
925.494	3218
925.602	3348
925.709	3325
925.816	3199
925.924	3249
926.031	3420
926.138	3317
926.245	3363
926.352	3241
926.459	3458
926.566	3473
926.673	3302
926.779	3283
926.886	3291
926.993	3142
927.099	3138
927.206	3066
927.312	3150
927.419	3184
927.525	3203
927.631	3253
927.737	3203
927.843	3135
927.95	3062
928.056	3150
928.162	3157
928.267	3233
928.373	3800
928.479	3321
928.585	3097
928.69	3222
928.796	3264
928.901	3157
929.007	3070
929.112	3211
929.218	3161
929.323	3161
929.428	3157
929.533	3302
929.638	3119
929.743	3180
929.848	3260
929.953	3214
930.058	3089
930.163	3032
930.267	3055
930.372	3188
930.477	3077
930.581	3313
930.685	3138
930.79	3070
930.894	3116
930.998	3085
931.103	3306
931.207	2967
931.311	2933
931.415	2899
931.519	2781
931.623	2811
