Data from test_V78500241_166.txt Node
Date: Fri Mar 25 16:16:21 CST 2022
User: usil
Spectrometer: V785-0024
Trigger mode: 0
Integration Time (sec): 4.000000E-1
Scans to average: 1
Nonlinearity correction enabled: false
Boxcar width: 0
Storing dark spectrum: false
XAxis mode: Wavelengths
Number of Pixels in Spectrum: 1024
>>>>>Begin Spectral Data<<<<<
801.071	2902
801.214	2944
801.356	2906
801.499	2918
801.641	2872
801.783	2971
801.926	3036
802.068	2956
802.211	3001
802.353	3074
802.496	2994
802.638	2971
802.78	3062
802.923	3097
803.065	2998
803.208	2910
803.35	2929
803.492	2922
803.635	2963
803.777	2796
803.919	2891
804.061	3222
804.204	2960
804.346	2876
804.488	2845
804.63	2994
804.773	2887
804.915	2918
805.057	3077
805.199	2918
805.341	2979
805.483	3020
805.626	3028
805.768	2929
805.91	3055
806.052	3112
806.194	3036
806.336	3283
806.478	3043
806.62	2929
806.762	2982
806.904	3062
807.046	3184
807.188	2990
807.33	2880
807.472	2986
807.614	2929
807.756	3009
807.898	2929
808.04	2914
808.182	2975
808.324	2902
808.465	2910
808.607	2899
808.749	2792
808.891	2849
809.033	2975
809.174	2963
809.316	2910
809.458	2895
809.6	2788
809.741	2819
809.883	2807
810.025	2861
810.166	2876
810.308	2830
810.45	2849
810.591	2826
810.733	2815
810.875	2853
811.016	2777
811.158	2743
811.299	2796
811.441	2929
811.582	2887
811.724	2830
811.865	2823
812.007	2883
812.148	2895
812.29	2861
812.431	2883
812.573	2956
812.714	2967
812.855	3066
812.997	3043
813.138	3135
813.279	3032
813.421	3001
813.562	2967
813.703	2887
813.845	2880
813.986	2807
814.127	2682
814.268	2826
814.41	2845
814.551	2845
814.692	2922
814.833	2826
814.974	2895
815.115	2941
815.256	2842
815.397	2800
815.539	2864
815.68	2796
815.821	2807
815.962	2956
816.103	2918
816.244	2922
816.385	2883
816.526	2986
816.666	2922
816.807	2754
816.948	2891
817.089	2918
817.23	2872
817.371	2800
817.512	2804
817.653	2830
817.793	2819
817.934	2895
818.075	2982
818.216	3032
818.356	3005
818.497	2880
818.638	2807
818.778	2845
818.919	2815
819.06	2735
819.2	2906
819.341	2834
819.481	2792
819.622	2914
819.762	3108
819.903	3009
820.043	2967
820.184	2933
820.324	2925
820.465	3028
820.605	3032
820.746	2982
820.886	2986
821.026	3104
821.167	3218
821.307	3260
821.447	3291
821.588	3214
821.728	3218
821.868	3237
822.008	3104
822.149	3226
822.289	3241
822.429	3077
822.569	3085
822.709	3218
822.849	3020
822.99	3085
823.13	3127
823.27	3241
823.41	3154
823.55	3123
823.69	3135
823.83	3207
823.97	3085
824.11	3036
824.25	2986
824.389	3074
824.529	3108
824.669	3116
824.809	3211
824.949	3291
825.089	3207
825.228	3154
825.368	3039
825.508	2960
825.648	2986
825.787	2967
825.927	3009
826.067	2963
826.206	2979
826.346	3051
826.485	3051
826.625	3108
826.765	3287
826.904	3207
827.044	2986
827.183	2944
827.323	2849
827.462	3013
827.601	2922
827.741	2922
827.88	2960
828.02	2838
828.159	2967
828.298	3028
828.437	3104
828.577	3036
828.716	3230
828.855	3085
828.994	2902
829.134	2899
829.273	2914
829.412	2842
829.551	2887
829.69	2864
829.829	2990
829.968	3146
830.107	3005
830.246	3043
830.385	2944
830.524	2883
830.663	2830
830.802	2731
830.941	2648
831.08	2674
831.219	2788
831.357	2785
831.496	2963
831.635	2720
831.774	2659
831.913	2640
832.051	2583
832.19	2579
832.329	2727
832.467	2541
832.606	2503
832.744	2579
832.883	2610
833.022	2575
833.16	2701
833.299	2716
833.437	2739
833.576	2705
833.714	2746
833.852	2773
833.991	2773
834.129	2880
834.267	2876
834.406	2857
834.544	2906
834.682	2929
834.821	2864
834.959	3135
835.097	2937
835.235	3077
835.373	3058
835.511	3055
835.65	3028
835.788	2979
835.926	2914
836.064	2887
836.202	2902
836.34	3131
836.478	3195
836.615	3116
836.753	3173
836.891	3241
837.029	3264
837.167	3192
837.305	3108
837.443	3032
837.58	3062
837.718	3180
837.856	3135
837.993	3081
838.131	3188
838.269	3157
838.406	3154
838.544	3116
838.681	3005
838.819	2986
838.956	2876
839.094	2887
839.231	2944
839.369	3081
839.506	3439
839.643	3253
839.781	3093
839.918	3062
840.055	3100
840.193	3108
840.33	3100
840.467	3142
840.604	3218
840.742	3496
840.879	3157
841.016	3100
841.153	3192
841.29	3378
841.427	3382
841.564	3325
841.701	3363
841.838	3306
841.975	3233
842.112	3302
842.249	3135
842.385	3093
842.522	3321
842.659	3157
842.796	3142
842.933	3169
843.069	3093
843.206	3131
843.343	3253
843.479	3165
843.616	3249
843.752	2937
843.889	2895
844.025	3154
844.162	2933
844.298	3116
844.435	2982
844.571	2971
844.708	3077
844.844	3233
844.98	3291
845.117	3226
845.253	3077
845.389	3089
845.525	3157
845.661	3131
845.798	3089
845.934	3199
846.07	3081
846.206	3249
846.342	3393
846.478	3268
846.614	3112
846.75	3081
846.886	3070
847.022	3291
847.158	3176
847.294	3272
847.429	3287
847.565	3283
847.701	3572
847.837	3070
847.972	3036
848.108	3176
848.244	3214
848.379	3039
848.515	3017
848.65	2960
848.786	3036
848.921	3047
849.057	3173
849.192	3180
849.328	3077
849.463	3188
849.598	3104
849.734	3093
849.869	3024
850.004	2975
850.14	2990
850.275	2948
850.41	2899
850.545	2914
850.68	2982
850.815	3032
850.95	3062
851.085	3226
851.22	3104
851.355	3093
851.49	3058
851.625	3032
851.76	3032
851.895	2982
852.03	2960
852.165	3066
852.299	3165
852.434	3203
852.569	3192
852.703	3222
852.838	3306
852.973	3389
853.107	3370
853.242	3176
853.376	3119
853.511	3039
853.645	3036
853.78	3260
853.914	3169
854.048	3165
854.183	3154
854.317	3203
854.451	3317
854.585	3195
854.72	3135
854.854	3195
854.988	3108
855.122	3150
855.256	3032
855.39	3157
855.524	3298
855.658	3249
855.792	3199
855.926	3226
856.06	3287
856.194	3313
856.327	3184
856.461	3108
856.595	3119
856.729	3138
856.862	3268
856.996	3192
857.13	3233
857.263	3272
857.397	3340
857.53	3199
857.664	3256
857.797	3294
857.931	3321
858.064	3203
858.197	3283
858.331	3150
858.464	3195
858.597	3047
858.731	3169
858.864	3157
858.997	3123
859.13	3169
859.263	3237
859.396	3268
859.529	3127
859.662	3116
859.795	3131
859.928	3180
860.061	3325
860.194	3336
860.327	3173
860.46	3138
860.592	3302
860.725	3313
860.858	3275
860.99	3195
861.123	3093
861.256	3070
861.388	3157
861.521	3850
861.653	3039
861.786	3024
861.918	3024
862.05	3135
862.183	3138
862.315	3173
862.447	3264
862.58	3150
862.712	2994
862.844	2887
862.976	3093
863.108	3039
863.24	3359
863.372	2922
863.504	3017
863.636	2994
863.768	3055
863.9	3024
864.032	2937
864.164	3001
864.296	3051
864.428	3127
864.559	3116
864.691	3119
864.823	3070
864.954	3051
865.086	3085
865.217	3047
865.349	3047
865.48	3017
865.612	3066
865.743	3184
865.875	3009
866.006	2956
866.137	3013
866.269	2944
866.4	2986
866.531	2944
866.662	2948
866.793	2937
866.924	2944
867.055	2982
867.186	2963
867.317	2925
867.448	2883
867.579	2906
867.71	2891
867.841	2853
867.972	2925
868.103	2948
868.233	2902
868.364	2876
868.495	2925
868.625	3108
868.756	3199
868.886	2986
869.017	3066
869.147	3233
869.278	3230
869.408	3131
869.539	3089
869.669	3161
869.799	3085
869.929	3150
870.06	3176
870.19	3374
870.32	3325
870.45	3359
870.58	3424
870.71	3473
870.84	3473
870.97	3291
871.1	3329
871.23	3534
871.36	3504
871.489	3363
871.619	3416
871.749	3485
871.879	3473
872.008	3534
872.138	3386
872.267	3332
872.397	3184
872.526	3161
872.656	3024
872.785	3150
872.915	3291
873.044	3370
873.173	3249
873.303	3268
873.432	3241
873.561	3249
873.69	3184
873.819	3188
873.948	3253
874.077	3142
874.206	3112
874.335	3150
874.464	3260
874.593	3393
874.722	3275
874.851	3389
874.979	3382
875.108	3310
875.237	3233
875.365	3230
875.494	3226
875.623	3302
875.751	3146
875.88	3157
876.008	3245
876.136	3275
876.265	3389
876.393	3553
876.521	3454
876.65	3443
876.778	3378
876.906	3283
877.034	3253
877.162	3245
877.29	3230
877.418	3291
877.546	3272
877.674	3325
877.802	3245
877.93	3291
878.058	3199
878.185	3161
878.313	3233
878.441	3222
878.568	3119
878.696	3173
878.824	3294
878.951	3336
879.079	3477
879.206	3618
879.333	3439
879.461	3340
879.588	3374
879.715	3488
879.842	3660
879.97	3370
880.097	3264
880.224	3176
880.351	3195
880.478	3245
880.605	3253
880.732	3230
880.859	3526
880.986	3378
881.112	3363
881.239	3249
881.366	3123
881.493	3074
881.619	3036
881.746	3081
881.872	3150
881.999	3176
882.125	3180
882.252	3275
882.378	3336
882.505	3473
882.631	3344
882.757	3180
882.883	3253
883.01	3260
883.136	3154
883.262	3157
883.388	3161
883.514	3332
883.64	3401
883.766	3374
883.892	3211
884.018	3268
884.143	3454
884.269	3580
884.395	3253
884.52	3230
884.646	3226
884.772	3192
884.897	3146
885.023	3253
885.148	3382
885.274	3496
885.399	3405
885.524	3351
885.65	3253
885.775	3359
885.9	3317
886.025	3519
886.15	3397
886.275	3374
886.4	3256
886.525	3332
886.65	3325
886.775	3302
886.9	3496
887.025	3694
887.149	3447
887.274	3306
887.399	3241
887.523	3230
887.648	3230
887.773	3241
887.897	3386
888.021	3409
888.146	3363
888.27	3458
888.395	3572
888.519	3481
888.643	3492
888.767	3488
888.891	3389
889.015	3279
889.139	3317
889.263	3260
889.387	3431
889.511	3530
889.635	3519
889.759	3351
889.883	3291
890.006	3412
890.13	3492
890.254	3329
890.377	3416
890.501	3249
890.624	3207
890.748	3348
890.871	3214
890.995	3131
891.118	3085
891.241	3203
891.364	3241
891.488	3336
891.611	3203
891.734	3245
891.857	3291
891.98	3275
892.103	3409
892.226	3329
892.349	3272
892.471	3135
892.594	3260
892.717	3325
892.839	3325
892.962	3298
893.085	3397
893.207	3306
893.33	3218
893.452	3253
893.575	3370
893.697	3275
893.819	3515
893.941	3515
894.064	3485
894.186	3344
894.308	3287
894.43	3485
894.552	3557
894.674	3515
894.796	3306
894.918	3348
895.04	3321
895.161	3443
895.283	3409
895.405	3355
895.526	3378
895.648	3450
895.769	3424
895.891	3462
896.012	3507
896.134	3545
896.255	3416
896.376	3469
896.498	3363
896.619	3462
896.74	3431
896.861	3397
896.982	3728
897.103	3899
897.224	3671
897.345	3587
897.466	3458
897.587	3511
897.708	3690
897.828	3568
897.949	3450
898.07	3344
898.19	3431
898.311	3644
898.431	3473
898.552	3519
898.672	3610
898.792	3591
898.913	3530
899.033	3469
899.153	3370
899.273	3260
899.393	3313
899.513	3351
899.633	3329
899.753	3412
899.873	3336
899.993	3420
900.113	3355
900.232	3370
900.352	3351
900.472	3325
900.591	3256
900.711	3329
900.83	3294
900.95	3450
901.069	3530
901.189	3374
901.308	3176
901.427	3138
901.546	3249
901.665	3283
901.784	3382
901.904	3233
902.023	3138
902.141	3028
902.26	3005
902.379	3157
902.498	3100
902.617	3104
902.735	3214
902.854	3275
902.973	3214
903.091	3085
903.21	3100
903.328	3180
903.446	3119
903.565	3108
903.683	3218
903.801	3165
903.919	3279
904.038	3302
904.156	3192
904.274	3348
904.392	3272
904.51	3340
904.627	3317
904.745	3447
904.863	3534
904.981	3287
905.098	3180
905.216	3260
905.334	3351
905.451	3332
905.569	3351
905.686	3458
905.803	3481
905.921	3317
906.038	3424
906.155	3397
906.272	3275
906.389	3359
906.506	3230
906.623	3329
906.74	3310
906.857	3188
906.974	3291
907.091	3488
907.208	3629
907.324	3519
907.441	3409
907.557	3298
907.674	3283
907.79	3256
907.907	3321
908.023	3420
908.139	3424
908.256	3363
908.372	3389
908.488	3389
908.604	3298
908.72	3268
908.836	3336
908.952	3313
909.068	3405
909.184	3591
909.3	3420
909.415	3545
909.531	3545
909.647	3329
909.762	3348
909.878	3310
909.993	3420
910.108	3469
910.224	3409
910.339	3500
910.454	3397
910.57	3317
910.685	3332
910.8	3686
910.915	3610
911.03	3481
911.145	3329
911.259	3344
911.374	3382
911.489	3336
911.604	3253
911.718	3192
911.833	3226
911.947	3089
912.062	3058
912.176	3218
912.291	3268
912.405	3272
912.519	3485
912.633	3519
912.748	3386
912.862	3336
912.976	3249
913.09	3146
913.204	3180
913.318	3275
913.431	3374
913.545	3393
913.659	3412
913.772	3420
913.886	3241
914	3275
914.113	3405
914.226	3485
914.34	3435
914.453	3253
914.566	3515
914.68	3355
914.793	3370
914.906	3218
915.019	3180
915.132	3112
915.245	3253
915.358	3260
915.47	3306
915.583	3355
915.696	3370
915.809	3492
915.921	3519
916.034	3317
916.146	3291
916.259	3310
916.371	3424
916.483	3435
916.595	3374
916.708	3397
916.82	3355
916.932	3386
917.044	3466
917.156	3428
917.268	3283
917.38	3378
917.491	3389
917.603	3439
917.715	3511
917.826	3496
917.938	3450
918.049	3310
918.161	3488
918.272	3637
918.384	3606
918.495	3542
918.606	3393
918.717	3321
918.828	3424
918.939	3496
919.05	3374
919.161	3443
919.272	3237
919.383	3344
919.494	3584
919.604	3724
919.715	3534
919.826	3466
919.936	3500
920.047	3667
920.157	3606
920.267	3831
920.378	3701
920.488	3625
920.598	3861
920.708	4021
920.818	3896
920.928	3911
921.038	4067
921.148	4059
921.258	3774
921.368	3717
921.477	3637
921.587	3587
921.697	3530
921.806	3671
921.916	3580
922.025	3416
922.134	3420
922.244	3344
922.353	3488
922.462	3302
922.571	3268
922.68	3150
922.789	3150
922.898	3184
923.007	3173
923.116	3245
923.224	3245
923.333	3211
923.442	3135
923.55	3138
923.659	3203
923.767	3287
923.876	3214
923.984	3306
924.092	3142
924.201	3249
924.309	3283
924.417	3306
924.525	3214
924.633	3275
924.741	4272
924.849	3116
924.956	3340
925.064	3138
925.172	3100
925.279	3138
925.387	3245
925.494	3256
925.602	3443
925.709	3359
925.816	3233
925.924	3344
926.031	3443
926.138	3355
926.245	3409
926.352	3317
926.459	3504
926.566	3515
926.673	3359
926.779	3294
926.886	3294
926.993	3195
927.099	3169
927.206	3161
927.312	3138
927.419	3310
927.525	3241
927.631	3313
927.737	3214
927.843	3173
927.95	3074
928.056	3169
928.162	3203
928.267	3294
928.373	3930
928.479	3355
928.585	3161
928.69	3241
928.796	3321
928.901	3192
929.007	3108
929.112	3226
929.218	3245
929.323	3161
929.428	3188
929.533	3348
929.638	3176
929.743	3230
929.848	3264
929.953	3268
930.058	3211
930.163	3081
930.267	3104
930.372	3253
930.477	3081
930.581	3348
930.685	3245
930.79	3127
930.894	3157
930.998	3131
931.103	3275
931.207	3024
931.311	2967
931.415	2963
931.519	2842
931.623	2861
