Data from test_V78500241_398.txt Node
Date: Fri Mar 25 16:17:57 CST 2022
User: usil
Spectrometer: V785-0024
Trigger mode: 0
Integration Time (sec): 4.000000E-1
Scans to average: 1
Nonlinearity correction enabled: false
Boxcar width: 0
Storing dark spectrum: false
XAxis mode: Wavelengths
Number of Pixels in Spectrum: 1024
>>>>>Begin Spectral Data<<<<<
801.071	2933
801.214	2902
801.356	2880
801.499	2891
801.641	2842
801.783	2929
801.926	3047
802.068	2998
802.211	2967
802.353	3020
802.496	2933
802.638	2982
802.78	3013
802.923	3074
803.065	3009
803.208	2902
803.35	2929
803.492	2933
803.635	2902
803.777	2743
803.919	2838
804.061	3180
804.204	2941
804.346	2887
804.488	2834
804.63	2963
804.773	2899
804.915	2906
805.057	3051
805.199	2941
805.341	2986
805.483	3036
805.626	2971
805.768	2922
805.91	3074
806.052	3070
806.194	3028
806.336	3188
806.478	3009
806.62	2941
806.762	2963
806.904	3036
807.046	3135
807.188	2975
807.33	2899
807.472	2998
807.614	2872
807.756	2986
807.898	2910
808.04	2883
808.182	2967
808.324	2967
808.465	2887
808.607	2872
808.749	2807
808.891	2800
809.033	3001
809.174	2929
809.316	2845
809.458	2895
809.6	2773
809.741	2754
809.883	2769
810.025	2842
810.166	2845
810.308	2857
810.45	2845
810.591	2739
810.733	2773
810.875	2823
811.016	2758
811.158	2735
811.299	2800
811.441	2906
811.582	2876
811.724	2819
811.865	2800
812.007	2872
812.148	2899
812.29	2853
812.431	2864
812.573	2929
812.714	2929
812.855	3047
812.997	3036
813.138	3085
813.279	3036
813.421	2937
813.562	2941
813.703	2899
813.845	2880
813.986	2781
814.127	2720
814.268	2811
814.41	2815
814.551	2811
814.692	2864
814.833	2819
814.974	2864
815.115	2910
815.256	2838
815.397	2754
815.539	2830
815.68	2739
815.821	2811
815.962	2937
816.103	2906
816.244	2868
816.385	2830
816.526	2952
816.666	2914
816.807	2727
816.948	2838
817.089	2914
817.23	2902
817.371	2781
817.512	2788
817.653	2769
817.793	2811
817.934	2861
818.075	2960
818.216	2994
818.356	3032
818.497	2849
818.638	2769
818.778	2804
818.919	2777
819.06	2785
819.2	2876
819.341	2834
819.481	2800
819.622	2902
819.762	3131
819.903	3093
820.043	2944
820.184	2895
820.324	2891
820.465	3051
820.605	3043
820.746	3047
820.886	2933
821.026	3119
821.167	3173
821.307	3249
821.447	3306
821.588	3249
821.728	3214
821.868	3192
822.008	3077
822.149	3211
822.289	3245
822.429	3100
822.569	3135
822.709	3237
822.849	3055
822.99	3089
823.13	3173
823.27	3272
823.41	3135
823.55	3188
823.69	3180
823.83	3207
823.97	3127
824.11	3032
824.25	3020
824.389	3074
824.529	3138
824.669	3127
824.809	3218
824.949	3249
825.089	3283
825.228	3180
825.368	3032
825.508	3005
825.648	2998
825.787	3032
825.927	3043
826.067	3013
826.206	2971
826.346	3097
826.485	3127
826.625	3180
826.765	3302
826.904	3230
827.044	3028
827.183	2944
827.323	2922
827.462	3009
827.601	2910
827.741	2944
827.88	2998
828.02	2880
828.159	3009
828.298	3112
828.437	3165
828.577	3066
828.716	3260
828.855	3180
828.994	2941
829.134	2918
829.273	2941
829.412	2910
829.551	2891
829.69	2948
829.829	3005
829.968	3161
830.107	3036
830.246	3039
830.385	2994
830.524	2914
830.663	2853
830.802	2788
830.941	2693
831.08	2701
831.219	2773
831.357	2792
831.496	2960
831.635	2735
831.774	2663
831.913	2644
832.051	2579
832.19	2659
832.329	2754
832.467	2568
832.606	2526
832.744	2617
832.883	2632
833.022	2579
833.16	2663
833.299	2701
833.437	2716
833.576	2754
833.714	2800
833.852	2746
833.991	2788
834.129	2864
834.267	2868
834.406	2800
834.544	2899
834.682	2880
834.821	2895
834.959	3100
835.097	2925
835.235	3116
835.373	3047
835.511	3043
835.65	3005
835.788	3024
835.926	2842
836.064	2891
836.202	2868
836.34	3077
836.478	3169
836.615	3077
836.753	3188
836.891	3203
837.029	3195
837.167	3146
837.305	3093
837.443	3051
837.58	3020
837.718	3173
837.856	3077
837.993	3062
838.131	3135
838.269	3116
838.406	3157
838.544	3112
838.681	2979
838.819	2902
838.956	2876
839.094	2883
839.231	2979
839.369	3062
839.506	3382
839.643	3253
839.781	3074
839.918	2986
840.055	3074
840.193	3074
840.33	3093
840.467	3123
840.604	3180
840.742	3401
840.879	3055
841.016	3081
841.153	3150
841.29	3351
841.427	3340
841.564	3294
841.701	3317
841.838	3245
841.975	3192
842.112	3237
842.249	3097
842.385	3097
842.522	3272
842.659	3077
842.796	3108
842.933	3097
843.069	3077
843.206	3062
843.343	3226
843.479	3135
843.616	3150
843.752	2944
843.889	2914
844.025	3142
844.162	2948
844.298	3131
844.435	2982
844.571	2933
844.708	3097
844.844	3214
844.98	3279
845.117	3195
845.253	3100
845.389	3039
845.525	3081
845.661	3119
845.798	3024
845.934	3154
846.07	3047
846.206	3199
846.342	3355
846.478	3245
846.614	3123
846.75	3093
846.886	3089
847.022	3256
847.158	3131
847.294	3241
847.429	3310
847.565	3272
847.701	3481
847.837	3066
847.972	3058
848.108	3173
848.244	3157
848.379	3017
848.515	2967
848.65	2956
848.786	2956
848.921	3058
849.057	3135
849.192	3176
849.328	3108
849.463	3116
849.598	3093
849.734	3051
849.869	2998
850.004	2952
850.14	3024
850.275	2982
850.41	2857
850.545	2918
850.68	2960
850.815	2971
850.95	2986
851.085	3218
851.22	3108
851.355	3062
851.49	2990
851.625	3039
851.76	3013
851.895	2963
852.03	2914
852.165	3062
852.299	3123
852.434	3241
852.569	3173
852.703	3233
852.838	3237
852.973	3351
853.107	3363
853.242	3184
853.376	3138
853.511	2998
853.645	3070
853.78	3268
853.914	3176
854.048	3108
854.183	3093
854.317	3184
854.451	3298
854.585	3157
854.72	3154
854.854	3195
854.988	3108
855.122	3108
855.256	3001
855.39	3112
855.524	3253
855.658	3237
855.792	3188
855.926	3207
856.06	3264
856.194	3283
856.327	3161
856.461	3070
856.595	3131
856.729	3081
856.862	3260
856.996	3157
857.13	3211
857.263	3203
857.397	3275
857.53	3108
857.664	3241
857.797	3237
857.931	3237
858.064	3131
858.197	3222
858.331	3173
858.464	3085
858.597	3024
858.731	3131
858.864	3161
858.997	3135
859.13	3169
859.263	3214
859.396	3222
859.529	3112
859.662	3123
859.795	3039
859.928	3169
860.061	3306
860.194	3302
860.327	3142
860.46	3123
860.592	3268
860.725	3237
860.858	3283
860.99	3112
861.123	3055
861.256	3089
861.388	3176
861.521	3865
861.653	3039
861.786	2994
861.918	3013
862.05	3077
862.183	3123
862.315	3184
862.447	3214
862.58	3112
862.712	2971
862.844	2868
862.976	3043
863.108	3013
863.24	3439
863.372	2887
863.504	2948
863.636	2952
863.768	3081
863.9	3001
864.032	2922
864.164	2986
864.296	3017
864.428	3127
864.559	3127
864.691	3161
864.823	3100
864.954	3047
865.086	3077
865.217	3013
865.349	2967
865.48	2994
865.612	3036
865.743	3169
865.875	2971
866.006	2967
866.137	3024
866.269	2971
866.4	2948
866.531	2956
866.662	2918
866.793	2876
866.924	2918
867.055	2994
867.186	2941
867.317	2891
867.448	2861
867.579	2899
867.71	2880
867.841	2845
867.972	2937
868.103	2914
868.233	2925
868.364	2887
868.495	2929
868.625	3089
868.756	3184
868.886	2967
869.017	3017
869.147	3195
869.278	3173
869.408	3047
869.539	3070
869.669	3104
869.799	3032
869.929	3173
870.06	3138
870.19	3340
870.32	3332
870.45	3325
870.58	3355
870.71	3477
870.84	3447
870.97	3291
871.1	3287
871.23	3473
871.36	3511
871.489	3382
871.619	3405
871.749	3435
871.879	3469
872.008	3523
872.138	3378
872.267	3325
872.397	3157
872.526	3119
872.656	2982
872.785	3154
872.915	3233
873.044	3287
873.173	3256
873.303	3291
873.432	3237
873.561	3253
873.69	3207
873.819	3142
873.948	3237
874.077	3119
874.206	3058
874.335	3123
874.464	3245
874.593	3355
874.722	3260
874.851	3454
874.979	3302
875.108	3363
875.237	3192
875.365	3188
875.494	3173
875.623	3268
875.751	3108
875.88	3135
876.008	3188
876.136	3245
876.265	3382
876.393	3488
876.521	3447
876.65	3397
876.778	3336
876.906	3287
877.034	3222
877.162	3268
877.29	3180
877.418	3264
877.546	3241
877.674	3279
877.802	3287
877.93	3256
878.058	3131
878.185	3093
878.313	3272
878.441	3218
878.568	3116
878.696	3188
878.824	3253
878.951	3329
879.079	3439
879.206	3633
879.333	3447
879.461	3317
879.588	3378
879.715	3515
879.842	3610
879.97	3329
880.097	3192
880.224	3150
880.351	3226
880.478	3233
880.605	3188
880.732	3192
880.859	3500
880.986	3332
881.112	3340
881.239	3214
881.366	3123
881.493	3047
881.619	3066
881.746	3100
881.872	3108
881.999	3146
882.125	3165
882.252	3218
882.378	3310
882.505	3504
882.631	3310
882.757	3123
882.883	3226
883.01	3230
883.136	3169
883.262	3104
883.388	3138
883.514	3313
883.64	3378
883.766	3291
883.892	3222
884.018	3272
884.143	3428
884.269	3526
884.395	3241
884.52	3165
884.646	3176
884.772	3173
884.897	3112
885.023	3233
885.148	3348
885.274	3401
885.399	3348
885.524	3283
885.65	3268
885.775	3325
885.9	3283
886.025	3447
886.15	3389
886.275	3313
886.4	3268
886.525	3313
886.65	3332
886.775	3298
886.9	3504
887.025	3660
887.149	3447
887.274	3249
887.399	3207
887.523	3188
887.648	3176
887.773	3214
887.897	3389
888.021	3428
888.146	3298
888.27	3439
888.395	3580
888.519	3424
888.643	3492
888.767	3454
888.891	3329
889.015	3214
889.139	3260
889.263	3268
889.387	3431
889.511	3473
889.635	3481
889.759	3264
889.883	3313
890.006	3401
890.13	3507
890.254	3272
890.377	3344
890.501	3211
890.624	3180
890.748	3298
890.871	3169
890.995	3085
891.118	3062
891.241	3211
891.364	3230
891.488	3317
891.611	3192
891.734	3222
891.857	3283
891.98	3272
892.103	3351
892.226	3317
892.349	3253
892.471	3112
892.594	3230
892.717	3302
892.839	3298
892.962	3291
893.085	3336
893.207	3317
893.33	3146
893.452	3222
893.575	3382
893.697	3279
893.819	3458
893.941	3504
894.064	3447
894.186	3275
894.308	3268
894.43	3412
894.552	3561
894.674	3477
894.796	3275
894.918	3340
895.04	3302
895.161	3409
895.283	3412
895.405	3287
895.526	3389
895.648	3416
895.769	3469
895.891	3477
896.012	3477
896.134	3492
896.255	3416
896.376	3367
896.498	3367
896.619	3462
896.74	3351
896.861	3458
896.982	3679
897.103	3831
897.224	3629
897.345	3530
897.466	3435
897.587	3492
897.708	3599
897.828	3564
897.949	3401
898.07	3283
898.19	3412
898.311	3633
898.431	3450
898.552	3515
898.672	3610
898.792	3606
898.913	3572
899.033	3393
899.153	3306
899.273	3233
899.393	3313
899.513	3344
899.633	3344
899.753	3344
899.873	3317
899.993	3382
900.113	3367
900.232	3412
900.352	3344
900.472	3302
900.591	3222
900.711	3313
900.83	3245
900.95	3416
901.069	3492
901.189	3359
901.308	3214
901.427	3127
901.546	3214
901.665	3325
901.784	3336
901.904	3230
902.023	3112
902.141	3032
902.26	2979
902.379	3165
902.498	3062
902.617	3081
902.735	3241
902.854	3222
902.973	3184
903.091	3077
903.21	3116
903.328	3146
903.446	3077
903.565	3085
903.683	3214
903.801	3119
903.919	3222
904.038	3283
904.156	3184
904.274	3279
904.392	3294
904.51	3313
904.627	3370
904.745	3435
904.863	3500
904.981	3298
905.098	3154
905.216	3203
905.334	3302
905.451	3325
905.569	3332
905.686	3424
905.803	3458
905.921	3287
906.038	3447
906.155	3405
906.272	3287
906.389	3340
906.506	3199
906.623	3245
906.74	3302
906.857	3199
906.974	3272
907.091	3477
907.208	3584
907.324	3477
907.441	3374
907.557	3253
907.674	3275
907.79	3207
907.907	3275
908.023	3401
908.139	3420
908.256	3306
908.372	3355
908.488	3359
908.604	3287
908.72	3245
908.836	3294
908.952	3275
909.068	3348
909.184	3458
909.3	3409
909.415	3477
909.531	3466
909.647	3260
909.762	3260
909.878	3287
909.993	3325
910.108	3359
910.224	3370
910.339	3351
910.454	3279
910.57	3294
910.685	3249
910.8	3568
910.915	3564
911.03	3447
911.145	3329
911.259	3306
911.374	3310
911.489	3256
911.604	3260
911.718	3127
911.833	3169
911.947	3024
912.062	2963
912.176	3165
912.291	3207
912.405	3214
912.519	3466
912.633	3469
912.748	3355
912.862	3291
912.976	3207
913.09	3074
913.204	3108
913.318	3218
913.431	3317
913.545	3310
913.659	3389
913.772	3363
913.886	3184
914	3199
914.113	3340
914.226	3397
914.34	3340
914.453	3245
914.566	3435
914.68	3336
914.793	3306
914.906	3161
915.019	3093
915.132	3100
915.245	3211
915.358	3211
915.47	3199
915.583	3264
915.696	3291
915.809	3401
915.921	3416
916.034	3249
916.146	3237
916.259	3256
916.371	3351
916.483	3370
916.595	3249
916.708	3340
916.82	3313
916.932	3382
917.044	3317
917.156	3332
917.268	3279
917.38	3313
917.491	3260
917.603	3386
917.715	3420
917.826	3458
917.938	3370
918.049	3268
918.161	3439
918.272	3587
918.384	3591
918.495	3511
918.606	3355
918.717	3241
918.828	3386
918.939	3409
919.05	3302
919.161	3378
919.272	3180
919.383	3325
919.494	3519
919.604	3663
919.715	3500
919.826	3386
919.936	3447
920.047	3580
920.157	3549
920.267	3781
920.378	3618
920.488	3538
920.598	3770
920.708	3945
920.818	3842
920.928	3823
921.038	4006
921.148	3998
921.258	3686
921.368	3652
921.477	3545
921.587	3557
921.697	3454
921.806	3641
921.916	3523
922.025	3317
922.134	3348
922.244	3348
922.353	3412
922.462	3329
922.571	3237
922.68	3093
922.789	3116
922.898	3097
923.007	3100
923.116	3176
923.224	3131
923.333	3207
923.442	3104
923.55	3100
923.659	3131
923.767	3207
923.876	3123
923.984	3207
924.092	3104
924.201	3184
924.309	3241
924.417	3245
924.525	3192
924.633	3256
924.741	4177
924.849	3058
924.956	3249
925.064	3081
925.172	3043
925.279	3097
925.387	3188
925.494	3173
925.602	3332
925.709	3298
925.816	3173
925.924	3256
926.031	3393
926.138	3363
926.245	3374
926.352	3253
926.459	3397
926.566	3466
926.673	3329
926.779	3279
926.886	3237
926.993	3169
927.099	3127
927.206	3116
927.312	3119
927.419	3222
927.525	3226
927.631	3306
927.737	3173
927.843	3116
927.95	3036
928.056	3119
928.162	3173
928.267	3241
928.373	3876
928.479	3321
928.585	3055
928.69	3214
928.796	3283
928.901	3199
929.007	3051
929.112	3218
929.218	3184
929.323	3123
929.428	3146
929.533	3279
929.638	3119
929.743	3161
929.848	3245
929.953	3176
930.058	3138
930.163	3001
930.267	3047
930.372	3192
930.477	3036
930.581	3287
930.685	3203
930.79	3085
930.894	3119
930.998	3085
931.103	3275
931.207	2952
931.311	2929
931.415	2925
931.519	2781
931.623	2777
