Data from test_V78500241_806.txt Node
Date: Fri Mar 25 16:20:47 CST 2022
User: usil
Spectrometer: V785-0024
Trigger mode: 0
Integration Time (sec): 4.000000E-1
Scans to average: 1
Nonlinearity correction enabled: false
Boxcar width: 0
Storing dark spectrum: false
XAxis mode: Wavelengths
Number of Pixels in Spectrum: 1024
>>>>>Begin Spectral Data<<<<<
801.071	2929
801.214	2979
801.356	2887
801.499	2910
801.641	2902
801.783	2960
801.926	3058
802.068	3009
802.211	3024
802.353	3055
802.496	2975
802.638	3039
802.78	3081
802.923	3058
803.065	3036
803.208	2899
803.35	2925
803.492	2963
803.635	2941
803.777	2785
803.919	2876
804.061	3203
804.204	2982
804.346	2929
804.488	2857
804.63	3043
804.773	2906
804.915	2941
805.057	3138
805.199	2971
805.341	2986
805.483	3058
805.626	3024
805.768	2963
805.91	3116
806.052	3150
806.194	3051
806.336	3253
806.478	3036
806.62	2986
806.762	2967
806.904	3062
807.046	3230
807.188	2990
807.33	2937
807.472	3028
807.614	2925
807.756	2986
807.898	2925
808.04	2914
808.182	3009
808.324	2998
808.465	2902
808.607	2883
808.749	2811
808.891	2807
809.033	3017
809.174	3001
809.316	2902
809.458	2933
809.6	2815
809.741	2796
809.883	2796
810.025	2861
810.166	2887
810.308	2830
810.45	2876
810.591	2781
810.733	2796
810.875	2853
811.016	2826
811.158	2777
811.299	2815
811.441	2910
811.582	2906
811.724	2838
811.865	2823
812.007	2952
812.148	2891
812.29	2895
812.431	2902
812.573	2948
812.714	3009
812.855	3043
812.997	3081
813.138	3157
813.279	3009
813.421	3017
813.562	2979
813.703	2895
813.845	2925
813.986	2781
814.127	2766
814.268	2834
814.41	2864
814.551	2823
814.692	2910
814.833	2849
814.974	2941
815.115	3017
815.256	2857
815.397	2834
815.539	2853
815.68	2807
815.821	2800
815.962	2956
816.103	2960
816.244	2910
816.385	2887
816.526	2990
816.666	2948
816.807	2735
816.948	2914
817.089	2914
817.23	2872
817.371	2750
817.512	2815
817.653	2880
817.793	2849
817.934	2910
818.075	2990
818.216	3017
818.356	3020
818.497	2880
818.638	2838
818.778	2830
818.919	2807
819.06	2766
819.2	2895
819.341	2838
819.481	2807
819.622	2979
819.762	3093
819.903	3047
820.043	2937
820.184	2922
820.324	2899
820.465	2998
820.605	3047
820.746	2982
820.886	2963
821.026	3154
821.167	3157
821.307	3249
821.447	3298
821.588	3256
821.728	3233
821.868	3203
822.008	3070
822.149	3173
822.289	3226
822.429	3127
822.569	3104
822.709	3237
822.849	3028
822.99	3062
823.13	3176
823.27	3192
823.41	3142
823.55	3154
823.69	3188
823.83	3222
823.97	3165
824.11	3001
824.25	2998
824.389	3070
824.529	3142
824.669	3089
824.809	3203
824.949	3218
825.089	3245
825.228	3154
825.368	3028
825.508	3001
825.648	2960
825.787	3036
825.927	3009
826.067	2952
826.206	2994
826.346	3085
826.485	3070
826.625	3089
826.765	3294
826.904	3253
827.044	2982
827.183	2952
827.323	2864
827.462	3020
827.601	2922
827.741	2948
827.88	2937
828.02	2853
828.159	2944
828.298	3039
828.437	3081
828.577	3043
828.716	3245
828.855	3085
828.994	2967
829.134	2895
829.273	2933
829.412	2891
829.551	2883
829.69	2910
829.829	3017
829.968	3146
830.107	2994
830.246	3028
830.385	2956
830.524	2910
830.663	2815
830.802	2758
830.941	2731
831.08	2697
831.219	2807
831.357	2766
831.496	2960
831.635	2724
831.774	2659
831.913	2674
832.051	2556
832.19	2568
832.329	2678
832.467	2575
832.606	2492
832.744	2575
832.883	2602
833.022	2590
833.16	2674
833.299	2686
833.437	2720
833.576	2693
833.714	2735
833.852	2708
833.991	2746
834.129	2857
834.267	2868
834.406	2811
834.544	2895
834.682	2883
834.821	2861
834.959	3066
835.097	2906
835.235	3100
835.373	3001
835.511	3047
835.65	2990
835.788	2967
835.926	2807
836.064	2796
836.202	2868
836.34	3085
836.478	3180
836.615	3062
836.753	3146
836.891	3218
837.029	3146
837.167	3131
837.305	3066
837.443	3051
837.58	2982
837.718	3135
837.856	3119
837.993	3043
838.131	3108
838.269	3131
838.406	3089
838.544	3112
838.681	2937
838.819	2925
838.956	2792
839.094	2853
839.231	2925
839.369	3024
839.506	3370
839.643	3279
839.781	3013
839.918	2960
840.055	3039
840.193	3070
840.33	3062
840.467	3097
840.604	3165
840.742	3416
840.879	3055
841.016	3055
841.153	3123
841.29	3386
841.427	3294
841.564	3287
841.701	3336
841.838	3176
841.975	3165
842.112	3233
842.249	3058
842.385	3043
842.522	3291
842.659	3081
842.796	3058
842.933	3085
843.069	3081
843.206	3043
843.343	3173
843.479	3058
843.616	3165
843.752	2918
843.889	2899
844.025	3108
844.162	2872
844.298	3089
844.435	2929
844.571	2922
844.708	3039
844.844	3157
844.98	3218
845.117	3222
845.253	3089
845.389	3043
845.525	3093
845.661	3123
845.798	3017
845.934	3127
846.07	3081
846.206	3245
846.342	3298
846.478	3211
846.614	3116
846.75	3036
846.886	3039
847.022	3245
847.158	3142
847.294	3245
847.429	3264
847.565	3237
847.701	3473
847.837	3051
847.972	3001
848.108	3138
848.244	3138
848.379	3009
848.515	2975
848.65	2906
848.786	2960
848.921	2990
849.057	3089
849.192	3138
849.328	3070
849.463	3100
849.598	3055
849.734	3051
849.869	2994
850.004	2918
850.14	2948
850.275	2918
850.41	2861
850.545	2861
850.68	2979
850.815	2963
850.95	2952
851.085	3211
851.22	3157
851.355	3009
851.49	2963
851.625	3001
851.76	3043
851.895	2960
852.03	2933
852.165	3028
852.299	3119
852.434	3199
852.569	3097
852.703	3192
852.838	3222
852.973	3332
853.107	3359
853.242	3199
853.376	3077
853.511	2971
853.645	3036
853.78	3256
853.914	3085
854.048	3089
854.183	3081
854.317	3169
854.451	3313
854.585	3142
854.72	3097
854.854	3218
854.988	3036
855.122	3081
855.256	2979
855.39	3093
855.524	3241
855.658	3192
855.792	3165
855.926	3199
856.06	3203
856.194	3260
856.327	3135
856.461	3119
856.595	3108
856.729	3108
856.862	3237
856.996	3146
857.13	3222
857.263	3253
857.397	3298
857.53	3138
857.664	3165
857.797	3253
857.931	3275
858.064	3180
858.197	3260
858.331	3165
858.464	3074
858.597	3036
858.731	3119
858.864	3138
858.997	3093
859.13	3169
859.263	3184
859.396	3195
859.529	3119
859.662	3070
859.795	3043
859.928	3108
860.061	3268
860.194	3268
860.327	3142
860.46	3104
860.592	3249
860.725	3211
860.858	3230
860.99	3131
861.123	3066
861.256	3024
861.388	3131
861.521	3983
861.653	2998
861.786	3009
861.918	3005
862.05	3039
862.183	3123
862.315	3146
862.447	3135
862.58	3108
862.712	2937
862.844	2861
862.976	3001
863.108	3013
863.24	3325
863.372	2864
863.504	2960
863.636	2975
863.768	2982
863.9	2990
864.032	2906
864.164	2963
864.296	3013
864.428	3104
864.559	3093
864.691	3017
864.823	3085
864.954	3028
865.086	3066
865.217	3039
865.349	2963
865.48	2986
865.612	3005
865.743	3150
865.875	2941
866.006	2914
866.137	2963
866.269	2922
866.4	2929
866.531	2937
866.662	2895
866.793	2910
866.924	2910
867.055	2975
867.186	2925
867.317	2918
867.448	2819
867.579	2853
867.71	2861
867.841	2826
867.972	2910
868.103	2891
868.233	2861
868.364	2876
868.495	2944
868.625	3097
868.756	3184
868.886	2975
869.017	3009
869.147	3123
869.278	3154
869.408	3074
869.539	3013
869.669	3142
869.799	3017
869.929	3146
870.06	3093
870.19	3325
870.32	3302
870.45	3283
870.58	3424
870.71	3450
870.84	3443
870.97	3268
871.1	3233
871.23	3530
871.36	3447
871.489	3363
871.619	3374
871.749	3397
871.879	3428
872.008	3507
872.138	3321
872.267	3306
872.397	3116
872.526	3093
872.656	3024
872.785	3081
872.915	3237
873.044	3302
873.173	3222
873.303	3264
873.432	3294
873.561	3195
873.69	3123
873.819	3135
873.948	3230
874.077	3135
874.206	3013
874.335	3081
874.464	3218
874.593	3363
874.722	3268
874.851	3382
874.979	3363
875.108	3321
875.237	3192
875.365	3180
875.494	3161
875.623	3237
875.751	3077
875.88	3097
876.008	3173
876.136	3230
876.265	3351
876.393	3526
876.521	3424
876.65	3389
876.778	3332
876.906	3260
877.034	3233
877.162	3237
877.29	3176
877.418	3233
877.546	3230
877.674	3241
877.802	3222
877.93	3211
878.058	3112
878.185	3077
878.313	3211
878.441	3203
878.568	3062
878.696	3161
878.824	3249
878.951	3302
879.079	3393
879.206	3633
879.333	3416
879.461	3317
879.588	3374
879.715	3500
879.842	3591
879.97	3374
880.097	3176
880.224	3131
880.351	3192
880.478	3218
880.605	3199
880.732	3169
880.859	3488
880.986	3283
881.112	3313
881.239	3192
881.366	3116
881.493	3058
881.619	3009
881.746	3032
881.872	3081
881.999	3127
882.125	3146
882.252	3253
882.378	3317
882.505	3431
882.631	3253
882.757	3142
882.883	3203
883.01	3253
883.136	3131
883.262	3074
883.388	3135
883.514	3340
883.64	3378
883.766	3287
883.892	3195
884.018	3192
884.143	3428
884.269	3519
884.395	3245
884.52	3173
884.646	3203
884.772	3157
884.897	3093
885.023	3211
885.148	3287
885.274	3424
885.399	3389
885.524	3317
885.65	3245
885.775	3302
885.9	3298
886.025	3454
886.15	3336
886.275	3294
886.4	3226
886.525	3329
886.65	3237
886.775	3291
886.9	3492
887.025	3610
887.149	3420
887.274	3260
887.399	3192
887.523	3180
887.648	3161
887.773	3180
887.897	3367
888.021	3412
888.146	3275
888.27	3420
888.395	3511
888.519	3401
888.643	3477
888.767	3431
888.891	3325
889.015	3203
889.139	3283
889.263	3268
889.387	3367
889.511	3523
889.635	3447
889.759	3279
889.883	3294
890.006	3359
890.13	3469
890.254	3260
890.377	3397
890.501	3241
890.624	3161
890.748	3294
890.871	3184
890.995	3127
891.118	3074
891.241	3207
891.364	3199
891.488	3332
891.611	3184
891.734	3226
891.857	3298
891.98	3192
892.103	3283
892.226	3214
892.349	3195
892.471	3127
892.594	3306
892.717	3310
892.839	3283
892.962	3325
893.085	3340
893.207	3260
893.33	3142
893.452	3165
893.575	3348
893.697	3249
893.819	3416
893.941	3443
894.064	3447
894.186	3245
894.308	3279
894.43	3420
894.552	3534
894.674	3439
894.796	3287
894.918	3279
895.04	3294
895.161	3469
895.283	3389
895.405	3336
895.526	3382
895.648	3439
895.769	3454
895.891	3466
896.012	3454
896.134	3469
896.255	3389
896.376	3401
896.498	3329
896.619	3420
896.74	3317
896.861	3336
896.982	3675
897.103	3861
897.224	3599
897.345	3500
897.466	3435
897.587	3496
897.708	3599
897.828	3538
897.949	3439
898.07	3332
898.19	3412
898.311	3606
898.431	3443
898.552	3519
898.672	3584
898.792	3606
898.913	3526
899.033	3363
899.153	3245
899.273	3268
899.393	3306
899.513	3294
899.633	3294
899.753	3325
899.873	3336
899.993	3378
900.113	3313
900.232	3355
900.352	3348
900.472	3321
900.591	3176
900.711	3291
900.83	3237
900.95	3405
901.069	3477
901.189	3355
901.308	3176
901.427	3131
901.546	3165
901.665	3298
901.784	3351
901.904	3211
902.023	3112
902.141	3043
902.26	2990
902.379	3085
902.498	3051
902.617	3047
902.735	3173
902.854	3211
902.973	3195
903.091	3028
903.21	3062
903.328	3150
903.446	3108
903.565	3127
903.683	3146
903.801	3119
903.919	3268
904.038	3279
904.156	3188
904.274	3302
904.392	3237
904.51	3287
904.627	3298
904.745	3481
904.863	3481
904.981	3275
905.098	3188
905.216	3256
905.334	3272
905.451	3249
905.569	3294
905.686	3447
905.803	3428
905.921	3275
906.038	3409
906.155	3355
906.272	3275
906.389	3340
906.506	3241
906.623	3253
906.74	3237
906.857	3184
906.974	3264
907.091	3428
907.208	3561
907.324	3492
907.441	3348
907.557	3230
907.674	3230
907.79	3214
907.907	3298
908.023	3355
908.139	3344
908.256	3378
908.372	3386
908.488	3374
908.604	3256
908.72	3233
908.836	3264
908.952	3294
909.068	3355
909.184	3443
909.3	3374
909.415	3515
909.531	3458
909.647	3294
909.762	3268
909.878	3272
909.993	3340
910.108	3374
910.224	3359
910.339	3443
910.454	3340
910.57	3272
910.685	3249
910.8	3553
910.915	3504
911.03	3454
911.145	3268
911.259	3287
911.374	3298
911.489	3264
911.604	3222
911.718	3119
911.833	3165
911.947	3036
912.062	2979
912.176	3176
912.291	3173
912.405	3184
912.519	3412
912.633	3416
912.748	3336
912.862	3253
912.976	3180
913.09	3062
913.204	3138
913.318	3222
913.431	3351
913.545	3310
913.659	3401
913.772	3344
913.886	3192
914	3203
914.113	3355
914.226	3435
914.34	3351
914.453	3226
914.566	3420
914.68	3256
914.793	3313
914.906	3119
915.019	3100
915.132	3043
915.245	3192
915.358	3260
915.47	3203
915.583	3253
915.696	3313
915.809	3420
915.921	3409
916.034	3325
916.146	3218
916.259	3226
916.371	3348
916.483	3378
916.595	3256
916.708	3340
916.82	3325
916.932	3325
917.044	3329
917.156	3336
917.268	3230
917.38	3325
917.491	3336
917.603	3351
917.715	3462
917.826	3492
917.938	3367
918.049	3214
918.161	3450
918.272	3606
918.384	3595
918.495	3496
918.606	3340
918.717	3233
918.828	3412
918.939	3420
919.05	3275
919.161	3386
919.272	3192
919.383	3268
919.494	3519
919.604	3660
919.715	3485
919.826	3431
919.936	3477
920.047	3572
920.157	3576
920.267	3747
920.378	3538
920.488	3549
920.598	3797
920.708	3922
920.818	3800
920.928	3835
921.038	4025
921.148	3949
921.258	3694
921.368	3622
921.477	3576
921.587	3564
921.697	3428
921.806	3625
921.916	3530
922.025	3367
922.134	3359
922.244	3291
922.353	3428
922.462	3272
922.571	3222
922.68	3104
922.789	3097
922.898	3135
923.007	3089
923.116	3207
923.224	3199
923.333	3184
923.442	3093
923.55	3066
923.659	3116
923.767	3188
923.876	3089
923.984	3233
924.092	3085
924.201	3192
924.309	3222
924.417	3264
924.525	3161
924.633	3310
924.741	4219
924.849	3066
924.956	3253
925.064	3093
925.172	3051
925.279	3077
925.387	3165
925.494	3195
925.602	3348
925.709	3321
925.816	3214
925.924	3268
926.031	3367
926.138	3287
926.245	3351
926.352	3260
926.459	3412
926.566	3473
926.673	3329
926.779	3272
926.886	3249
926.993	3138
927.099	3131
927.206	3112
927.312	3116
927.419	3256
927.525	3233
927.631	3222
927.737	3157
927.843	3135
927.95	3032
928.056	3146
928.162	3161
928.267	3272
928.373	3766
928.479	3298
928.585	3058
928.69	3222
928.796	3291
928.901	3218
929.007	3066
929.112	3195
929.218	3192
929.323	3138
929.428	3142
929.533	3272
929.638	3112
929.743	3150
929.848	3256
929.953	3188
930.058	3138
930.163	2986
930.267	3066
930.372	3169
930.477	3039
930.581	3329
930.685	3154
930.79	3055
930.894	3135
930.998	3112
931.103	3279
931.207	2952
931.311	2925
931.415	2929
931.519	2788
931.623	2792
