Data from test_V78500241_1337.txt Node
Date: Fri Mar 25 16:24:27 CST 2022
User: usil
Spectrometer: V785-0024
Trigger mode: 0
Integration Time (sec): 4.000000E-1
Scans to average: 1
Nonlinearity correction enabled: false
Boxcar width: 0
Storing dark spectrum: false
XAxis mode: Wavelengths
Number of Pixels in Spectrum: 1024
>>>>>Begin Spectral Data<<<<<
801.071	2895
801.214	2944
801.356	2849
801.499	2876
801.641	2864
801.783	2902
801.926	3081
802.068	2967
802.211	2994
802.353	3051
802.496	2941
802.638	3001
802.78	3017
802.923	3062
803.065	3001
803.208	2864
803.35	2906
803.492	2918
803.635	2910
803.777	2766
803.919	2823
804.061	3188
804.204	2963
804.346	2880
804.488	2838
804.63	2979
804.773	2819
804.915	2887
805.057	3081
805.199	2933
805.341	2960
805.483	3043
805.626	2986
805.768	2998
805.91	3100
806.052	3116
806.194	3032
806.336	3203
806.478	3013
806.62	2941
806.762	2979
806.904	3036
807.046	3157
807.188	2944
807.33	2902
807.472	2975
807.614	2876
807.756	3032
807.898	2918
808.04	2887
808.182	2952
808.324	2887
808.465	2857
808.607	2876
808.749	2754
808.891	2819
809.033	2960
809.174	2960
809.316	2872
809.458	2910
809.6	2746
809.741	2777
809.883	2792
810.025	2842
810.166	2853
810.308	2823
810.45	2838
810.591	2754
810.733	2758
810.875	2845
811.016	2777
811.158	2781
811.299	2796
811.441	2918
811.582	2895
811.724	2826
811.865	2857
812.007	2876
812.148	2887
812.29	2849
812.431	2883
812.573	2941
812.714	2956
812.855	3055
812.997	3058
813.138	3066
813.279	2994
813.421	3005
813.562	2937
813.703	2891
813.845	2876
813.986	2788
814.127	2720
814.268	2849
814.41	2838
814.551	2811
814.692	2857
814.833	2807
814.974	2914
815.115	2952
815.256	2815
815.397	2792
815.539	2830
815.68	2804
815.821	2792
815.962	2963
816.103	2933
816.244	2864
816.385	2872
816.526	2967
816.666	2925
816.807	2727
816.948	2876
817.089	2864
817.23	2845
817.371	2773
817.512	2804
817.653	2811
817.793	2842
817.934	2864
818.075	2971
818.216	2986
818.356	3017
818.497	2883
818.638	2762
818.778	2804
818.919	2815
819.06	2785
819.2	2830
819.341	2804
819.481	2819
819.622	2906
819.762	3089
819.903	3066
820.043	2929
820.184	2883
820.324	2887
820.465	3009
820.605	3051
820.746	3051
820.886	2929
821.026	3104
821.167	3116
821.307	3233
821.447	3306
821.588	3222
821.728	3184
821.868	3203
822.008	3066
822.149	3184
822.289	3188
822.429	3093
822.569	3100
822.709	3184
822.849	3028
822.99	3051
823.13	3131
823.27	3188
823.41	3089
823.55	3127
823.69	3127
823.83	3184
823.97	3116
824.11	2986
824.25	2971
824.389	3036
824.529	3085
824.669	3043
824.809	3195
824.949	3272
825.089	3233
825.228	3176
825.368	3009
825.508	2933
825.648	2986
825.787	3009
825.927	3028
826.067	3013
826.206	2956
826.346	3051
826.485	3051
826.625	3089
826.765	3237
826.904	3211
827.044	2990
827.183	2929
827.323	2876
827.462	2998
827.601	2902
827.741	2933
827.88	2948
828.02	2845
828.159	2975
828.298	3036
828.437	3085
828.577	3051
828.716	3203
828.855	3055
828.994	2910
829.134	2887
829.273	2872
829.412	2800
829.551	2849
829.69	2872
829.829	2982
829.968	3146
830.107	3005
830.246	3020
830.385	2925
830.524	2887
830.663	2773
830.802	2686
830.941	2621
831.08	2659
831.219	2754
831.357	2777
831.496	2948
831.635	2693
831.774	2663
831.913	2674
832.051	2537
832.19	2537
832.329	2674
832.467	2541
832.606	2473
832.744	2587
832.883	2590
833.022	2606
833.16	2663
833.299	2689
833.437	2640
833.576	2712
833.714	2727
833.852	2743
833.991	2758
834.129	2868
834.267	2811
834.406	2777
834.544	2853
834.682	2849
834.821	2872
834.959	3070
835.097	2899
835.235	3066
835.373	3013
835.511	3058
835.65	2956
835.788	2937
835.926	2842
836.064	2800
836.202	2849
836.34	3081
836.478	3146
836.615	3077
836.753	3085
836.891	3218
837.029	3154
837.167	3104
837.305	3013
837.443	3024
837.58	2982
837.718	3116
837.856	3028
837.993	3051
838.131	3112
838.269	3085
838.406	3104
838.544	3074
838.681	2944
838.819	2857
838.956	2807
839.094	2838
839.231	2944
839.369	2998
839.506	3386
839.643	3188
839.781	3028
839.918	2941
840.055	3070
840.193	3036
840.33	3055
840.467	3100
840.604	3176
840.742	3393
840.879	3032
841.016	3009
841.153	3150
841.29	3302
841.427	3260
841.564	3268
841.701	3336
841.838	3207
841.975	3157
842.112	3203
842.249	3100
842.385	3036
842.522	3249
842.659	3055
842.796	3074
842.933	3100
843.069	3062
843.206	3058
843.343	3131
843.479	3081
843.616	3146
843.752	2891
843.889	2861
844.025	3051
844.162	2838
844.298	3119
844.435	2941
844.571	2899
844.708	3062
844.844	3176
844.98	3222
845.117	3188
845.253	3062
845.389	2982
845.525	3081
845.661	3077
845.798	3013
845.934	3150
846.07	3036
846.206	3222
846.342	3310
846.478	3173
846.614	3070
846.75	3020
846.886	3020
847.022	3230
847.158	3142
847.294	3150
847.429	3237
847.565	3226
847.701	3428
847.837	3005
847.972	3009
848.108	3146
848.244	3138
848.379	3001
848.515	2922
848.65	2925
848.786	2941
848.921	2990
849.057	3104
849.192	3154
849.328	3085
849.463	3089
849.598	3070
849.734	2998
849.869	2971
850.004	2895
850.14	2963
850.275	2902
850.41	2807
850.545	2868
850.68	2967
850.815	2948
850.95	2944
851.085	3165
851.22	3100
851.355	3001
851.49	2963
851.625	2960
851.76	3001
851.895	2914
852.03	2895
852.165	3020
852.299	3127
852.434	3180
852.569	3127
852.703	3173
852.838	3233
852.973	3306
853.107	3329
853.242	3146
853.376	3058
853.511	2975
853.645	3085
853.78	3241
853.914	3058
854.048	3051
854.183	3039
854.317	3142
854.451	3298
854.585	3161
854.72	3081
854.854	3230
854.988	3043
855.122	3058
855.256	2979
855.39	3070
855.524	3214
855.658	3188
855.792	3142
855.926	3176
856.06	3203
856.194	3230
856.327	3154
856.461	3066
856.595	3074
856.729	3097
856.862	3241
856.996	3180
857.13	3188
857.263	3249
857.397	3272
857.53	3089
857.664	3195
857.797	3222
857.931	3233
858.064	3150
858.197	3249
858.331	3077
858.464	3097
858.597	3028
858.731	3108
858.864	3116
858.997	3058
859.13	3131
859.263	3199
859.396	3176
859.529	3077
859.662	3013
859.795	3017
859.928	3127
860.061	3291
860.194	3272
860.327	3116
860.46	3055
860.592	3230
860.725	3222
860.858	3268
860.99	3093
861.123	3097
861.256	3017
861.388	3123
861.521	3701
861.653	3013
861.786	2986
861.918	2998
862.05	3066
862.183	3055
862.315	3157
862.447	3169
862.58	3100
862.712	2937
862.844	2902
862.976	3017
863.108	2994
863.24	3279
863.372	2864
863.504	2952
863.636	2956
863.768	3005
863.9	2982
864.032	2876
864.164	2944
864.296	3020
864.428	3066
864.559	3085
864.691	3085
864.823	3013
864.954	3005
865.086	3062
865.217	2982
865.349	2963
865.48	2998
865.612	3032
865.743	3138
865.875	2956
866.006	2952
866.137	2933
866.269	2956
866.4	2952
866.531	2914
866.662	2887
866.793	2853
866.924	2887
867.055	2971
867.186	2933
867.317	2910
867.448	2838
867.579	2853
867.71	2845
867.841	2845
867.972	2895
868.103	2910
868.233	2891
868.364	2887
868.495	2861
868.625	3066
868.756	3157
868.886	2944
869.017	2975
869.147	3169
869.278	3180
869.408	3020
869.539	3001
869.669	3081
869.799	3051
869.929	3146
870.06	3119
870.19	3329
870.32	3264
870.45	3260
870.58	3355
870.71	3420
870.84	3428
870.97	3260
871.1	3207
871.23	3458
871.36	3424
871.489	3336
871.619	3355
871.749	3363
871.879	3443
872.008	3466
872.138	3359
872.267	3260
872.397	3119
872.526	3119
872.656	2986
872.785	3058
872.915	3211
873.044	3310
873.173	3192
873.303	3256
873.432	3256
873.561	3253
873.69	3142
873.819	3135
873.948	3169
874.077	3112
874.206	3047
874.335	3074
874.464	3154
874.593	3325
874.722	3245
874.851	3363
874.979	3332
875.108	3291
875.237	3184
875.365	3150
875.494	3176
875.623	3283
875.751	3093
875.88	3112
876.008	3146
876.136	3203
876.265	3367
876.393	3492
876.521	3393
876.65	3378
876.778	3332
876.906	3256
877.034	3192
877.162	3230
877.29	3154
877.418	3264
877.546	3249
877.674	3226
877.802	3188
877.93	3222
878.058	3157
878.185	3051
878.313	3157
878.441	3226
878.568	3070
878.696	3154
878.824	3256
878.951	3291
879.079	3416
879.206	3606
879.333	3454
879.461	3359
879.588	3344
879.715	3447
879.842	3568
879.97	3370
880.097	3161
880.224	3097
880.351	3195
880.478	3199
880.605	3161
880.732	3154
880.859	3511
880.986	3306
881.112	3302
881.239	3199
881.366	3081
881.493	3001
881.619	3024
881.746	3058
881.872	3097
881.999	3085
882.125	3119
882.252	3233
882.378	3298
882.505	3450
882.631	3275
882.757	3142
882.883	3184
883.01	3222
883.136	3142
883.262	3085
883.388	3142
883.514	3268
883.64	3367
883.766	3272
883.892	3245
884.018	3253
884.143	3393
884.269	3530
884.395	3169
884.52	3180
884.646	3176
884.772	3116
884.897	3058
885.023	3154
885.148	3302
885.274	3370
885.399	3332
885.524	3245
885.65	3245
885.775	3310
885.9	3222
886.025	3397
886.15	3355
886.275	3317
886.4	3214
886.525	3283
886.65	3294
886.775	3268
886.9	3469
887.025	3622
887.149	3401
887.274	3256
887.399	3176
887.523	3180
887.648	3203
887.773	3192
887.897	3348
888.021	3412
888.146	3268
888.27	3405
888.395	3564
888.519	3424
888.643	3424
888.767	3447
888.891	3275
889.015	3211
889.139	3207
889.263	3211
889.387	3420
889.511	3488
889.635	3420
889.759	3268
889.883	3313
890.006	3386
890.13	3466
890.254	3237
890.377	3321
890.501	3154
890.624	3142
890.748	3272
890.871	3184
890.995	3089
891.118	3032
891.241	3211
891.364	3207
891.488	3298
891.611	3169
891.734	3214
891.857	3268
891.98	3237
892.103	3336
892.226	3226
892.349	3222
892.471	3081
892.594	3180
892.717	3241
892.839	3275
892.962	3294
893.085	3302
893.207	3325
893.33	3154
893.452	3176
893.575	3397
893.697	3287
893.819	3439
893.941	3469
894.064	3435
894.186	3283
894.308	3302
894.43	3450
894.552	3538
894.674	3469
894.796	3275
894.918	3336
895.04	3317
895.161	3466
895.283	3397
895.405	3344
895.526	3409
895.648	3447
895.769	3416
895.891	3450
896.012	3488
896.134	3462
896.255	3420
896.376	3416
896.498	3370
896.619	3466
896.74	3382
896.861	3443
896.982	3732
897.103	3892
897.224	3622
897.345	3545
897.466	3485
897.587	3534
897.708	3660
897.828	3584
897.949	3443
898.07	3340
898.19	3443
898.311	3622
898.431	3485
898.552	3526
898.672	3648
898.792	3641
898.913	3534
899.033	3458
899.153	3336
899.273	3249
899.393	3332
899.513	3416
899.633	3348
899.753	3378
899.873	3340
899.993	3412
900.113	3382
900.232	3424
900.352	3405
900.472	3317
900.591	3214
900.711	3313
900.83	3272
900.95	3488
901.069	3500
901.189	3367
901.308	3218
901.427	3146
901.546	3184
901.665	3310
901.784	3374
901.904	3222
902.023	3157
902.141	3055
902.26	3020
902.379	3150
902.498	3127
902.617	3085
902.735	3249
902.854	3253
902.973	3214
903.091	3104
903.21	3116
903.328	3135
903.446	3161
903.565	3108
903.683	3226
903.801	3188
903.919	3275
904.038	3329
904.156	3218
904.274	3336
904.392	3287
904.51	3329
904.627	3355
904.745	3450
904.863	3519
904.981	3294
905.098	3222
905.216	3256
905.334	3344
905.451	3359
905.569	3348
905.686	3473
905.803	3466
905.921	3325
906.038	3462
906.155	3363
906.272	3310
906.389	3351
906.506	3237
906.623	3256
906.74	3332
906.857	3188
906.974	3287
907.091	3454
907.208	3568
907.324	3488
907.441	3431
907.557	3233
907.674	3230
907.79	3268
907.907	3325
908.023	3435
908.139	3367
908.256	3389
908.372	3332
908.488	3416
908.604	3275
908.72	3249
908.836	3317
908.952	3283
909.068	3401
909.184	3523
909.3	3409
909.415	3500
909.531	3481
909.647	3264
909.762	3298
909.878	3291
909.993	3405
910.108	3325
910.224	3374
910.339	3443
910.454	3348
910.57	3340
910.685	3260
910.8	3606
910.915	3576
911.03	3458
911.145	3340
911.259	3313
911.374	3397
911.489	3241
911.604	3260
911.718	3112
911.833	3203
911.947	3047
912.062	2994
912.176	3211
912.291	3245
912.405	3203
912.519	3462
912.633	3477
912.748	3374
912.862	3283
912.976	3184
913.09	3116
913.204	3146
913.318	3207
913.431	3359
913.545	3386
913.659	3466
913.772	3367
913.886	3256
914	3241
914.113	3397
914.226	3401
914.34	3409
914.453	3287
914.566	3477
914.68	3302
914.793	3367
914.906	3176
915.019	3146
915.132	3100
915.245	3230
915.358	3283
915.47	3325
915.583	3306
915.696	3313
915.809	3458
915.921	3488
916.034	3283
916.146	3294
916.259	3249
916.371	3397
916.483	3405
916.595	3313
916.708	3363
916.82	3367
916.932	3367
917.044	3389
917.156	3348
917.268	3298
917.38	3321
917.491	3332
917.603	3424
917.715	3500
917.826	3488
917.938	3435
918.049	3351
918.161	3439
918.272	3629
918.384	3599
918.495	3576
918.606	3386
918.717	3344
918.828	3405
918.939	3439
919.05	3344
919.161	3401
919.272	3218
919.383	3291
919.494	3545
919.604	3736
919.715	3534
919.826	3447
919.936	3469
920.047	3557
920.157	3606
920.267	3800
920.378	3622
920.488	3595
920.598	3781
920.708	3991
920.818	3880
920.928	3861
921.038	4048
921.148	4032
921.258	3720
921.368	3652
921.477	3584
921.587	3584
921.697	3492
921.806	3652
921.916	3561
922.025	3401
922.134	3363
922.244	3332
922.353	3401
922.462	3272
922.571	3245
922.68	3135
922.789	3127
922.898	3169
923.007	3112
923.116	3218
923.224	3207
923.333	3211
923.442	3146
923.55	3108
923.659	3142
923.767	3268
923.876	3135
923.984	3245
924.092	3131
924.201	3241
924.309	3230
924.417	3310
924.525	3192
924.633	3256
924.741	4017
924.849	3119
924.956	3291
925.064	3123
925.172	3055
925.279	3150
925.387	3222
925.494	3211
925.602	3351
925.709	3351
925.816	3230
925.924	3313
926.031	3393
926.138	3355
926.245	3401
926.352	3291
926.459	3454
926.566	3485
926.673	3302
926.779	3325
926.886	3325
926.993	3192
927.099	3123
927.206	3081
927.312	3173
927.419	3241
927.525	3237
927.631	3340
927.737	3161
927.843	3157
927.95	3058
928.056	3161
928.162	3169
928.267	3287
928.373	3857
928.479	3325
928.585	3100
928.69	3173
928.796	3287
928.901	3226
929.007	3058
929.112	3245
929.218	3192
929.323	3138
929.428	3169
929.533	3325
929.638	3097
929.743	3184
929.848	3268
929.953	3241
930.058	3161
930.163	3017
930.267	3081
930.372	3253
930.477	3077
930.581	3363
930.685	3214
930.79	3028
930.894	3192
930.998	3085
931.103	3275
931.207	2971
931.311	2971
931.415	2937
931.519	2849
931.623	2811
