Data from test_V78500241_1978.txt Node
Date: Fri Mar 25 16:28:54 CST 2022
User: usil
Spectrometer: V785-0024
Trigger mode: 0
Integration Time (sec): 4.000000E-1
Scans to average: 1
Nonlinearity correction enabled: false
Boxcar width: 0
Storing dark spectrum: false
XAxis mode: Wavelengths
Number of Pixels in Spectrum: 1024
>>>>>Begin Spectral Data<<<<<
801.071	2922
801.214	2956
801.356	2868
801.499	2910
801.641	2876
801.783	2902
801.926	2998
802.068	2963
802.211	2982
802.353	3066
802.496	2937
802.638	3009
802.78	3074
802.923	3028
803.065	2944
803.208	2883
803.35	2868
803.492	2902
803.635	2910
803.777	2766
803.919	2857
804.061	3123
804.204	2944
804.346	2899
804.488	2853
804.63	2994
804.773	2880
804.915	2944
805.057	3070
805.199	2895
805.341	2967
805.483	3013
805.626	2963
805.768	2963
805.91	3074
806.052	3089
806.194	3043
806.336	3211
806.478	2998
806.62	2918
806.762	2937
806.904	3039
807.046	3192
807.188	2979
807.33	2918
807.472	3001
807.614	2925
807.756	2960
807.898	2914
808.04	2910
808.182	2948
808.324	2937
808.465	2891
808.607	2857
808.749	2769
808.891	2845
809.033	2914
809.174	2971
809.316	2910
809.458	2918
809.6	2815
809.741	2792
809.883	2727
810.025	2823
810.166	2838
810.308	2838
810.45	2826
810.591	2792
810.733	2792
810.875	2804
811.016	2766
811.158	2785
811.299	2773
811.441	2895
811.582	2933
811.724	2830
811.865	2800
812.007	2925
812.148	2861
812.29	2849
812.431	2883
812.573	2941
812.714	2982
812.855	3024
812.997	3036
813.138	3108
813.279	3028
813.421	3001
813.562	2891
813.703	2872
813.845	2880
813.986	2777
814.127	2716
814.268	2823
814.41	2830
814.551	2861
814.692	2906
814.833	2788
814.974	2910
815.115	2941
815.256	2819
815.397	2777
815.539	2830
815.68	2746
815.821	2769
815.962	2937
816.103	2895
816.244	2861
816.385	2880
816.526	2948
816.666	2895
816.807	2724
816.948	2887
817.089	2910
817.23	2842
817.371	2777
817.512	2815
817.653	2872
817.793	2823
817.934	2864
818.075	2994
818.216	2990
818.356	3009
818.497	2876
818.638	2804
818.778	2842
818.919	2762
819.06	2708
819.2	2880
819.341	2815
819.481	2811
819.622	2914
819.762	3062
819.903	3028
820.043	2914
820.184	2899
820.324	2895
820.465	2963
820.605	2998
820.746	2982
820.886	2952
821.026	3081
821.167	3180
821.307	3253
821.447	3287
821.588	3256
821.728	3230
821.868	3180
822.008	3051
822.149	3207
822.289	3207
822.429	3081
822.569	3100
822.709	3161
822.849	3013
822.99	3028
823.13	3135
823.27	3199
823.41	3119
823.55	3119
823.69	3150
823.83	3146
823.97	3097
824.11	3024
824.25	2994
824.389	3043
824.529	3131
824.669	3032
824.809	3188
824.949	3233
825.089	3161
825.228	3146
825.368	2975
825.508	3001
825.648	2971
825.787	3032
825.927	2986
826.067	2971
826.206	2948
826.346	3055
826.485	3039
826.625	3104
826.765	3241
826.904	3230
827.044	2994
827.183	2925
827.323	2883
827.462	3005
827.601	2872
827.741	2910
827.88	2929
828.02	2830
828.159	2956
828.298	3005
828.437	3150
828.577	3001
828.716	3249
828.855	3070
828.994	2880
829.134	2887
829.273	2960
829.412	2853
829.551	2845
829.69	2925
829.829	2979
829.968	3093
830.107	3009
830.246	3009
830.385	2910
830.524	2891
830.663	2807
830.802	2724
830.941	2674
831.08	2629
831.219	2746
831.357	2781
831.496	2944
831.635	2731
831.774	2651
831.913	2629
832.051	2556
832.19	2564
832.329	2640
832.467	2552
832.606	2454
832.744	2575
832.883	2556
833.022	2606
833.16	2629
833.299	2663
833.437	2705
833.576	2667
833.714	2731
833.852	2743
833.991	2766
834.129	2838
834.267	2849
834.406	2758
834.544	2876
834.682	2868
834.821	2842
834.959	3047
835.097	2880
835.235	3070
835.373	3017
835.511	2971
835.65	2937
835.788	2967
835.926	2796
836.064	2823
836.202	2815
836.34	3051
836.478	3116
836.615	3085
836.753	3123
836.891	3211
837.029	3131
837.167	3089
837.305	3058
837.443	3058
837.58	2990
837.718	3154
837.856	3070
837.993	3036
838.131	3093
838.269	3100
838.406	3047
838.544	3047
838.681	2925
838.819	2891
838.956	2777
839.094	2853
839.231	2887
839.369	3005
839.506	3348
839.643	3192
839.781	2994
839.918	2944
840.055	3036
840.193	3024
840.33	3058
840.467	3097
840.604	3146
840.742	3439
840.879	3005
841.016	3055
841.153	3089
841.29	3332
841.427	3275
841.564	3279
841.701	3298
841.838	3203
841.975	3192
842.112	3192
842.249	3093
842.385	3020
842.522	3245
842.659	3062
842.796	3058
842.933	3066
843.069	3017
843.206	3020
843.343	3146
843.479	3100
843.616	3135
843.752	2868
843.889	2853
844.025	3062
844.162	2868
844.298	3058
844.435	2967
844.571	2929
844.708	3066
844.844	3214
844.98	3214
845.117	3180
845.253	3005
845.389	2998
845.525	3077
845.661	3081
845.798	3017
845.934	3135
846.07	3032
846.206	3218
846.342	3336
846.478	3249
846.614	3089
846.75	3070
846.886	3009
847.022	3268
847.158	3085
847.294	3135
847.429	3245
847.565	3211
847.701	3515
847.837	3009
847.972	3009
848.108	3157
848.244	3112
848.379	2990
848.515	2960
848.65	2918
848.786	2956
848.921	3024
849.057	3123
849.192	3127
849.328	3070
849.463	3077
849.598	3013
849.734	3032
849.869	2956
850.004	2941
850.14	2952
850.275	2899
850.41	2845
850.545	2868
850.68	2960
850.815	2960
850.95	2937
851.085	3188
851.22	3108
851.355	3032
851.49	2986
851.625	3001
851.76	2986
851.895	2963
852.03	2941
852.165	3036
852.299	3104
852.434	3165
852.569	3146
852.703	3192
852.838	3241
852.973	3325
853.107	3313
853.242	3131
853.376	3062
853.511	2971
853.645	3005
853.78	3233
853.914	3119
854.048	3116
854.183	3108
854.317	3161
854.451	3298
854.585	3112
854.72	3070
854.854	3135
854.988	3055
855.122	3062
855.256	2960
855.39	3100
855.524	3256
855.658	3176
855.792	3142
855.926	3203
856.06	3245
856.194	3272
856.327	3207
856.461	3062
856.595	3116
856.729	3085
856.862	3222
856.996	3123
857.13	3214
857.263	3253
857.397	3272
857.53	3093
857.664	3218
857.797	3222
857.931	3275
858.064	3150
858.197	3218
858.331	3157
858.464	3104
858.597	2967
858.731	3135
858.864	3131
858.997	3119
859.13	3150
859.263	3138
859.396	3157
859.529	3154
859.662	3074
859.795	3013
859.928	3142
860.061	3237
860.194	3268
860.327	3108
860.46	3089
860.592	3203
860.725	3230
860.858	3253
860.99	3077
861.123	3085
861.256	2990
861.388	3142
861.521	3854
861.653	2990
861.786	2975
861.918	2979
862.05	3066
862.183	3089
862.315	3176
862.447	3184
862.58	3058
862.712	2918
862.844	2845
862.976	3009
863.108	2986
863.24	3405
863.372	2861
863.504	2956
863.636	2929
863.768	3036
863.9	2986
864.032	2918
864.164	2960
864.296	3028
864.428	3043
864.559	3123
864.691	3070
864.823	3066
864.954	3032
865.086	3036
865.217	2963
865.349	2944
865.48	2986
865.612	2982
865.743	3142
865.875	2990
866.006	2933
866.137	2998
866.269	2925
866.4	2922
866.531	2922
866.662	2861
866.793	2883
866.924	2880
867.055	2975
867.186	2941
867.317	2902
867.448	2838
867.579	2876
867.71	2815
867.841	2826
867.972	2906
868.103	2864
868.233	2868
868.364	2902
868.495	2914
868.625	3085
868.756	3237
868.886	2956
869.017	3001
869.147	3157
869.278	3138
869.408	3055
869.539	2952
869.669	3127
869.799	3055
869.929	3138
870.06	3108
870.19	3275
870.32	3253
870.45	3253
870.58	3363
870.71	3416
870.84	3458
870.97	3264
871.1	3214
871.23	3466
871.36	3447
871.489	3325
871.619	3378
871.749	3428
871.879	3420
872.008	3477
872.138	3378
872.267	3298
872.397	3131
872.526	3108
872.656	3013
872.785	3055
872.915	3233
873.044	3336
873.173	3230
873.303	3298
873.432	3237
873.561	3218
873.69	3142
873.819	3135
873.948	3188
874.077	3085
874.206	3058
874.335	3085
874.464	3157
874.593	3359
874.722	3256
874.851	3374
874.979	3332
875.108	3340
875.237	3211
875.365	3161
875.494	3188
875.623	3260
875.751	3081
875.88	3093
876.008	3214
876.136	3226
876.265	3313
876.393	3469
876.521	3405
876.65	3389
876.778	3329
876.906	3249
877.034	3195
877.162	3180
877.29	3188
877.418	3256
877.546	3275
877.674	3245
877.802	3222
877.93	3214
878.058	3150
878.185	3108
878.313	3188
878.441	3180
878.568	3081
878.696	3173
878.824	3249
878.951	3298
879.079	3443
879.206	3610
879.333	3401
879.461	3306
879.588	3393
879.715	3450
879.842	3587
879.97	3409
880.097	3127
880.224	3104
880.351	3214
880.478	3192
880.605	3188
880.732	3135
880.859	3469
880.986	3298
881.112	3351
881.239	3207
881.366	3066
881.493	3043
881.619	3009
881.746	3089
881.872	3077
881.999	3119
882.125	3108
882.252	3226
882.378	3275
882.505	3431
882.631	3268
882.757	3138
882.883	3199
883.01	3249
883.136	3146
883.262	3093
883.388	3116
883.514	3329
883.64	3374
883.766	3355
883.892	3176
884.018	3275
884.143	3401
884.269	3530
884.395	3173
884.52	3127
884.646	3161
884.772	3112
884.897	3081
885.023	3135
885.148	3268
885.274	3424
885.399	3389
885.524	3332
885.65	3222
885.775	3253
885.9	3264
886.025	3420
886.15	3401
886.275	3283
886.4	3226
886.525	3294
886.65	3260
886.775	3272
886.9	3477
887.025	3682
887.149	3424
887.274	3237
887.399	3188
887.523	3184
887.648	3184
887.773	3157
887.897	3317
888.021	3397
888.146	3329
888.27	3412
888.395	3511
888.519	3401
888.643	3397
888.767	3431
888.891	3317
889.015	3249
889.139	3272
889.263	3241
889.387	3359
889.511	3553
889.635	3450
889.759	3264
889.883	3317
890.006	3340
890.13	3477
890.254	3260
890.377	3374
890.501	3203
890.624	3173
890.748	3310
890.871	3165
890.995	3077
891.118	3070
891.241	3207
891.364	3226
891.488	3264
891.611	3173
891.734	3222
891.857	3332
891.98	3256
892.103	3374
892.226	3302
892.349	3253
892.471	3116
892.594	3275
892.717	3279
892.839	3256
892.962	3245
893.085	3374
893.207	3275
893.33	3123
893.452	3192
893.575	3351
893.697	3233
893.819	3454
893.941	3496
894.064	3409
894.186	3272
894.308	3272
894.43	3397
894.552	3515
894.674	3469
894.796	3226
894.918	3294
895.04	3256
895.161	3397
895.283	3416
895.405	3306
895.526	3382
895.648	3420
895.769	3370
895.891	3450
896.012	3485
896.134	3447
896.255	3443
896.376	3344
896.498	3363
896.619	3397
896.74	3329
896.861	3370
896.982	3663
897.103	3854
897.224	3534
897.345	3507
897.466	3424
897.587	3481
897.708	3614
897.828	3572
897.949	3447
898.07	3344
898.19	3401
898.311	3633
898.431	3435
898.552	3523
898.672	3595
898.792	3610
898.913	3507
899.033	3386
899.153	3249
899.273	3218
899.393	3272
899.513	3348
899.633	3321
899.753	3313
899.873	3294
899.993	3370
900.113	3306
900.232	3386
900.352	3325
900.472	3321
900.591	3214
900.711	3306
900.83	3260
900.95	3393
901.069	3458
901.189	3325
901.308	3180
901.427	3085
901.546	3195
901.665	3245
901.784	3321
901.904	3226
902.023	3157
902.141	3024
902.26	2910
902.379	3123
902.498	3077
902.617	3028
902.735	3173
902.854	3233
902.973	3184
903.091	3028
903.21	3032
903.328	3097
903.446	3093
903.565	3089
903.683	3169
903.801	3077
903.919	3241
904.038	3287
904.156	3161
904.274	3264
904.392	3253
904.51	3287
904.627	3332
904.745	3412
904.863	3485
904.981	3226
905.098	3180
905.216	3214
905.334	3313
905.451	3310
905.569	3325
905.686	3386
905.803	3469
905.921	3313
906.038	3401
906.155	3329
906.272	3237
906.389	3367
906.506	3237
906.623	3230
906.74	3264
906.857	3165
906.974	3233
907.091	3462
907.208	3618
907.324	3462
907.441	3355
907.557	3203
907.674	3249
907.79	3226
907.907	3302
908.023	3393
908.139	3370
908.256	3340
908.372	3412
908.488	3325
908.604	3317
908.72	3211
908.836	3294
908.952	3291
909.068	3340
909.184	3466
909.3	3382
909.415	3488
909.531	3492
909.647	3249
909.762	3272
909.878	3241
909.993	3355
910.108	3336
910.224	3344
910.339	3431
910.454	3367
910.57	3298
910.685	3237
910.8	3572
910.915	3530
911.03	3397
911.145	3214
911.259	3253
911.374	3306
911.489	3241
911.604	3199
911.718	3142
911.833	3150
911.947	3020
912.062	2956
912.176	3154
912.291	3226
912.405	3207
912.519	3367
912.633	3428
912.748	3340
912.862	3268
912.976	3169
913.09	3051
913.204	3138
913.318	3233
913.431	3351
913.545	3325
913.659	3428
913.772	3332
913.886	3211
914	3203
914.113	3336
914.226	3393
914.34	3351
914.453	3222
914.566	3382
914.68	3268
914.793	3294
914.906	3123
915.019	3097
915.132	3043
915.245	3157
915.358	3199
915.47	3203
915.583	3233
915.696	3294
915.809	3401
915.921	3397
916.034	3253
916.146	3268
916.259	3222
916.371	3386
916.483	3359
916.595	3287
916.708	3313
916.82	3332
916.932	3332
917.044	3363
917.156	3340
917.268	3264
917.38	3294
917.491	3275
917.603	3367
917.715	3431
917.826	3469
917.938	3344
918.049	3253
918.161	3416
918.272	3553
918.384	3564
918.495	3488
918.606	3363
918.717	3253
918.828	3389
918.939	3439
919.05	3294
919.161	3370
919.272	3195
919.383	3272
919.494	3496
919.604	3690
919.715	3481
919.826	3393
919.936	3462
920.047	3561
920.157	3561
920.267	3762
920.378	3572
920.488	3553
920.598	3781
920.708	3922
920.818	3831
920.928	3804
921.038	4010
921.148	4002
921.258	3705
921.368	3584
921.477	3576
921.587	3572
921.697	3447
921.806	3614
921.916	3545
922.025	3370
922.134	3359
922.244	3313
922.353	3397
922.462	3287
922.571	3241
922.68	3100
922.789	3062
922.898	3138
923.007	3077
923.116	3184
923.224	3154
923.333	3226
923.442	3108
923.55	3123
923.659	3135
923.767	3226
923.876	3093
923.984	3264
924.092	3081
924.201	3222
924.309	3192
924.417	3245
924.525	3157
924.633	3192
924.741	4181
924.849	3055
924.956	3233
925.064	3085
925.172	3001
925.279	3127
925.387	3192
925.494	3180
925.602	3336
925.709	3287
925.816	3165
925.924	3306
926.031	3370
926.138	3367
926.245	3363
926.352	3241
926.459	3351
926.566	3450
926.673	3344
926.779	3203
926.886	3222
926.993	3135
927.099	3116
927.206	3089
927.312	3108
927.419	3226
927.525	3195
927.631	3306
927.737	3154
927.843	3093
927.95	2994
928.056	3123
928.162	3169
928.267	3237
928.373	3854
928.479	3340
928.585	3085
928.69	3241
928.796	3275
928.901	3142
929.007	3036
929.112	3256
929.218	3184
929.323	3173
929.428	3131
929.533	3272
929.638	3131
929.743	3184
929.848	3230
929.953	3203
930.058	3116
930.163	3024
930.267	3036
930.372	3199
930.477	3028
930.581	3348
930.685	3180
930.79	3058
930.894	3112
930.998	3093
931.103	3294
931.207	2941
931.311	2922
931.415	2933
931.519	2781
931.623	2826
