Data from test_V78500241_532.txt Node
Date: Fri Mar 25 16:18:53 CST 2022
User: usil
Spectrometer: V785-0024
Trigger mode: 0
Integration Time (sec): 4.000000E-1
Scans to average: 1
Nonlinearity correction enabled: false
Boxcar width: 0
Storing dark spectrum: false
XAxis mode: Wavelengths
Number of Pixels in Spectrum: 1024
>>>>>Begin Spectral Data<<<<<
801.071	2891
801.214	2994
801.356	2868
801.499	2914
801.641	2906
801.783	2918
801.926	3085
802.068	3013
802.211	3043
802.353	3020
802.496	2990
802.638	3009
802.78	3081
802.923	3085
803.065	3001
803.208	2925
803.35	2948
803.492	2979
803.635	2975
803.777	2819
803.919	2857
804.061	3184
804.204	2994
804.346	2937
804.488	2895
804.63	3036
804.773	2899
804.915	2967
805.057	3108
805.199	2952
805.341	3001
805.483	3097
805.626	3036
805.768	3009
805.91	3138
806.052	3127
806.194	3051
806.336	3279
806.478	3077
806.62	3005
806.762	3032
806.904	3051
807.046	3192
807.188	3013
807.33	2944
807.472	3020
807.614	2948
807.756	3039
807.898	2948
808.04	2902
808.182	3009
808.324	2967
808.465	2902
808.607	2918
808.749	2838
808.891	2876
809.033	3028
809.174	3028
809.316	2937
809.458	2941
809.6	2796
809.741	2819
809.883	2769
810.025	2902
810.166	2929
810.308	2876
810.45	2887
810.591	2807
810.733	2800
810.875	2857
811.016	2815
811.158	2792
811.299	2883
811.441	2960
811.582	2933
811.724	2845
811.865	2864
812.007	2941
812.148	2899
812.29	2857
812.431	2925
812.573	2979
812.714	2994
812.855	3085
812.997	3066
813.138	3142
813.279	3036
813.421	2944
813.562	2986
813.703	2899
813.845	2899
813.986	2830
814.127	2762
814.268	2868
814.41	2849
814.551	2838
814.692	2925
814.833	2868
814.974	2922
815.115	3001
815.256	2845
815.397	2823
815.539	2887
815.68	2804
815.821	2830
815.962	2944
816.103	2956
816.244	2895
816.385	2887
816.526	2971
816.666	2929
816.807	2758
816.948	2941
817.089	2899
817.23	2883
817.371	2815
817.512	2830
817.653	2857
817.793	2891
817.934	2914
818.075	2979
818.216	3005
818.356	3024
818.497	2952
818.638	2811
818.778	2834
818.919	2872
819.06	2777
819.2	2933
819.341	2849
819.481	2849
819.622	2895
819.762	3131
819.903	3089
820.043	2952
820.184	2899
820.324	2933
820.465	3043
820.605	3051
820.746	3051
820.886	2937
821.026	3127
821.167	3165
821.307	3256
821.447	3279
821.588	3249
821.728	3264
821.868	3188
822.008	3116
822.149	3192
822.289	3253
822.429	3123
822.569	3131
822.709	3195
822.849	3028
822.99	3112
823.13	3165
823.27	3207
823.41	3138
823.55	3184
823.69	3188
823.83	3207
823.97	3119
824.11	3028
824.25	3024
824.389	3085
824.529	3131
824.669	3081
824.809	3214
824.949	3256
825.089	3237
825.228	3176
825.368	3005
825.508	2990
825.648	2963
825.787	3070
825.927	3039
826.067	2990
826.206	2982
826.346	3081
826.485	3085
826.625	3123
826.765	3317
826.904	3226
827.044	3005
827.183	2967
827.323	2887
827.462	3020
827.601	2914
827.741	2963
827.88	2956
828.02	2864
828.159	2982
828.298	3055
828.437	3127
828.577	3043
828.716	3279
828.855	3070
828.994	2925
829.134	2906
829.273	2963
829.412	2868
829.551	2891
829.69	2925
829.829	2971
829.968	3154
830.107	3055
830.246	3070
830.385	2902
830.524	2876
830.663	2864
830.802	2750
830.941	2648
831.08	2670
831.219	2773
831.357	2750
831.496	3001
831.635	2735
831.774	2674
831.913	2682
832.051	2549
832.19	2598
832.329	2697
832.467	2568
832.606	2499
832.744	2587
832.883	2598
833.022	2625
833.16	2667
833.299	2716
833.437	2705
833.576	2727
833.714	2724
833.852	2731
833.991	2754
834.129	2891
834.267	2849
834.406	2834
834.544	2887
834.682	2891
834.821	2891
834.959	3089
835.097	2941
835.235	3058
835.373	3051
835.511	3047
835.65	2960
835.788	2941
835.926	2868
836.064	2811
836.202	2864
836.34	3119
836.478	3188
836.615	3100
836.753	3131
836.891	3222
837.029	3207
837.167	3131
837.305	3081
837.443	3074
837.58	2982
837.718	3104
837.856	3089
837.993	3077
838.131	3161
838.269	3119
838.406	3085
838.544	3108
838.681	2971
838.819	2952
838.956	2849
839.094	2834
839.231	2979
839.369	3070
839.506	3378
839.643	3233
839.781	3001
839.918	2986
840.055	3055
840.193	3051
840.33	3097
840.467	3150
840.604	3188
840.742	3409
840.879	3085
841.016	3093
841.153	3135
841.29	3340
841.427	3287
841.564	3283
841.701	3336
841.838	3268
841.975	3165
842.112	3230
842.249	3119
842.385	3074
842.522	3264
842.659	3085
842.796	3070
842.933	3089
843.069	3051
843.206	3066
843.343	3176
843.479	3093
843.616	3165
843.752	2910
843.889	2906
844.025	3077
844.162	2861
844.298	3093
844.435	2986
844.571	2922
844.708	3135
844.844	3222
844.98	3249
845.117	3203
845.253	3074
845.389	3017
845.525	3108
845.661	3108
845.798	3043
845.934	3161
846.07	3085
846.206	3199
846.342	3306
846.478	3214
846.614	3104
846.75	3051
846.886	3013
847.022	3272
847.158	3161
847.294	3214
847.429	3233
847.565	3199
847.701	3500
847.837	3066
847.972	3009
848.108	3169
848.244	3161
848.379	2971
848.515	2990
848.65	2941
848.786	2956
848.921	3036
849.057	3112
849.192	3176
849.328	3081
849.463	3146
849.598	3062
849.734	3062
849.869	2967
850.004	2963
850.14	2986
850.275	2914
850.41	2842
850.545	2925
850.68	2918
850.815	2944
850.95	3013
851.085	3199
851.22	3119
851.355	3047
851.49	3009
851.625	3020
851.76	3047
851.895	2948
852.03	2922
852.165	3043
852.299	3165
852.434	3230
852.569	3127
852.703	3199
852.838	3253
852.973	3332
853.107	3363
853.242	3173
853.376	3097
853.511	2971
853.645	3070
853.78	3222
853.914	3112
854.048	3100
854.183	3089
854.317	3135
854.451	3283
854.585	3146
854.72	3097
854.854	3184
854.988	3028
855.122	3097
855.256	2941
855.39	3097
855.524	3264
855.658	3184
855.792	3135
855.926	3203
856.06	3203
856.194	3279
856.327	3123
856.461	3074
856.595	3077
856.729	3138
856.862	3249
856.996	3142
857.13	3222
857.263	3241
857.397	3325
857.53	3135
857.664	3218
857.797	3256
857.931	3302
858.064	3192
858.197	3233
858.331	3150
858.464	3127
858.597	3032
858.731	3108
858.864	3138
858.997	3104
859.13	3165
859.263	3176
859.396	3211
859.529	3085
859.662	3085
859.795	3062
859.928	3127
860.061	3256
860.194	3313
860.327	3135
860.46	3093
860.592	3233
860.725	3256
860.858	3249
860.99	3127
861.123	3074
861.256	3055
861.388	3119
861.521	3930
861.653	3001
861.786	2986
861.918	3036
862.05	3055
862.183	3119
862.315	3146
862.447	3211
862.58	3131
862.712	2948
862.844	2872
862.976	3017
863.108	3013
863.24	3428
863.372	2891
863.504	2990
863.636	2952
863.768	3051
863.9	2994
864.032	2918
864.164	2929
864.296	3028
864.428	3097
864.559	3097
864.691	3062
864.823	3104
864.954	3024
865.086	3043
865.217	2994
865.349	2944
865.48	3017
865.612	3024
865.743	3154
865.875	2990
866.006	2929
866.137	3020
866.269	2956
866.4	2922
866.531	2933
866.662	2849
866.793	2887
866.924	2918
867.055	2960
867.186	2929
867.317	2906
867.448	2853
867.579	2861
867.71	2830
867.841	2800
867.972	2910
868.103	2880
868.233	2891
868.364	2910
868.495	2914
868.625	3108
868.756	3169
868.886	2986
869.017	3017
869.147	3199
869.278	3169
869.408	3032
869.539	3028
869.669	3089
869.799	3074
869.929	3131
870.06	3100
870.19	3355
870.32	3287
870.45	3298
870.58	3382
870.71	3428
870.84	3466
870.97	3344
871.1	3275
871.23	3496
871.36	3488
871.489	3386
871.619	3370
871.749	3435
871.879	3424
872.008	3477
872.138	3401
872.267	3298
872.397	3112
872.526	3138
872.656	2982
872.785	3104
872.915	3283
873.044	3336
873.173	3218
873.303	3237
873.432	3245
873.561	3249
873.69	3154
873.819	3195
873.948	3192
874.077	3131
874.206	3070
874.335	3093
874.464	3203
874.593	3378
874.722	3226
874.851	3374
874.979	3378
875.108	3321
875.237	3214
875.365	3146
875.494	3169
875.623	3249
875.751	3097
875.88	3108
876.008	3192
876.136	3237
876.265	3401
876.393	3538
876.521	3428
876.65	3389
876.778	3321
876.906	3241
877.034	3226
877.162	3230
877.29	3188
877.418	3272
877.546	3230
877.674	3233
877.802	3256
877.93	3275
878.058	3135
878.185	3097
878.313	3211
878.441	3230
878.568	3074
878.696	3154
878.824	3249
878.951	3302
879.079	3428
879.206	3644
879.333	3443
879.461	3321
879.588	3348
879.715	3477
879.842	3580
879.97	3389
880.097	3165
880.224	3108
880.351	3203
880.478	3256
880.605	3165
880.732	3188
880.859	3496
880.986	3310
881.112	3332
881.239	3195
881.366	3108
881.493	3013
881.619	3017
881.746	3085
881.872	3077
881.999	3097
882.125	3100
882.252	3211
882.378	3310
882.505	3447
882.631	3268
882.757	3142
882.883	3203
883.01	3211
883.136	3154
883.262	3100
883.388	3062
883.514	3325
883.64	3393
883.766	3275
883.892	3180
884.018	3226
884.143	3416
884.269	3561
884.395	3203
884.52	3169
884.646	3180
884.772	3108
884.897	3070
885.023	3184
885.148	3329
885.274	3431
885.399	3405
885.524	3245
885.65	3275
885.775	3340
885.9	3287
886.025	3405
886.15	3359
886.275	3291
886.4	3230
886.525	3321
886.65	3253
886.775	3275
886.9	3462
887.025	3625
887.149	3397
887.274	3253
887.399	3176
887.523	3222
887.648	3199
887.773	3218
887.897	3386
888.021	3393
888.146	3310
888.27	3416
888.395	3507
888.519	3447
888.643	3450
888.767	3447
888.891	3279
889.015	3230
889.139	3283
889.263	3253
889.387	3393
889.511	3523
889.635	3428
889.759	3313
889.883	3268
890.006	3405
890.13	3462
890.254	3279
890.377	3355
890.501	3199
890.624	3188
890.748	3321
890.871	3180
890.995	3119
891.118	3074
891.241	3203
891.364	3192
891.488	3306
891.611	3161
891.734	3233
891.857	3279
891.98	3264
892.103	3332
892.226	3253
892.349	3207
892.471	3108
892.594	3245
892.717	3272
892.839	3272
892.962	3279
893.085	3351
893.207	3313
893.33	3131
893.452	3192
893.575	3321
893.697	3237
893.819	3439
893.941	3496
894.064	3401
894.186	3272
894.308	3279
894.43	3389
894.552	3564
894.674	3496
894.796	3264
894.918	3272
895.04	3291
895.161	3416
895.283	3367
895.405	3310
895.526	3382
895.648	3466
895.769	3424
895.891	3420
896.012	3458
896.134	3454
896.255	3424
896.376	3416
896.498	3359
896.619	3431
896.74	3336
896.861	3374
896.982	3690
897.103	3816
897.224	3618
897.345	3523
897.466	3409
897.587	3477
897.708	3610
897.828	3519
897.949	3481
898.07	3317
898.19	3412
898.311	3606
898.431	3374
898.552	3507
898.672	3572
898.792	3572
898.913	3530
899.033	3389
899.153	3298
899.273	3199
899.393	3275
899.513	3355
899.633	3310
899.753	3336
899.873	3313
899.993	3363
900.113	3294
900.232	3393
900.352	3340
900.472	3313
900.591	3211
900.711	3310
900.83	3218
900.95	3401
901.069	3492
901.189	3363
901.308	3173
901.427	3142
901.546	3173
901.665	3340
901.784	3348
901.904	3192
902.023	3119
902.141	2994
902.26	3001
902.379	3135
902.498	3055
902.617	3062
902.735	3195
902.854	3211
902.973	3154
903.091	3039
903.21	3070
903.328	3116
903.446	3135
903.565	3108
903.683	3169
903.801	3119
903.919	3214
904.038	3283
904.156	3188
904.274	3283
904.392	3245
904.51	3283
904.627	3340
904.745	3420
904.863	3500
904.981	3226
905.098	3165
905.216	3211
905.334	3272
905.451	3294
905.569	3329
905.686	3435
905.803	3428
905.921	3325
906.038	3416
906.155	3336
906.272	3268
906.389	3359
906.506	3237
906.623	3214
906.74	3291
906.857	3142
906.974	3207
907.091	3397
907.208	3561
907.324	3469
907.441	3367
907.557	3256
907.674	3249
907.79	3245
907.907	3214
908.023	3348
908.139	3291
908.256	3306
908.372	3332
908.488	3329
908.604	3226
908.72	3237
908.836	3283
908.952	3268
909.068	3325
909.184	3454
909.3	3382
909.415	3473
909.531	3473
909.647	3283
909.762	3279
909.878	3222
909.993	3332
910.108	3302
910.224	3310
910.339	3431
910.454	3344
910.57	3279
910.685	3230
910.8	3591
910.915	3519
911.03	3424
911.145	3272
911.259	3272
911.374	3272
911.489	3222
911.604	3230
911.718	3077
911.833	3142
911.947	3024
912.062	2971
912.176	3165
912.291	3188
912.405	3218
912.519	3416
912.633	3466
912.748	3340
912.862	3237
912.976	3173
913.09	3085
913.204	3093
913.318	3192
913.431	3363
913.545	3310
913.659	3431
913.772	3325
913.886	3192
914	3176
914.113	3359
914.226	3405
914.34	3359
914.453	3188
914.566	3386
914.68	3268
914.793	3325
914.906	3157
915.019	3097
915.132	3100
915.245	3188
915.358	3203
915.47	3188
915.583	3256
915.696	3302
915.809	3374
915.921	3412
916.034	3249
916.146	3199
916.259	3230
916.371	3367
916.483	3332
916.595	3272
916.708	3359
916.82	3321
916.932	3336
917.044	3355
917.156	3340
917.268	3241
917.38	3272
917.491	3306
917.603	3374
917.715	3469
917.826	3485
917.938	3382
918.049	3268
918.161	3439
918.272	3576
918.384	3557
918.495	3477
918.606	3317
918.717	3268
918.828	3351
918.939	3401
919.05	3268
919.161	3412
919.272	3169
919.383	3268
919.494	3504
919.604	3675
919.715	3496
919.826	3450
919.936	3439
920.047	3614
920.157	3557
920.267	3766
920.378	3644
920.488	3568
920.598	3785
920.708	3911
920.818	3800
920.928	3819
921.038	4029
921.148	3979
921.258	3694
921.368	3671
921.477	3606
921.587	3526
921.697	3481
921.806	3603
921.916	3553
922.025	3344
922.134	3329
922.244	3283
922.353	3439
922.462	3291
922.571	3192
922.68	3131
922.789	3062
922.898	3161
923.007	3119
923.116	3195
923.224	3157
923.333	3165
923.442	3112
923.55	3077
923.659	3157
923.767	3207
923.876	3108
923.984	3199
924.092	3119
924.201	3188
924.309	3203
924.417	3233
924.525	3211
924.633	3237
924.741	4147
924.849	3051
924.956	3253
925.064	3123
925.172	3043
925.279	3097
925.387	3173
925.494	3180
925.602	3340
925.709	3321
925.816	3184
925.924	3275
926.031	3359
926.138	3294
926.245	3370
926.352	3249
926.459	3382
926.566	3466
926.673	3351
926.779	3279
926.886	3211
926.993	3112
927.099	3116
927.206	3093
927.312	3123
927.419	3222
927.525	3203
927.631	3287
927.737	3142
927.843	3119
927.95	3032
928.056	3127
928.162	3150
928.267	3245
928.373	3804
928.479	3332
928.585	3108
928.69	3176
928.796	3275
928.901	3192
929.007	3036
929.112	3207
929.218	3157
929.323	3112
929.428	3138
929.533	3310
929.638	3112
929.743	3154
929.848	3237
929.953	3180
930.058	3157
930.163	2941
930.267	3017
930.372	3192
930.477	3039
930.581	3302
930.685	3150
930.79	3028
930.894	3116
930.998	3093
931.103	3253
931.207	2929
931.311	2941
931.415	2906
931.519	2746
931.623	2823
