Data from test_V78500241_1890.txt Node
Date: Fri Mar 25 16:28:17 CST 2022
User: usil
Spectrometer: V785-0024
Trigger mode: 0
Integration Time (sec): 4.000000E-1
Scans to average: 1
Nonlinearity correction enabled: false
Boxcar width: 0
Storing dark spectrum: false
XAxis mode: Wavelengths
Number of Pixels in Spectrum: 1024
>>>>>Begin Spectral Data<<<<<
801.071	2906
801.214	2956
801.356	2887
801.499	2906
801.641	2872
801.783	2891
801.926	3051
802.068	2956
802.211	2994
802.353	3017
802.496	2979
802.638	3017
802.78	2994
802.923	3051
803.065	2979
803.208	2853
803.35	2910
803.492	2937
803.635	2902
803.777	2750
803.919	2861
804.061	3180
804.204	2918
804.346	2902
804.488	2861
804.63	2971
804.773	2849
804.915	2861
805.057	3081
805.199	2906
805.341	2960
805.483	3043
805.626	2990
805.768	2956
805.91	3093
806.052	3089
806.194	3028
806.336	3230
806.478	3043
806.62	2982
806.762	2986
806.904	3043
807.046	3146
807.188	2982
807.33	2906
807.472	2963
807.614	2906
807.756	2986
807.898	2941
808.04	2895
808.182	2971
808.324	2967
808.465	2880
808.607	2883
808.749	2792
808.891	2830
809.033	2986
809.174	2979
809.316	2891
809.458	2880
809.6	2796
809.741	2754
809.883	2739
810.025	2838
810.166	2834
810.308	2830
810.45	2823
810.591	2762
810.733	2758
810.875	2823
811.016	2773
811.158	2773
811.299	2788
811.441	2902
811.582	2902
811.724	2823
811.865	2804
812.007	2914
812.148	2853
812.29	2849
812.431	2876
812.573	2918
812.714	2979
812.855	3066
812.997	3020
813.138	3119
813.279	3009
813.421	2998
813.562	2994
813.703	2857
813.845	2914
813.986	2758
814.127	2708
814.268	2838
814.41	2872
814.551	2792
814.692	2883
814.833	2834
814.974	2872
815.115	2933
815.256	2830
815.397	2804
815.539	2845
815.68	2769
815.821	2823
815.962	2941
816.103	2910
816.244	2880
816.385	2849
816.526	2960
816.666	2895
816.807	2724
816.948	2887
817.089	2925
817.23	2861
817.371	2739
817.512	2815
817.653	2883
817.793	2823
817.934	2849
818.075	2956
818.216	2960
818.356	3043
818.497	2895
818.638	2781
818.778	2804
818.919	2807
819.06	2743
819.2	2864
819.341	2796
819.481	2800
819.622	2883
819.762	3077
819.903	3062
820.043	2914
820.184	2929
820.324	2899
820.465	3017
820.605	2982
820.746	3020
820.886	2899
821.026	3058
821.167	3154
821.307	3241
821.447	3287
821.588	3211
821.728	3214
821.868	3165
822.008	3077
822.149	3165
822.289	3241
822.429	3066
822.569	3089
822.709	3157
822.849	2990
822.99	3036
823.13	3142
823.27	3237
823.41	3104
823.55	3138
823.69	3135
823.83	3180
823.97	3089
824.11	2982
824.25	2998
824.389	3032
824.529	3089
824.669	3055
824.809	3176
824.949	3237
825.089	3192
825.228	3135
825.368	2960
825.508	2948
825.648	2956
825.787	3047
825.927	3001
826.067	2952
826.206	2944
826.346	3047
826.485	3074
826.625	3104
826.765	3287
826.904	3233
827.044	2941
827.183	2925
827.323	2834
827.462	2998
827.601	2883
827.741	2891
827.88	2948
828.02	2853
828.159	2986
828.298	3062
828.437	3097
828.577	3051
828.716	3222
828.855	3070
828.994	2899
829.134	2876
829.273	2933
829.412	2887
829.551	2849
829.69	2899
829.829	2948
829.968	3135
830.107	3028
830.246	3009
830.385	2925
830.524	2887
830.663	2807
830.802	2724
830.941	2678
831.08	2625
831.219	2746
831.357	2724
831.496	2902
831.635	2712
831.774	2621
831.913	2636
832.051	2560
832.19	2602
832.329	2667
832.467	2556
832.606	2488
832.744	2545
832.883	2575
833.022	2575
833.16	2629
833.299	2697
833.437	2693
833.576	2697
833.714	2724
833.852	2724
833.991	2762
834.129	2838
834.267	2804
834.406	2750
834.544	2845
834.682	2861
834.821	2849
834.959	3036
835.097	2918
835.235	3058
835.373	2994
835.511	2986
835.65	2971
835.788	2967
835.926	2830
836.064	2781
836.202	2849
836.34	3085
836.478	3131
836.615	3028
836.753	3104
836.891	3188
837.029	3154
837.167	3081
837.305	3047
837.443	3043
837.58	2956
837.718	3085
837.856	3081
837.993	3032
838.131	3104
838.269	3131
838.406	3108
838.544	3100
838.681	2925
838.819	2891
838.956	2823
839.094	2861
839.231	2918
839.369	3009
839.506	3321
839.643	3218
839.781	2998
839.918	2967
840.055	3032
840.193	3039
840.33	3081
840.467	3077
840.604	3135
840.742	3401
840.879	3055
841.016	3013
841.153	3085
841.29	3317
841.427	3279
841.564	3230
841.701	3310
841.838	3203
841.975	3161
842.112	3192
842.249	3055
842.385	3005
842.522	3241
842.659	3089
842.796	3077
842.933	3081
843.069	3036
843.206	2998
843.343	3180
843.479	3104
843.616	3131
843.752	2906
843.889	2826
844.025	3089
844.162	2887
844.298	3070
844.435	2979
844.571	2910
844.708	3093
844.844	3142
844.98	3199
845.117	3226
845.253	3039
845.389	2982
845.525	3108
845.661	3127
845.798	3001
845.934	3104
846.07	3028
846.206	3173
846.342	3279
846.478	3222
846.614	3074
846.75	3028
846.886	2982
847.022	3249
847.158	3116
847.294	3188
847.429	3237
847.565	3188
847.701	3458
847.837	3017
847.972	2986
848.108	3165
848.244	3138
848.379	2982
848.515	2944
848.65	2922
848.786	2952
848.921	3020
849.057	3085
849.192	3142
849.328	3116
849.463	3093
849.598	3043
849.734	3047
849.869	2960
850.004	2922
850.14	2933
850.275	2918
850.41	2864
850.545	2872
850.68	2937
850.815	2956
850.95	3001
851.085	3203
851.22	3104
851.355	3013
851.49	2975
851.625	2956
851.76	3009
851.895	2906
852.03	2895
852.165	3062
852.299	3074
852.434	3180
852.569	3127
852.703	3203
852.838	3264
852.973	3340
853.107	3336
853.242	3138
853.376	3093
853.511	2944
853.645	3032
853.78	3192
853.914	3081
854.048	3123
854.183	3085
854.317	3146
854.451	3260
854.585	3116
854.72	3097
854.854	3218
854.988	3058
855.122	3093
855.256	2975
855.39	3089
855.524	3222
855.658	3165
855.792	3138
855.926	3165
856.06	3203
856.194	3264
856.327	3146
856.461	3032
856.595	3051
856.729	3074
856.862	3241
856.996	3161
857.13	3211
857.263	3195
857.397	3279
857.53	3108
857.664	3161
857.797	3237
857.931	3253
858.064	3157
858.197	3195
858.331	3127
858.464	3066
858.597	3017
858.731	3119
858.864	3135
858.997	3093
859.13	3154
859.263	3157
859.396	3188
859.529	3066
859.662	3043
859.795	2998
859.928	3150
860.061	3291
860.194	3310
860.327	3104
860.46	3062
860.592	3279
860.725	3241
860.858	3218
860.99	3112
861.123	3066
861.256	3043
861.388	3119
861.521	3804
861.653	2967
861.786	2967
861.918	3017
862.05	3093
862.183	3081
862.315	3150
862.447	3176
862.58	3119
862.712	2933
862.844	2845
862.976	3043
863.108	3036
863.24	3306
863.372	2853
863.504	2952
863.636	2929
863.768	3020
863.9	2956
864.032	2887
864.164	2952
864.296	2975
864.428	3070
864.559	3070
864.691	3100
864.823	3070
864.954	3062
865.086	3009
865.217	2963
865.349	2952
865.48	2998
865.612	2963
865.743	3119
865.875	3009
866.006	2922
866.137	2998
866.269	2918
866.4	2952
866.531	2902
866.662	2891
866.793	2861
866.924	2891
867.055	2933
867.186	2967
867.317	2849
867.448	2811
867.579	2834
867.71	2849
867.841	2834
867.972	2956
868.103	2883
868.233	2861
868.364	2876
868.495	2899
868.625	3032
868.756	3150
868.886	2960
869.017	3028
869.147	3146
869.278	3150
869.408	3032
869.539	3013
869.669	3119
869.799	3047
869.929	3097
870.06	3085
870.19	3313
870.32	3275
870.45	3302
870.58	3355
870.71	3469
870.84	3435
870.97	3302
871.1	3195
871.23	3466
871.36	3428
871.489	3355
871.619	3386
871.749	3382
871.879	3447
872.008	3473
872.138	3313
872.267	3313
872.397	3146
872.526	3081
872.656	2963
872.785	3093
872.915	3260
873.044	3294
873.173	3199
873.303	3214
873.432	3237
873.561	3222
873.69	3157
873.819	3176
873.948	3176
874.077	3116
874.206	3036
874.335	3047
874.464	3199
874.593	3325
874.722	3256
874.851	3363
874.979	3329
875.108	3306
875.237	3188
875.365	3169
875.494	3173
875.623	3199
875.751	3062
875.88	3093
876.008	3180
876.136	3203
876.265	3359
876.393	3496
876.521	3401
876.65	3412
876.778	3332
876.906	3218
877.034	3173
877.162	3218
877.29	3165
877.418	3226
877.546	3249
877.674	3245
877.802	3184
877.93	3214
878.058	3123
878.185	3077
878.313	3188
878.441	3222
878.568	3066
878.696	3180
878.824	3275
878.951	3317
879.079	3454
879.206	3576
879.333	3443
879.461	3355
879.588	3359
879.715	3530
879.842	3587
879.97	3363
880.097	3195
880.224	3108
880.351	3218
880.478	3192
880.605	3188
880.732	3184
880.859	3481
880.986	3302
881.112	3329
881.239	3211
881.366	3089
881.493	3055
881.619	3017
881.746	3089
881.872	3089
881.999	3100
882.125	3135
882.252	3253
882.378	3329
882.505	3416
882.631	3264
882.757	3184
882.883	3184
883.01	3214
883.136	3150
883.262	3100
883.388	3135
883.514	3291
883.64	3359
883.766	3313
883.892	3176
884.018	3241
884.143	3443
884.269	3511
884.395	3157
884.52	3173
884.646	3173
884.772	3116
884.897	3097
885.023	3218
885.148	3302
885.274	3397
885.399	3378
885.524	3298
885.65	3256
885.775	3302
885.9	3279
886.025	3412
886.15	3397
886.275	3294
886.4	3214
886.525	3294
886.65	3256
886.775	3264
886.9	3488
887.025	3663
887.149	3378
887.274	3249
887.399	3195
887.523	3188
887.648	3207
887.773	3188
887.897	3355
888.021	3359
888.146	3291
888.27	3447
888.395	3534
888.519	3462
888.643	3473
888.767	3450
888.891	3298
889.015	3226
889.139	3249
889.263	3214
889.387	3367
889.511	3492
889.635	3439
889.759	3291
889.883	3272
890.006	3393
890.13	3481
890.254	3272
890.377	3336
890.501	3173
890.624	3169
890.748	3298
890.871	3150
890.995	3127
891.118	3058
891.241	3184
891.364	3222
891.488	3363
891.611	3180
891.734	3188
891.857	3313
891.98	3214
892.103	3332
892.226	3279
892.349	3169
892.471	3135
892.594	3237
892.717	3321
892.839	3264
892.962	3279
893.085	3351
893.207	3264
893.33	3123
893.452	3211
893.575	3313
893.697	3260
893.819	3488
893.941	3485
894.064	3439
894.186	3275
894.308	3279
894.43	3382
894.552	3492
894.674	3458
894.796	3249
894.918	3321
895.04	3310
895.161	3412
895.283	3412
895.405	3306
895.526	3336
895.648	3439
895.769	3393
895.891	3466
896.012	3447
896.134	3469
896.255	3412
896.376	3382
896.498	3348
896.619	3431
896.74	3344
896.861	3420
896.982	3667
897.103	3861
897.224	3603
897.345	3519
897.466	3431
897.587	3488
897.708	3618
897.828	3526
897.949	3374
898.07	3310
898.19	3382
898.311	3603
898.431	3458
898.552	3526
898.672	3584
898.792	3542
898.913	3530
899.033	3416
899.153	3279
899.273	3180
899.393	3253
899.513	3294
899.633	3329
899.753	3325
899.873	3329
899.993	3389
900.113	3332
900.232	3378
900.352	3313
900.472	3268
900.591	3184
900.711	3268
900.83	3233
900.95	3370
901.069	3511
901.189	3359
901.308	3135
901.427	3146
901.546	3214
901.665	3294
901.784	3313
901.904	3207
902.023	3112
902.141	3005
902.26	2986
902.379	3104
902.498	3070
902.617	3028
902.735	3203
902.854	3218
902.973	3184
903.091	3043
903.21	3089
903.328	3138
903.446	3108
903.565	3116
903.683	3176
903.801	3119
903.919	3260
904.038	3294
904.156	3161
904.274	3313
904.392	3203
904.51	3260
904.627	3321
904.745	3412
904.863	3469
904.981	3245
905.098	3142
905.216	3214
905.334	3306
905.451	3298
905.569	3344
905.686	3389
905.803	3447
905.921	3268
906.038	3428
906.155	3340
906.272	3283
906.389	3313
906.506	3287
906.623	3230
906.74	3249
906.857	3195
906.974	3260
907.091	3412
907.208	3603
907.324	3462
907.441	3363
907.557	3214
907.674	3226
907.79	3230
907.907	3272
908.023	3374
908.139	3359
908.256	3336
908.372	3363
908.488	3329
908.604	3199
908.72	3237
908.836	3287
908.952	3283
909.068	3344
909.184	3469
909.3	3348
909.415	3500
909.531	3469
909.647	3287
909.762	3245
909.878	3241
909.993	3367
910.108	3378
910.224	3321
910.339	3431
910.454	3329
910.57	3302
910.685	3268
910.8	3538
910.915	3523
911.03	3416
911.145	3287
911.259	3264
911.374	3351
911.489	3249
911.604	3230
911.718	3062
911.833	3100
911.947	3005
912.062	3005
912.176	3165
912.291	3176
912.405	3230
912.519	3412
912.633	3447
912.748	3310
912.862	3241
912.976	3161
913.09	3058
913.204	3127
913.318	3188
913.431	3298
913.545	3340
913.659	3370
913.772	3313
913.886	3173
914	3184
914.113	3310
914.226	3424
914.34	3306
914.453	3199
914.566	3428
914.68	3260
914.793	3275
914.906	3150
915.019	3070
915.132	3058
915.245	3173
915.358	3214
915.47	3207
915.583	3214
915.696	3260
915.809	3344
915.921	3435
916.034	3249
916.146	3222
916.259	3241
916.371	3370
916.483	3389
916.595	3249
916.708	3294
916.82	3329
916.932	3294
917.044	3332
917.156	3313
917.268	3264
917.38	3332
917.491	3306
917.603	3325
917.715	3450
917.826	3435
917.938	3367
918.049	3260
918.161	3416
918.272	3564
918.384	3557
918.495	3485
918.606	3340
918.717	3298
918.828	3393
918.939	3412
919.05	3306
919.161	3389
919.272	3169
919.383	3298
919.494	3504
919.604	3679
919.715	3492
919.826	3420
919.936	3469
920.047	3644
920.157	3542
920.267	3816
920.378	3618
920.488	3587
920.598	3804
920.708	4002
920.818	3838
920.928	3823
921.038	4067
921.148	4029
921.258	3709
921.368	3705
921.477	3648
921.587	3564
921.697	3526
921.806	3652
921.916	3530
922.025	3367
922.134	3409
922.244	3332
922.353	3469
922.462	3306
922.571	3245
922.68	3173
922.789	3089
922.898	3157
923.007	3161
923.116	3260
923.224	3222
923.333	3222
923.442	3165
923.55	3131
923.659	3169
923.767	3275
923.876	3161
923.984	3253
924.092	3146
924.201	3230
924.309	3275
924.417	3336
924.525	3256
924.633	3279
924.741	4013
924.849	3062
924.956	3294
925.064	3150
925.172	3104
925.279	3108
925.387	3226
925.494	3268
925.602	3405
925.709	3382
925.816	3214
925.924	3298
926.031	3412
926.138	3359
926.245	3374
926.352	3275
926.459	3469
926.566	3492
926.673	3344
926.779	3298
926.886	3287
926.993	3188
927.099	3161
927.206	3138
927.312	3119
927.419	3256
927.525	3279
927.631	3317
927.737	3173
927.843	3154
927.95	3100
928.056	3207
928.162	3188
928.267	3283
928.373	3903
928.479	3344
928.585	3108
928.69	3249
928.796	3359
928.901	3180
929.007	3089
929.112	3264
929.218	3211
929.323	3203
929.428	3161
929.533	3367
929.638	3135
929.743	3195
929.848	3272
929.953	3272
930.058	3188
930.163	3036
930.267	3089
930.372	3245
930.477	3108
930.581	3351
930.685	3268
930.79	3100
930.894	3180
930.998	3138
931.103	3321
931.207	2960
931.311	2971
931.415	2982
931.519	2796
931.623	2823
