Data from test_V78500241_171.txt Node
Date: Fri Mar 25 16:16:23 CST 2022
User: usil
Spectrometer: V785-0024
Trigger mode: 0
Integration Time (sec): 4.000000E-1
Scans to average: 1
Nonlinearity correction enabled: false
Boxcar width: 0
Storing dark spectrum: false
XAxis mode: Wavelengths
Number of Pixels in Spectrum: 1024
>>>>>Begin Spectral Data<<<<<
801.071	2963
801.214	2929
801.356	2880
801.499	2925
801.641	2876
801.783	2922
801.926	3074
802.068	2979
802.211	3032
802.353	3077
802.496	2960
802.638	3028
802.78	3047
802.923	3089
803.065	3032
803.208	2899
803.35	2918
803.492	2952
803.635	2963
803.777	2807
803.919	2857
804.061	3207
804.204	2986
804.346	2906
804.488	2876
804.63	3005
804.773	2887
804.915	2906
805.057	3089
805.199	2922
805.341	2975
805.483	3032
805.626	3024
805.768	2998
805.91	3116
806.052	3119
806.194	3077
806.336	3230
806.478	3062
806.62	2941
806.762	3024
806.904	3055
807.046	3184
807.188	2982
807.33	2910
807.472	2994
807.614	2895
807.756	2956
807.898	2963
808.04	2906
808.182	2982
808.324	3005
808.465	2906
808.607	2891
808.749	2804
808.891	2864
809.033	2998
809.174	3009
809.316	2880
809.458	2944
809.6	2769
809.741	2788
809.883	2777
810.025	2864
810.166	2864
810.308	2838
810.45	2864
810.591	2807
810.733	2807
810.875	2857
811.016	2781
811.158	2762
811.299	2800
811.441	2902
811.582	2922
811.724	2864
811.865	2842
812.007	2929
812.148	2933
812.29	2834
812.431	2929
812.573	2929
812.714	2967
812.855	3047
812.997	3032
813.138	3138
813.279	3036
813.421	2994
813.562	2975
813.703	2925
813.845	2933
813.986	2788
814.127	2750
814.268	2815
814.41	2864
814.551	2819
814.692	2895
814.833	2834
814.974	2944
815.115	2937
815.256	2826
815.397	2849
815.539	2880
815.68	2788
815.821	2807
815.962	2971
816.103	2941
816.244	2876
816.385	2880
816.526	2998
816.666	2914
816.807	2785
816.948	2902
817.089	2910
817.23	2861
817.371	2823
817.512	2754
817.653	2853
817.793	2811
817.934	2895
818.075	2960
818.216	3001
818.356	3066
818.497	2922
818.638	2804
818.778	2849
818.919	2804
819.06	2773
819.2	2902
819.341	2845
819.481	2861
819.622	2941
819.762	3089
819.903	3013
820.043	2895
820.184	2887
820.324	2925
820.465	3013
820.605	3047
820.746	3001
820.886	2960
821.026	3127
821.167	3188
821.307	3272
821.447	3340
821.588	3237
821.728	3211
821.868	3214
822.008	3077
822.149	3195
822.289	3256
822.429	3100
822.569	3070
822.709	3195
822.849	3036
822.99	3097
823.13	3150
823.27	3218
823.41	3135
823.55	3169
823.69	3161
823.83	3154
823.97	3097
824.11	3024
824.25	3020
824.389	3081
824.529	3116
824.669	3097
824.809	3241
824.949	3294
825.089	3188
825.228	3138
825.368	3017
825.508	3001
825.648	2982
825.787	2998
825.927	3047
826.067	2952
826.206	2979
826.346	3017
826.485	3119
826.625	3176
826.765	3298
826.904	3214
827.044	2994
827.183	2933
827.323	2895
827.462	3013
827.601	2937
827.741	2906
827.88	2963
828.02	2853
828.159	3005
828.298	3055
828.437	3123
828.577	3062
828.716	3279
828.855	3108
828.994	2918
829.134	2895
829.273	2922
829.412	2887
829.551	2887
829.69	2891
829.829	3009
829.968	3119
830.107	3043
830.246	3058
830.385	2952
830.524	2910
830.663	2868
830.802	2735
830.941	2670
831.08	2629
831.219	2769
831.357	2758
831.496	2944
831.635	2705
831.774	2621
831.913	2663
832.051	2568
832.19	2545
832.329	2705
832.467	2568
832.606	2495
832.744	2571
832.883	2590
833.022	2613
833.16	2636
833.299	2678
833.437	2682
833.576	2716
833.714	2712
833.852	2750
833.991	2777
834.129	2830
834.267	2849
834.406	2792
834.544	2849
834.682	2864
834.821	2857
834.959	3062
835.097	2910
835.235	3039
835.373	3001
835.511	3005
835.65	2960
835.788	2960
835.926	2853
836.064	2807
836.202	2861
836.34	3089
836.478	3142
836.615	3043
836.753	3150
836.891	3222
837.029	3150
837.167	3104
837.305	3051
837.443	3043
837.58	2986
837.718	3131
837.856	3108
837.993	3036
838.131	3176
838.269	3135
838.406	3108
838.544	3119
838.681	2960
838.819	2914
838.956	2842
839.094	2838
839.231	2910
839.369	3009
839.506	3374
839.643	3230
839.781	3074
839.918	2967
840.055	3039
840.193	3089
840.33	3058
840.467	3097
840.604	3127
840.742	3405
840.879	3036
841.016	3074
841.153	3146
841.29	3374
841.427	3321
841.564	3256
841.701	3310
841.838	3211
841.975	3195
842.112	3233
842.249	3097
842.385	3039
842.522	3230
842.659	3081
842.796	3032
842.933	3062
843.069	3089
843.206	3047
843.343	3222
843.479	3093
843.616	3169
843.752	2887
843.889	2864
844.025	3146
844.162	2868
844.298	3108
844.435	2948
844.571	2925
844.708	3055
844.844	3199
844.98	3264
845.117	3207
845.253	3070
845.389	3020
845.525	3104
845.661	3108
845.798	3001
845.934	3150
846.07	3085
846.206	3207
846.342	3306
846.478	3294
846.614	3119
846.75	3070
846.886	3081
847.022	3268
847.158	3127
847.294	3230
847.429	3256
847.565	3214
847.701	3477
847.837	3036
847.972	3005
848.108	3184
848.244	3169
848.379	3013
848.515	2967
848.65	2929
848.786	2960
848.921	3024
849.057	3085
849.192	3176
849.328	3131
849.463	3169
849.598	3062
849.734	3051
849.869	2990
850.004	2902
850.14	2975
850.275	2925
850.41	2849
850.545	2902
850.68	2952
850.815	2982
850.95	2982
851.085	3218
851.22	3123
851.355	3081
851.49	3001
851.625	3005
851.76	3051
851.895	2963
852.03	2937
852.165	3055
852.299	3165
852.434	3237
852.569	3150
852.703	3176
852.838	3253
852.973	3340
853.107	3340
853.242	3154
853.376	3081
853.511	3017
853.645	3104
853.78	3222
853.914	3119
854.048	3104
854.183	3081
854.317	3150
854.451	3325
854.585	3146
854.72	3112
854.854	3218
854.988	3051
855.122	3119
855.256	2979
855.39	3127
855.524	3249
855.658	3222
855.792	3161
855.926	3195
856.06	3245
856.194	3279
856.327	3169
856.461	3062
856.595	3127
856.729	3119
856.862	3241
856.996	3173
857.13	3203
857.263	3207
857.397	3294
857.53	3135
857.664	3203
857.797	3237
857.931	3268
858.064	3154
858.197	3214
858.331	3161
858.464	3131
858.597	3001
858.731	3127
858.864	3154
858.997	3123
859.13	3180
859.263	3176
859.396	3188
859.529	3119
859.662	3138
859.795	3062
859.928	3169
860.061	3283
860.194	3313
860.327	3116
860.46	3100
860.592	3253
860.725	3283
860.858	3253
860.99	3135
861.123	3055
861.256	3036
861.388	3165
861.521	3774
861.653	3013
861.786	2967
861.918	3020
862.05	3146
862.183	3100
862.315	3154
862.447	3195
862.58	3108
862.712	2952
862.844	2899
862.976	3039
863.108	3005
863.24	3325
863.372	2906
863.504	2948
863.636	2982
863.768	3055
863.9	3005
864.032	2925
864.164	2956
864.296	3001
864.428	3066
864.559	3097
864.691	3070
864.823	3020
864.954	3058
865.086	3097
865.217	3020
865.349	2960
865.48	3020
865.612	3047
865.743	3173
865.875	2982
866.006	2944
866.137	2994
866.269	2982
866.4	2952
866.531	2937
866.662	2906
866.793	2918
866.924	2948
867.055	2960
867.186	2891
867.317	2925
867.448	2864
867.579	2883
867.71	2830
867.841	2830
867.972	2937
868.103	2925
868.233	2899
868.364	2910
868.495	2918
868.625	3074
868.756	3176
868.886	2975
869.017	3020
869.147	3184
869.278	3188
869.408	3039
869.539	3024
869.669	3123
869.799	3058
869.929	3150
870.06	3123
870.19	3355
870.32	3321
870.45	3306
870.58	3370
870.71	3466
870.84	3469
870.97	3294
871.1	3211
871.23	3542
871.36	3477
871.489	3393
871.619	3428
871.749	3420
871.879	3500
872.008	3477
872.138	3386
872.267	3306
872.397	3150
872.526	3093
872.656	3032
872.785	3135
872.915	3241
873.044	3283
873.173	3203
873.303	3272
873.432	3233
873.561	3230
873.69	3157
873.819	3173
873.948	3203
874.077	3123
874.206	3055
874.335	3108
874.464	3237
874.593	3386
874.722	3249
874.851	3389
874.979	3367
875.108	3359
875.237	3199
875.365	3192
875.494	3161
875.623	3272
875.751	3089
875.88	3131
876.008	3203
876.136	3253
876.265	3401
876.393	3511
876.521	3420
876.65	3454
876.778	3317
876.906	3279
877.034	3260
877.162	3226
877.29	3203
877.418	3249
877.546	3253
877.674	3260
877.802	3268
877.93	3268
878.058	3161
878.185	3062
878.313	3230
878.441	3195
878.568	3112
878.696	3188
878.824	3253
878.951	3298
879.079	3481
879.206	3641
879.333	3462
879.461	3367
879.588	3370
879.715	3458
879.842	3618
879.97	3378
880.097	3195
880.224	3127
880.351	3214
880.478	3264
880.605	3184
880.732	3203
880.859	3488
880.986	3310
881.112	3363
881.239	3222
881.366	3100
881.493	3077
881.619	3051
881.746	3097
881.872	3127
881.999	3085
882.125	3192
882.252	3260
882.378	3336
882.505	3447
882.631	3272
882.757	3157
882.883	3233
883.01	3233
883.136	3180
883.262	3131
883.388	3119
883.514	3344
883.64	3397
883.766	3325
883.892	3195
884.018	3237
884.143	3409
884.269	3587
884.395	3203
884.52	3195
884.646	3218
884.772	3135
884.897	3142
885.023	3211
885.148	3344
885.274	3420
885.399	3367
885.524	3283
885.65	3287
885.775	3306
885.9	3313
886.025	3397
886.15	3370
886.275	3329
886.4	3253
886.525	3294
886.65	3325
886.775	3317
886.9	3523
887.025	3618
887.149	3431
887.274	3253
887.399	3173
887.523	3211
887.648	3211
887.773	3199
887.897	3378
888.021	3462
888.146	3306
888.27	3420
888.395	3580
888.519	3412
888.643	3431
888.767	3454
888.891	3313
889.015	3291
889.139	3336
889.263	3268
889.387	3431
889.511	3530
889.635	3477
889.759	3321
889.883	3348
890.006	3397
890.13	3496
890.254	3275
890.377	3340
890.501	3230
890.624	3157
890.748	3313
890.871	3207
890.995	3119
891.118	3074
891.241	3218
891.364	3275
891.488	3321
891.611	3161
891.734	3222
891.857	3313
891.98	3264
892.103	3348
892.226	3298
892.349	3203
892.471	3146
892.594	3226
892.717	3344
892.839	3294
892.962	3287
893.085	3363
893.207	3325
893.33	3154
893.452	3214
893.575	3332
893.697	3249
893.819	3481
893.941	3507
894.064	3488
894.186	3321
894.308	3294
894.43	3477
894.552	3496
894.674	3458
894.796	3287
894.918	3302
895.04	3325
895.161	3469
895.283	3424
895.405	3332
895.526	3348
895.648	3454
895.769	3439
895.891	3473
896.012	3504
896.134	3458
896.255	3431
896.376	3397
896.498	3344
896.619	3431
896.74	3344
896.861	3420
896.982	3671
897.103	3892
897.224	3618
897.345	3538
897.466	3428
897.587	3530
897.708	3648
897.828	3549
897.949	3450
898.07	3370
898.19	3405
898.311	3599
898.431	3473
898.552	3515
898.672	3564
898.792	3599
898.913	3545
899.033	3420
899.153	3332
899.273	3226
899.393	3291
899.513	3332
899.633	3287
899.753	3412
899.873	3302
899.993	3405
900.113	3351
900.232	3382
900.352	3355
900.472	3302
900.591	3222
900.711	3351
900.83	3230
900.95	3428
901.069	3511
901.189	3386
901.308	3165
901.427	3119
901.546	3188
901.665	3283
901.784	3348
901.904	3249
902.023	3161
902.141	3001
902.26	3024
902.379	3150
902.498	3081
902.617	3055
902.735	3222
902.854	3249
902.973	3176
903.091	3055
903.21	3070
903.328	3173
903.446	3119
903.565	3074
903.683	3214
903.801	3161
903.919	3272
904.038	3294
904.156	3211
904.274	3291
904.392	3245
904.51	3279
904.627	3336
904.745	3420
904.863	3511
904.981	3294
905.098	3184
905.216	3233
905.334	3336
905.451	3325
905.569	3332
905.686	3428
905.803	3416
905.921	3359
906.038	3454
906.155	3405
906.272	3298
906.389	3329
906.506	3279
906.623	3264
906.74	3302
906.857	3218
906.974	3294
907.091	3477
907.208	3549
907.324	3530
907.441	3378
907.557	3275
907.674	3279
907.79	3260
907.907	3302
908.023	3389
908.139	3389
908.256	3325
908.372	3405
908.488	3378
908.604	3203
908.72	3283
908.836	3317
908.952	3317
909.068	3367
909.184	3523
909.3	3443
909.415	3545
909.531	3504
909.647	3253
909.762	3310
909.878	3237
909.993	3374
910.108	3382
910.224	3321
910.339	3439
910.454	3325
910.57	3310
910.685	3313
910.8	3614
910.915	3492
911.03	3504
911.145	3268
911.259	3283
911.374	3351
911.489	3245
911.604	3249
911.718	3150
911.833	3150
911.947	3058
912.062	2952
912.176	3146
912.291	3245
912.405	3218
912.519	3439
912.633	3469
912.748	3355
912.862	3298
912.976	3169
913.09	3058
913.204	3188
913.318	3207
913.431	3351
913.545	3348
913.659	3454
913.772	3332
913.886	3214
914	3226
914.113	3355
914.226	3416
914.34	3363
914.453	3253
914.566	3439
914.68	3306
914.793	3321
914.906	3161
915.019	3161
915.132	3077
915.245	3195
915.358	3222
915.47	3275
915.583	3275
915.696	3329
915.809	3401
915.921	3454
916.034	3233
916.146	3283
916.259	3249
916.371	3401
916.483	3393
916.595	3241
916.708	3359
916.82	3382
916.932	3348
917.044	3329
917.156	3340
917.268	3256
917.38	3348
917.491	3310
917.603	3355
917.715	3473
917.826	3485
917.938	3351
918.049	3264
918.161	3431
918.272	3587
918.384	3595
918.495	3511
918.606	3363
918.717	3302
918.828	3378
918.939	3450
919.05	3313
919.161	3393
919.272	3188
919.383	3317
919.494	3553
919.604	3675
919.715	3496
919.826	3409
919.936	3450
920.047	3622
920.157	3492
920.267	3793
920.378	3648
920.488	3595
920.598	3797
920.708	4032
920.818	3816
920.928	3857
921.038	4013
921.148	3994
921.258	3743
921.368	3652
921.477	3625
921.587	3542
921.697	3454
921.806	3671
921.916	3534
922.025	3393
922.134	3340
922.244	3351
922.353	3466
922.462	3298
922.571	3279
922.68	3100
922.789	3074
922.898	3176
923.007	3146
923.116	3226
923.224	3173
923.333	3161
923.442	3123
923.55	3119
923.659	3138
923.767	3249
923.876	3119
923.984	3283
924.092	3135
924.201	3230
924.309	3264
924.417	3302
924.525	3214
924.633	3268
924.741	4188
924.849	3039
924.956	3264
925.064	3085
925.172	3058
925.279	3123
925.387	3180
925.494	3195
925.602	3374
925.709	3321
925.816	3211
925.924	3340
926.031	3397
926.138	3340
926.245	3397
926.352	3222
926.459	3412
926.566	3473
926.673	3351
926.779	3279
926.886	3279
926.993	3138
927.099	3119
927.206	3112
927.312	3104
927.419	3233
927.525	3275
927.631	3249
927.737	3195
927.843	3157
927.95	3051
928.056	3131
928.162	3195
928.267	3249
928.373	3922
928.479	3279
928.585	3127
928.69	3237
928.796	3268
928.901	3214
929.007	3066
929.112	3184
929.218	3199
929.323	3146
929.428	3131
929.533	3348
929.638	3135
929.743	3199
929.848	3241
929.953	3264
930.058	3142
930.163	3009
930.267	3085
930.372	3199
930.477	3077
930.581	3325
930.685	3203
930.79	3074
930.894	3169
930.998	3127
931.103	3260
931.207	2956
931.311	2975
931.415	2971
931.519	2804
931.623	2819
