Data from test_V78500241_142.txt Node
Date: Fri Mar 25 16:16:11 CST 2022
User: usil
Spectrometer: V785-0024
Trigger mode: 0
Integration Time (sec): 4.000000E-1
Scans to average: 1
Nonlinearity correction enabled: false
Boxcar width: 0
Storing dark spectrum: false
XAxis mode: Wavelengths
Number of Pixels in Spectrum: 1024
>>>>>Begin Spectral Data<<<<<
801.071	2925
801.214	2937
801.356	2883
801.499	2922
801.641	2906
801.783	2929
801.926	3081
802.068	3017
802.211	3032
802.353	3039
802.496	2990
802.638	3013
802.78	3066
802.923	3108
803.065	3024
803.208	2914
803.35	2956
803.492	2941
803.635	2941
803.777	2777
803.919	2853
804.061	3192
804.204	2971
804.346	2941
804.488	2845
804.63	2994
804.773	2864
804.915	2941
805.057	3085
805.199	2952
805.341	2979
805.483	3051
805.626	3032
805.768	2990
805.91	3077
806.052	3119
806.194	3058
806.336	3249
806.478	3055
806.62	2986
806.762	2998
806.904	3104
807.046	3226
807.188	3001
807.33	2982
807.472	2967
807.614	2883
807.756	3005
807.898	2902
808.04	2914
808.182	2967
808.324	2937
808.465	2876
808.607	2887
808.749	2830
808.891	2845
809.033	2994
809.174	3013
809.316	2902
809.458	2967
809.6	2800
809.741	2796
809.883	2800
810.025	2883
810.166	2857
810.308	2842
810.45	2838
810.591	2823
810.733	2785
810.875	2842
811.016	2800
811.158	2769
811.299	2823
811.441	2922
811.582	2925
811.724	2861
811.865	2849
812.007	2937
812.148	2887
812.29	2849
812.431	2922
812.573	2963
812.714	2967
812.855	3089
812.997	3097
813.138	3157
813.279	3028
813.421	2982
813.562	3001
813.703	2876
813.845	2906
813.986	2830
814.127	2750
814.268	2826
814.41	2868
814.551	2826
814.692	2918
814.833	2849
814.974	2937
815.115	2998
815.256	2880
815.397	2830
815.539	2891
815.68	2788
815.821	2804
815.962	2963
816.103	2929
816.244	2895
816.385	2899
816.526	2967
816.666	2925
816.807	2773
816.948	2925
817.089	2925
817.23	2876
817.371	2811
817.512	2823
817.653	2857
817.793	2845
817.934	2906
818.075	2990
818.216	2990
818.356	3074
818.497	2876
818.638	2792
818.778	2811
818.919	2800
819.06	2769
819.2	2910
819.341	2838
819.481	2804
819.622	2952
819.762	3127
819.903	3017
820.043	2933
820.184	2944
820.324	2914
820.465	3001
820.605	3043
820.746	3028
820.886	2937
821.026	3123
821.167	3157
821.307	3256
821.447	3306
821.588	3241
821.728	3233
821.868	3214
822.008	3104
822.149	3226
822.289	3230
822.429	3112
822.569	3119
822.709	3207
822.849	3104
822.99	3058
823.13	3188
823.27	3253
823.41	3127
823.55	3138
823.69	3119
823.83	3218
823.97	3104
824.11	3013
824.25	3024
824.389	3093
824.529	3142
824.669	3036
824.809	3218
824.949	3291
825.089	3237
825.228	3161
825.368	3001
825.508	2982
825.648	2998
825.787	3028
825.927	3058
826.067	2986
826.206	2971
826.346	3047
826.485	3085
826.625	3127
826.765	3283
826.904	3226
827.044	3009
827.183	2975
827.323	2891
827.462	2971
827.601	2891
827.741	2941
827.88	2971
828.02	2876
828.159	3005
828.298	3104
828.437	3173
828.577	3047
828.716	3245
828.855	3074
828.994	2944
829.134	2880
829.273	2982
829.412	2902
829.551	2899
829.69	2895
829.829	3009
829.968	3135
830.107	3009
830.246	3024
830.385	2910
830.524	2918
830.663	2815
830.802	2788
830.941	2663
831.08	2644
831.219	2788
831.357	2766
831.496	2910
831.635	2743
831.774	2648
831.913	2640
832.051	2552
832.19	2598
832.329	2667
832.467	2552
832.606	2518
832.744	2571
832.883	2556
833.022	2632
833.16	2689
833.299	2708
833.437	2716
833.576	2739
833.714	2743
833.852	2743
833.991	2777
834.129	2872
834.267	2815
834.406	2796
834.544	2880
834.682	2845
834.821	2853
834.959	3097
835.097	2906
835.235	3066
835.373	3001
835.511	3032
835.65	2998
835.788	2986
835.926	2811
836.064	2804
836.202	2826
836.34	3131
836.478	3188
836.615	3039
836.753	3184
836.891	3226
837.029	3199
837.167	3097
837.305	3093
837.443	3074
837.58	2979
837.718	3146
837.856	3055
837.993	3039
838.131	3081
838.269	3116
838.406	3131
838.544	3138
838.681	2956
838.819	2918
838.956	2830
839.094	2853
839.231	2902
839.369	3017
839.506	3389
839.643	3214
839.781	3017
839.918	2998
840.055	3039
840.193	3077
840.33	3070
840.467	3112
840.604	3237
840.742	3416
840.879	3058
841.016	3039
841.153	3104
841.29	3332
841.427	3302
841.564	3283
841.701	3325
841.838	3245
841.975	3207
842.112	3268
842.249	3119
842.385	3055
842.522	3279
842.659	3062
842.796	3081
842.933	3150
843.069	3104
843.206	3051
843.343	3203
843.479	3157
843.616	3180
843.752	2922
843.889	2887
844.025	3081
844.162	2906
844.298	3100
844.435	2979
844.571	2929
844.708	3081
844.844	3211
844.98	3241
845.117	3207
845.253	3081
845.389	3043
845.525	3077
845.661	3070
845.798	3009
845.934	3123
846.07	3077
846.206	3226
846.342	3351
846.478	3260
846.614	3116
846.75	3100
846.886	3013
847.022	3310
847.158	3138
847.294	3192
847.429	3264
847.565	3230
847.701	3507
847.837	3009
847.972	3017
848.108	3188
848.244	3138
848.379	2960
848.515	2960
848.65	2963
848.786	2994
848.921	3024
849.057	3150
849.192	3180
849.328	3108
849.463	3142
849.598	3058
849.734	3039
849.869	3009
850.004	2952
850.14	2982
850.275	2925
850.41	2842
850.545	2910
850.68	2933
850.815	2960
850.95	2998
851.085	3214
851.22	3100
851.355	3028
851.49	3013
851.625	3036
851.76	3028
851.895	2963
852.03	2941
852.165	3039
852.299	3123
852.434	3195
852.569	3150
852.703	3184
852.838	3233
852.973	3332
853.107	3332
853.242	3131
853.376	3097
853.511	3032
853.645	3066
853.78	3233
853.914	3161
854.048	3100
854.183	3066
854.317	3154
854.451	3298
854.585	3123
854.72	3074
854.854	3199
854.988	3085
855.122	3116
855.256	2979
855.39	3108
855.524	3226
855.658	3207
855.792	3176
855.926	3237
856.06	3230
856.194	3291
856.327	3119
856.461	3123
856.595	3085
856.729	3127
856.862	3199
856.996	3203
857.13	3184
857.263	3241
857.397	3298
857.53	3123
857.664	3222
857.797	3226
857.931	3298
858.064	3188
858.197	3222
858.331	3104
858.464	3093
858.597	2994
858.731	3138
858.864	3116
858.997	3100
859.13	3192
859.263	3203
859.396	3199
859.529	3097
859.662	3085
859.795	3058
859.928	3161
860.061	3253
860.194	3310
860.327	3154
860.46	3097
860.592	3249
860.725	3233
860.858	3272
860.99	3085
861.123	3066
861.256	3066
861.388	3154
861.521	3705
861.653	3020
861.786	3005
861.918	3028
862.05	3070
862.183	3116
862.315	3188
862.447	3211
862.58	3108
862.712	2971
862.844	2887
862.976	3017
863.108	3009
863.24	3386
863.372	2861
863.504	2986
863.636	2944
863.768	3051
863.9	2986
864.032	2960
864.164	2948
864.296	3043
864.428	3093
864.559	3097
864.691	3039
864.823	3104
864.954	3043
865.086	3058
865.217	3043
865.349	2963
865.48	2967
865.612	3047
865.743	3157
865.875	3001
866.006	2952
866.137	2948
866.269	2956
866.4	2948
866.531	2895
866.662	2906
866.793	2914
866.924	2914
867.055	3009
867.186	2937
867.317	2918
867.448	2838
867.579	2864
867.71	2857
867.841	2857
867.972	2922
868.103	2929
868.233	2891
868.364	2883
868.495	2902
868.625	3062
868.756	3176
868.886	2971
869.017	3005
869.147	3180
869.278	3154
869.408	3085
869.539	3081
869.669	3131
869.799	3047
869.929	3157
870.06	3135
870.19	3348
870.32	3302
870.45	3348
870.58	3435
870.71	3454
870.84	3405
870.97	3291
871.1	3230
871.23	3488
871.36	3462
871.489	3367
871.619	3424
871.749	3416
871.879	3447
872.008	3492
872.138	3367
872.267	3310
872.397	3142
872.526	3142
872.656	3024
872.785	3108
872.915	3249
873.044	3332
873.173	3237
873.303	3279
873.432	3291
873.561	3279
873.69	3150
873.819	3169
873.948	3268
874.077	3146
874.206	3058
874.335	3104
874.464	3249
874.593	3370
874.722	3256
874.851	3374
874.979	3378
875.108	3325
875.237	3199
875.365	3150
875.494	3184
875.623	3260
875.751	3131
875.88	3146
876.008	3214
876.136	3264
876.265	3412
876.393	3572
876.521	3412
876.65	3393
876.778	3325
876.906	3241
877.034	3195
877.162	3245
877.29	3195
877.418	3279
877.546	3249
877.674	3268
877.802	3253
877.93	3241
878.058	3138
878.185	3112
878.313	3195
878.441	3241
878.568	3108
878.696	3135
878.824	3275
878.951	3302
879.079	3450
879.206	3667
879.333	3466
879.461	3340
879.588	3355
879.715	3557
879.842	3618
879.97	3416
880.097	3214
880.224	3116
880.351	3218
880.478	3241
880.605	3230
880.732	3169
880.859	3511
880.986	3302
881.112	3370
881.239	3192
881.366	3119
881.493	3077
881.619	3009
881.746	3123
881.872	3097
881.999	3142
882.125	3131
882.252	3226
882.378	3294
882.505	3462
882.631	3275
882.757	3218
882.883	3226
883.01	3260
883.136	3176
883.262	3108
883.388	3123
883.514	3344
883.64	3420
883.766	3321
883.892	3195
884.018	3237
884.143	3428
884.269	3557
884.395	3218
884.52	3180
884.646	3218
884.772	3127
884.897	3146
885.023	3226
885.148	3355
885.274	3435
885.399	3378
885.524	3287
885.65	3279
885.775	3378
885.9	3325
886.025	3454
886.15	3439
886.275	3351
886.4	3253
886.525	3302
886.65	3313
886.775	3302
886.9	3519
887.025	3648
887.149	3458
887.274	3233
887.399	3173
887.523	3188
887.648	3203
887.773	3173
887.897	3382
888.021	3397
888.146	3313
888.27	3466
888.395	3530
888.519	3447
888.643	3466
888.767	3477
888.891	3340
889.015	3306
889.139	3317
889.263	3260
889.387	3401
889.511	3523
889.635	3450
889.759	3359
889.883	3313
890.006	3454
890.13	3523
890.254	3291
890.377	3393
890.501	3237
890.624	3195
890.748	3355
890.871	3199
890.995	3108
891.118	3104
891.241	3188
891.364	3233
891.488	3336
891.611	3199
891.734	3237
891.857	3294
891.98	3272
892.103	3363
892.226	3294
892.349	3195
892.471	3116
892.594	3268
892.717	3317
892.839	3264
892.962	3329
893.085	3393
893.207	3363
893.33	3188
893.452	3222
893.575	3367
893.697	3264
893.819	3454
893.941	3519
894.064	3481
894.186	3275
894.308	3294
894.43	3454
894.552	3564
894.674	3458
894.796	3272
894.918	3279
895.04	3321
895.161	3458
895.283	3420
895.405	3329
895.526	3393
895.648	3462
895.769	3443
895.891	3466
896.012	3492
896.134	3496
896.255	3507
896.376	3386
896.498	3378
896.619	3439
896.74	3389
896.861	3447
896.982	3675
897.103	3899
897.224	3599
897.345	3515
897.466	3450
897.587	3526
897.708	3641
897.828	3564
897.949	3424
898.07	3367
898.19	3454
898.311	3606
898.431	3477
898.552	3523
898.672	3618
898.792	3633
898.913	3545
899.033	3431
899.153	3317
899.273	3203
899.393	3332
899.513	3306
899.633	3321
899.753	3325
899.873	3332
899.993	3382
900.113	3367
900.232	3389
900.352	3386
900.472	3325
900.591	3211
900.711	3306
900.83	3249
900.95	3454
901.069	3500
901.189	3367
901.308	3192
901.427	3165
901.546	3241
901.665	3313
901.784	3340
901.904	3195
902.023	3131
902.141	3066
902.26	3020
902.379	3146
902.498	3119
902.617	3081
902.735	3245
902.854	3211
902.973	3192
903.091	3062
903.21	3070
903.328	3131
903.446	3165
903.565	3142
903.683	3241
903.801	3123
903.919	3264
904.038	3332
904.156	3199
904.274	3298
904.392	3253
904.51	3291
904.627	3329
904.745	3469
904.863	3515
904.981	3298
905.098	3207
905.216	3230
905.334	3310
905.451	3298
905.569	3332
905.686	3450
905.803	3458
905.921	3279
906.038	3450
906.155	3409
906.272	3287
906.389	3336
906.506	3249
906.623	3310
906.74	3317
906.857	3195
906.974	3325
907.091	3428
907.208	3564
907.324	3507
907.441	3409
907.557	3275
907.674	3249
907.79	3253
907.907	3294
908.023	3416
908.139	3405
908.256	3336
908.372	3340
908.488	3340
908.604	3283
908.72	3272
908.836	3272
908.952	3279
909.068	3332
909.184	3511
909.3	3359
909.415	3538
909.531	3473
909.647	3249
909.762	3279
909.878	3279
909.993	3363
910.108	3351
910.224	3424
910.339	3420
910.454	3325
910.57	3287
910.685	3302
910.8	3633
910.915	3584
911.03	3473
911.145	3268
911.259	3332
911.374	3344
911.489	3287
911.604	3233
911.718	3169
911.833	3222
911.947	3032
912.062	2990
912.176	3207
912.291	3184
912.405	3214
912.519	3435
912.633	3492
912.748	3336
912.862	3253
912.976	3165
913.09	3039
913.204	3165
913.318	3218
913.431	3386
913.545	3348
913.659	3405
913.772	3348
913.886	3253
914	3241
914.113	3378
914.226	3473
914.34	3424
914.453	3241
914.566	3466
914.68	3287
914.793	3351
914.906	3146
915.019	3154
915.132	3077
915.245	3192
915.358	3214
915.47	3256
915.583	3260
915.696	3306
915.809	3431
915.921	3466
916.034	3291
916.146	3264
916.259	3222
916.371	3397
916.483	3389
916.595	3302
916.708	3359
916.82	3351
916.932	3367
917.044	3351
917.156	3374
917.268	3272
917.38	3351
917.491	3351
917.603	3401
917.715	3477
917.826	3523
917.938	3431
918.049	3279
918.161	3439
918.272	3610
918.384	3576
918.495	3496
918.606	3351
918.717	3272
918.828	3405
918.939	3428
919.05	3325
919.161	3397
919.272	3203
919.383	3291
919.494	3481
919.604	3694
919.715	3534
919.826	3435
919.936	3469
920.047	3610
920.157	3553
920.267	3759
920.378	3641
920.488	3576
920.598	3789
920.708	3987
920.818	3819
920.928	3835
921.038	4055
921.148	4017
921.258	3751
921.368	3679
921.477	3614
921.587	3584
921.697	3507
921.806	3610
921.916	3591
922.025	3355
922.134	3351
922.244	3336
922.353	3431
922.462	3256
922.571	3283
922.68	3097
922.789	3089
922.898	3123
923.007	3157
923.116	3199
923.224	3180
923.333	3211
923.442	3119
923.55	3127
923.659	3150
923.767	3226
923.876	3135
923.984	3287
924.092	3123
924.201	3222
924.309	3253
924.417	3279
924.525	3207
924.633	3260
924.741	4242
924.849	3028
924.956	3287
925.064	3116
925.172	3036
925.279	3138
925.387	3192
925.494	3211
925.602	3401
925.709	3359
925.816	3207
925.924	3302
926.031	3409
926.138	3348
926.245	3416
926.352	3294
926.459	3424
926.566	3458
926.673	3382
926.779	3275
926.886	3233
926.993	3176
927.099	3131
927.206	3108
927.312	3154
927.419	3256
927.525	3214
927.631	3279
927.737	3154
927.843	3127
927.95	3062
928.056	3180
928.162	3165
928.267	3218
928.373	3766
928.479	3351
928.585	3024
928.69	3272
928.796	3302
928.901	3169
929.007	3039
929.112	3195
929.218	3184
929.323	3157
929.428	3131
929.533	3340
929.638	3127
929.743	3165
929.848	3256
929.953	3253
930.058	3154
930.163	3017
930.267	3066
930.372	3203
930.477	3020
930.581	3336
930.685	3226
930.79	3119
930.894	3131
930.998	3093
931.103	3256
931.207	2979
931.311	2975
931.415	2948
931.519	2777
931.623	2804
