Data from test_V78500241_980.txt Node
Date: Fri Mar 25 16:21:59 CST 2022
User: usil
Spectrometer: V785-0024
Trigger mode: 0
Integration Time (sec): 4.000000E-1
Scans to average: 1
Nonlinearity correction enabled: false
Boxcar width: 0
Storing dark spectrum: false
XAxis mode: Wavelengths
Number of Pixels in Spectrum: 1024
>>>>>Begin Spectral Data<<<<<
801.071	2872
801.214	2937
801.356	2842
801.499	2902
801.641	2864
801.783	2948
801.926	3043
802.068	2986
802.211	3005
802.353	3032
802.496	2975
802.638	3013
802.78	3032
802.923	3074
803.065	2998
803.208	2887
803.35	2914
803.492	2929
803.635	2906
803.777	2743
803.919	2872
804.061	3222
804.204	2918
804.346	2910
804.488	2842
804.63	2994
804.773	2868
804.915	2929
805.057	3085
805.199	2944
805.341	2952
805.483	3058
805.626	2975
805.768	2952
805.91	3104
806.052	3116
806.194	3013
806.336	3207
806.478	3036
806.62	2960
806.762	2941
806.904	3051
807.046	3157
807.188	2963
807.33	2948
807.472	2979
807.614	2929
807.756	3020
807.898	2929
808.04	2880
808.182	2994
808.324	2944
808.465	2872
808.607	2899
808.749	2800
808.891	2880
809.033	2952
809.174	2960
809.316	2891
809.458	2868
809.6	2792
809.741	2777
809.883	2796
810.025	2838
810.166	2849
810.308	2811
810.45	2857
810.591	2766
810.733	2792
810.875	2826
811.016	2804
811.158	2754
811.299	2823
811.441	2975
811.582	2887
811.724	2804
811.865	2861
812.007	2876
812.148	2929
812.29	2838
812.431	2883
812.573	2925
812.714	2975
812.855	3024
812.997	3039
813.138	3116
813.279	3024
813.421	3013
813.562	2975
813.703	2895
813.845	2872
813.986	2773
814.127	2731
814.268	2811
814.41	2819
814.551	2826
814.692	2910
814.833	2830
814.974	2922
815.115	2941
815.256	2876
815.397	2769
815.539	2826
815.68	2762
815.821	2826
815.962	2952
816.103	2933
816.244	2868
816.385	2853
816.526	2941
816.666	2899
816.807	2724
816.948	2895
817.089	2902
817.23	2861
817.371	2804
817.512	2815
817.653	2849
817.793	2842
817.934	2891
818.075	2956
818.216	2967
818.356	3039
818.497	2899
818.638	2766
818.778	2845
818.919	2796
819.06	2769
819.2	2883
819.341	2788
819.481	2769
819.622	2899
819.762	3097
819.903	3047
820.043	2944
820.184	2922
820.324	2880
820.465	3005
820.605	3005
820.746	3005
820.886	2963
821.026	3089
821.167	3165
821.307	3207
821.447	3233
821.588	3233
821.728	3173
821.868	3203
822.008	3093
822.149	3188
822.289	3214
822.429	3081
822.569	3074
822.709	3138
822.849	3024
822.99	3074
823.13	3142
823.27	3173
823.41	3100
823.55	3161
823.69	3176
823.83	3180
823.97	3077
824.11	2990
824.25	2986
824.389	3043
824.529	3089
824.669	3058
824.809	3154
824.949	3249
825.089	3226
825.228	3154
825.368	2982
825.508	2948
825.648	2948
825.787	3036
825.927	3013
826.067	2982
826.206	2998
826.346	3047
826.485	3066
826.625	3089
826.765	3245
826.904	3211
827.044	2998
827.183	2925
827.323	2804
827.462	3009
827.601	2868
827.741	2956
827.88	2952
828.02	2826
828.159	2967
828.298	3028
828.437	3089
828.577	2982
828.716	3226
828.855	3100
828.994	2937
829.134	2861
829.273	2910
829.412	2872
829.551	2853
829.69	2887
829.829	2963
829.968	3157
830.107	3032
830.246	3009
830.385	2937
830.524	2864
830.663	2830
830.802	2731
830.941	2674
831.08	2632
831.219	2754
831.357	2750
831.496	2944
831.635	2731
831.774	2640
831.913	2659
832.051	2526
832.19	2575
832.329	2689
832.467	2526
832.606	2476
832.744	2552
832.883	2579
833.022	2583
833.16	2648
833.299	2670
833.437	2678
833.576	2716
833.714	2754
833.852	2739
833.991	2746
834.129	2849
834.267	2826
834.406	2796
834.544	2853
834.682	2883
834.821	2906
834.959	3009
835.097	2864
835.235	3077
835.373	2975
835.511	3020
835.65	2944
835.788	2971
835.926	2864
836.064	2811
836.202	2834
836.34	3077
836.478	3154
836.615	3077
836.753	3131
836.891	3173
837.029	3119
837.167	3100
837.305	3081
837.443	3017
837.58	2929
837.718	3116
837.856	3074
837.993	3017
838.131	3108
838.269	3085
838.406	3077
838.544	3055
838.681	2967
838.819	2906
838.956	2842
839.094	2842
839.231	2929
839.369	3020
839.506	3389
839.643	3188
839.781	3005
839.918	2967
840.055	3036
840.193	3047
840.33	3058
840.467	3093
840.604	3180
840.742	3405
840.879	3062
841.016	3024
841.153	3112
841.29	3313
841.427	3291
841.564	3268
841.701	3329
841.838	3195
841.975	3203
842.112	3226
842.249	3036
842.385	3013
842.522	3245
842.659	3104
842.796	3051
842.933	3119
843.069	3081
843.206	3043
843.343	3161
843.479	3131
843.616	3138
843.752	2895
843.889	2849
844.025	3089
844.162	2902
844.298	3047
844.435	2925
844.571	2914
844.708	3058
844.844	3184
844.98	3188
845.117	3199
845.253	3020
845.389	2994
845.525	3150
845.661	3104
845.798	3005
845.934	3135
846.07	3032
846.206	3203
846.342	3275
846.478	3230
846.614	3131
846.75	3039
846.886	3009
847.022	3230
847.158	3131
847.294	3207
847.429	3256
847.565	3218
847.701	3511
847.837	3043
847.972	3005
848.108	3188
848.244	3104
848.379	2975
848.515	2941
848.65	2887
848.786	2941
848.921	2971
849.057	3119
849.192	3138
849.328	3074
849.463	3077
849.598	3047
849.734	3020
849.869	3005
850.004	2906
850.14	2956
850.275	2918
850.41	2868
850.545	2880
850.68	2925
850.815	2967
850.95	2941
851.085	3214
851.22	3070
851.355	3077
851.49	3017
851.625	2986
851.76	3005
851.895	2937
852.03	2891
852.165	3036
852.299	3093
852.434	3192
852.569	3131
852.703	3146
852.838	3222
852.973	3302
853.107	3348
853.242	3112
853.376	3116
853.511	3009
853.645	3017
853.78	3195
853.914	3123
854.048	3093
854.183	3062
854.317	3150
854.451	3268
854.585	3154
854.72	3108
854.854	3176
854.988	3028
855.122	3066
855.256	3020
855.39	3108
855.524	3241
855.658	3161
855.792	3161
855.926	3214
856.06	3218
856.194	3253
856.327	3173
856.461	3047
856.595	3074
856.729	3123
856.862	3218
856.996	3180
857.13	3188
857.263	3207
857.397	3272
857.53	3131
857.664	3169
857.797	3222
857.931	3233
858.064	3173
858.197	3188
858.331	3116
858.464	3070
858.597	3020
858.731	3119
858.864	3112
858.997	3077
859.13	3135
859.263	3176
859.396	3192
859.529	3100
859.662	3081
859.795	3039
859.928	3112
860.061	3298
860.194	3264
860.327	3112
860.46	3077
860.592	3230
860.725	3268
860.858	3233
860.99	3093
861.123	3001
861.256	3047
861.388	3138
861.521	3827
861.653	3013
861.786	2971
861.918	2948
862.05	3066
862.183	3112
862.315	3138
862.447	3184
862.58	3104
862.712	2918
862.844	2876
862.976	3009
863.108	2998
863.24	3389
863.372	2868
863.504	2975
863.636	2910
863.768	3055
863.9	2960
864.032	2883
864.164	2937
864.296	3028
864.428	3097
864.559	3142
864.691	3039
864.823	3036
864.954	3013
865.086	3047
865.217	2990
865.349	2952
865.48	2971
865.612	3009
865.743	3150
865.875	2982
866.006	2956
866.137	2979
866.269	2933
866.4	2910
866.531	2902
866.662	2914
866.793	2918
866.924	2876
867.055	2960
867.186	2941
867.317	2899
867.448	2800
867.579	2834
867.71	2800
867.841	2792
867.972	2872
868.103	2910
868.233	2853
868.364	2906
868.495	2891
868.625	3062
868.756	3180
868.886	3005
869.017	3032
869.147	3127
869.278	3161
869.408	3055
869.539	3043
869.669	3112
869.799	3039
869.929	3127
870.06	3104
870.19	3317
870.32	3275
870.45	3321
870.58	3348
870.71	3424
870.84	3416
870.97	3298
871.1	3256
871.23	3477
871.36	3409
871.489	3340
871.619	3401
871.749	3405
871.879	3409
872.008	3466
872.138	3382
872.267	3279
872.397	3131
872.526	3104
872.656	2986
872.785	3093
872.915	3253
873.044	3298
873.173	3207
873.303	3233
873.432	3249
873.561	3211
873.69	3138
873.819	3135
873.948	3165
874.077	3112
874.206	3047
874.335	3062
874.464	3214
874.593	3412
874.722	3233
874.851	3428
874.979	3348
875.108	3294
875.237	3142
875.365	3123
875.494	3146
875.623	3249
875.751	3055
875.88	3089
876.008	3146
876.136	3169
876.265	3367
876.393	3496
876.521	3420
876.65	3409
876.778	3283
876.906	3279
877.034	3207
877.162	3226
877.29	3195
877.418	3279
877.546	3222
877.674	3176
877.802	3226
877.93	3222
878.058	3150
878.185	3104
878.313	3226
878.441	3230
878.568	3062
878.696	3119
878.824	3233
878.951	3283
879.079	3435
879.206	3637
879.333	3428
879.461	3321
879.588	3359
879.715	3469
879.842	3603
879.97	3397
880.097	3165
880.224	3161
880.351	3165
880.478	3207
880.605	3203
880.732	3161
880.859	3447
880.986	3291
881.112	3298
881.239	3199
881.366	3077
881.493	3032
881.619	3017
881.746	3097
881.872	3097
881.999	3085
882.125	3142
882.252	3241
882.378	3241
882.505	3428
882.631	3264
882.757	3135
882.883	3226
883.01	3214
883.136	3173
883.262	3093
883.388	3138
883.514	3310
883.64	3351
883.766	3306
883.892	3173
884.018	3218
884.143	3412
884.269	3515
884.395	3207
884.52	3157
884.646	3150
884.772	3116
884.897	3119
885.023	3169
885.148	3321
885.274	3431
885.399	3355
885.524	3317
885.65	3268
885.775	3306
885.9	3287
886.025	3428
886.15	3359
886.275	3287
886.4	3226
886.525	3279
886.65	3249
886.775	3268
886.9	3481
887.025	3656
887.149	3424
887.274	3218
887.399	3176
887.523	3192
887.648	3222
887.773	3184
887.897	3374
888.021	3428
888.146	3313
888.27	3443
888.395	3500
888.519	3431
888.643	3469
888.767	3443
888.891	3298
889.015	3230
889.139	3264
889.263	3222
889.387	3370
889.511	3534
889.635	3439
889.759	3275
889.883	3279
890.006	3374
890.13	3481
890.254	3279
890.377	3340
890.501	3188
890.624	3192
890.748	3287
890.871	3184
890.995	3138
891.118	3066
891.241	3199
891.364	3214
891.488	3272
891.611	3173
891.734	3218
891.857	3283
891.98	3211
892.103	3325
892.226	3241
892.349	3207
892.471	3104
892.594	3237
892.717	3344
892.839	3245
892.962	3264
893.085	3382
893.207	3294
893.33	3131
893.452	3199
893.575	3321
893.697	3241
893.819	3439
893.941	3485
894.064	3428
894.186	3241
894.308	3348
894.43	3431
894.552	3534
894.674	3443
894.796	3317
894.918	3279
895.04	3279
895.161	3416
895.283	3405
895.405	3313
895.526	3359
895.648	3435
895.769	3389
895.891	3412
896.012	3431
896.134	3466
896.255	3397
896.376	3397
896.498	3348
896.619	3420
896.74	3397
896.861	3363
896.982	3701
897.103	3812
897.224	3591
897.345	3519
897.466	3431
897.587	3492
897.708	3625
897.828	3553
897.949	3416
898.07	3325
898.19	3389
898.311	3591
898.431	3477
898.552	3466
898.672	3595
898.792	3580
898.913	3523
899.033	3401
899.153	3268
899.273	3249
899.393	3253
899.513	3287
899.633	3298
899.753	3336
899.873	3310
899.993	3397
900.113	3291
900.232	3397
900.352	3344
900.472	3264
900.591	3192
900.711	3321
900.83	3249
900.95	3386
901.069	3477
901.189	3344
901.308	3116
901.427	3116
901.546	3188
901.665	3294
901.784	3332
901.904	3211
902.023	3138
902.141	3013
902.26	3013
902.379	3119
902.498	3085
902.617	3043
902.735	3188
902.854	3233
902.973	3169
903.091	3020
903.21	3043
903.328	3157
903.446	3089
903.565	3100
903.683	3207
903.801	3154
903.919	3272
904.038	3237
904.156	3188
904.274	3291
904.392	3256
904.51	3336
904.627	3317
904.745	3382
904.863	3450
904.981	3298
905.098	3184
905.216	3207
905.334	3279
905.451	3302
905.569	3340
905.686	3424
905.803	3428
905.921	3291
906.038	3405
906.155	3351
906.272	3298
906.389	3336
906.506	3222
906.623	3237
906.74	3249
906.857	3192
906.974	3249
907.091	3439
907.208	3542
907.324	3469
907.441	3386
907.557	3211
907.674	3218
907.79	3241
907.907	3275
908.023	3401
908.139	3382
908.256	3310
908.372	3344
908.488	3370
908.604	3233
908.72	3253
908.836	3294
908.952	3317
909.068	3298
909.184	3492
909.3	3401
909.415	3496
909.531	3462
909.647	3245
909.762	3291
909.878	3268
909.993	3378
910.108	3329
910.224	3321
910.339	3397
910.454	3351
910.57	3302
910.685	3268
910.8	3584
910.915	3561
911.03	3420
911.145	3264
911.259	3253
911.374	3325
911.489	3211
911.604	3272
911.718	3100
911.833	3165
911.947	3017
912.062	2937
912.176	3169
912.291	3207
912.405	3203
912.519	3420
912.633	3466
912.748	3374
912.862	3279
912.976	3203
913.09	3036
913.204	3138
913.318	3207
913.431	3317
913.545	3344
913.659	3382
913.772	3348
913.886	3214
914	3203
914.113	3359
914.226	3416
914.34	3378
914.453	3176
914.566	3412
914.68	3275
914.793	3302
914.906	3123
915.019	3127
915.132	3043
915.245	3173
915.358	3203
915.47	3214
915.583	3256
915.696	3340
915.809	3389
915.921	3401
916.034	3245
916.146	3249
916.259	3188
916.371	3370
916.483	3332
916.595	3272
916.708	3317
916.82	3329
916.932	3344
917.044	3370
917.156	3329
917.268	3279
917.38	3264
917.491	3325
917.603	3378
917.715	3450
917.826	3454
917.938	3374
918.049	3275
918.161	3397
918.272	3561
918.384	3534
918.495	3534
918.606	3351
918.717	3306
918.828	3370
918.939	3401
919.05	3317
919.161	3367
919.272	3188
919.383	3294
919.494	3492
919.604	3633
919.715	3454
919.826	3439
919.936	3443
920.047	3610
920.157	3568
920.267	3778
920.378	3625
920.488	3576
920.598	3789
920.708	3956
920.818	3831
920.928	3827
921.038	4002
921.148	3975
921.258	3671
921.368	3656
921.477	3576
921.587	3557
921.697	3485
921.806	3644
921.916	3488
922.025	3374
922.134	3359
922.244	3321
922.353	3412
922.462	3253
922.571	3207
922.68	3112
922.789	3070
922.898	3150
923.007	3108
923.116	3203
923.224	3138
923.333	3195
923.442	3070
923.55	3066
923.659	3176
923.767	3222
923.876	3097
923.984	3241
924.092	3089
924.201	3211
924.309	3218
924.417	3298
924.525	3150
924.633	3256
924.741	4139
924.849	3009
924.956	3233
925.064	3108
925.172	3032
925.279	3123
925.387	3188
925.494	3150
925.602	3370
925.709	3298
925.816	3192
925.924	3279
926.031	3382
926.138	3329
926.245	3378
926.352	3233
926.459	3393
926.566	3504
926.673	3317
926.779	3237
926.886	3272
926.993	3169
927.099	3119
927.206	3104
927.312	3093
927.419	3222
927.525	3203
927.631	3245
927.737	3165
927.843	3116
927.95	3020
928.056	3116
928.162	3199
928.267	3230
928.373	3876
928.479	3291
928.585	3081
928.69	3211
928.796	3283
928.901	3146
929.007	3043
929.112	3192
929.218	3180
929.323	3146
929.428	3169
929.533	3321
929.638	3161
929.743	3199
929.848	3226
929.953	3184
930.058	3100
930.163	3001
930.267	3039
930.372	3184
930.477	3024
930.581	3302
930.685	3184
930.79	3062
930.894	3089
930.998	3112
931.103	3275
931.207	2960
931.311	2948
931.415	2929
931.519	2815
931.623	2834
