Data from test_V78500241_255.txt Node
Date: Fri Mar 25 16:16:58 CST 2022
User: usil
Spectrometer: V785-0024
Trigger mode: 0
Integration Time (sec): 4.000000E-1
Scans to average: 1
Nonlinearity correction enabled: false
Boxcar width: 0
Storing dark spectrum: false
XAxis mode: Wavelengths
Number of Pixels in Spectrum: 1024
>>>>>Begin Spectral Data<<<<<
801.071	2933
801.214	2952
801.356	2872
801.499	2891
801.641	2864
801.783	2914
801.926	3077
802.068	2982
802.211	2982
802.353	3066
802.496	2963
802.638	3032
802.78	3032
802.923	3077
803.065	2998
803.208	2876
803.35	2910
803.492	2948
803.635	2929
803.777	2750
803.919	2864
804.061	3218
804.204	2933
804.346	2933
804.488	2876
804.63	3013
804.773	2895
804.915	2937
805.057	3081
805.199	2883
805.341	2990
805.483	3024
805.626	3001
805.768	2948
805.91	3066
806.052	3108
806.194	3009
806.336	3203
806.478	3036
806.62	2963
806.762	2963
806.904	3005
807.046	3176
807.188	2994
807.33	2899
807.472	2963
807.614	2902
807.756	2998
807.898	2944
808.04	2895
808.182	2952
808.324	2933
808.465	2918
808.607	2849
808.749	2807
808.891	2834
809.033	2967
809.174	2971
809.316	2864
809.458	2918
809.6	2773
809.741	2766
809.883	2777
810.025	2830
810.166	2872
810.308	2845
810.45	2834
810.591	2796
810.733	2754
810.875	2845
811.016	2773
811.158	2727
811.299	2845
811.441	2918
811.582	2925
811.724	2861
811.865	2826
812.007	2914
812.148	2902
812.29	2876
812.431	2887
812.573	2910
812.714	2982
812.855	3043
812.997	3024
813.138	3112
813.279	2998
813.421	2990
813.562	2952
813.703	2857
813.845	2876
813.986	2796
814.127	2716
814.268	2823
814.41	2864
814.551	2804
814.692	2845
814.833	2823
814.974	2891
815.115	2963
815.256	2845
815.397	2800
815.539	2876
815.68	2758
815.821	2762
815.962	2914
816.103	2895
816.244	2902
816.385	2876
816.526	2971
816.666	2906
816.807	2743
816.948	2883
817.089	2937
817.23	2842
817.371	2762
817.512	2792
817.653	2823
817.793	2826
817.934	2872
818.075	2925
818.216	2948
818.356	2941
818.497	2906
818.638	2750
818.778	2815
818.919	2781
819.06	2785
819.2	2910
819.341	2811
819.481	2788
819.622	2918
819.762	3089
819.903	3009
820.043	2906
820.184	2880
820.324	2902
820.465	2990
820.605	3005
820.746	3005
820.886	2906
821.026	3058
821.167	3169
821.307	3241
821.447	3264
821.588	3241
821.728	3161
821.868	3188
822.008	3081
822.149	3150
822.289	3226
822.429	3089
822.569	3104
822.709	3218
822.849	3043
822.99	3077
823.13	3165
823.27	3176
823.41	3085
823.55	3108
823.69	3146
823.83	3173
823.97	3089
824.11	3001
824.25	3001
824.389	3028
824.529	3112
824.669	3066
824.809	3184
824.949	3222
825.089	3226
825.228	3142
825.368	3013
825.508	2952
825.648	2941
825.787	2986
825.927	3020
826.067	2952
826.206	2952
826.346	3043
826.485	3051
826.625	3093
826.765	3268
826.904	3245
827.044	2986
827.183	2952
827.323	2853
827.462	2937
827.601	2883
827.741	2914
827.88	2944
828.02	2853
828.159	2960
828.298	3047
828.437	3093
828.577	3047
828.716	3245
828.855	3089
828.994	2937
829.134	2880
829.273	2960
829.412	2918
829.551	2899
829.69	2883
829.829	3032
829.968	3142
830.107	3009
830.246	3051
830.385	2967
830.524	2864
830.663	2853
830.802	2731
830.941	2667
831.08	2667
831.219	2788
831.357	2815
831.496	2982
831.635	2746
831.774	2701
831.913	2678
832.051	2606
832.19	2632
832.329	2743
832.467	2556
832.606	2518
832.744	2636
832.883	2602
833.022	2625
833.16	2712
833.299	2712
833.437	2708
833.576	2758
833.714	2754
833.852	2758
833.991	2800
834.129	2895
834.267	2853
834.406	2849
834.544	2891
834.682	2918
834.821	2880
834.959	3119
835.097	2960
835.235	3119
835.373	3062
835.511	3055
835.65	3005
835.788	3005
835.926	2876
836.064	2845
836.202	2868
836.34	3135
836.478	3184
836.615	3112
836.753	3222
836.891	3264
837.029	3233
837.167	3157
837.305	3081
837.443	3074
837.58	3043
837.718	3169
837.856	3138
837.993	3058
838.131	3169
838.269	3169
838.406	3142
838.544	3104
838.681	2998
838.819	2937
838.956	2880
839.094	2895
839.231	2967
839.369	3020
839.506	3405
839.643	3241
839.781	3043
839.918	2990
840.055	3104
840.193	3070
840.33	3119
840.467	3135
840.604	3184
840.742	3481
840.879	3085
841.016	3077
841.153	3176
841.29	3374
841.427	3355
841.564	3310
841.701	3363
841.838	3222
841.975	3211
842.112	3268
842.249	3097
842.385	3066
842.522	3310
842.659	3135
842.796	3100
842.933	3131
843.069	3100
843.206	3066
843.343	3207
843.479	3131
843.616	3161
843.752	2944
843.889	2922
844.025	3119
844.162	2891
844.298	3123
844.435	2998
844.571	3005
844.708	3112
844.844	3233
844.98	3279
845.117	3203
845.253	3077
845.389	3005
845.525	3123
845.661	3123
845.798	3074
845.934	3173
846.07	3116
846.206	3260
846.342	3344
846.478	3264
846.614	3150
846.75	3089
846.886	3039
847.022	3302
847.158	3203
847.294	3249
847.429	3253
847.565	3268
847.701	3507
847.837	3089
847.972	3058
848.108	3116
848.244	3146
848.379	3047
848.515	2956
848.65	2963
848.786	2986
848.921	3077
849.057	3157
849.192	3173
849.328	3116
849.463	3100
849.598	3097
849.734	3055
849.869	3009
850.004	2986
850.14	2994
850.275	2952
850.41	2868
850.545	2925
850.68	2941
850.815	2944
850.95	3039
851.085	3226
851.22	3135
851.355	3074
851.49	3017
851.625	2998
851.76	3081
851.895	2956
852.03	2922
852.165	3047
852.299	3146
852.434	3184
852.569	3203
852.703	3214
852.838	3313
852.973	3386
853.107	3363
853.242	3157
853.376	3116
853.511	3005
853.645	3074
853.78	3249
853.914	3112
854.048	3180
854.183	3127
854.317	3195
854.451	3298
854.585	3142
854.72	3112
854.854	3256
854.988	3108
855.122	3135
855.256	3036
855.39	3161
855.524	3264
855.658	3192
855.792	3150
855.926	3226
856.06	3245
856.194	3306
856.327	3207
856.461	3123
856.595	3108
856.729	3119
856.862	3249
856.996	3233
857.13	3203
857.263	3245
857.397	3332
857.53	3165
857.664	3211
857.797	3249
857.931	3283
858.064	3176
858.197	3275
858.331	3176
858.464	3135
858.597	3062
858.731	3131
858.864	3169
858.997	3123
859.13	3184
859.263	3211
859.396	3260
859.529	3138
859.662	3100
859.795	3085
859.928	3157
860.061	3336
860.194	3355
860.327	3165
860.46	3127
860.592	3253
860.725	3275
860.858	3264
860.99	3100
861.123	3070
861.256	3097
861.388	3226
861.521	3934
861.653	3055
861.786	3001
861.918	3081
862.05	3100
862.183	3112
862.315	3161
862.447	3218
862.58	3123
862.712	2986
862.844	2899
862.976	3055
863.108	3028
863.24	3336
863.372	2918
863.504	2971
863.636	2986
863.768	3062
863.9	2986
864.032	2910
864.164	3001
864.296	3066
864.428	3138
864.559	3157
864.691	3104
864.823	3077
864.954	3055
865.086	3074
865.217	3077
865.349	2979
865.48	3009
865.612	3055
865.743	3192
865.875	3001
866.006	2960
866.137	2979
866.269	2982
866.4	2975
866.531	2967
866.662	2933
866.793	2925
866.924	2922
867.055	2998
867.186	2967
867.317	2914
867.448	2857
867.579	2857
867.71	2895
867.841	2845
867.972	2933
868.103	2941
868.233	2906
868.364	2853
868.495	2929
868.625	3131
868.756	3199
868.886	2971
869.017	3036
869.147	3180
869.278	3195
869.408	3081
869.539	3085
869.669	3127
869.799	3077
869.929	3165
870.06	3180
870.19	3378
870.32	3298
870.45	3340
870.58	3412
870.71	3469
870.84	3488
870.97	3332
871.1	3264
871.23	3515
871.36	3488
871.489	3367
871.619	3428
871.749	3469
871.879	3454
872.008	3496
872.138	3348
872.267	3310
872.397	3161
872.526	3131
872.656	3032
872.785	3123
872.915	3256
873.044	3344
873.173	3298
873.303	3260
873.432	3306
873.561	3291
873.69	3184
873.819	3161
873.948	3253
874.077	3161
874.206	3058
874.335	3157
874.464	3272
874.593	3397
874.722	3291
874.851	3435
874.979	3374
875.108	3302
875.237	3233
875.365	3203
875.494	3203
875.623	3275
875.751	3077
875.88	3188
876.008	3199
876.136	3214
876.265	3409
876.393	3545
876.521	3443
876.65	3435
876.778	3351
876.906	3272
877.034	3222
877.162	3253
877.29	3207
877.418	3294
877.546	3275
877.674	3287
877.802	3264
877.93	3264
878.058	3233
878.185	3157
878.313	3211
878.441	3256
878.568	3074
878.696	3184
878.824	3275
878.951	3332
879.079	3492
879.206	3584
879.333	3431
879.461	3355
879.588	3393
879.715	3515
879.842	3667
879.97	3405
880.097	3150
880.224	3165
880.351	3199
880.478	3218
880.605	3237
880.732	3180
880.859	3542
880.986	3325
881.112	3329
881.239	3253
881.366	3093
881.493	3062
881.619	3039
881.746	3097
881.872	3104
881.999	3081
882.125	3180
882.252	3268
882.378	3325
882.505	3511
882.631	3329
882.757	3180
882.883	3241
883.01	3233
883.136	3165
883.262	3097
883.388	3097
883.514	3363
883.64	3420
883.766	3332
883.892	3218
884.018	3283
884.143	3458
884.269	3557
884.395	3207
884.52	3188
884.646	3199
884.772	3157
884.897	3138
885.023	3233
885.148	3363
885.274	3466
885.399	3397
885.524	3302
885.65	3268
885.775	3340
885.9	3306
886.025	3450
886.15	3428
886.275	3348
886.4	3256
886.525	3348
886.65	3302
886.775	3298
886.9	3496
887.025	3595
887.149	3393
887.274	3298
887.399	3214
887.523	3226
887.648	3203
887.773	3207
887.897	3405
888.021	3416
888.146	3348
888.27	3473
888.395	3538
888.519	3458
888.643	3500
888.767	3473
888.891	3340
889.015	3310
889.139	3317
889.263	3275
889.387	3454
889.511	3538
889.635	3515
889.759	3321
889.883	3340
890.006	3378
890.13	3534
890.254	3253
890.377	3374
890.501	3241
890.624	3199
890.748	3340
890.871	3184
890.995	3108
891.118	3119
891.241	3237
891.364	3256
891.488	3344
891.611	3230
891.734	3268
891.857	3291
891.98	3272
892.103	3344
892.226	3317
892.349	3237
892.471	3104
892.594	3279
892.717	3279
892.839	3302
892.962	3317
893.085	3344
893.207	3310
893.33	3161
893.452	3203
893.575	3363
893.697	3264
893.819	3488
893.941	3507
894.064	3454
894.186	3306
894.308	3313
894.43	3424
894.552	3553
894.674	3458
894.796	3272
894.918	3348
895.04	3310
895.161	3428
895.283	3378
895.405	3351
895.526	3401
895.648	3454
895.769	3469
895.891	3488
896.012	3496
896.134	3496
896.255	3462
896.376	3386
896.498	3355
896.619	3435
896.74	3382
896.861	3409
896.982	3740
897.103	3873
897.224	3637
897.345	3534
897.466	3473
897.587	3530
897.708	3667
897.828	3572
897.949	3447
898.07	3378
898.19	3397
898.311	3610
898.431	3431
898.552	3538
898.672	3622
898.792	3622
898.913	3549
899.033	3458
899.153	3332
899.273	3241
899.393	3253
899.513	3298
899.633	3363
899.753	3332
899.873	3306
899.993	3412
900.113	3336
900.232	3420
900.352	3363
900.472	3294
900.591	3241
900.711	3287
900.83	3249
900.95	3416
901.069	3549
901.189	3332
901.308	3199
901.427	3150
901.546	3218
901.665	3294
901.784	3355
901.904	3230
902.023	3188
902.141	3028
902.26	3005
902.379	3127
902.498	3123
902.617	3070
902.735	3214
902.854	3222
902.973	3192
903.091	3051
903.21	3043
903.328	3116
903.446	3119
903.565	3165
903.683	3192
903.801	3131
903.919	3249
904.038	3332
904.156	3180
904.274	3302
904.392	3253
904.51	3306
904.627	3313
904.745	3439
904.863	3519
904.981	3279
905.098	3173
905.216	3272
905.334	3351
905.451	3332
905.569	3344
905.686	3458
905.803	3507
905.921	3359
906.038	3500
906.155	3363
906.272	3302
906.389	3397
906.506	3256
906.623	3283
906.74	3325
906.857	3249
906.974	3287
907.091	3473
907.208	3603
907.324	3496
907.441	3473
907.557	3241
907.674	3275
907.79	3230
907.907	3291
908.023	3405
908.139	3439
908.256	3393
908.372	3420
908.488	3424
908.604	3287
908.72	3272
908.836	3367
908.952	3370
909.068	3370
909.184	3545
909.3	3462
909.415	3576
909.531	3557
909.647	3332
909.762	3344
909.878	3298
909.993	3405
910.108	3359
910.224	3359
910.339	3462
910.454	3382
910.57	3344
910.685	3321
910.8	3660
910.915	3606
911.03	3500
911.145	3329
911.259	3348
911.374	3313
911.489	3336
911.604	3272
911.718	3138
911.833	3218
911.947	3089
912.062	3104
912.176	3230
912.291	3233
912.405	3203
912.519	3469
912.633	3519
912.748	3420
912.862	3344
912.976	3184
913.09	3112
913.204	3218
913.318	3279
913.431	3359
913.545	3447
913.659	3492
913.772	3386
913.886	3283
914	3226
914.113	3412
914.226	3481
914.34	3393
914.453	3291
914.566	3477
914.68	3340
914.793	3393
914.906	3188
915.019	3199
915.132	3119
915.245	3218
915.358	3283
915.47	3272
915.583	3291
915.696	3310
915.809	3454
915.921	3454
916.034	3306
916.146	3287
916.259	3272
916.371	3435
916.483	3431
916.595	3332
916.708	3393
916.82	3386
916.932	3370
917.044	3386
917.156	3374
917.268	3332
917.38	3367
917.491	3367
917.603	3386
917.715	3515
917.826	3523
917.938	3424
918.049	3325
918.161	3450
918.272	3603
918.384	3599
918.495	3542
918.606	3401
918.717	3302
918.828	3454
918.939	3435
919.05	3332
919.161	3431
919.272	3256
919.383	3310
919.494	3519
919.604	3743
919.715	3481
919.826	3481
919.936	3477
920.047	3637
920.157	3595
920.267	3812
920.378	3644
920.488	3610
920.598	3800
920.708	4017
920.818	3865
920.928	3907
921.038	4112
921.148	4044
921.258	3781
921.368	3717
921.477	3641
921.587	3572
921.697	3553
921.806	3675
921.916	3568
922.025	3405
922.134	3416
922.244	3325
922.353	3454
922.462	3332
922.571	3264
922.68	3135
922.789	3116
922.898	3188
923.007	3097
923.116	3245
923.224	3211
923.333	3287
923.442	3135
923.55	3165
923.659	3169
923.767	3218
923.876	3176
923.984	3283
924.092	3131
924.201	3249
924.309	3294
924.417	3294
924.525	3214
924.633	3268
924.741	4219
924.849	3135
924.956	3317
925.064	3123
925.172	3039
925.279	3150
925.387	3214
925.494	3226
925.602	3370
925.709	3397
925.816	3245
925.924	3317
926.031	3424
926.138	3355
926.245	3370
926.352	3294
926.459	3454
926.566	3511
926.673	3370
926.779	3283
926.886	3302
926.993	3176
927.099	3188
927.206	3150
927.312	3131
927.419	3260
927.525	3218
927.631	3275
927.737	3207
927.843	3173
927.95	3062
928.056	3135
928.162	3214
928.267	3287
928.373	3937
928.479	3370
928.585	3070
928.69	3249
928.796	3294
928.901	3173
929.007	3093
929.112	3211
929.218	3241
929.323	3188
929.428	3211
929.533	3355
929.638	3123
929.743	3195
929.848	3317
929.953	3268
930.058	3173
930.163	3051
930.267	3116
930.372	3256
930.477	3100
930.581	3344
930.685	3233
930.79	3074
930.894	3169
930.998	3161
931.103	3344
931.207	3005
931.311	3013
931.415	2963
931.519	2834
931.623	2838
