Data from test_V78500241_1344.txt Node
Date: Fri Mar 25 16:24:30 CST 2022
User: usil
Spectrometer: V785-0024
Trigger mode: 0
Integration Time (sec): 4.000000E-1
Scans to average: 1
Nonlinearity correction enabled: false
Boxcar width: 0
Storing dark spectrum: false
XAxis mode: Wavelengths
Number of Pixels in Spectrum: 1024
>>>>>Begin Spectral Data<<<<<
801.071	2941
801.214	3028
801.356	2891
801.499	2929
801.641	2891
801.783	2948
801.926	3074
802.068	3009
802.211	3032
802.353	3062
802.496	3020
802.638	3074
802.78	3093
802.923	3112
803.065	3093
803.208	2971
803.35	2967
803.492	3013
803.635	2986
803.777	2804
803.919	2910
804.061	3260
804.204	3017
804.346	2937
804.488	2868
804.63	2975
804.773	2895
804.915	2941
805.057	3093
805.199	2960
805.341	3001
805.483	3062
805.626	3047
805.768	2960
805.91	3131
806.052	3116
806.194	3081
806.336	3233
806.478	3051
806.62	2994
806.762	2998
806.904	3058
807.046	3173
807.188	3055
807.33	2960
807.472	3005
807.614	2933
807.756	2990
807.898	2979
808.04	2880
808.182	2975
808.324	2979
808.465	2872
808.607	2910
808.749	2826
808.891	2891
809.033	3013
809.174	2998
809.316	2895
809.458	2956
809.6	2792
809.741	2823
809.883	2815
810.025	2883
810.166	2864
810.308	2864
810.45	2849
810.591	2785
810.733	2800
810.875	2857
811.016	2804
811.158	2777
811.299	2811
811.441	2933
811.582	2929
811.724	2815
811.865	2880
812.007	2925
812.148	2895
812.29	2887
812.431	2906
812.573	2937
812.714	2975
812.855	3070
812.997	3066
813.138	3119
813.279	3062
813.421	3009
813.562	2971
813.703	2868
813.845	2883
813.986	2819
814.127	2739
814.268	2830
814.41	2857
814.551	2834
814.692	2914
814.833	2853
814.974	2922
815.115	2963
815.256	2868
815.397	2853
815.539	2902
815.68	2819
815.821	2792
815.962	2963
816.103	2929
816.244	2914
816.385	2899
816.526	2971
816.666	2902
816.807	2758
816.948	2914
817.089	2960
817.23	2872
817.371	2811
817.512	2819
817.653	2864
817.793	2826
817.934	2922
818.075	3017
818.216	3024
818.356	3020
818.497	2906
818.638	2830
818.778	2872
818.919	2804
819.06	2777
819.2	2933
819.341	2769
819.481	2807
819.622	2918
819.762	3104
819.903	3066
820.043	2941
820.184	2906
820.324	2906
820.465	3036
820.605	3047
820.746	3070
820.886	2960
821.026	3100
821.167	3176
821.307	3287
821.447	3264
821.588	3287
821.728	3214
821.868	3222
822.008	3104
822.149	3218
822.289	3211
822.429	3131
822.569	3123
822.709	3176
822.849	3024
822.99	3100
823.13	3165
823.27	3241
823.41	3135
823.55	3135
823.69	3142
823.83	3192
823.97	3089
824.11	3032
824.25	3039
824.389	3097
824.529	3123
824.669	3097
824.809	3226
824.949	3233
825.089	3230
825.228	3203
825.368	3024
825.508	2971
825.648	2994
825.787	3047
825.927	3028
826.067	2986
826.206	2975
826.346	3039
826.485	3089
826.625	3116
826.765	3237
826.904	3199
827.044	2986
827.183	2941
827.323	2918
827.462	3001
827.601	2963
827.741	2948
827.88	2960
828.02	2876
828.159	3024
828.298	3047
828.437	3116
828.577	3066
828.716	3291
828.855	3070
828.994	2971
829.134	2906
829.273	2956
829.412	2918
829.551	2902
829.69	2910
829.829	2982
829.968	3176
830.107	3058
830.246	2998
830.385	2929
830.524	2914
830.663	2834
830.802	2754
830.941	2670
831.08	2648
831.219	2769
831.357	2792
831.496	2960
831.635	2746
831.774	2674
831.913	2640
832.051	2545
832.19	2587
832.329	2682
832.467	2545
832.606	2488
832.744	2598
832.883	2613
833.022	2598
833.16	2663
833.299	2686
833.437	2743
833.576	2754
833.714	2754
833.852	2769
833.991	2781
834.129	2830
834.267	2842
834.406	2785
834.544	2868
834.682	2887
834.821	2872
834.959	3089
835.097	2944
835.235	3070
835.373	3036
835.511	3001
835.65	2986
835.788	2963
835.926	2857
836.064	2826
836.202	2872
836.34	3127
836.478	3188
836.615	3074
836.753	3131
836.891	3211
837.029	3154
837.167	3119
837.305	3093
837.443	3001
837.58	2990
837.718	3150
837.856	3070
837.993	3020
838.131	3123
838.269	3135
838.406	3070
838.544	3093
838.681	2952
838.819	2925
838.956	2819
839.094	2891
839.231	2960
839.369	3058
839.506	3363
839.643	3256
839.781	3009
839.918	2975
840.055	3051
840.193	3074
840.33	3089
840.467	3070
840.604	3173
840.742	3416
840.879	3043
841.016	3017
841.153	3146
841.29	3351
841.427	3313
841.564	3283
841.701	3283
841.838	3211
841.975	3211
842.112	3222
842.249	3097
842.385	3047
842.522	3283
842.659	3070
842.796	3074
842.933	3108
843.069	3055
843.206	3058
843.343	3218
843.479	3112
843.616	3154
843.752	2880
843.889	2887
844.025	3093
844.162	2876
844.298	3097
844.435	2952
844.571	2937
844.708	3081
844.844	3222
844.98	3241
845.117	3184
845.253	3055
845.389	3005
845.525	3119
845.661	3127
845.798	3013
845.934	3135
846.07	3055
846.206	3260
846.342	3359
846.478	3275
846.614	3066
846.75	3070
846.886	3039
847.022	3260
847.158	3123
847.294	3203
847.429	3192
847.565	3226
847.701	3485
847.837	3097
847.972	3009
848.108	3157
848.244	3169
848.379	3032
848.515	2971
848.65	2941
848.786	2971
848.921	3028
849.057	3123
849.192	3161
849.328	3062
849.463	3093
849.598	3074
849.734	3077
849.869	3005
850.004	2899
850.14	2929
850.275	2922
850.41	2842
850.545	2876
850.68	2933
850.815	2952
850.95	2971
851.085	3195
851.22	3100
851.355	3013
851.49	2979
851.625	3020
851.76	3001
851.895	2918
852.03	2918
852.165	3062
852.299	3108
852.434	3180
852.569	3169
852.703	3192
852.838	3279
852.973	3351
853.107	3348
853.242	3146
853.376	3108
853.511	2986
853.645	3024
853.78	3260
853.914	3138
854.048	3135
854.183	3039
854.317	3169
854.451	3310
854.585	3127
854.72	3097
854.854	3237
854.988	3081
855.122	3089
855.256	2975
855.39	3112
855.524	3207
855.658	3161
855.792	3142
855.926	3211
856.06	3260
856.194	3237
856.327	3165
856.461	3081
856.595	3077
856.729	3055
856.862	3241
856.996	3173
857.13	3157
857.263	3188
857.397	3253
857.53	3108
857.664	3199
857.797	3241
857.931	3256
858.064	3142
858.197	3222
858.331	3112
858.464	3100
858.597	2998
858.731	3138
858.864	3138
858.997	3077
859.13	3157
859.263	3154
859.396	3218
859.529	3123
859.662	3089
859.795	3074
859.928	3119
860.061	3233
860.194	3275
860.327	3100
860.46	3097
860.592	3230
860.725	3268
860.858	3275
860.99	3104
861.123	3077
861.256	3070
861.388	3150
861.521	3663
861.653	3070
861.786	2990
861.918	3020
862.05	3043
862.183	3104
862.315	3173
862.447	3176
862.58	3081
862.712	2956
862.844	2914
862.976	3009
863.108	2986
863.24	3313
863.372	2899
863.504	2971
863.636	2933
863.768	3024
863.9	2990
864.032	2941
864.164	2975
864.296	3024
864.428	3089
864.559	3127
864.691	3051
864.823	3089
864.954	3043
865.086	3051
865.217	3005
865.349	2963
865.48	2963
865.612	2986
865.743	3138
865.875	2948
866.006	2941
866.137	2982
866.269	2956
866.4	2937
866.531	2914
866.662	2887
866.793	2891
866.924	2906
867.055	2994
867.186	2906
867.317	2922
867.448	2823
867.579	2845
867.71	2876
867.841	2807
867.972	2899
868.103	2914
868.233	2880
868.364	2876
868.495	2906
868.625	3066
868.756	3150
868.886	2948
869.017	3039
869.147	3173
869.278	3180
869.408	3024
869.539	3013
869.669	3135
869.799	3081
869.929	3104
870.06	3100
870.19	3325
870.32	3287
870.45	3302
870.58	3355
870.71	3443
870.84	3458
870.97	3306
871.1	3214
871.23	3492
871.36	3458
871.489	3351
871.619	3370
871.749	3412
871.879	3450
872.008	3481
872.138	3325
872.267	3260
872.397	3176
872.526	3089
872.656	3013
872.785	3104
872.915	3268
873.044	3332
873.173	3211
873.303	3211
873.432	3207
873.561	3207
873.69	3192
873.819	3142
873.948	3195
874.077	3097
874.206	3093
874.335	3089
874.464	3176
874.593	3355
874.722	3260
874.851	3363
874.979	3325
875.108	3340
875.237	3203
875.365	3127
875.494	3142
875.623	3241
875.751	3119
875.88	3123
876.008	3180
876.136	3218
876.265	3370
876.393	3477
876.521	3401
876.65	3401
876.778	3298
876.906	3249
877.034	3199
877.162	3211
877.29	3222
877.418	3233
877.546	3222
877.674	3226
877.802	3241
877.93	3218
878.058	3119
878.185	3100
878.313	3135
878.441	3218
878.568	3070
878.696	3100
878.824	3253
878.951	3279
879.079	3454
879.206	3603
879.333	3386
879.461	3378
879.588	3329
879.715	3500
879.842	3622
879.97	3397
880.097	3192
880.224	3123
880.351	3222
880.478	3249
880.605	3150
880.732	3161
880.859	3488
880.986	3310
881.112	3313
881.239	3195
881.366	3066
881.493	3055
881.619	3024
881.746	3028
881.872	3104
881.999	3116
882.125	3161
882.252	3218
882.378	3283
882.505	3416
882.631	3291
882.757	3135
882.883	3199
883.01	3253
883.136	3173
883.262	3112
883.388	3142
883.514	3313
883.64	3359
883.766	3310
883.892	3188
884.018	3192
884.143	3409
884.269	3542
884.395	3176
884.52	3169
884.646	3142
884.772	3108
884.897	3119
885.023	3188
885.148	3306
885.274	3424
885.399	3359
885.524	3298
885.65	3275
885.775	3306
885.9	3294
886.025	3405
886.15	3378
886.275	3291
886.4	3230
886.525	3302
886.65	3256
886.775	3306
886.9	3439
887.025	3591
887.149	3393
887.274	3260
887.399	3207
887.523	3195
887.648	3207
887.773	3173
887.897	3363
888.021	3355
888.146	3241
888.27	3409
888.395	3511
888.519	3401
888.643	3469
888.767	3454
888.891	3283
889.015	3211
889.139	3268
889.263	3256
889.387	3409
889.511	3530
889.635	3492
889.759	3279
889.883	3294
890.006	3405
890.13	3473
890.254	3253
890.377	3359
890.501	3203
890.624	3157
890.748	3272
890.871	3222
890.995	3142
891.118	3081
891.241	3195
891.364	3222
891.488	3306
891.611	3154
891.734	3207
891.857	3272
891.98	3211
892.103	3332
892.226	3260
892.349	3195
892.471	3085
892.594	3199
892.717	3249
892.839	3253
892.962	3287
893.085	3351
893.207	3291
893.33	3138
893.452	3226
893.575	3355
893.697	3283
893.819	3431
893.941	3488
894.064	3435
894.186	3260
894.308	3291
894.43	3431
894.552	3507
894.674	3466
894.796	3253
894.918	3287
895.04	3268
895.161	3405
895.283	3332
895.405	3294
895.526	3374
895.648	3431
895.769	3382
895.891	3473
896.012	3458
896.134	3443
896.255	3416
896.376	3363
896.498	3325
896.619	3435
896.74	3359
896.861	3416
896.982	3694
897.103	3804
897.224	3595
897.345	3526
897.466	3416
897.587	3515
897.708	3599
897.828	3599
897.949	3420
898.07	3321
898.19	3435
898.311	3591
898.431	3469
898.552	3515
898.672	3587
898.792	3610
898.913	3500
899.033	3416
899.153	3306
899.273	3207
899.393	3264
899.513	3344
899.633	3340
899.753	3294
899.873	3313
899.993	3370
900.113	3317
900.232	3378
900.352	3329
900.472	3283
900.591	3180
900.711	3283
900.83	3245
900.95	3420
901.069	3481
901.189	3359
901.308	3173
901.427	3116
901.546	3199
901.665	3294
901.784	3298
901.904	3180
902.023	3138
902.141	3020
902.26	2979
902.379	3165
902.498	3047
902.617	3055
902.735	3184
902.854	3245
902.973	3184
903.091	3051
903.21	3043
903.328	3138
903.446	3070
903.565	3085
903.683	3195
903.801	3146
903.919	3241
904.038	3283
904.156	3127
904.274	3336
904.392	3253
904.51	3294
904.627	3344
904.745	3412
904.863	3473
904.981	3226
905.098	3150
905.216	3253
905.334	3294
905.451	3294
905.569	3279
905.686	3431
905.803	3401
905.921	3302
906.038	3435
906.155	3332
906.272	3211
906.389	3325
906.506	3203
906.623	3237
906.74	3272
906.857	3173
906.974	3233
907.091	3393
907.208	3564
907.324	3431
907.441	3393
907.557	3222
907.674	3211
907.79	3192
907.907	3264
908.023	3416
908.139	3370
908.256	3321
908.372	3382
908.488	3340
908.604	3256
908.72	3241
908.836	3275
908.952	3253
909.068	3340
909.184	3492
909.3	3363
909.415	3507
909.531	3473
909.647	3245
909.762	3317
909.878	3260
909.993	3382
910.108	3340
910.224	3294
910.339	3409
910.454	3325
910.57	3306
910.685	3207
910.8	3572
910.915	3538
911.03	3405
911.145	3291
911.259	3260
911.374	3279
911.489	3256
911.604	3233
911.718	3093
911.833	3119
911.947	3017
912.062	3020
912.176	3138
912.291	3192
912.405	3226
912.519	3443
912.633	3424
912.748	3340
912.862	3272
912.976	3165
913.09	3055
913.204	3123
913.318	3237
913.431	3340
913.545	3344
913.659	3424
913.772	3325
913.886	3203
914	3207
914.113	3359
914.226	3435
914.34	3367
914.453	3218
914.566	3409
914.68	3279
914.793	3317
914.906	3116
915.019	3100
915.132	3047
915.245	3123
915.358	3214
915.47	3218
915.583	3245
915.696	3317
915.809	3420
915.921	3454
916.034	3237
916.146	3245
916.259	3260
916.371	3363
916.483	3386
916.595	3241
916.708	3351
916.82	3321
916.932	3351
917.044	3283
917.156	3359
917.268	3249
917.38	3287
917.491	3294
917.603	3370
917.715	3431
917.826	3420
917.938	3367
918.049	3302
918.161	3420
918.272	3606
918.384	3534
918.495	3469
918.606	3363
918.717	3283
918.828	3393
918.939	3420
919.05	3283
919.161	3348
919.272	3154
919.383	3253
919.494	3526
919.604	3686
919.715	3450
919.826	3382
919.936	3462
920.047	3587
920.157	3549
920.267	3766
920.378	3622
920.488	3530
920.598	3793
920.708	3983
920.818	3835
920.928	3854
921.038	4013
921.148	4048
921.258	3728
921.368	3614
921.477	3576
921.587	3530
921.697	3466
921.806	3625
921.916	3507
922.025	3382
922.134	3332
922.244	3313
922.353	3424
922.462	3268
922.571	3226
922.68	3131
922.789	3104
922.898	3116
923.007	3127
923.116	3192
923.224	3180
923.333	3165
923.442	3089
923.55	3097
923.659	3135
923.767	3222
923.876	3093
923.984	3226
924.092	3066
924.201	3241
924.309	3241
924.417	3241
924.525	3192
924.633	3233
924.741	3991
924.849	3062
924.956	3233
925.064	3112
925.172	3013
925.279	3108
925.387	3161
925.494	3157
925.602	3370
925.709	3310
925.816	3142
925.924	3264
926.031	3348
926.138	3291
926.245	3378
926.352	3272
926.459	3409
926.566	3450
926.673	3321
926.779	3214
926.886	3218
926.993	3157
927.099	3081
927.206	3127
927.312	3089
927.419	3245
927.525	3214
927.631	3256
927.737	3135
927.843	3123
927.95	3066
928.056	3142
928.162	3138
928.267	3253
928.373	3846
928.479	3306
928.585	3036
928.69	3230
928.796	3260
928.901	3146
929.007	3051
929.112	3203
929.218	3199
929.323	3161
929.428	3173
929.533	3336
929.638	3097
929.743	3112
929.848	3203
929.953	3233
930.058	3119
930.163	3028
930.267	3058
930.372	3180
930.477	2994
930.581	3329
930.685	3184
930.79	3013
930.894	3150
930.998	3066
931.103	3253
931.207	2971
931.311	2944
931.415	2925
931.519	2781
931.623	2792
