Data from test_V78500241_1481.txt Node
Date: Fri Mar 25 16:25:27 CST 2022
User: usil
Spectrometer: V785-0024
Trigger mode: 0
Integration Time (sec): 4.000000E-1
Scans to average: 1
Nonlinearity correction enabled: false
Boxcar width: 0
Storing dark spectrum: false
XAxis mode: Wavelengths
Number of Pixels in Spectrum: 1024
>>>>>Begin Spectral Data<<<<<
801.071	2868
801.214	2960
801.356	2861
801.499	2895
801.641	2868
801.783	2925
801.926	3043
802.068	2994
802.211	3009
802.353	3047
802.496	2948
802.638	3005
802.78	3039
802.923	3089
803.065	2986
803.208	2891
803.35	2975
803.492	2933
803.635	2952
803.777	2769
803.919	2891
804.061	3180
804.204	2922
804.346	2922
804.488	2853
804.63	2944
804.773	2830
804.915	2922
805.057	3085
805.199	2967
805.341	2952
805.483	3036
805.626	2975
805.768	3001
805.91	3108
806.052	3100
806.194	3036
806.336	3256
806.478	3009
806.62	2952
806.762	2963
806.904	3089
807.046	3127
807.188	2956
807.33	2941
807.472	2986
807.614	2929
807.756	3009
807.898	2925
808.04	2906
808.182	2967
808.324	2975
808.465	2925
808.607	2906
808.749	2792
808.891	2857
809.033	2979
809.174	2979
809.316	2906
809.458	2887
809.6	2777
809.741	2735
809.883	2769
810.025	2864
810.166	2883
810.308	2857
810.45	2864
810.591	2800
810.733	2777
810.875	2815
811.016	2777
811.158	2708
811.299	2819
811.441	2918
811.582	2910
811.724	2826
811.865	2842
812.007	2899
812.148	2853
812.29	2853
812.431	2857
812.573	2922
812.714	2963
812.855	3039
812.997	3097
813.138	3146
813.279	2956
813.421	2982
813.562	2925
813.703	2910
813.845	2891
813.986	2792
814.127	2739
814.268	2826
814.41	2819
814.551	2804
814.692	2868
814.833	2819
814.974	2887
815.115	2933
815.256	2830
815.397	2819
815.539	2891
815.68	2796
815.821	2785
815.962	2914
816.103	2941
816.244	2876
816.385	2857
816.526	2994
816.666	2914
816.807	2750
816.948	2872
817.089	2902
817.23	2842
817.371	2773
817.512	2834
817.653	2826
817.793	2815
817.934	2887
818.075	2998
818.216	3001
818.356	3036
818.497	2861
818.638	2777
818.778	2800
818.919	2766
819.06	2754
819.2	2899
819.341	2804
819.481	2785
819.622	2902
819.762	3100
819.903	3093
820.043	2906
820.184	2872
820.324	2910
820.465	3017
820.605	3024
820.746	3017
820.886	2944
821.026	3043
821.167	3150
821.307	3233
821.447	3272
821.588	3249
821.728	3226
821.868	3199
822.008	3097
822.149	3154
822.289	3207
822.429	3081
822.569	3097
822.709	3169
822.849	3032
822.99	3051
823.13	3123
823.27	3195
823.41	3089
823.55	3165
823.69	3154
823.83	3169
823.97	3062
824.11	3005
824.25	2963
824.389	3047
824.529	3127
824.669	3066
824.809	3199
824.949	3245
825.089	3203
825.228	3180
825.368	2994
825.508	2948
825.648	2922
825.787	3017
825.927	2963
826.067	2948
826.206	2929
826.346	3024
826.485	3085
826.625	3093
826.765	3260
826.904	3184
827.044	3009
827.183	2941
827.323	2845
827.462	2979
827.601	2925
827.741	2914
827.88	2948
828.02	2842
828.159	2975
828.298	3066
828.437	3093
828.577	3055
828.716	3233
828.855	3089
828.994	2918
829.134	2868
829.273	2960
829.412	2857
829.551	2830
829.69	2883
829.829	2963
829.968	3100
830.107	3013
830.246	3005
830.385	2918
830.524	2872
830.663	2842
830.802	2739
830.941	2644
831.08	2651
831.219	2750
831.357	2750
831.496	2952
831.635	2727
831.774	2629
831.913	2636
832.051	2518
832.19	2583
832.329	2670
832.467	2545
832.606	2476
832.744	2568
832.883	2549
833.022	2602
833.16	2632
833.299	2670
833.437	2682
833.576	2693
833.714	2716
833.852	2724
833.991	2735
834.129	2804
834.267	2823
834.406	2769
834.544	2872
834.682	2883
834.821	2857
834.959	3070
835.097	2891
835.235	3009
835.373	2994
835.511	2998
835.65	2944
835.788	2967
835.926	2788
836.064	2781
836.202	2842
836.34	3085
836.478	3154
836.615	3039
836.753	3131
836.891	3169
837.029	3157
837.167	3100
837.305	3058
837.443	3020
837.58	2956
837.718	3127
837.856	3066
837.993	3013
838.131	3131
838.269	3104
838.406	3089
838.544	3085
838.681	2929
838.819	2925
838.956	2830
839.094	2800
839.231	2933
839.369	3001
839.506	3348
839.643	3237
839.781	3066
839.918	2952
840.055	3024
840.193	3039
840.33	3058
840.467	3127
840.604	3192
840.742	3389
840.879	3089
841.016	3043
841.153	3108
841.29	3351
841.427	3272
841.564	3260
841.701	3272
841.838	3233
841.975	3169
842.112	3203
842.249	3089
842.385	3051
842.522	3264
842.659	3085
842.796	3055
842.933	3097
843.069	3055
843.206	3024
843.343	3176
843.479	3085
843.616	3138
843.752	2887
843.889	2853
844.025	3097
844.162	2910
844.298	3077
844.435	2963
844.571	2906
844.708	3039
844.844	3195
844.98	3230
845.117	3192
845.253	3074
845.389	2994
845.525	3085
845.661	3089
845.798	3001
845.934	3119
846.07	3055
846.206	3230
846.342	3298
846.478	3222
846.614	3119
846.75	3055
846.886	3047
847.022	3245
847.158	3116
847.294	3188
847.429	3214
847.565	3192
847.701	3458
847.837	3013
847.972	2971
848.108	3154
848.244	3131
848.379	3001
848.515	2944
848.65	2922
848.786	2971
848.921	3005
849.057	3085
849.192	3131
849.328	3051
849.463	3119
849.598	3058
849.734	3024
849.869	3020
850.004	2880
850.14	2963
850.275	2925
850.41	2815
850.545	2895
850.68	2941
850.815	2941
850.95	2986
851.085	3184
851.22	3093
851.355	3001
851.49	2956
851.625	2967
851.76	2994
851.895	2914
852.03	2899
852.165	3051
852.299	3138
852.434	3188
852.569	3138
852.703	3176
852.838	3245
852.973	3344
853.107	3306
853.242	3150
853.376	3093
853.511	2944
853.645	3047
853.78	3253
853.914	3142
854.048	3104
854.183	3062
854.317	3161
854.451	3279
854.585	3093
854.72	3108
854.854	3146
854.988	3070
855.122	3100
855.256	2960
855.39	3108
855.524	3214
855.658	3203
855.792	3154
855.926	3214
856.06	3203
856.194	3268
856.327	3146
856.461	3047
856.595	3108
856.729	3077
856.862	3245
856.996	3184
857.13	3173
857.263	3203
857.397	3245
857.53	3119
857.664	3214
857.797	3230
857.931	3253
858.064	3165
858.197	3199
858.331	3157
858.464	3112
858.597	3020
858.731	3127
858.864	3157
858.997	3077
859.13	3199
859.263	3180
859.396	3233
859.529	3085
859.662	3051
859.795	3036
859.928	3131
860.061	3294
860.194	3302
860.327	3116
860.46	3043
860.592	3230
860.725	3287
860.858	3260
860.99	3108
861.123	3055
861.256	3036
861.388	3135
861.521	3781
861.653	3020
861.786	2990
861.918	2986
862.05	3036
862.183	3085
862.315	3135
862.447	3218
862.58	3093
862.712	2948
862.844	2880
862.976	3013
863.108	2986
863.24	3298
863.372	2864
863.504	2925
863.636	2918
863.768	3009
863.9	2967
864.032	2883
864.164	2952
864.296	2986
864.428	3085
864.559	3100
864.691	3055
864.823	3070
864.954	2990
865.086	3039
865.217	3001
865.349	2971
865.48	3013
865.612	3009
865.743	3150
865.875	2979
866.006	2948
866.137	2971
866.269	2975
866.4	2952
866.531	2929
866.662	2864
866.793	2948
866.924	2895
867.055	2994
867.186	2925
867.317	2872
867.448	2811
867.579	2823
867.71	2853
867.841	2804
867.972	2922
868.103	2891
868.233	2880
868.364	2876
868.495	2864
868.625	3058
868.756	3173
868.886	3001
869.017	2971
869.147	3146
869.278	3176
869.408	3017
869.539	3047
869.669	3138
869.799	3074
869.929	3100
870.06	3104
870.19	3306
870.32	3306
870.45	3279
870.58	3359
870.71	3431
870.84	3424
870.97	3268
871.1	3230
871.23	3466
871.36	3420
871.489	3367
871.619	3405
871.749	3393
871.879	3412
872.008	3466
872.138	3321
872.267	3283
872.397	3161
872.526	3051
872.656	2998
872.785	3135
872.915	3218
873.044	3313
873.173	3241
873.303	3256
873.432	3260
873.561	3226
873.69	3146
873.819	3169
873.948	3142
874.077	3093
874.206	3024
874.335	3089
874.464	3192
874.593	3329
874.722	3207
874.851	3378
874.979	3332
875.108	3310
875.237	3203
875.365	3184
875.494	3135
875.623	3245
875.751	3116
875.88	3116
876.008	3176
876.136	3233
876.265	3397
876.393	3496
876.521	3370
876.65	3386
876.778	3321
876.906	3237
877.034	3173
877.162	3214
877.29	3176
877.418	3253
877.546	3195
877.674	3214
877.802	3249
877.93	3230
878.058	3123
878.185	3081
878.313	3169
878.441	3192
878.568	3093
878.696	3173
878.824	3237
878.951	3275
879.079	3428
879.206	3595
879.333	3428
879.461	3298
879.588	3359
879.715	3492
879.842	3610
879.97	3378
880.097	3180
880.224	3112
880.351	3222
880.478	3199
880.605	3192
880.732	3207
880.859	3481
880.986	3313
881.112	3351
881.239	3214
881.366	3112
881.493	3028
881.619	3020
881.746	3089
881.872	3081
881.999	3108
882.125	3142
882.252	3253
882.378	3272
882.505	3473
882.631	3260
882.757	3154
882.883	3218
883.01	3237
883.136	3112
883.262	3104
883.388	3081
883.514	3279
883.64	3386
883.766	3332
883.892	3203
884.018	3260
884.143	3382
884.269	3538
884.395	3218
884.52	3161
884.646	3180
884.772	3127
884.897	3100
885.023	3192
885.148	3279
885.274	3439
885.399	3409
885.524	3283
885.65	3298
885.775	3329
885.9	3272
886.025	3405
886.15	3340
886.275	3306
886.4	3207
886.525	3253
886.65	3272
886.775	3241
886.9	3519
887.025	3618
887.149	3435
887.274	3249
887.399	3173
887.523	3211
887.648	3169
887.773	3195
887.897	3359
888.021	3332
888.146	3287
888.27	3481
888.395	3538
888.519	3416
888.643	3462
888.767	3447
888.891	3351
889.015	3275
889.139	3317
889.263	3230
889.387	3428
889.511	3473
889.635	3450
889.759	3260
889.883	3344
890.006	3424
890.13	3477
890.254	3233
890.377	3359
890.501	3180
890.624	3195
890.748	3321
890.871	3203
890.995	3100
891.118	3051
891.241	3184
891.364	3237
891.488	3287
891.611	3161
891.734	3245
891.857	3313
891.98	3233
892.103	3332
892.226	3249
892.349	3222
892.471	3123
892.594	3214
892.717	3294
892.839	3249
892.962	3317
893.085	3313
893.207	3268
893.33	3142
893.452	3233
893.575	3344
893.697	3268
893.819	3435
893.941	3504
894.064	3420
894.186	3272
894.308	3268
894.43	3458
894.552	3530
894.674	3454
894.796	3256
894.918	3321
895.04	3253
895.161	3405
895.283	3389
895.405	3302
895.526	3336
895.648	3428
895.769	3431
895.891	3454
896.012	3500
896.134	3443
896.255	3412
896.376	3363
896.498	3344
896.619	3409
896.74	3378
896.861	3409
896.982	3652
897.103	3835
897.224	3591
897.345	3538
897.466	3435
897.587	3485
897.708	3595
897.828	3519
897.949	3435
898.07	3340
898.19	3431
898.311	3599
898.431	3450
898.552	3485
898.672	3603
898.792	3622
898.913	3542
899.033	3409
899.153	3287
899.273	3211
899.393	3268
899.513	3302
899.633	3294
899.753	3351
899.873	3275
899.993	3382
900.113	3363
900.232	3428
900.352	3340
900.472	3287
900.591	3249
900.711	3279
900.83	3237
900.95	3409
901.069	3488
901.189	3336
901.308	3165
901.427	3119
901.546	3180
901.665	3264
901.784	3393
901.904	3283
902.023	3142
902.141	3047
902.26	2975
902.379	3138
902.498	3085
902.617	3058
902.735	3199
902.854	3226
902.973	3211
903.091	3047
903.21	3028
903.328	3127
903.446	3062
903.565	3093
903.683	3192
903.801	3123
903.919	3291
904.038	3272
904.156	3169
904.274	3279
904.392	3272
904.51	3253
904.627	3298
904.745	3447
904.863	3519
904.981	3260
905.098	3184
905.216	3218
905.334	3272
905.451	3310
905.569	3272
905.686	3420
905.803	3416
905.921	3275
906.038	3431
906.155	3374
906.272	3272
906.389	3382
906.506	3218
906.623	3253
906.74	3279
906.857	3180
906.974	3272
907.091	3481
907.208	3534
907.324	3485
907.441	3359
907.557	3241
907.674	3233
907.79	3218
907.907	3264
908.023	3363
908.139	3355
908.256	3325
908.372	3351
908.488	3344
908.604	3264
908.72	3226
908.836	3313
908.952	3287
909.068	3332
909.184	3458
909.3	3409
909.415	3530
909.531	3424
909.647	3253
909.762	3279
909.878	3268
909.993	3313
910.108	3321
910.224	3306
910.339	3386
910.454	3310
910.57	3310
910.685	3283
910.8	3549
910.915	3530
911.03	3416
911.145	3268
911.259	3279
911.374	3329
911.489	3249
911.604	3195
911.718	3150
911.833	3165
911.947	3009
912.062	2948
912.176	3195
912.291	3165
912.405	3237
912.519	3420
912.633	3447
912.748	3367
912.862	3275
912.976	3165
913.09	3039
913.204	3157
913.318	3203
913.431	3336
913.545	3367
913.659	3409
913.772	3302
913.886	3195
914	3218
914.113	3351
914.226	3393
914.34	3367
914.453	3195
914.566	3336
914.68	3279
914.793	3294
914.906	3131
915.019	3097
915.132	3028
915.245	3161
915.358	3195
915.47	3272
915.583	3253
915.696	3233
915.809	3393
915.921	3393
916.034	3233
916.146	3253
916.259	3211
916.371	3389
916.483	3412
916.595	3279
916.708	3348
916.82	3321
916.932	3291
917.044	3313
917.156	3336
917.268	3256
917.38	3275
917.491	3279
917.603	3409
917.715	3466
917.826	3416
917.938	3393
918.049	3275
918.161	3409
918.272	3530
918.384	3557
918.495	3420
918.606	3298
918.717	3283
918.828	3359
918.939	3412
919.05	3325
919.161	3397
919.272	3165
919.383	3233
919.494	3496
919.604	3675
919.715	3458
919.826	3447
919.936	3450
920.047	3549
920.157	3553
920.267	3724
920.378	3599
920.488	3580
920.598	3774
920.708	3926
920.818	3816
920.928	3861
921.038	4040
921.148	3979
921.258	3682
921.368	3587
921.477	3564
921.587	3564
921.697	3454
921.806	3637
921.916	3496
922.025	3348
922.134	3325
922.244	3321
922.353	3447
922.462	3249
922.571	3207
922.68	3127
922.789	3093
922.898	3165
923.007	3074
923.116	3211
923.224	3135
923.333	3184
923.442	3074
923.55	3119
923.659	3146
923.767	3233
923.876	3104
923.984	3237
924.092	3100
924.201	3211
924.309	3207
924.417	3230
924.525	3192
924.633	3268
924.741	4173
924.849	3058
924.956	3260
925.064	3108
925.172	3039
925.279	3093
925.387	3173
925.494	3184
925.602	3367
925.709	3306
925.816	3184
925.924	3245
926.031	3325
926.138	3336
926.245	3351
926.352	3245
926.459	3348
926.566	3428
926.673	3355
926.779	3195
926.886	3253
926.993	3165
927.099	3138
927.206	3104
927.312	3089
927.419	3203
927.525	3192
927.631	3241
927.737	3104
927.843	3127
927.95	3070
928.056	3127
928.162	3188
928.267	3226
928.373	3698
928.479	3310
928.585	3085
928.69	3230
928.796	3237
928.901	3180
929.007	3062
929.112	3150
929.218	3207
929.323	3154
929.428	3112
929.533	3275
929.638	3116
929.743	3173
929.848	3260
929.953	3214
930.058	3119
930.163	2990
930.267	3036
930.372	3176
930.477	3036
930.581	3302
930.685	3165
930.79	3043
930.894	3112
930.998	3043
931.103	3249
931.207	2925
931.311	2941
931.415	2929
931.519	2758
931.623	2811
