Data from test_V78500241_250.txt Node
Date: Fri Mar 25 16:16:56 CST 2022
User: usil
Spectrometer: V785-0024
Trigger mode: 0
Integration Time (sec): 4.000000E-1
Scans to average: 1
Nonlinearity correction enabled: false
Boxcar width: 0
Storing dark spectrum: false
XAxis mode: Wavelengths
Number of Pixels in Spectrum: 1024
>>>>>Begin Spectral Data<<<<<
801.071	2944
801.214	2963
801.356	2876
801.499	2880
801.641	2895
801.783	2918
801.926	3020
802.068	2956
802.211	2982
802.353	3055
802.496	2941
802.638	3009
802.78	3055
802.923	3097
803.065	3001
803.208	2906
803.35	2922
803.492	2887
803.635	2918
803.777	2758
803.919	2872
804.061	3195
804.204	2967
804.346	2899
804.488	2853
804.63	2960
804.773	2857
804.915	2895
805.057	3070
805.199	2941
805.341	2986
805.483	3077
805.626	3043
805.768	2960
805.91	3093
806.052	3089
806.194	3043
806.336	3214
806.478	3020
806.62	2937
806.762	2960
806.904	3055
807.046	3169
807.188	2967
807.33	2883
807.472	2975
807.614	2899
807.756	2975
807.898	2914
808.04	2853
808.182	2929
808.324	2948
808.465	2876
808.607	2906
808.749	2792
808.891	2842
809.033	2963
809.174	2986
809.316	2922
809.458	2891
809.6	2758
809.741	2754
809.883	2766
810.025	2830
810.166	2857
810.308	2853
810.45	2853
810.591	2758
810.733	2811
810.875	2819
811.016	2766
811.158	2727
811.299	2788
811.441	2952
811.582	2883
811.724	2807
811.865	2826
812.007	2880
812.148	2876
812.29	2830
812.431	2861
812.573	2948
812.714	2963
812.855	3039
812.997	3024
813.138	3142
813.279	3009
813.421	2982
813.562	2944
813.703	2906
813.845	2918
813.986	2773
814.127	2712
814.268	2857
814.41	2857
814.551	2830
814.692	2868
814.833	2826
814.974	2872
815.115	2944
815.256	2826
815.397	2815
815.539	2849
815.68	2777
815.821	2792
815.962	2956
816.103	2922
816.244	2864
816.385	2826
816.526	2967
816.666	2914
816.807	2750
816.948	2895
817.089	2929
817.23	2857
817.371	2769
817.512	2769
817.653	2861
817.793	2838
817.934	2864
818.075	2952
818.216	2994
818.356	2998
818.497	2872
818.638	2792
818.778	2853
818.919	2769
819.06	2773
819.2	2887
819.341	2800
819.481	2777
819.622	2918
819.762	3108
819.903	3089
820.043	2899
820.184	2902
820.324	2883
820.465	3013
820.605	3043
820.746	3028
820.886	2925
821.026	3097
821.167	3161
821.307	3256
821.447	3279
821.588	3222
821.728	3180
821.868	3211
822.008	3043
822.149	3184
822.289	3150
822.429	3077
822.569	3097
822.709	3192
822.849	3055
822.99	3066
823.13	3127
823.27	3173
823.41	3108
823.55	3146
823.69	3173
823.83	3184
823.97	3100
824.11	3024
824.25	3028
824.389	3055
824.529	3097
824.669	3039
824.809	3184
824.949	3268
825.089	3180
825.228	3150
825.368	2971
825.508	2975
825.648	2998
825.787	3013
825.927	3017
826.067	2937
826.206	2948
826.346	3043
826.485	3119
826.625	3085
826.765	3268
826.904	3256
827.044	2979
827.183	2963
827.323	2857
827.462	2956
827.601	2922
827.741	2906
827.88	2960
828.02	2864
828.159	2937
828.298	3001
828.437	3104
828.577	3039
828.716	3188
828.855	3081
828.994	2948
829.134	2880
829.273	2906
829.412	2883
829.551	2815
829.69	2906
829.829	2994
829.968	3097
830.107	3032
830.246	3013
830.385	2914
830.524	2880
830.663	2842
830.802	2686
830.941	2636
831.08	2644
831.219	2743
831.357	2769
831.496	2956
831.635	2746
831.774	2625
831.913	2629
832.051	2549
832.19	2594
832.329	2670
832.467	2511
832.606	2476
832.744	2602
832.883	2564
833.022	2541
833.16	2625
833.299	2689
833.437	2693
833.576	2701
833.714	2705
833.852	2739
833.991	2773
834.129	2830
834.267	2861
834.406	2785
834.544	2842
834.682	2872
834.821	2842
834.959	3055
835.097	2929
835.235	3108
835.373	3005
835.511	3017
835.65	2952
835.788	2925
835.926	2830
836.064	2788
836.202	2876
836.34	3108
836.478	3173
836.615	3077
836.753	3192
836.891	3203
837.029	3161
837.167	3131
837.305	3097
837.443	3055
837.58	2994
837.718	3123
837.856	3070
837.993	3047
838.131	3157
838.269	3165
838.406	3150
838.544	3100
838.681	3009
838.819	2929
838.956	2823
839.094	2887
839.231	2975
839.369	3051
839.506	3405
839.643	3226
839.781	3039
839.918	2994
840.055	3100
840.193	3104
840.33	3077
840.467	3165
840.604	3195
840.742	3458
840.879	3077
841.016	3093
841.153	3176
841.29	3382
841.427	3317
841.564	3306
841.701	3374
841.838	3287
841.975	3218
842.112	3279
842.249	3108
842.385	3070
842.522	3325
842.659	3112
842.796	3062
842.933	3131
843.069	3093
843.206	3100
843.343	3237
843.479	3131
843.616	3169
843.752	2956
843.889	2914
844.025	3142
844.162	2922
844.298	3100
844.435	3017
844.571	2994
844.708	3161
844.844	3268
844.98	3287
845.117	3222
845.253	3093
845.389	3051
845.525	3173
845.661	3154
845.798	3077
845.934	3138
846.07	3138
846.206	3260
846.342	3348
846.478	3241
846.614	3116
846.75	3093
846.886	3028
847.022	3279
847.158	3157
847.294	3241
847.429	3275
847.565	3207
847.701	3507
847.837	3066
847.972	3058
848.108	3203
848.244	3150
848.379	3039
848.515	2975
848.65	3001
848.786	2990
848.921	3039
849.057	3116
849.192	3180
849.328	3131
849.463	3123
849.598	3097
849.734	3047
849.869	2982
850.004	2944
850.14	2982
850.275	2963
850.41	2868
850.545	2906
850.68	2975
850.815	3005
850.95	3001
851.085	3272
851.22	3138
851.355	3085
851.49	3077
851.625	3047
851.76	3020
851.895	2948
852.03	2948
852.165	3028
852.299	3173
852.434	3222
852.569	3169
852.703	3211
852.838	3294
852.973	3405
853.107	3367
853.242	3211
853.376	3123
853.511	3001
853.645	3081
853.78	3268
853.914	3184
854.048	3131
854.183	3108
854.317	3165
854.451	3325
854.585	3157
854.72	3119
854.854	3218
854.988	3089
855.122	3138
855.256	3009
855.39	3100
855.524	3321
855.658	3249
855.792	3192
855.926	3237
856.06	3230
856.194	3298
856.327	3176
856.461	3131
856.595	3119
856.729	3127
856.862	3264
856.996	3161
857.13	3214
857.263	3272
857.397	3313
857.53	3150
857.664	3207
857.797	3294
857.931	3325
858.064	3218
858.197	3253
858.331	3150
858.464	3154
858.597	3066
858.731	3146
858.864	3195
858.997	3127
859.13	3203
859.263	3230
859.396	3226
859.529	3146
859.662	3119
859.795	3089
859.928	3199
860.061	3332
860.194	3325
860.327	3165
860.46	3116
860.592	3256
860.725	3279
860.858	3313
860.99	3138
861.123	3077
861.256	3093
861.388	3207
861.521	3873
861.653	3036
861.786	2994
861.918	3043
862.05	3085
862.183	3089
862.315	3188
862.447	3218
862.58	3131
862.712	3005
862.844	2895
862.976	3024
863.108	3058
863.24	3389
863.372	2922
863.504	2990
863.636	2990
863.768	3066
863.9	2986
864.032	2948
864.164	2963
864.296	3058
864.428	3131
864.559	3165
864.691	3131
864.823	3131
864.954	3074
865.086	3036
865.217	3020
865.349	3013
865.48	3005
865.612	3032
865.743	3169
865.875	3005
866.006	2994
866.137	3005
866.269	2975
866.4	2982
866.531	2967
866.662	2918
866.793	2914
866.924	2948
867.055	3005
867.186	2952
867.317	2922
867.448	2880
867.579	2914
867.71	2922
867.841	2857
867.972	2944
868.103	2925
868.233	2929
868.364	2929
868.495	2948
868.625	3116
868.756	3222
868.886	2952
869.017	3032
869.147	3184
869.278	3214
869.408	3070
869.539	3047
869.669	3104
869.799	3047
869.929	3161
870.06	3142
870.19	3370
870.32	3332
870.45	3348
870.58	3397
870.71	3500
870.84	3519
870.97	3370
871.1	3298
871.23	3530
871.36	3496
871.489	3344
871.619	3420
871.749	3443
871.879	3458
872.008	3538
872.138	3401
872.267	3325
872.397	3184
872.526	3138
872.656	3028
872.785	3142
872.915	3302
873.044	3382
873.173	3272
873.303	3241
873.432	3279
873.561	3253
873.69	3188
873.819	3161
873.948	3180
874.077	3150
874.206	3077
874.335	3146
874.464	3230
874.593	3382
874.722	3287
874.851	3435
874.979	3359
875.108	3386
875.237	3237
875.365	3211
875.494	3226
875.623	3291
875.751	3154
875.88	3135
876.008	3211
876.136	3241
876.265	3397
876.393	3538
876.521	3431
876.65	3431
876.778	3370
876.906	3294
877.034	3233
877.162	3256
877.29	3214
877.418	3313
877.546	3268
877.674	3253
877.802	3256
877.93	3253
878.058	3176
878.185	3142
878.313	3192
878.441	3287
878.568	3112
878.696	3207
878.824	3253
878.951	3329
879.079	3523
879.206	3667
879.333	3492
879.461	3363
879.588	3378
879.715	3515
879.842	3599
879.97	3431
880.097	3199
880.224	3165
880.351	3241
880.478	3233
880.605	3226
880.732	3192
880.859	3538
880.986	3336
881.112	3363
881.239	3207
881.366	3104
881.493	3108
881.619	3017
881.746	3104
881.872	3081
881.999	3116
882.125	3161
882.252	3313
882.378	3329
882.505	3443
882.631	3302
882.757	3180
882.883	3203
883.01	3237
883.136	3207
883.262	3108
883.388	3127
883.514	3348
883.64	3393
883.766	3340
883.892	3214
884.018	3256
884.143	3431
884.269	3580
884.395	3253
884.52	3169
884.646	3222
884.772	3154
884.897	3142
885.023	3268
885.148	3348
885.274	3397
885.399	3454
885.524	3272
885.65	3291
885.775	3332
885.9	3317
886.025	3439
886.15	3393
886.275	3306
886.4	3260
886.525	3310
886.65	3294
886.775	3291
886.9	3538
887.025	3633
887.149	3458
887.274	3287
887.399	3154
887.523	3264
887.648	3218
887.773	3211
887.897	3386
888.021	3435
888.146	3302
888.27	3477
888.395	3526
888.519	3462
888.643	3458
888.767	3477
888.891	3348
889.015	3245
889.139	3313
889.263	3287
889.387	3401
889.511	3534
889.635	3454
889.759	3332
889.883	3325
890.006	3409
890.13	3542
890.254	3329
890.377	3336
890.501	3245
890.624	3199
890.748	3306
890.871	3218
890.995	3146
891.118	3119
891.241	3199
891.364	3287
891.488	3313
891.611	3211
891.734	3241
891.857	3291
891.98	3264
892.103	3355
892.226	3287
892.349	3272
892.471	3123
892.594	3287
892.717	3336
892.839	3291
892.962	3302
893.085	3359
893.207	3340
893.33	3180
893.452	3249
893.575	3359
893.697	3253
893.819	3496
893.941	3545
894.064	3504
894.186	3275
894.308	3298
894.43	3454
894.552	3557
894.674	3473
894.796	3321
894.918	3306
895.04	3344
895.161	3462
895.283	3454
895.405	3329
895.526	3428
895.648	3443
895.769	3473
895.891	3488
896.012	3515
896.134	3485
896.255	3382
896.376	3469
896.498	3389
896.619	3447
896.74	3378
896.861	3401
896.982	3682
897.103	3857
897.224	3580
897.345	3504
897.466	3462
897.587	3557
897.708	3641
897.828	3580
897.949	3458
898.07	3359
898.19	3435
898.311	3629
898.431	3454
898.552	3538
898.672	3610
898.792	3637
898.913	3557
899.033	3405
899.153	3321
899.273	3230
899.393	3310
899.513	3329
899.633	3348
899.753	3378
899.873	3344
899.993	3397
900.113	3329
900.232	3412
900.352	3325
900.472	3325
900.591	3253
900.711	3313
900.83	3294
900.95	3450
901.069	3523
901.189	3344
901.308	3222
901.427	3169
901.546	3214
901.665	3302
901.784	3325
901.904	3230
902.023	3173
902.141	3039
902.26	2994
902.379	3131
902.498	3085
902.617	3070
902.735	3245
902.854	3287
902.973	3218
903.091	3058
903.21	3062
903.328	3112
903.446	3116
903.565	3119
903.683	3184
903.801	3127
903.919	3237
904.038	3302
904.156	3207
904.274	3287
904.392	3268
904.51	3275
904.627	3317
904.745	3450
904.863	3530
904.981	3275
905.098	3199
905.216	3237
905.334	3351
905.451	3310
905.569	3294
905.686	3462
905.803	3447
905.921	3294
906.038	3416
906.155	3325
906.272	3279
906.389	3340
906.506	3230
906.623	3268
906.74	3302
906.857	3192
906.974	3272
907.091	3481
907.208	3561
907.324	3488
907.441	3420
907.557	3214
907.674	3230
907.79	3245
907.907	3272
908.023	3367
908.139	3435
908.256	3344
908.372	3416
908.488	3378
908.604	3249
908.72	3306
908.836	3332
908.952	3332
909.068	3355
909.184	3553
909.3	3401
909.415	3557
909.531	3553
909.647	3241
909.762	3355
909.878	3272
909.993	3409
910.108	3405
910.224	3389
910.339	3469
910.454	3382
910.57	3332
910.685	3279
910.8	3663
910.915	3553
911.03	3450
911.145	3306
911.259	3283
911.374	3363
911.489	3294
911.604	3329
911.718	3165
911.833	3241
911.947	3089
912.062	3058
912.176	3188
912.291	3264
912.405	3291
912.519	3466
912.633	3500
912.748	3374
912.862	3310
912.976	3222
913.09	3100
913.204	3203
913.318	3268
913.431	3386
913.545	3386
913.659	3454
913.772	3424
913.886	3241
914	3218
914.113	3401
914.226	3428
914.34	3424
914.453	3253
914.566	3454
914.68	3325
914.793	3389
914.906	3192
915.019	3157
915.132	3127
915.245	3173
915.358	3260
915.47	3310
915.583	3329
915.696	3359
915.809	3466
915.921	3492
916.034	3332
916.146	3329
916.259	3313
916.371	3443
916.483	3397
916.595	3294
916.708	3382
916.82	3405
916.932	3393
917.044	3462
917.156	3397
917.268	3298
917.38	3344
917.491	3336
917.603	3382
917.715	3466
917.826	3530
917.938	3420
918.049	3359
918.161	3485
918.272	3622
918.384	3625
918.495	3534
918.606	3393
918.717	3321
918.828	3424
918.939	3485
919.05	3336
919.161	3469
919.272	3249
919.383	3279
919.494	3530
919.604	3736
919.715	3568
919.826	3416
919.936	3523
920.047	3663
920.157	3599
920.267	3808
920.378	3652
920.488	3625
920.598	3861
920.708	3991
920.818	3869
920.928	3861
921.038	4093
921.148	4074
921.258	3797
921.368	3637
921.477	3618
921.587	3599
921.697	3523
921.806	3705
921.916	3561
922.025	3405
922.134	3420
922.244	3374
922.353	3458
922.462	3306
922.571	3275
922.68	3173
922.789	3104
922.898	3165
923.007	3165
923.116	3256
923.224	3218
923.333	3226
923.442	3142
923.55	3135
923.659	3214
923.767	3268
923.876	3195
923.984	3245
924.092	3138
924.201	3237
924.309	3245
924.417	3317
924.525	3264
924.633	3272
924.741	4291
924.849	3123
924.956	3279
925.064	3131
925.172	3104
925.279	3180
925.387	3264
925.494	3214
925.602	3367
925.709	3329
925.816	3226
925.924	3321
926.031	3447
926.138	3367
926.245	3409
926.352	3313
926.459	3439
926.566	3515
926.673	3367
926.779	3268
926.886	3302
926.993	3199
927.099	3176
927.206	3119
927.312	3188
927.419	3241
927.525	3222
927.631	3329
927.737	3195
927.843	3150
927.95	3081
928.056	3142
928.162	3218
928.267	3306
928.373	3892
928.479	3359
928.585	3104
928.69	3233
928.796	3310
928.901	3192
929.007	3100
929.112	3253
929.218	3249
929.323	3230
929.428	3203
929.533	3336
929.638	3138
929.743	3188
929.848	3294
929.953	3283
930.058	3165
930.163	3047
930.267	3066
930.372	3222
930.477	3077
930.581	3313
930.685	3203
930.79	3097
930.894	3150
930.998	3131
931.103	3310
931.207	2998
931.311	2975
931.415	2937
931.519	2819
931.623	2834
