Data from test_V78500241_128.txt Node
Date: Fri Mar 25 16:16:05 CST 2022
User: usil
Spectrometer: V785-0024
Trigger mode: 0
Integration Time (sec): 4.000000E-1
Scans to average: 1
Nonlinearity correction enabled: false
Boxcar width: 0
Storing dark spectrum: false
XAxis mode: Wavelengths
Number of Pixels in Spectrum: 1024
>>>>>Begin Spectral Data<<<<<
801.071	2937
801.214	2956
801.356	2872
801.499	2910
801.641	2891
801.783	2933
801.926	3047
802.068	2952
802.211	3032
802.353	3036
802.496	2990
802.638	3032
802.78	3043
802.923	3081
803.065	3032
803.208	2960
803.35	2933
803.492	2944
803.635	2971
803.777	2815
803.919	2883
804.061	3207
804.204	2986
804.346	2952
804.488	2857
804.63	3005
804.773	2899
804.915	2941
805.057	3085
805.199	2925
805.341	3009
805.483	3005
805.626	3013
805.768	2986
805.91	3123
806.052	3119
806.194	3047
806.336	3233
806.478	3062
806.62	2956
806.762	2982
806.904	3074
807.046	3173
807.188	2960
807.33	2906
807.472	2994
807.614	2929
807.756	3017
807.898	2922
808.04	2925
808.182	2994
808.324	2975
808.465	2849
808.607	2880
808.749	2849
808.891	2819
809.033	3001
809.174	2998
809.316	2941
809.458	2967
809.6	2815
809.741	2792
809.883	2815
810.025	2864
810.166	2880
810.308	2815
810.45	2902
810.591	2785
810.733	2773
810.875	2864
811.016	2807
811.158	2762
811.299	2788
811.441	2941
811.582	2963
811.724	2819
811.865	2868
812.007	2937
812.148	2868
812.29	2849
812.431	2891
812.573	2952
812.714	2963
812.855	3085
812.997	3032
813.138	3135
813.279	3017
813.421	2937
813.562	2982
813.703	2906
813.845	2891
813.986	2785
814.127	2754
814.268	2857
814.41	2849
814.551	2826
814.692	2883
814.833	2861
814.974	2948
815.115	2982
815.256	2830
815.397	2826
815.539	2902
815.68	2773
815.821	2796
815.962	2948
816.103	2929
816.244	2914
816.385	2922
816.526	2960
816.666	2952
816.807	2785
816.948	2937
817.089	2925
817.23	2845
817.371	2823
817.512	2804
817.653	2883
817.793	2845
817.934	2887
818.075	2967
818.216	3047
818.356	3074
818.497	2887
818.638	2811
818.778	2838
818.919	2815
819.06	2781
819.2	2906
819.341	2876
819.481	2807
819.622	2967
819.762	3070
819.903	3055
820.043	2975
820.184	2941
820.324	2895
820.465	3013
820.605	3058
820.746	3058
820.886	2933
821.026	3131
821.167	3184
821.307	3287
821.447	3294
821.588	3241
821.728	3218
821.868	3165
822.008	3081
822.149	3195
822.289	3249
822.429	3077
822.569	3123
822.709	3195
822.849	3024
822.99	3104
823.13	3176
823.27	3249
823.41	3142
823.55	3161
823.69	3180
823.83	3230
823.97	3108
824.11	3005
824.25	3009
824.389	3043
824.529	3127
824.669	3100
824.809	3230
824.949	3306
825.089	3233
825.228	3188
825.368	3051
825.508	2971
825.648	3009
825.787	3005
825.927	3005
826.067	2963
826.206	2967
826.346	3066
826.485	3093
826.625	3131
826.765	3298
826.904	3233
827.044	3020
827.183	2941
827.323	2902
827.462	3001
827.601	2899
827.741	2941
827.88	2982
828.02	2880
828.159	2960
828.298	3051
828.437	3116
828.577	3093
828.716	3249
828.855	3085
828.994	2933
829.134	2918
829.273	2922
829.412	2887
829.551	2857
829.69	2925
829.829	3005
829.968	3135
830.107	3036
830.246	3043
830.385	2925
830.524	2914
830.663	2834
830.802	2716
830.941	2667
831.08	2636
831.219	2750
831.357	2762
831.496	2990
831.635	2731
831.774	2659
831.913	2667
832.051	2560
832.19	2606
832.329	2693
832.467	2545
832.606	2499
832.744	2629
832.883	2610
833.022	2590
833.16	2678
833.299	2735
833.437	2716
833.576	2724
833.714	2735
833.852	2712
833.991	2777
834.129	2849
834.267	2815
834.406	2819
834.544	2899
834.682	2922
834.821	2895
834.959	3066
835.097	2918
835.235	3074
835.373	3013
835.511	3066
835.65	2937
835.788	2967
835.926	2861
836.064	2857
836.202	2842
836.34	3138
836.478	3211
836.615	3081
836.753	3154
836.891	3245
837.029	3176
837.167	3119
837.305	3074
837.443	3074
837.58	2979
837.718	3127
837.856	3055
837.993	3051
838.131	3119
838.269	3146
838.406	3112
838.544	3093
838.681	2967
838.819	2925
838.956	2796
839.094	2861
839.231	2929
839.369	3017
839.506	3428
839.643	3222
839.781	3039
839.918	2937
840.055	3077
840.193	3066
840.33	3131
840.467	3135
840.604	3146
840.742	3439
840.879	3074
841.016	3089
841.153	3157
841.29	3321
841.427	3332
841.564	3291
841.701	3313
841.838	3226
841.975	3199
842.112	3207
842.249	3093
842.385	3039
842.522	3253
842.659	3127
842.796	3070
842.933	3116
843.069	3074
843.206	3062
843.343	3203
843.479	3150
843.616	3161
843.752	2937
843.889	2849
844.025	3097
844.162	2880
844.298	3089
844.435	2956
844.571	2967
844.708	3074
844.844	3184
844.98	3253
845.117	3176
845.253	3077
845.389	3001
845.525	3138
845.661	3116
845.798	2986
845.934	3135
846.07	3058
846.206	3214
846.342	3313
846.478	3268
846.614	3146
846.75	3070
846.886	3055
847.022	3256
847.158	3154
847.294	3207
847.429	3253
847.565	3211
847.701	3485
847.837	3085
847.972	3062
848.108	3199
848.244	3169
848.379	3036
848.515	2967
848.65	2952
848.786	2979
848.921	3013
849.057	3116
849.192	3131
849.328	3066
849.463	3097
849.598	3051
849.734	3085
849.869	2979
850.004	2937
850.14	2990
850.275	2941
850.41	2838
850.545	2899
850.68	2944
850.815	2960
850.95	2986
851.085	3222
851.22	3100
851.355	3005
851.49	3017
851.625	3028
851.76	3039
851.895	2941
852.03	2944
852.165	3039
852.299	3127
852.434	3218
852.569	3184
852.703	3222
852.838	3264
852.973	3367
853.107	3378
853.242	3165
853.376	3108
853.511	2998
853.645	3055
853.78	3218
853.914	3119
854.048	3157
854.183	3097
854.317	3169
854.451	3336
854.585	3146
854.72	3116
854.854	3233
854.988	3043
855.122	3097
855.256	2979
855.39	3108
855.524	3275
855.658	3249
855.792	3169
855.926	3222
856.06	3287
856.194	3268
856.327	3138
856.461	3077
856.595	3131
856.729	3154
856.862	3211
856.996	3169
857.13	3253
857.263	3241
857.397	3332
857.53	3146
857.664	3222
857.797	3249
857.931	3272
858.064	3176
858.197	3230
858.331	3157
858.464	3104
858.597	3017
858.731	3123
858.864	3135
858.997	3112
859.13	3199
859.263	3176
859.396	3241
859.529	3127
859.662	3097
859.795	3074
859.928	3150
860.061	3344
860.194	3287
860.327	3127
860.46	3142
860.592	3245
860.725	3268
860.858	3268
860.99	3108
861.123	3074
861.256	3062
861.388	3161
861.521	3709
861.653	3039
861.786	3005
861.918	3017
862.05	3058
862.183	3097
862.315	3173
862.447	3233
862.58	3116
862.712	2986
862.844	2895
862.976	3085
863.108	3028
863.24	3405
863.372	2887
863.504	2979
863.636	2967
863.768	3047
863.9	2979
864.032	2937
864.164	2952
864.296	3028
864.428	3116
864.559	3138
864.691	3077
864.823	3135
864.954	3074
865.086	3017
865.217	3024
865.349	2960
865.48	2994
865.612	3013
865.743	3192
865.875	3005
866.006	2971
866.137	2982
866.269	2994
866.4	2902
866.531	2967
866.662	2941
866.793	2876
866.924	2944
867.055	2998
867.186	2910
867.317	2891
867.448	2857
867.579	2853
867.71	2857
867.841	2876
867.972	2887
868.103	2910
868.233	2925
868.364	2906
868.495	2899
868.625	3119
868.756	3169
868.886	3009
869.017	3001
869.147	3169
869.278	3188
869.408	3097
869.539	3001
869.669	3146
869.799	3043
869.929	3135
870.06	3123
870.19	3348
870.32	3313
870.45	3325
870.58	3389
870.71	3447
870.84	3485
870.97	3298
871.1	3245
871.23	3481
871.36	3477
871.489	3374
871.619	3443
871.749	3450
871.879	3473
872.008	3500
872.138	3401
872.267	3310
872.397	3184
872.526	3108
872.656	3017
872.785	3112
872.915	3249
873.044	3283
873.173	3195
873.303	3218
873.432	3260
873.561	3321
873.69	3180
873.819	3161
873.948	3218
874.077	3104
874.206	3039
874.335	3127
874.464	3253
874.593	3351
874.722	3245
874.851	3412
874.979	3336
875.108	3306
875.237	3199
875.365	3192
875.494	3184
875.623	3272
875.751	3112
875.88	3135
876.008	3237
876.136	3260
876.265	3412
876.393	3564
876.521	3431
876.65	3428
876.778	3340
876.906	3287
877.034	3245
877.162	3241
877.29	3188
877.418	3283
877.546	3264
877.674	3283
877.802	3214
877.93	3230
878.058	3173
878.185	3131
878.313	3253
878.441	3241
878.568	3074
878.696	3154
878.824	3329
878.951	3351
879.079	3454
879.206	3648
879.333	3492
879.461	3340
879.588	3363
879.715	3488
879.842	3591
879.97	3420
880.097	3199
880.224	3116
880.351	3207
880.478	3230
880.605	3230
880.732	3173
880.859	3538
880.986	3336
881.112	3336
881.239	3249
881.366	3116
881.493	3058
881.619	3001
881.746	3119
881.872	3081
881.999	3112
882.125	3169
882.252	3283
882.378	3336
882.505	3447
882.631	3302
882.757	3192
882.883	3241
883.01	3253
883.136	3161
883.262	3154
883.388	3085
883.514	3321
883.64	3348
883.766	3302
883.892	3222
884.018	3226
884.143	3393
884.269	3549
884.395	3180
884.52	3173
884.646	3211
884.772	3169
884.897	3142
885.023	3245
885.148	3355
885.274	3466
885.399	3439
885.524	3294
885.65	3294
885.775	3317
885.9	3298
886.025	3439
886.15	3412
886.275	3313
886.4	3226
886.525	3355
886.65	3283
886.775	3287
886.9	3500
887.025	3648
887.149	3443
887.274	3283
887.399	3176
887.523	3226
887.648	3192
887.773	3188
887.897	3416
888.021	3431
888.146	3359
888.27	3420
888.395	3553
888.519	3431
888.643	3466
888.767	3496
888.891	3302
889.015	3241
889.139	3336
889.263	3264
889.387	3458
889.511	3523
889.635	3485
889.759	3310
889.883	3329
890.006	3393
890.13	3515
890.254	3287
890.377	3382
890.501	3218
890.624	3207
890.748	3291
890.871	3222
890.995	3116
891.118	3077
891.241	3211
891.364	3275
891.488	3329
891.611	3180
891.734	3218
891.857	3298
891.98	3279
892.103	3367
892.226	3332
892.349	3245
892.471	3150
892.594	3253
892.717	3329
892.839	3287
892.962	3279
893.085	3420
893.207	3321
893.33	3184
893.452	3211
893.575	3351
893.697	3272
893.819	3469
893.941	3523
894.064	3450
894.186	3275
894.308	3287
894.43	3447
894.552	3549
894.674	3519
894.796	3283
894.918	3348
895.04	3310
895.161	3447
895.283	3416
895.405	3344
895.526	3378
895.648	3405
895.769	3443
895.891	3477
896.012	3477
896.134	3473
896.255	3492
896.376	3382
896.498	3370
896.619	3439
896.74	3386
896.861	3409
896.982	3648
897.103	3876
897.224	3625
897.345	3523
897.466	3435
897.587	3519
897.708	3679
897.828	3561
897.949	3481
898.07	3348
898.19	3469
898.311	3614
898.431	3458
898.552	3538
898.672	3629
898.792	3610
898.913	3568
899.033	3397
899.153	3313
899.273	3237
899.393	3348
899.513	3344
899.633	3336
899.753	3355
899.873	3355
899.993	3405
900.113	3329
900.232	3405
900.352	3416
900.472	3302
900.591	3203
900.711	3325
900.83	3253
900.95	3424
901.069	3500
901.189	3370
901.308	3233
901.427	3157
901.546	3207
901.665	3317
901.784	3351
901.904	3256
902.023	3180
902.141	3024
902.26	3013
902.379	3169
902.498	3108
902.617	3074
902.735	3203
902.854	3294
902.973	3192
903.091	3097
903.21	3066
903.328	3142
903.446	3127
903.565	3112
903.683	3184
903.801	3135
903.919	3256
904.038	3287
904.156	3180
904.274	3340
904.392	3287
904.51	3275
904.627	3344
904.745	3488
904.863	3515
904.981	3283
905.098	3188
905.216	3249
905.334	3332
905.451	3310
905.569	3294
905.686	3454
905.803	3428
905.921	3321
906.038	3473
906.155	3370
906.272	3317
906.389	3409
906.506	3275
906.623	3283
906.74	3302
906.857	3192
906.974	3275
907.091	3466
907.208	3580
907.324	3507
907.441	3447
907.557	3275
907.674	3245
907.79	3207
907.907	3317
908.023	3428
908.139	3416
908.256	3344
908.372	3386
908.488	3355
908.604	3321
908.72	3268
908.836	3291
908.952	3275
909.068	3355
909.184	3515
909.3	3370
909.415	3488
909.531	3507
909.647	3287
909.762	3283
909.878	3313
909.993	3367
910.108	3355
910.224	3344
910.339	3416
910.454	3370
910.57	3313
910.685	3272
910.8	3625
910.915	3534
911.03	3466
911.145	3279
911.259	3348
911.374	3317
911.489	3306
911.604	3237
911.718	3150
911.833	3169
911.947	3036
912.062	2982
912.176	3188
912.291	3211
912.405	3230
912.519	3447
912.633	3473
912.748	3370
912.862	3298
912.976	3218
913.09	3104
913.204	3138
913.318	3279
913.431	3344
913.545	3359
913.659	3416
913.772	3359
913.886	3233
914	3222
914.113	3378
914.226	3409
914.34	3393
914.453	3245
914.566	3466
914.68	3329
914.793	3351
914.906	3150
915.019	3150
915.132	3089
915.245	3218
915.358	3275
915.47	3230
915.583	3283
915.696	3340
915.809	3428
915.921	3469
916.034	3249
916.146	3253
916.259	3203
916.371	3393
916.483	3401
916.595	3272
916.708	3363
916.82	3351
916.932	3374
917.044	3393
917.156	3351
917.268	3256
917.38	3340
917.491	3359
917.603	3382
917.715	3469
917.826	3485
917.938	3420
918.049	3298
918.161	3450
918.272	3622
918.384	3591
918.495	3530
918.606	3378
918.717	3325
918.828	3367
918.939	3435
919.05	3332
919.161	3397
919.272	3157
919.383	3313
919.494	3492
919.604	3728
919.715	3504
919.826	3424
919.936	3523
920.047	3652
920.157	3534
920.267	3797
920.378	3652
920.488	3599
920.598	3781
920.708	3956
920.818	3827
920.928	3846
921.038	4021
921.148	4036
921.258	3709
921.368	3675
921.477	3584
921.587	3576
921.697	3500
921.806	3667
921.916	3538
922.025	3363
922.134	3359
922.244	3382
922.353	3473
922.462	3291
922.571	3260
922.68	3161
922.789	3081
922.898	3165
923.007	3100
923.116	3226
923.224	3203
923.333	3214
923.442	3081
923.55	3108
923.659	3173
923.767	3230
923.876	3116
923.984	3222
924.092	3138
924.201	3226
924.309	3237
924.417	3268
924.525	3233
924.633	3272
924.741	4192
924.849	3074
924.956	3279
925.064	3112
925.172	3039
925.279	3123
925.387	3256
925.494	3203
925.602	3401
925.709	3332
925.816	3222
925.924	3355
926.031	3416
926.138	3386
926.245	3389
926.352	3302
926.459	3412
926.566	3507
926.673	3363
926.779	3283
926.886	3283
926.993	3188
927.099	3192
927.206	3112
927.312	3119
927.419	3272
927.525	3230
927.631	3275
927.737	3165
927.843	3150
927.95	3039
928.056	3138
928.162	3199
928.267	3253
928.373	3816
928.479	3332
928.585	3138
928.69	3230
928.796	3253
928.901	3195
929.007	3047
929.112	3253
929.218	3207
929.323	3169
929.428	3150
929.533	3321
929.638	3173
929.743	3203
929.848	3283
929.953	3268
930.058	3192
930.163	3013
930.267	3081
930.372	3233
930.477	3047
930.581	3348
930.685	3214
930.79	3051
930.894	3157
930.998	3138
931.103	3291
931.207	3005
931.311	2979
931.415	2925
931.519	2788
931.623	2819
