Data from test_V78500241_1646.txt Node
Date: Fri Mar 25 16:26:36 CST 2022
User: usil
Spectrometer: V785-0024
Trigger mode: 0
Integration Time (sec): 4.000000E-1
Scans to average: 1
Nonlinearity correction enabled: false
Boxcar width: 0
Storing dark spectrum: false
XAxis mode: Wavelengths
Number of Pixels in Spectrum: 1024
>>>>>Begin Spectral Data<<<<<
801.071	2918
801.214	2906
801.356	2887
801.499	2872
801.641	2883
801.783	2910
801.926	3020
802.068	2937
802.211	2982
802.353	3043
802.496	2944
802.638	2998
802.78	3085
802.923	3028
803.065	3013
803.208	2864
803.35	2899
803.492	2929
803.635	2937
803.777	2750
803.919	2857
804.061	3203
804.204	2971
804.346	2910
804.488	2830
804.63	2975
804.773	2845
804.915	2910
805.057	3089
805.199	2925
805.341	2948
805.483	3020
805.626	2975
805.768	2963
805.91	3081
806.052	3077
806.194	3036
806.336	3207
806.478	3039
806.62	2952
806.762	2929
806.904	3047
807.046	3116
807.188	2956
807.33	2864
807.472	2979
807.614	2910
807.756	2952
807.898	2910
808.04	2891
808.182	2979
808.324	2944
808.465	2895
808.607	2872
808.749	2830
808.891	2849
809.033	2960
809.174	2956
809.316	2902
809.458	2895
809.6	2743
809.741	2773
809.883	2762
810.025	2861
810.166	2868
810.308	2811
810.45	2872
810.591	2769
810.733	2743
810.875	2811
811.016	2754
811.158	2758
811.299	2823
811.441	2922
811.582	2868
811.724	2800
811.865	2823
812.007	2910
812.148	2902
812.29	2864
812.431	2872
812.573	2902
812.714	2975
812.855	3020
812.997	3013
813.138	3127
813.279	3028
813.421	2948
813.562	2948
813.703	2864
813.845	2895
813.986	2762
814.127	2716
814.268	2785
814.41	2807
814.551	2788
814.692	2891
814.833	2811
814.974	2872
815.115	2937
815.256	2823
815.397	2754
815.539	2842
815.68	2766
815.821	2773
815.962	2933
816.103	2952
816.244	2857
816.385	2864
816.526	2975
816.666	2906
816.807	2773
816.948	2895
817.089	2914
817.23	2845
817.371	2785
817.512	2785
817.653	2849
817.793	2819
817.934	2883
818.075	2986
818.216	2990
818.356	2990
818.497	2853
818.638	2785
818.778	2815
818.919	2804
819.06	2754
819.2	2864
819.341	2788
819.481	2796
819.622	2899
819.762	3077
819.903	3047
820.043	2979
820.184	2864
820.324	2876
820.465	3020
820.605	3001
820.746	2990
820.886	2872
821.026	3108
821.167	3138
821.307	3211
821.447	3275
821.588	3218
821.728	3180
821.868	3199
822.008	3055
822.149	3157
822.289	3214
822.429	3093
822.569	3066
822.709	3138
822.849	3017
822.99	3032
823.13	3146
823.27	3165
823.41	3119
823.55	3138
823.69	3154
823.83	3169
823.97	3093
824.11	2967
824.25	2986
824.389	3036
824.529	3070
824.669	3051
824.809	3192
824.949	3230
825.089	3233
825.228	3161
825.368	3020
825.508	2960
825.648	2963
825.787	2998
825.927	3024
826.067	2960
826.206	2941
826.346	3020
826.485	3036
826.625	3104
826.765	3313
826.904	3188
827.044	2963
827.183	2948
827.323	2872
827.462	2982
827.601	2887
827.741	2910
827.88	2929
828.02	2830
828.159	2952
828.298	3036
828.437	3077
828.577	3036
828.716	3260
828.855	3062
828.994	2929
829.134	2861
829.273	2910
829.412	2883
829.551	2864
829.69	2914
829.829	2963
829.968	3123
830.107	3032
830.246	3058
830.385	2925
830.524	2849
830.663	2849
830.802	2750
830.941	2636
831.08	2644
831.219	2739
831.357	2743
831.496	2956
831.635	2727
831.774	2651
831.913	2629
832.051	2537
832.19	2568
832.329	2667
832.467	2530
832.606	2499
832.744	2549
832.883	2587
833.022	2587
833.16	2644
833.299	2674
833.437	2693
833.576	2667
833.714	2667
833.852	2682
833.991	2735
834.129	2807
834.267	2804
834.406	2781
834.544	2861
834.682	2857
834.821	2826
834.959	3043
835.097	2845
835.235	3066
835.373	2963
835.511	3005
835.65	2944
835.788	2914
835.926	2830
836.064	2796
836.202	2815
836.34	3074
836.478	3131
836.615	3024
836.753	3108
836.891	3180
837.029	3127
837.167	3055
837.305	3036
837.443	3043
837.58	2979
837.718	3119
837.856	3074
837.993	3017
838.131	3097
838.269	3085
838.406	3070
838.544	3077
838.681	2933
838.819	2880
838.956	2804
839.094	2823
839.231	2914
839.369	3005
839.506	3374
839.643	3192
839.781	3039
839.918	2929
840.055	3009
840.193	3055
840.33	3039
840.467	3085
840.604	3127
840.742	3374
840.879	3001
841.016	3024
841.153	3093
841.29	3329
841.427	3302
841.564	3264
841.701	3287
841.838	3222
841.975	3180
842.112	3214
842.249	3077
842.385	3009
842.522	3233
842.659	3039
842.796	3009
842.933	3066
843.069	3024
843.206	3020
843.343	3165
843.479	3070
843.616	3123
843.752	2880
843.889	2861
844.025	3058
844.162	2842
844.298	3043
844.435	2895
844.571	2883
844.708	3055
844.844	3157
844.98	3237
845.117	3169
845.253	3043
845.389	2982
845.525	3062
845.661	3070
845.798	2979
845.934	3104
846.07	3028
846.206	3157
846.342	3310
846.478	3214
846.614	3104
846.75	2994
846.886	3020
847.022	3222
847.158	3108
847.294	3203
847.429	3207
847.565	3214
847.701	3443
847.837	3024
847.972	3020
848.108	3116
848.244	3138
848.379	2971
848.515	2948
848.65	2925
848.786	2952
848.921	3032
849.057	3081
849.192	3138
849.328	3077
849.463	3116
849.598	3055
849.734	3017
849.869	2937
850.004	2960
850.14	2960
850.275	2941
850.41	2838
850.545	2883
850.68	2963
850.815	2929
850.95	3009
851.085	3192
851.22	3123
851.355	3013
851.49	2994
851.625	3017
851.76	3005
851.895	2941
852.03	2925
852.165	3081
852.299	3138
852.434	3230
852.569	3157
852.703	3188
852.838	3218
852.973	3359
853.107	3332
853.242	3173
853.376	3119
853.511	2994
853.645	3085
853.78	3291
853.914	3146
854.048	3116
854.183	3119
854.317	3192
854.451	3336
854.585	3173
854.72	3116
854.854	3245
854.988	3093
855.122	3146
855.256	2994
855.39	3157
855.524	3253
855.658	3233
855.792	3188
855.926	3249
856.06	3211
856.194	3310
856.327	3154
856.461	3066
856.595	3089
856.729	3131
856.862	3214
856.996	3188
857.13	3226
857.263	3233
857.397	3294
857.53	3146
857.664	3272
857.797	3275
857.931	3283
858.064	3154
858.197	3253
858.331	3161
858.464	3138
858.597	3032
858.731	3154
858.864	3150
858.997	3116
859.13	3203
859.263	3237
859.396	3207
859.529	3138
859.662	3077
859.795	3097
859.928	3173
860.061	3306
860.194	3275
860.327	3211
860.46	3093
860.592	3237
860.725	3317
860.858	3317
860.99	3146
861.123	3074
861.256	3055
861.388	3165
861.521	3892
861.653	3062
861.786	3017
861.918	3036
862.05	3085
862.183	3176
862.315	3146
862.447	3211
862.58	3112
862.712	2975
862.844	2849
862.976	3055
863.108	3028
863.24	3435
863.372	2922
863.504	2998
863.636	2998
863.768	3097
863.9	3009
864.032	2948
864.164	2979
864.296	3017
864.428	3116
864.559	3165
864.691	3100
864.823	3085
864.954	3093
865.086	3108
865.217	2994
865.349	2971
865.48	3005
865.612	3081
865.743	3188
865.875	3032
866.006	2975
866.137	2990
866.269	2990
866.4	2979
866.531	2956
866.662	2925
866.793	2902
866.924	2952
867.055	2982
867.186	2929
867.317	2849
867.448	2853
867.579	2891
867.71	2899
867.841	2880
867.972	2925
868.103	2922
868.233	2929
868.364	2876
868.495	2944
868.625	3085
868.756	3180
868.886	3001
869.017	3028
869.147	3218
869.278	3207
869.408	3047
869.539	3036
869.669	3146
869.799	3039
869.929	3146
870.06	3108
870.19	3374
870.32	3272
870.45	3321
870.58	3409
870.71	3477
870.84	3458
870.97	3321
871.1	3264
871.23	3466
871.36	3507
871.489	3378
871.619	3420
871.749	3466
871.879	3454
872.008	3496
872.138	3378
872.267	3310
872.397	3176
872.526	3119
872.656	3017
872.785	3127
872.915	3237
873.044	3313
873.173	3283
873.303	3287
873.432	3298
873.561	3256
873.69	3180
873.819	3169
873.948	3176
874.077	3108
874.206	3047
874.335	3142
874.464	3241
874.593	3389
874.722	3249
874.851	3420
874.979	3378
875.108	3367
875.237	3226
875.365	3184
875.494	3199
875.623	3279
875.751	3150
875.88	3135
876.008	3188
876.136	3241
876.265	3412
876.393	3534
876.521	3435
876.65	3409
876.778	3363
876.906	3287
877.034	3237
877.162	3268
877.29	3199
877.418	3294
877.546	3264
877.674	3279
877.802	3253
877.93	3230
878.058	3176
878.185	3138
878.313	3203
878.441	3272
878.568	3085
878.696	3165
878.824	3256
878.951	3344
879.079	3492
879.206	3633
879.333	3469
879.461	3344
879.588	3382
879.715	3515
879.842	3603
879.97	3412
880.097	3192
880.224	3142
880.351	3180
880.478	3241
880.605	3237
880.732	3203
880.859	3530
880.986	3344
881.112	3336
881.239	3245
881.366	3074
881.493	3085
881.619	3055
881.746	3116
881.872	3135
881.999	3169
882.125	3157
882.252	3256
882.378	3298
882.505	3466
882.631	3283
882.757	3154
882.883	3233
883.01	3287
883.136	3188
883.262	3077
883.388	3157
883.514	3340
883.64	3389
883.766	3370
883.892	3214
884.018	3287
884.143	3420
884.269	3549
884.395	3260
884.52	3195
884.646	3199
884.772	3184
884.897	3165
885.023	3260
885.148	3374
885.274	3450
885.399	3424
885.524	3279
885.65	3264
885.775	3336
885.9	3287
886.025	3454
886.15	3351
886.275	3344
886.4	3268
886.525	3298
886.65	3302
886.775	3348
886.9	3519
887.025	3610
887.149	3462
887.274	3329
887.399	3218
887.523	3214
887.648	3214
887.773	3237
887.897	3412
888.021	3443
888.146	3291
888.27	3435
888.395	3576
888.519	3439
888.643	3466
888.767	3481
888.891	3294
889.015	3268
889.139	3310
889.263	3279
889.387	3439
889.511	3534
889.635	3458
889.759	3302
889.883	3264
890.006	3435
890.13	3519
890.254	3294
890.377	3332
890.501	3245
890.624	3192
890.748	3348
890.871	3199
890.995	3116
891.118	3077
891.241	3195
891.364	3218
891.488	3317
891.611	3199
891.734	3230
891.857	3272
891.98	3291
892.103	3367
892.226	3313
892.349	3226
892.471	3142
892.594	3260
892.717	3325
892.839	3298
892.962	3283
893.085	3389
893.207	3321
893.33	3157
893.452	3233
893.575	3329
893.697	3291
893.819	3500
893.941	3511
894.064	3500
894.186	3302
894.308	3256
894.43	3428
894.552	3526
894.674	3504
894.796	3302
894.918	3332
895.04	3264
895.161	3424
895.283	3370
895.405	3306
895.526	3409
895.648	3473
895.769	3443
895.891	3488
896.012	3504
896.134	3500
896.255	3473
896.376	3397
896.498	3393
896.619	3473
896.74	3367
896.861	3389
896.982	3713
897.103	3827
897.224	3610
897.345	3454
897.466	3485
897.587	3462
897.708	3667
897.828	3580
897.949	3420
898.07	3351
898.19	3397
898.311	3633
898.431	3439
898.552	3523
898.672	3584
898.792	3610
898.913	3557
899.033	3420
899.153	3310
899.273	3230
899.393	3317
899.513	3359
899.633	3344
899.753	3355
899.873	3317
899.993	3386
900.113	3363
900.232	3409
900.352	3355
900.472	3336
900.591	3226
900.711	3329
900.83	3256
900.95	3405
901.069	3504
901.189	3386
901.308	3192
901.427	3127
901.546	3218
901.665	3317
901.784	3382
901.904	3245
902.023	3226
902.141	3047
902.26	3032
902.379	3154
902.498	3097
902.617	3074
902.735	3245
902.854	3241
902.973	3203
903.091	3070
903.21	3112
903.328	3142
903.446	3116
903.565	3165
903.683	3214
903.801	3154
903.919	3245
904.038	3310
904.156	3165
904.274	3283
904.392	3268
904.51	3310
904.627	3363
904.745	3447
904.863	3511
904.981	3329
905.098	3195
905.216	3237
905.334	3325
905.451	3306
905.569	3321
905.686	3431
905.803	3485
905.921	3287
906.038	3431
906.155	3378
906.272	3287
906.389	3355
906.506	3253
906.623	3241
906.74	3302
906.857	3176
906.974	3253
907.091	3424
907.208	3576
907.324	3538
907.441	3389
907.557	3241
907.674	3226
907.79	3214
907.907	3275
908.023	3370
908.139	3439
908.256	3336
908.372	3393
908.488	3329
908.604	3275
908.72	3268
908.836	3294
908.952	3298
909.068	3344
909.184	3466
909.3	3393
909.415	3549
909.531	3504
909.647	3287
909.762	3336
909.878	3287
909.993	3351
910.108	3351
910.224	3321
910.339	3416
910.454	3344
910.57	3298
910.685	3272
910.8	3584
910.915	3526
911.03	3431
911.145	3298
911.259	3283
911.374	3370
911.489	3214
911.604	3222
911.718	3104
911.833	3138
911.947	3047
912.062	2982
912.176	3192
912.291	3241
912.405	3211
912.519	3412
912.633	3488
912.748	3389
912.862	3298
912.976	3173
913.09	3070
913.204	3150
913.318	3195
913.431	3336
913.545	3351
913.659	3420
913.772	3370
913.886	3241
914	3245
914.113	3313
914.226	3420
914.34	3378
914.453	3230
914.566	3420
914.68	3287
914.793	3279
914.906	3161
915.019	3154
915.132	3131
915.245	3127
915.358	3256
915.47	3237
915.583	3306
915.696	3325
915.809	3428
915.921	3439
916.034	3233
916.146	3272
916.259	3184
916.371	3367
916.483	3378
916.595	3283
916.708	3344
916.82	3287
916.932	3344
917.044	3351
917.156	3397
917.268	3294
917.38	3332
917.491	3283
917.603	3359
917.715	3469
917.826	3466
917.938	3405
918.049	3317
918.161	3485
918.272	3572
918.384	3618
918.495	3504
918.606	3332
918.717	3287
918.828	3374
918.939	3431
919.05	3351
919.161	3374
919.272	3207
919.383	3317
919.494	3515
919.604	3751
919.715	3504
919.826	3473
919.936	3515
920.047	3648
920.157	3637
920.267	3804
920.378	3599
920.488	3603
920.598	3857
920.708	4002
920.818	3880
920.928	3915
921.038	4067
921.148	4071
921.258	3766
921.368	3675
921.477	3622
921.587	3599
921.697	3511
921.806	3663
921.916	3568
922.025	3355
922.134	3431
922.244	3359
922.353	3488
922.462	3310
922.571	3256
922.68	3142
922.789	3097
922.898	3195
923.007	3104
923.116	3245
923.224	3207
923.333	3230
923.442	3127
923.55	3131
923.659	3195
923.767	3214
923.876	3169
923.984	3302
924.092	3173
924.201	3245
924.309	3256
924.417	3283
924.525	3249
924.633	3302
924.741	4211
924.849	3100
924.956	3279
925.064	3154
925.172	3097
925.279	3112
925.387	3256
925.494	3207
925.602	3409
925.709	3336
925.816	3211
925.924	3317
926.031	3439
926.138	3332
926.245	3416
926.352	3325
926.459	3439
926.566	3519
926.673	3374
926.779	3302
926.886	3291
926.993	3195
927.099	3165
927.206	3142
927.312	3157
927.419	3272
927.525	3268
927.631	3317
927.737	3192
927.843	3123
927.95	3051
928.056	3169
928.162	3211
928.267	3279
928.373	3850
928.479	3351
928.585	3093
928.69	3256
928.796	3287
928.901	3199
929.007	3085
929.112	3241
929.218	3226
929.323	3195
929.428	3211
929.533	3367
929.638	3188
929.743	3188
929.848	3332
929.953	3272
930.058	3184
930.163	3032
930.267	3119
930.372	3249
930.477	3119
930.581	3359
930.685	3233
930.79	3081
930.894	3165
930.998	3146
931.103	3302
931.207	2979
931.311	2952
931.415	2971
931.519	2853
931.623	2853
