Data from test_V78500241_1094.txt Node
Date: Fri Mar 25 16:22:46 CST 2022
User: usil
Spectrometer: V785-0024
Trigger mode: 0
Integration Time (sec): 4.000000E-1
Scans to average: 1
Nonlinearity correction enabled: false
Boxcar width: 0
Storing dark spectrum: false
XAxis mode: Wavelengths
Number of Pixels in Spectrum: 1024
>>>>>Begin Spectral Data<<<<<
801.071	2895
801.214	2929
801.356	2880
801.499	2895
801.641	2872
801.783	2918
801.926	3028
802.068	3001
802.211	3017
802.353	3032
802.496	2910
802.638	2998
802.78	3039
802.923	3089
803.065	3005
803.208	2861
803.35	2899
803.492	2952
803.635	2929
803.777	2766
803.919	2895
804.061	3176
804.204	2952
804.346	2914
804.488	2861
804.63	3032
804.773	2861
804.915	2922
805.057	3135
805.199	2929
805.341	2986
805.483	3047
805.626	3009
805.768	2971
805.91	3066
806.052	3112
806.194	3039
806.336	3233
806.478	3093
806.62	2960
806.762	2975
806.904	3062
807.046	3173
807.188	3017
807.33	2948
807.472	2975
807.614	2902
807.756	2986
807.898	2933
808.04	2880
808.182	2982
808.324	2967
808.465	2906
808.607	2880
808.749	2792
808.891	2823
809.033	2956
809.174	2956
809.316	2902
809.458	2849
809.6	2769
809.741	2777
809.883	2792
810.025	2861
810.166	2887
810.308	2826
810.45	2883
810.591	2807
810.733	2769
810.875	2853
811.016	2777
811.158	2746
811.299	2788
811.441	2906
811.582	2872
811.724	2826
811.865	2861
812.007	2891
812.148	2906
812.29	2876
812.431	2891
812.573	2956
812.714	2944
812.855	3005
812.997	3036
813.138	3100
813.279	2998
813.421	2975
813.562	2975
813.703	2880
813.845	2857
813.986	2773
814.127	2743
814.268	2788
814.41	2819
814.551	2804
814.692	2880
814.833	2838
814.974	2902
815.115	2941
815.256	2811
815.397	2811
815.539	2880
815.68	2762
815.821	2785
815.962	2952
816.103	2922
816.244	2853
816.385	2899
816.526	2941
816.666	2906
816.807	2769
816.948	2933
817.089	2899
817.23	2887
817.371	2788
817.512	2804
817.653	2842
817.793	2823
817.934	2891
818.075	2956
818.216	2971
818.356	3032
818.497	2887
818.638	2777
818.778	2823
818.919	2785
819.06	2766
819.2	2868
819.341	2785
819.481	2815
819.622	2922
819.762	3097
819.903	3047
820.043	2948
820.184	2906
820.324	2887
820.465	3001
820.605	3017
820.746	3005
820.886	2925
821.026	3116
821.167	3176
821.307	3226
821.447	3298
821.588	3272
821.728	3207
821.868	3173
822.008	3093
822.149	3165
822.289	3211
822.429	3077
822.569	3074
822.709	3211
822.849	3032
822.99	3039
823.13	3138
823.27	3195
823.41	3077
823.55	3180
823.69	3157
823.83	3150
823.97	3093
824.11	3001
824.25	3028
824.389	3074
824.529	3119
824.669	3074
824.809	3207
824.949	3222
825.089	3245
825.228	3173
825.368	2982
825.508	2937
825.648	2975
825.787	2982
825.927	3047
826.067	2948
826.206	2971
826.346	3024
826.485	3051
826.625	3108
826.765	3272
826.904	3199
827.044	3009
827.183	2960
827.323	2868
827.462	2979
827.601	2952
827.741	2933
827.88	2918
828.02	2868
828.159	2979
828.298	3043
828.437	3108
828.577	3043
828.716	3268
828.855	3093
828.994	2922
829.134	2891
829.273	2906
829.412	2861
829.551	2834
829.69	2910
829.829	2971
829.968	3112
830.107	3032
830.246	3036
830.385	2910
830.524	2872
830.663	2804
830.802	2746
830.941	2655
831.08	2663
831.219	2743
831.357	2754
831.496	2941
831.635	2720
831.774	2659
831.913	2636
832.051	2549
832.19	2556
832.329	2701
832.467	2514
832.606	2488
832.744	2583
832.883	2556
833.022	2571
833.16	2659
833.299	2659
833.437	2701
833.576	2674
833.714	2720
833.852	2720
833.991	2735
834.129	2823
834.267	2834
834.406	2792
834.544	2883
834.682	2849
834.821	2902
834.959	3036
835.097	2895
835.235	3036
835.373	2990
835.511	3024
835.65	2948
835.788	2918
835.926	2823
836.064	2823
836.202	2823
836.34	3058
836.478	3173
836.615	3039
836.753	3112
836.891	3199
837.029	3157
837.167	3081
837.305	3081
837.443	3055
837.58	2956
837.718	3135
837.856	3116
837.993	3024
838.131	3116
838.269	3077
838.406	3089
838.544	3039
838.681	2948
838.819	2883
838.956	2823
839.094	2853
839.231	2963
839.369	3047
839.506	3378
839.643	3218
839.781	2982
839.918	2979
840.055	3070
840.193	3058
840.33	3020
840.467	3104
840.604	3138
840.742	3382
840.879	3077
841.016	3020
841.153	3100
841.29	3313
841.427	3302
841.564	3332
841.701	3310
841.838	3218
841.975	3154
842.112	3173
842.249	3074
842.385	3058
842.522	3306
842.659	3074
842.796	3081
842.933	3123
843.069	3043
843.206	2982
843.343	3173
843.479	3104
843.616	3154
843.752	2902
843.889	2906
844.025	3093
844.162	2883
844.298	3039
844.435	2956
844.571	2922
844.708	3097
844.844	3207
844.98	3222
845.117	3188
845.253	3032
845.389	2994
845.525	3089
845.661	3097
845.798	2986
845.934	3119
846.07	3055
846.206	3218
846.342	3306
846.478	3256
846.614	3089
846.75	3051
846.886	3036
847.022	3226
847.158	3142
847.294	3173
847.429	3291
847.565	3222
847.701	3485
847.837	2990
847.972	2963
848.108	3150
848.244	3157
848.379	3001
848.515	2937
848.65	2929
848.786	2967
848.921	3009
849.057	3093
849.192	3108
849.328	3077
849.463	3127
849.598	3036
849.734	3017
849.869	2975
850.004	2933
850.14	2948
850.275	2906
850.41	2826
850.545	2861
850.68	2929
850.815	2963
850.95	2933
851.085	3146
851.22	3112
851.355	3017
851.49	2994
851.625	2994
851.76	2990
851.895	2925
852.03	2914
852.165	3047
852.299	3112
852.434	3150
852.569	3173
852.703	3138
852.838	3233
852.973	3348
853.107	3348
853.242	3127
853.376	3058
853.511	2956
853.645	3001
853.78	3211
853.914	3146
854.048	3131
854.183	3089
854.317	3146
854.451	3298
854.585	3119
854.72	3085
854.854	3226
854.988	3051
855.122	3104
855.256	2975
855.39	3104
855.524	3214
855.658	3195
855.792	3116
855.926	3161
856.06	3237
856.194	3272
856.327	3195
856.461	3051
856.595	3093
856.729	3062
856.862	3226
856.996	3138
857.13	3199
857.263	3199
857.397	3260
857.53	3142
857.664	3176
857.797	3203
857.931	3226
858.064	3138
858.197	3211
858.331	3085
858.464	3093
858.597	3005
858.731	3131
858.864	3104
858.997	3047
859.13	3138
859.263	3157
859.396	3214
859.529	3085
859.662	3081
859.795	3005
859.928	3119
860.061	3260
860.194	3302
860.327	3146
860.46	3089
860.592	3207
860.725	3203
860.858	3237
860.99	3089
861.123	3039
861.256	3009
861.388	3123
861.521	3690
861.653	3005
861.786	2998
861.918	2998
862.05	3058
862.183	3058
862.315	3116
862.447	3203
862.58	3085
862.712	2937
862.844	2872
862.976	2990
863.108	3024
863.24	3412
863.372	2891
863.504	2929
863.636	2914
863.768	3051
863.9	2956
864.032	2876
864.164	2922
864.296	3001
864.428	3032
864.559	3085
864.691	3051
864.823	3020
864.954	3036
865.086	3020
865.217	3001
865.349	2960
865.48	2944
865.612	2994
865.743	3116
865.875	2967
866.006	2918
866.137	2960
866.269	2971
866.4	2906
866.531	2914
866.662	2861
866.793	2914
866.924	2891
867.055	2948
867.186	2918
867.317	2834
867.448	2853
867.579	2842
867.71	2845
867.841	2796
867.972	2872
868.103	2906
868.233	2849
868.364	2872
868.495	2906
868.625	3062
868.756	3146
868.886	2944
869.017	3009
869.147	3195
869.278	3169
869.408	3043
869.539	3005
869.669	3074
869.799	3036
869.929	3085
870.06	3062
870.19	3363
870.32	3279
870.45	3310
870.58	3351
870.71	3424
870.84	3428
870.97	3279
871.1	3241
871.23	3485
871.36	3424
871.489	3355
871.619	3409
871.749	3367
871.879	3409
872.008	3496
872.138	3321
872.267	3214
872.397	3123
872.526	3097
872.656	2986
872.785	3066
872.915	3241
873.044	3291
873.173	3203
873.303	3237
873.432	3233
873.561	3245
873.69	3150
873.819	3142
873.948	3188
874.077	3104
874.206	3077
874.335	3089
874.464	3211
874.593	3321
874.722	3230
874.851	3401
874.979	3344
875.108	3336
875.237	3203
875.365	3195
875.494	3123
875.623	3237
875.751	3074
875.88	3131
876.008	3199
876.136	3214
876.265	3370
876.393	3526
876.521	3389
876.65	3389
876.778	3325
876.906	3237
877.034	3142
877.162	3237
877.29	3180
877.418	3249
877.546	3245
877.674	3233
877.802	3218
877.93	3233
878.058	3165
878.185	3077
878.313	3180
878.441	3176
878.568	3077
878.696	3195
878.824	3264
878.951	3302
879.079	3488
879.206	3622
879.333	3454
879.461	3336
879.588	3313
879.715	3450
879.842	3576
879.97	3363
880.097	3180
880.224	3138
880.351	3207
880.478	3245
880.605	3207
880.732	3157
880.859	3504
880.986	3294
881.112	3370
881.239	3211
881.366	3104
881.493	3024
881.619	3028
881.746	3074
881.872	3058
881.999	3085
882.125	3150
882.252	3272
882.378	3294
882.505	3450
882.631	3275
882.757	3154
882.883	3222
883.01	3207
883.136	3146
883.262	3142
883.388	3089
883.514	3294
883.64	3386
883.766	3275
883.892	3165
884.018	3180
884.143	3397
884.269	3576
884.395	3150
884.52	3138
884.646	3184
884.772	3150
884.897	3077
885.023	3180
885.148	3336
885.274	3420
885.399	3420
885.524	3279
885.65	3249
885.775	3351
885.9	3306
886.025	3450
886.15	3325
886.275	3306
886.4	3249
886.525	3329
886.65	3279
886.775	3264
886.9	3428
887.025	3622
887.149	3378
887.274	3237
887.399	3192
887.523	3173
887.648	3203
887.773	3192
887.897	3363
888.021	3412
888.146	3291
888.27	3439
888.395	3492
888.519	3397
888.643	3462
888.767	3488
888.891	3302
889.015	3253
889.139	3313
889.263	3256
889.387	3370
889.511	3534
889.635	3473
889.759	3294
889.883	3275
890.006	3310
890.13	3492
890.254	3306
890.377	3344
890.501	3226
890.624	3176
890.748	3287
890.871	3184
890.995	3100
891.118	3055
891.241	3188
891.364	3218
891.488	3287
891.611	3184
891.734	3211
891.857	3306
891.98	3226
892.103	3355
892.226	3275
892.349	3214
892.471	3138
892.594	3203
892.717	3298
892.839	3249
892.962	3275
893.085	3363
893.207	3291
893.33	3188
893.452	3222
893.575	3321
893.697	3245
893.819	3428
893.941	3485
894.064	3443
894.186	3256
894.308	3241
894.43	3420
894.552	3542
894.674	3473
894.796	3310
894.918	3306
895.04	3298
895.161	3405
895.283	3389
895.405	3310
895.526	3378
895.648	3393
895.769	3409
895.891	3435
896.012	3473
896.134	3477
896.255	3386
896.376	3378
896.498	3332
896.619	3424
896.74	3359
896.861	3389
896.982	3656
897.103	3827
897.224	3572
897.345	3526
897.466	3439
897.587	3523
897.708	3610
897.828	3530
897.949	3409
898.07	3351
898.19	3424
898.311	3606
898.431	3424
898.552	3507
898.672	3568
898.792	3610
898.913	3530
899.033	3447
899.153	3279
899.273	3233
899.393	3298
899.513	3310
899.633	3313
899.753	3329
899.873	3317
899.993	3382
900.113	3340
900.232	3389
900.352	3332
900.472	3260
900.591	3192
900.711	3283
900.83	3268
900.95	3450
901.069	3428
901.189	3363
901.308	3184
901.427	3116
901.546	3176
901.665	3279
901.784	3321
901.904	3192
902.023	3157
902.141	3039
902.26	3028
902.379	3154
902.498	3081
902.617	3036
902.735	3195
902.854	3211
902.973	3188
903.091	3074
903.21	3020
903.328	3135
903.446	3131
903.565	3089
903.683	3199
903.801	3127
903.919	3222
904.038	3294
904.156	3154
904.274	3249
904.392	3245
904.51	3294
904.627	3321
904.745	3431
904.863	3515
904.981	3264
905.098	3165
905.216	3253
905.334	3264
905.451	3291
905.569	3294
905.686	3466
905.803	3416
905.921	3340
906.038	3393
906.155	3359
906.272	3249
906.389	3321
906.506	3192
906.623	3230
906.74	3264
906.857	3214
906.974	3241
907.091	3431
907.208	3561
907.324	3485
907.441	3397
907.557	3218
907.674	3222
907.79	3173
907.907	3245
908.023	3374
908.139	3389
908.256	3336
908.372	3386
908.488	3340
908.604	3275
908.72	3256
908.836	3306
908.952	3264
909.068	3329
909.184	3462
909.3	3386
909.415	3523
909.531	3466
909.647	3298
909.762	3294
909.878	3260
909.993	3397
910.108	3313
910.224	3313
910.339	3397
910.454	3294
910.57	3302
910.685	3241
910.8	3584
910.915	3545
911.03	3450
911.145	3275
911.259	3275
911.374	3329
911.489	3264
911.604	3199
911.718	3146
911.833	3123
911.947	3074
912.062	3020
912.176	3135
912.291	3195
912.405	3218
912.519	3386
912.633	3469
912.748	3351
912.862	3294
912.976	3157
913.09	3051
913.204	3150
913.318	3226
913.431	3313
913.545	3348
913.659	3420
913.772	3302
913.886	3214
914	3214
914.113	3348
914.226	3435
914.34	3367
914.453	3203
914.566	3420
914.68	3253
914.793	3317
914.906	3157
915.019	3104
915.132	3074
915.245	3173
915.358	3222
915.47	3199
915.583	3268
915.696	3294
915.809	3431
915.921	3428
916.034	3241
916.146	3245
916.259	3180
916.371	3393
916.483	3367
916.595	3249
916.708	3317
916.82	3317
916.932	3332
917.044	3348
917.156	3321
917.268	3245
917.38	3283
917.491	3317
917.603	3370
917.715	3443
917.826	3428
917.938	3382
918.049	3237
918.161	3458
918.272	3591
918.384	3580
918.495	3469
918.606	3340
918.717	3245
918.828	3389
918.939	3409
919.05	3302
919.161	3374
919.272	3192
919.383	3245
919.494	3492
919.604	3694
919.715	3469
919.826	3416
919.936	3500
920.047	3580
920.157	3507
920.267	3743
920.378	3622
920.488	3572
920.598	3819
920.708	3960
920.818	3819
920.928	3846
921.038	4032
921.148	3964
921.258	3701
921.368	3622
921.477	3587
921.587	3584
921.697	3481
921.806	3610
921.916	3557
922.025	3359
922.134	3329
922.244	3291
922.353	3439
922.462	3317
922.571	3192
922.68	3089
922.789	3047
922.898	3184
923.007	3089
923.116	3150
923.224	3199
923.333	3192
923.442	3119
923.55	3100
923.659	3131
923.767	3226
923.876	3150
923.984	3222
924.092	3104
924.201	3199
924.309	3253
924.417	3245
924.525	3165
924.633	3195
924.741	4017
924.849	3051
924.956	3230
925.064	3066
925.172	3036
925.279	3077
925.387	3180
925.494	3184
925.602	3336
925.709	3313
925.816	3173
925.924	3298
926.031	3370
926.138	3355
926.245	3313
926.352	3226
926.459	3401
926.566	3473
926.673	3317
926.779	3218
926.886	3253
926.993	3131
927.099	3127
927.206	3074
927.312	3135
927.419	3241
927.525	3211
927.631	3245
927.737	3154
927.843	3100
927.95	3047
928.056	3138
928.162	3169
928.267	3233
928.373	3903
928.479	3313
928.585	3058
928.69	3241
928.796	3264
928.901	3169
929.007	3051
929.112	3226
929.218	3157
929.323	3146
929.428	3146
929.533	3298
929.638	3116
929.743	3131
929.848	3237
929.953	3195
930.058	3180
930.163	2967
930.267	3032
930.372	3207
930.477	2979
930.581	3279
930.685	3131
930.79	3062
930.894	3119
930.998	3112
931.103	3256
931.207	2960
931.311	2944
931.415	2925
931.519	2785
931.623	2785
