Data from test_V78500241_1690.txt Node
Date: Fri Mar 25 16:26:54 CST 2022
User: usil
Spectrometer: V785-0024
Trigger mode: 0
Integration Time (sec): 4.000000E-1
Scans to average: 1
Nonlinearity correction enabled: false
Boxcar width: 0
Storing dark spectrum: false
XAxis mode: Wavelengths
Number of Pixels in Spectrum: 1024
>>>>>Begin Spectral Data<<<<<
801.071	2918
801.214	2967
801.356	2891
801.499	2937
801.641	2902
801.783	2918
801.926	3081
802.068	3013
802.211	2952
802.353	3043
802.496	2952
802.638	3032
802.78	3036
802.923	3146
803.065	3001
803.208	2895
803.35	2944
803.492	2948
803.635	2925
803.777	2769
803.919	2883
804.061	3195
804.204	2941
804.346	2906
804.488	2819
804.63	3017
804.773	2883
804.915	2933
805.057	3058
805.199	2937
805.341	2967
805.483	3058
805.626	2998
805.768	2990
805.91	3062
806.052	3093
806.194	3077
806.336	3214
806.478	3062
806.62	2948
806.762	2979
806.904	3085
807.046	3203
807.188	2971
807.33	2925
807.472	2998
807.614	2895
807.756	2979
807.898	2914
808.04	2883
808.182	2979
808.324	2937
808.465	2914
808.607	2906
808.749	2815
808.891	2823
809.033	3028
809.174	2925
809.316	2925
809.458	2857
809.6	2807
809.741	2769
809.883	2796
810.025	2864
810.166	2872
810.308	2857
810.45	2864
810.591	2781
810.733	2785
810.875	2842
811.016	2796
811.158	2739
811.299	2769
811.441	2902
811.582	2895
811.724	2883
811.865	2876
812.007	2868
812.148	2891
812.29	2849
812.431	2895
812.573	2933
812.714	2975
812.855	3047
812.997	3058
813.138	3135
813.279	3020
813.421	3001
813.562	2948
813.703	2868
813.845	2914
813.986	2785
814.127	2773
814.268	2815
814.41	2842
814.551	2815
814.692	2895
814.833	2807
814.974	2899
815.115	2937
815.256	2849
815.397	2823
815.539	2902
815.68	2785
815.821	2785
815.962	2918
816.103	2933
816.244	2864
816.385	2868
816.526	2963
816.666	2963
816.807	2758
816.948	2842
817.089	2902
817.23	2834
817.371	2769
817.512	2796
817.653	2891
817.793	2838
817.934	2872
818.075	2967
818.216	2982
818.356	3047
818.497	2918
818.638	2823
818.778	2811
818.919	2754
819.06	2777
819.2	2876
819.341	2826
819.481	2815
819.622	2895
819.762	3097
819.903	3051
820.043	2906
820.184	2910
820.324	2895
820.465	3039
820.605	3036
820.746	3005
820.886	2960
821.026	3089
821.167	3146
821.307	3233
821.447	3291
821.588	3237
821.728	3184
821.868	3237
822.008	3104
822.149	3184
822.289	3214
822.429	3093
822.569	3119
822.709	3176
822.849	3062
822.99	3058
823.13	3150
823.27	3226
823.41	3100
823.55	3188
823.69	3127
823.83	3230
823.97	3112
824.11	3005
824.25	3039
824.389	3032
824.529	3116
824.669	3116
824.809	3188
824.949	3249
825.089	3222
825.228	3176
825.368	3017
825.508	2910
825.648	2986
825.787	2994
825.927	3009
826.067	2975
826.206	2952
826.346	3039
826.485	3062
826.625	3123
826.765	3264
826.904	3241
827.044	3005
827.183	2956
827.323	2891
827.462	3005
827.601	2925
827.741	2944
827.88	2967
828.02	2861
828.159	2979
828.298	3036
828.437	3104
828.577	3032
828.716	3283
828.855	3062
828.994	2937
829.134	2895
829.273	2933
829.412	2872
829.551	2853
829.69	2872
829.829	2982
829.968	3123
830.107	3005
830.246	3047
830.385	2918
830.524	2853
830.663	2834
830.802	2766
830.941	2655
831.08	2693
831.219	2731
831.357	2777
831.496	2971
831.635	2724
831.774	2640
831.913	2625
832.051	2518
832.19	2583
832.329	2678
832.467	2533
832.606	2484
832.744	2606
832.883	2571
833.022	2590
833.16	2610
833.299	2689
833.437	2693
833.576	2686
833.714	2724
833.852	2739
833.991	2766
834.129	2830
834.267	2830
834.406	2804
834.544	2857
834.682	2883
834.821	2891
834.959	3024
835.097	2891
835.235	3062
835.373	2975
835.511	3047
835.65	2994
835.788	2933
835.926	2834
836.064	2788
836.202	2838
836.34	3097
836.478	3138
836.615	3017
836.753	3081
836.891	3218
837.029	3169
837.167	3089
837.305	3051
837.443	3036
837.58	2967
837.718	3108
837.856	3066
837.993	2994
838.131	3093
838.269	3131
838.406	3104
838.544	3104
838.681	2944
838.819	2891
838.956	2781
839.094	2868
839.231	2925
839.369	3005
839.506	3363
839.643	3230
839.781	3055
839.918	2982
840.055	3047
840.193	3055
840.33	3039
840.467	3097
840.604	3176
840.742	3374
840.879	3043
841.016	3051
841.153	3097
841.29	3302
841.427	3256
841.564	3253
841.701	3321
841.838	3230
841.975	3150
842.112	3199
842.249	3081
842.385	3051
842.522	3256
842.659	3058
842.796	3055
842.933	3055
843.069	3058
843.206	3051
843.343	3165
843.479	3097
843.616	3142
843.752	2902
843.889	2868
844.025	3066
844.162	2849
844.298	3047
844.435	2937
844.571	2906
844.708	3043
844.844	3176
844.98	3272
845.117	3188
845.253	3058
845.389	3009
845.525	3127
845.661	3112
845.798	3009
845.934	3108
846.07	3085
846.206	3222
846.342	3317
846.478	3245
846.614	3081
846.75	3043
846.886	3017
847.022	3199
847.158	3119
847.294	3180
847.429	3233
847.565	3192
847.701	3469
847.837	3005
847.972	3020
848.108	3127
848.244	3119
848.379	2994
848.515	2929
848.65	2922
848.786	2944
848.921	3024
849.057	3100
849.192	3112
849.328	3070
849.463	3093
849.598	3070
849.734	3036
849.869	3001
850.004	2864
850.14	2948
850.275	2933
850.41	2864
850.545	2849
850.68	2963
850.815	2967
850.95	2933
851.085	3184
851.22	3081
851.355	3024
851.49	2994
851.625	2994
851.76	3039
851.895	2956
852.03	2929
852.165	3051
852.299	3093
852.434	3199
852.569	3138
852.703	3195
852.838	3226
852.973	3294
853.107	3317
853.242	3173
853.376	3081
853.511	2971
853.645	3013
853.78	3256
853.914	3127
854.048	3093
854.183	3089
854.317	3135
854.451	3321
854.585	3100
854.72	3058
854.854	3218
854.988	3058
855.122	3100
855.256	2971
855.39	3131
855.524	3192
855.658	3211
855.792	3157
855.926	3157
856.06	3176
856.194	3283
856.327	3135
856.461	3089
856.595	3036
856.729	3116
856.862	3192
856.996	3157
857.13	3203
857.263	3222
857.397	3272
857.53	3127
857.664	3207
857.797	3226
857.931	3260
858.064	3150
858.197	3211
858.331	3138
858.464	3108
858.597	3009
858.731	3127
858.864	3081
858.997	3055
859.13	3142
859.263	3211
859.396	3180
859.529	3089
859.662	3104
859.795	3024
859.928	3154
860.061	3260
860.194	3253
860.327	3123
860.46	3119
860.592	3214
860.725	3253
860.858	3237
860.99	3081
861.123	3047
861.256	3081
861.388	3142
861.521	3819
861.653	3032
861.786	2982
861.918	2982
862.05	3047
862.183	3100
862.315	3131
862.447	3184
862.58	3077
862.712	2963
862.844	2910
862.976	3001
863.108	2994
863.24	3424
863.372	2891
863.504	2952
863.636	2948
863.768	3013
863.9	2971
864.032	2883
864.164	2933
864.296	3020
864.428	3077
864.559	3077
864.691	3051
864.823	3055
864.954	3013
865.086	3024
865.217	2971
865.349	2956
865.48	2937
865.612	3013
865.743	3138
865.875	2963
866.006	2929
866.137	2956
866.269	2982
866.4	2933
866.531	2922
866.662	2895
866.793	2895
866.924	2895
867.055	2941
867.186	2922
867.317	2868
867.448	2823
867.579	2876
867.71	2823
867.841	2823
867.972	2914
868.103	2925
868.233	2849
868.364	2861
868.495	2902
868.625	3085
868.756	3138
868.886	2967
869.017	3005
869.147	3176
869.278	3165
869.408	3062
869.539	3020
869.669	3074
869.799	3032
869.929	3116
870.06	3070
870.19	3294
870.32	3245
870.45	3329
870.58	3336
870.71	3439
870.84	3481
870.97	3279
871.1	3241
871.23	3492
871.36	3454
871.489	3336
871.619	3370
871.749	3401
871.879	3443
872.008	3477
872.138	3351
872.267	3264
872.397	3100
872.526	3100
872.656	3024
872.785	3097
872.915	3241
873.044	3291
873.173	3195
873.303	3214
873.432	3264
873.561	3211
873.69	3138
873.819	3127
873.948	3207
874.077	3097
874.206	3058
874.335	3081
874.464	3211
874.593	3306
874.722	3207
874.851	3443
874.979	3378
875.108	3310
875.237	3222
875.365	3157
875.494	3161
875.623	3253
875.751	3043
875.88	3093
876.008	3184
876.136	3233
876.265	3397
876.393	3511
876.521	3420
876.65	3401
876.778	3321
876.906	3256
877.034	3207
877.162	3203
877.29	3184
877.418	3241
877.546	3264
877.674	3256
877.802	3211
877.93	3211
878.058	3161
878.185	3074
878.313	3184
878.441	3180
878.568	3070
878.696	3127
878.824	3264
878.951	3321
879.079	3469
879.206	3641
879.333	3481
879.461	3321
879.588	3332
879.715	3454
879.842	3587
879.97	3355
880.097	3161
880.224	3150
880.351	3188
880.478	3222
880.605	3176
880.732	3199
880.859	3492
880.986	3306
881.112	3294
881.239	3176
881.366	3104
881.493	3024
881.619	3024
881.746	3085
881.872	3097
881.999	3081
882.125	3165
882.252	3253
882.378	3279
882.505	3435
882.631	3241
882.757	3146
882.883	3233
883.01	3218
883.136	3127
883.262	3112
883.388	3089
883.514	3291
883.64	3336
883.766	3294
883.892	3157
884.018	3241
884.143	3420
884.269	3568
884.395	3218
884.52	3184
884.646	3188
884.772	3135
884.897	3074
885.023	3214
885.148	3306
885.274	3397
885.399	3374
885.524	3272
885.65	3268
885.775	3310
885.9	3321
886.025	3420
886.15	3310
886.275	3329
886.4	3222
886.525	3279
886.65	3245
886.775	3294
886.9	3469
887.025	3637
887.149	3363
887.274	3272
887.399	3188
887.523	3230
887.648	3154
887.773	3154
887.897	3420
888.021	3389
888.146	3272
888.27	3412
888.395	3561
888.519	3435
888.643	3428
888.767	3466
888.891	3268
889.015	3249
889.139	3298
889.263	3241
889.387	3412
889.511	3469
889.635	3450
889.759	3272
889.883	3283
890.006	3355
890.13	3496
890.254	3268
890.377	3340
890.501	3173
890.624	3195
890.748	3321
890.871	3188
890.995	3142
891.118	3013
891.241	3154
891.364	3260
891.488	3291
891.611	3165
891.734	3211
891.857	3298
891.98	3226
892.103	3310
892.226	3264
892.349	3207
892.471	3093
892.594	3226
892.717	3249
892.839	3233
892.962	3264
893.085	3355
893.207	3294
893.33	3184
893.452	3241
893.575	3283
893.697	3249
893.819	3439
893.941	3485
894.064	3454
894.186	3241
894.308	3253
894.43	3389
894.552	3500
894.674	3462
894.796	3283
894.918	3325
895.04	3287
895.161	3439
895.283	3386
895.405	3279
895.526	3363
895.648	3435
895.769	3416
895.891	3439
896.012	3454
896.134	3469
896.255	3409
896.376	3389
896.498	3359
896.619	3450
896.74	3332
896.861	3389
896.982	3652
897.103	3850
897.224	3591
897.345	3477
897.466	3450
897.587	3458
897.708	3584
897.828	3526
897.949	3409
898.07	3310
898.19	3374
898.311	3568
898.431	3409
898.552	3538
898.672	3545
898.792	3580
898.913	3542
899.033	3416
899.153	3287
899.273	3188
899.393	3264
899.513	3306
899.633	3302
899.753	3336
899.873	3325
899.993	3359
900.113	3321
900.232	3389
900.352	3329
900.472	3321
900.591	3184
900.711	3306
900.83	3275
900.95	3389
901.069	3496
901.189	3329
901.308	3192
901.427	3123
901.546	3192
901.665	3321
901.784	3298
901.904	3199
902.023	3131
902.141	3009
902.26	2956
902.379	3146
902.498	3070
902.617	3055
902.735	3211
902.854	3233
902.973	3180
903.091	3074
903.21	3085
903.328	3116
903.446	3097
903.565	3074
903.683	3226
903.801	3142
903.919	3218
904.038	3272
904.156	3154
904.274	3287
904.392	3275
904.51	3279
904.627	3336
904.745	3439
904.863	3462
904.981	3268
905.098	3176
905.216	3218
905.334	3302
905.451	3260
905.569	3279
905.686	3443
905.803	3428
905.921	3256
906.038	3409
906.155	3306
906.272	3237
906.389	3306
906.506	3211
906.623	3294
906.74	3291
906.857	3169
906.974	3233
907.091	3447
907.208	3576
907.324	3450
907.441	3359
907.557	3256
907.674	3245
907.79	3211
907.907	3294
908.023	3416
908.139	3378
908.256	3298
908.372	3355
908.488	3386
908.604	3253
908.72	3222
908.836	3260
908.952	3256
909.068	3363
909.184	3450
909.3	3431
909.415	3511
909.531	3481
909.647	3264
909.762	3321
909.878	3233
909.993	3355
910.108	3313
910.224	3336
910.339	3416
910.454	3321
910.57	3302
910.685	3241
910.8	3538
910.915	3519
911.03	3447
911.145	3279
911.259	3275
911.374	3329
911.489	3241
911.604	3249
911.718	3093
911.833	3138
911.947	3036
912.062	2982
912.176	3176
912.291	3230
912.405	3161
912.519	3412
912.633	3454
912.748	3344
912.862	3294
912.976	3173
913.09	3058
913.204	3154
913.318	3226
913.431	3325
913.545	3340
913.659	3401
913.772	3306
913.886	3226
914	3192
914.113	3344
914.226	3424
914.34	3355
914.453	3256
914.566	3439
914.68	3336
914.793	3317
914.906	3176
915.019	3112
915.132	3093
915.245	3203
915.358	3218
915.47	3222
915.583	3226
915.696	3283
915.809	3431
915.921	3428
916.034	3237
916.146	3211
916.259	3195
916.371	3378
916.483	3336
916.595	3279
916.708	3336
916.82	3340
916.932	3332
917.044	3313
917.156	3329
917.268	3245
917.38	3275
917.491	3283
917.603	3397
917.715	3477
917.826	3488
917.938	3405
918.049	3275
918.161	3454
918.272	3572
918.384	3587
918.495	3500
918.606	3340
918.717	3253
918.828	3340
918.939	3389
919.05	3294
919.161	3386
919.272	3195
919.383	3256
919.494	3485
919.604	3701
919.715	3492
919.826	3359
919.936	3485
920.047	3591
920.157	3511
920.267	3789
920.378	3606
920.488	3587
920.598	3800
920.708	3960
920.818	3804
920.928	3812
921.038	4051
921.148	4021
921.258	3682
921.368	3591
921.477	3603
921.587	3515
921.697	3431
921.806	3591
921.916	3534
922.025	3389
922.134	3370
922.244	3298
922.353	3416
922.462	3256
922.571	3184
922.68	3104
922.789	3077
922.898	3123
923.007	3097
923.116	3203
923.224	3165
923.333	3214
923.442	3123
923.55	3108
923.659	3146
923.767	3207
923.876	3104
923.984	3222
924.092	3104
924.201	3180
924.309	3157
924.417	3237
924.525	3146
924.633	3233
924.741	3983
924.849	3043
924.956	3237
925.064	3097
925.172	3028
925.279	3093
925.387	3230
925.494	3245
925.602	3359
925.709	3340
925.816	3142
925.924	3302
926.031	3393
926.138	3275
926.245	3370
926.352	3226
926.459	3443
926.566	3454
926.673	3344
926.779	3222
926.886	3256
926.993	3154
927.099	3112
927.206	3150
927.312	3104
927.419	3195
927.525	3214
927.631	3291
927.737	3131
927.843	3093
927.95	3055
928.056	3150
928.162	3135
928.267	3256
928.373	3816
928.479	3310
928.585	3047
928.69	3230
928.796	3283
928.901	3154
929.007	3017
929.112	3218
929.218	3176
929.323	3142
929.428	3123
929.533	3321
929.638	3100
929.743	3169
929.848	3253
929.953	3211
930.058	3131
930.163	3032
930.267	3047
930.372	3199
930.477	3043
930.581	3340
930.685	3192
930.79	3062
930.894	3116
930.998	3051
931.103	3256
931.207	2960
931.311	2952
931.415	2937
931.519	2754
931.623	2826
