Data from test_V78500241_1751.txt Node
Date: Fri Mar 25 16:27:20 CST 2022
User: usil
Spectrometer: V785-0024
Trigger mode: 0
Integration Time (sec): 4.000000E-1
Scans to average: 1
Nonlinearity correction enabled: false
Boxcar width: 0
Storing dark spectrum: false
XAxis mode: Wavelengths
Number of Pixels in Spectrum: 1024
>>>>>Begin Spectral Data<<<<<
801.071	2895
801.214	2910
801.356	2857
801.499	2883
801.641	2883
801.783	2948
801.926	3081
802.068	2952
802.211	2986
802.353	3024
802.496	2960
802.638	2990
802.78	3047
802.923	3058
803.065	2960
803.208	2906
803.35	2933
803.492	2925
803.635	2933
803.777	2762
803.919	2868
804.061	3157
804.204	2948
804.346	2895
804.488	2811
804.63	2967
804.773	2887
804.915	2925
805.057	3070
805.199	2944
805.341	2967
805.483	3051
805.626	3024
805.768	2967
805.91	3051
806.052	3070
806.194	3024
806.336	3233
806.478	3024
806.62	2941
806.762	2952
806.904	3070
807.046	3169
807.188	2967
807.33	2906
807.472	2967
807.614	2933
807.756	3005
807.898	2933
808.04	2864
808.182	2990
808.324	2929
808.465	2883
808.607	2868
808.749	2804
808.891	2857
809.033	2975
809.174	2975
809.316	2883
809.458	2880
809.6	2766
809.741	2781
809.883	2746
810.025	2826
810.166	2880
810.308	2861
810.45	2826
810.591	2773
810.733	2781
810.875	2880
811.016	2796
811.158	2739
811.299	2819
811.441	2910
811.582	2853
811.724	2811
811.865	2823
812.007	2910
812.148	2880
812.29	2800
812.431	2864
812.573	2956
812.714	2967
812.855	3058
812.997	3074
813.138	3154
813.279	3024
813.421	2948
813.562	2960
813.703	2883
813.845	2906
813.986	2811
814.127	2750
814.268	2804
814.41	2845
814.551	2800
814.692	2883
814.833	2819
814.974	2895
815.115	2933
815.256	2815
815.397	2819
815.539	2819
815.68	2788
815.821	2792
815.962	2899
816.103	2937
816.244	2864
816.385	2864
816.526	2941
816.666	2918
816.807	2735
816.948	2876
817.089	2929
817.23	2849
817.371	2773
817.512	2788
817.653	2834
817.793	2834
817.934	2864
818.075	2944
818.216	3013
818.356	3017
818.497	2868
818.638	2777
818.778	2792
818.919	2769
819.06	2777
819.2	2861
819.341	2807
819.481	2823
819.622	2933
819.762	3108
819.903	3032
820.043	2944
820.184	2895
820.324	2910
820.465	3024
820.605	3005
820.746	3024
820.886	2902
821.026	3066
821.167	3161
821.307	3237
821.447	3325
821.588	3218
821.728	3184
821.868	3192
822.008	3043
822.149	3180
822.289	3230
822.429	3066
822.569	3070
822.709	3169
822.849	3020
822.99	3066
823.13	3142
823.27	3184
823.41	3077
823.55	3097
823.69	3165
823.83	3199
823.97	3112
824.11	3005
824.25	2982
824.389	3070
824.529	3093
824.669	3089
824.809	3184
824.949	3256
825.089	3218
825.228	3173
825.368	3028
825.508	2952
825.648	2982
825.787	3039
825.927	3013
826.067	2956
826.206	2971
826.346	3039
826.485	3077
826.625	3066
826.765	3287
826.904	3226
827.044	2971
827.183	2937
827.323	2864
827.462	2982
827.601	2864
827.741	2899
827.88	2941
828.02	2887
828.159	2960
828.298	3028
828.437	3093
828.577	2998
828.716	3283
828.855	3085
828.994	2872
829.134	2864
829.273	2933
829.412	2857
829.551	2861
829.69	2902
829.829	2986
829.968	3138
830.107	3013
830.246	3032
830.385	2929
830.524	2868
830.663	2823
830.802	2735
830.941	2640
831.08	2640
831.219	2750
831.357	2758
831.496	2956
831.635	2731
831.774	2663
831.913	2678
832.051	2545
832.19	2571
832.329	2701
832.467	2545
832.606	2469
832.744	2590
832.883	2579
833.022	2583
833.16	2670
833.299	2667
833.437	2686
833.576	2693
833.714	2712
833.852	2746
833.991	2746
834.129	2838
834.267	2842
834.406	2781
834.544	2838
834.682	2868
834.821	2849
834.959	3051
835.097	2902
835.235	3039
835.373	3013
835.511	2998
835.65	3005
835.788	2956
835.926	2849
836.064	2849
836.202	2819
836.34	3070
836.478	3104
836.615	3043
836.753	3176
836.891	3226
837.029	3135
837.167	3093
837.305	3051
837.443	3020
837.58	2990
837.718	3104
837.856	3055
837.993	3009
838.131	3127
838.269	3119
838.406	3100
838.544	3089
838.681	2937
838.819	2906
838.956	2777
839.094	2823
839.231	2906
839.369	3028
839.506	3378
839.643	3237
839.781	3005
839.918	2925
840.055	3093
840.193	3036
840.33	3085
840.467	3093
840.604	3146
840.742	3412
840.879	3085
841.016	3066
841.153	3077
841.29	3329
841.427	3283
841.564	3237
841.701	3279
841.838	3214
841.975	3180
842.112	3199
842.249	3051
842.385	3020
842.522	3264
842.659	3108
842.796	3043
842.933	3104
843.069	3036
843.206	3028
843.343	3176
843.479	3089
843.616	3165
843.752	2895
843.889	2849
844.025	3108
844.162	2842
844.298	3077
844.435	2914
844.571	2910
844.708	3055
844.844	3188
844.98	3233
845.117	3176
845.253	3028
845.389	2986
845.525	3108
845.661	3074
845.798	3013
845.934	3146
846.07	3074
846.206	3199
846.342	3313
846.478	3203
846.614	3070
846.75	3032
846.886	3017
847.022	3218
847.158	3112
847.294	3188
847.429	3245
847.565	3245
847.701	3458
847.837	3005
847.972	2998
848.108	3150
848.244	3104
848.379	2979
848.515	2906
848.65	2941
848.786	2891
848.921	3005
849.057	3047
849.192	3131
849.328	3058
849.463	3093
849.598	3036
849.734	3028
849.869	2941
850.004	2902
850.14	2982
850.275	2895
850.41	2830
850.545	2861
850.68	2933
850.815	2925
850.95	2960
851.085	3211
851.22	3100
851.355	3032
851.49	2990
851.625	3017
851.76	3020
851.895	2956
852.03	2883
852.165	3051
852.299	3070
852.434	3176
852.569	3100
852.703	3157
852.838	3245
852.973	3351
853.107	3291
853.242	3146
853.376	3100
853.511	2929
853.645	3028
853.78	3211
853.914	3150
854.048	3108
854.183	3074
854.317	3157
854.451	3298
854.585	3108
854.72	3074
854.854	3214
854.988	3055
855.122	3047
855.256	2956
855.39	3123
855.524	3268
855.658	3176
855.792	3127
855.926	3214
856.06	3230
856.194	3279
856.327	3097
856.461	3017
856.595	3036
856.729	3066
856.862	3214
856.996	3165
857.13	3180
857.263	3233
857.397	3298
857.53	3131
857.664	3165
857.797	3199
857.931	3275
858.064	3203
858.197	3214
858.331	3138
858.464	3093
858.597	2986
858.731	3070
858.864	3108
858.997	3055
859.13	3116
859.263	3188
859.396	3165
859.529	3085
859.662	3058
859.795	3062
859.928	3180
860.061	3264
860.194	3268
860.327	3131
860.46	3077
860.592	3237
860.725	3230
860.858	3256
860.99	3116
861.123	3081
861.256	3028
861.388	3157
861.521	3937
861.653	2979
861.786	2975
861.918	2986
862.05	3074
862.183	3066
862.315	3112
862.447	3222
862.58	3089
862.712	2948
862.844	2868
862.976	2986
863.108	2982
863.24	3340
863.372	2914
863.504	2967
863.636	2948
863.768	3043
863.9	2937
864.032	2899
864.164	2910
864.296	3020
864.428	3089
864.559	3100
864.691	3081
864.823	3100
864.954	2998
865.086	3024
865.217	2956
865.349	2986
865.48	2994
865.612	3001
865.743	3138
865.875	2933
866.006	2922
866.137	3009
866.269	2933
866.4	2918
866.531	2899
866.662	2902
866.793	2899
866.924	2880
867.055	2933
867.186	2891
867.317	2883
867.448	2815
867.579	2853
867.71	2876
867.841	2845
867.972	2922
868.103	2902
868.233	2857
868.364	2887
868.495	2914
868.625	3055
868.756	3138
868.886	2960
869.017	3017
869.147	3173
869.278	3123
869.408	3058
869.539	3039
869.669	3085
869.799	3032
869.929	3131
870.06	3081
870.19	3332
870.32	3241
870.45	3241
870.58	3351
870.71	3477
870.84	3420
870.97	3264
871.1	3226
871.23	3492
871.36	3500
871.489	3283
871.619	3428
871.749	3393
871.879	3435
872.008	3496
872.138	3336
872.267	3241
872.397	3157
872.526	3089
872.656	2998
872.785	3089
872.915	3241
873.044	3306
873.173	3226
873.303	3203
873.432	3233
873.561	3218
873.69	3146
873.819	3097
873.948	3184
874.077	3074
874.206	3024
874.335	3070
874.464	3203
874.593	3321
874.722	3245
874.851	3428
874.979	3321
875.108	3321
875.237	3222
875.365	3169
875.494	3165
875.623	3249
875.751	3100
875.88	3108
876.008	3169
876.136	3188
876.265	3344
876.393	3530
876.521	3424
876.65	3370
876.778	3321
876.906	3230
877.034	3214
877.162	3214
877.29	3184
877.418	3211
877.546	3249
877.674	3211
877.802	3260
877.93	3203
878.058	3119
878.185	3085
878.313	3230
878.441	3161
878.568	3081
878.696	3154
878.824	3241
878.951	3310
879.079	3458
879.206	3618
879.333	3409
879.461	3329
879.588	3321
879.715	3481
879.842	3545
879.97	3378
880.097	3157
880.224	3100
880.351	3150
880.478	3222
880.605	3176
880.732	3195
880.859	3477
880.986	3332
881.112	3359
881.239	3188
881.366	3055
881.493	3009
881.619	3032
881.746	3062
881.872	3051
881.999	3077
882.125	3108
882.252	3226
882.378	3294
882.505	3447
882.631	3272
882.757	3180
882.883	3195
883.01	3226
883.136	3150
883.262	3074
883.388	3093
883.514	3306
883.64	3367
883.766	3275
883.892	3161
884.018	3245
884.143	3397
884.269	3549
884.395	3192
884.52	3176
884.646	3173
884.772	3123
884.897	3074
885.023	3222
885.148	3332
885.274	3435
885.399	3370
885.524	3298
885.65	3214
885.775	3317
885.9	3272
886.025	3428
886.15	3382
886.275	3260
886.4	3230
886.525	3268
886.65	3268
886.775	3287
886.9	3504
887.025	3599
887.149	3386
887.274	3268
887.399	3131
887.523	3226
887.648	3199
887.773	3195
887.897	3359
888.021	3378
888.146	3294
888.27	3477
888.395	3545
888.519	3405
888.643	3412
888.767	3420
888.891	3268
889.015	3241
889.139	3279
889.263	3218
889.387	3397
889.511	3530
889.635	3466
889.759	3264
889.883	3317
890.006	3420
890.13	3511
890.254	3268
890.377	3332
890.501	3173
890.624	3237
890.748	3268
890.871	3226
890.995	3108
891.118	3104
891.241	3207
891.364	3199
891.488	3317
891.611	3188
891.734	3207
891.857	3317
891.98	3230
892.103	3332
892.226	3256
892.349	3192
892.471	3119
892.594	3237
892.717	3298
892.839	3226
892.962	3313
893.085	3340
893.207	3313
893.33	3104
893.452	3207
893.575	3359
893.697	3249
893.819	3466
893.941	3496
894.064	3393
894.186	3230
894.308	3256
894.43	3382
894.552	3519
894.674	3462
894.796	3275
894.918	3302
895.04	3279
895.161	3416
895.283	3348
895.405	3344
895.526	3344
895.648	3450
895.769	3443
895.891	3424
896.012	3473
896.134	3469
896.255	3378
896.376	3378
896.498	3344
896.619	3447
896.74	3321
896.861	3424
896.982	3686
897.103	3846
897.224	3561
897.345	3523
897.466	3431
897.587	3500
897.708	3603
897.828	3534
897.949	3481
898.07	3329
898.19	3409
898.311	3545
898.431	3481
898.552	3515
898.672	3656
898.792	3549
898.913	3526
899.033	3405
899.153	3268
899.273	3218
899.393	3291
899.513	3298
899.633	3336
899.753	3348
899.873	3310
899.993	3367
900.113	3348
900.232	3401
900.352	3325
900.472	3233
900.591	3241
900.711	3287
900.83	3241
900.95	3401
901.069	3488
901.189	3382
901.308	3195
901.427	3127
901.546	3207
901.665	3294
901.784	3321
901.904	3207
902.023	3169
902.141	3024
902.26	3013
902.379	3150
902.498	3047
902.617	3077
902.735	3211
902.854	3214
902.973	3211
903.091	3017
903.21	3062
903.328	3180
903.446	3116
903.565	3116
903.683	3188
903.801	3100
903.919	3298
904.038	3253
904.156	3176
904.274	3260
904.392	3199
904.51	3268
904.627	3359
904.745	3409
904.863	3496
904.981	3256
905.098	3157
905.216	3192
905.334	3298
905.451	3283
905.569	3275
905.686	3443
905.803	3431
905.921	3279
906.038	3450
906.155	3355
906.272	3283
906.389	3329
906.506	3226
906.623	3214
906.74	3279
906.857	3169
906.974	3260
907.091	3435
907.208	3545
907.324	3443
907.441	3382
907.557	3226
907.674	3207
907.79	3169
907.907	3241
908.023	3329
908.139	3332
908.256	3329
908.372	3336
908.488	3344
908.604	3253
908.72	3207
908.836	3268
908.952	3287
909.068	3359
909.184	3488
909.3	3416
909.415	3500
909.531	3469
909.647	3283
909.762	3245
909.878	3287
909.993	3363
910.108	3310
910.224	3329
910.339	3389
910.454	3306
910.57	3298
910.685	3249
910.8	3568
910.915	3507
911.03	3443
911.145	3249
911.259	3279
911.374	3298
911.489	3245
911.604	3169
911.718	3093
911.833	3169
911.947	2979
912.062	2975
912.176	3146
912.291	3199
912.405	3207
912.519	3458
912.633	3481
912.748	3355
912.862	3241
912.976	3150
913.09	3097
913.204	3150
913.318	3188
913.431	3340
913.545	3363
913.659	3374
913.772	3313
913.886	3222
914	3211
914.113	3344
914.226	3420
914.34	3359
914.453	3237
914.566	3405
914.68	3294
914.793	3298
914.906	3138
915.019	3104
915.132	3070
915.245	3176
915.358	3184
915.47	3203
915.583	3253
915.696	3287
915.809	3386
915.921	3397
916.034	3241
916.146	3222
916.259	3256
916.371	3355
916.483	3374
916.595	3291
916.708	3348
916.82	3348
916.932	3310
917.044	3329
917.156	3313
917.268	3230
917.38	3291
917.491	3272
917.603	3378
917.715	3481
917.826	3450
917.938	3370
918.049	3275
918.161	3412
918.272	3561
918.384	3545
918.495	3481
918.606	3325
918.717	3298
918.828	3409
918.939	3401
919.05	3268
919.161	3378
919.272	3165
919.383	3272
919.494	3488
919.604	3713
919.715	3481
919.826	3416
919.936	3481
920.047	3629
920.157	3572
920.267	3770
920.378	3644
920.488	3545
920.598	3785
920.708	3991
920.818	3793
920.928	3846
921.038	4010
921.148	3987
921.258	3698
921.368	3618
921.477	3553
921.587	3534
921.697	3447
921.806	3656
921.916	3526
922.025	3382
922.134	3363
922.244	3313
922.353	3416
922.462	3233
922.571	3207
922.68	3104
922.789	3100
922.898	3123
923.007	3089
923.116	3176
923.224	3146
923.333	3138
923.442	3093
923.55	3097
923.659	3116
923.767	3230
923.876	3112
923.984	3230
924.092	3142
924.201	3207
924.309	3218
924.417	3272
924.525	3165
924.633	3230
924.741	4002
924.849	3001
924.956	3298
925.064	3100
925.172	3024
925.279	3116
925.387	3226
925.494	3218
925.602	3393
925.709	3355
925.816	3203
925.924	3237
926.031	3370
926.138	3306
926.245	3363
926.352	3245
926.459	3393
926.566	3488
926.673	3310
926.779	3283
926.886	3211
926.993	3161
927.099	3131
927.206	3085
927.312	3089
927.419	3230
927.525	3176
927.631	3275
927.737	3146
927.843	3154
927.95	3001
928.056	3135
928.162	3169
928.267	3211
928.373	3842
928.479	3279
928.585	3093
928.69	3195
928.796	3260
928.901	3176
929.007	3032
929.112	3195
929.218	3131
929.323	3157
929.428	3157
929.533	3294
929.638	3165
929.743	3169
929.848	3237
929.953	3184
930.058	3150
930.163	3005
930.267	3013
930.372	3199
930.477	3043
930.581	3287
930.685	3203
930.79	3074
930.894	3127
930.998	3070
931.103	3264
931.207	2998
931.311	2929
931.415	2952
931.519	2739
931.623	2830
