Data from test_V78500241_957.txt Node
Date: Fri Mar 25 16:21:49 CST 2022
User: usil
Spectrometer: V785-0024
Trigger mode: 0
Integration Time (sec): 4.000000E-1
Scans to average: 1
Nonlinearity correction enabled: false
Boxcar width: 0
Storing dark spectrum: false
XAxis mode: Wavelengths
Number of Pixels in Spectrum: 1024
>>>>>Begin Spectral Data<<<<<
801.071	2891
801.214	2960
801.356	2891
801.499	2876
801.641	2845
801.783	2910
801.926	3020
802.068	2975
802.211	2990
802.353	3020
802.496	2933
802.638	3028
802.78	3036
802.923	3074
803.065	3001
803.208	2883
803.35	2914
803.492	2937
803.635	2895
803.777	2773
803.919	2861
804.061	3199
804.204	2895
804.346	2880
804.488	2845
804.63	3001
804.773	2891
804.915	2914
805.057	3085
805.199	2918
805.341	2944
805.483	3043
805.626	2982
805.768	2937
805.91	3077
806.052	3108
806.194	3036
806.336	3211
806.478	3013
806.62	2944
806.762	2960
806.904	3070
807.046	3150
807.188	2967
807.33	2937
807.472	2990
807.614	2895
807.756	2982
807.898	2925
808.04	2918
808.182	2925
808.324	2933
808.465	2883
808.607	2883
808.749	2785
808.891	2845
809.033	2982
809.174	3005
809.316	2842
809.458	2842
809.6	2766
809.741	2750
809.883	2762
810.025	2842
810.166	2864
810.308	2853
810.45	2842
810.591	2769
810.733	2792
810.875	2845
811.016	2769
811.158	2766
811.299	2819
811.441	2883
811.582	2910
811.724	2823
811.865	2826
812.007	2925
812.148	2849
812.29	2834
812.431	2861
812.573	2933
812.714	2967
812.855	3077
812.997	3062
813.138	3135
813.279	2998
813.421	2922
813.562	2960
813.703	2868
813.845	2883
813.986	2754
814.127	2720
814.268	2796
814.41	2845
814.551	2754
814.692	2857
814.833	2826
814.974	2864
815.115	2960
815.256	2823
815.397	2811
815.539	2842
815.68	2773
815.821	2758
815.962	2910
816.103	2910
816.244	2876
816.385	2861
816.526	2956
816.666	2925
816.807	2743
816.948	2910
817.089	2895
817.23	2861
817.371	2777
817.512	2777
817.653	2838
817.793	2834
817.934	2872
818.075	2971
818.216	2982
818.356	3028
818.497	2876
818.638	2804
818.778	2796
818.919	2811
819.06	2758
819.2	2883
819.341	2777
819.481	2777
819.622	2922
819.762	3081
819.903	3055
820.043	2910
820.184	2922
820.324	2876
820.465	3047
820.605	3036
820.746	3028
820.886	2910
821.026	3119
821.167	3108
821.307	3237
821.447	3249
821.588	3230
821.728	3199
821.868	3180
822.008	3055
822.149	3211
822.289	3226
822.429	3077
822.569	3043
822.709	3157
822.849	3009
822.99	3043
823.13	3173
823.27	3214
823.41	3100
823.55	3081
823.69	3157
823.83	3184
823.97	3108
824.11	3043
824.25	2982
824.389	3058
824.529	3093
824.669	3062
824.809	3199
824.949	3253
825.089	3237
825.228	3161
825.368	3020
825.508	2963
825.648	2944
825.787	3047
825.927	3047
826.067	2990
826.206	2971
826.346	3039
826.485	3108
826.625	3123
826.765	3275
826.904	3211
827.044	2982
827.183	2922
827.323	2887
827.462	2937
827.601	2948
827.741	2910
827.88	2941
828.02	2849
828.159	2971
828.298	3058
828.437	3108
828.577	3036
828.716	3226
828.855	3062
828.994	2883
829.134	2868
829.273	2910
829.412	2830
829.551	2864
829.69	2887
829.829	2963
829.968	3131
830.107	2990
830.246	3024
830.385	2914
830.524	2845
830.663	2811
830.802	2720
830.941	2629
831.08	2655
831.219	2727
831.357	2766
831.496	2963
831.635	2720
831.774	2602
831.913	2640
832.051	2549
832.19	2568
832.329	2701
832.467	2552
832.606	2454
832.744	2564
832.883	2571
833.022	2598
833.16	2655
833.299	2670
833.437	2670
833.576	2712
833.714	2743
833.852	2705
833.991	2724
834.129	2811
834.267	2849
834.406	2807
834.544	2902
834.682	2857
834.821	2891
834.959	3032
835.097	2868
835.235	3074
835.373	2990
835.511	3001
835.65	2899
835.788	2937
835.926	2823
836.064	2819
836.202	2834
836.34	3089
836.478	3157
836.615	3047
836.753	3135
836.891	3195
837.029	3154
837.167	3104
837.305	3085
837.443	3047
837.58	2925
837.718	3146
837.856	3039
837.993	3043
838.131	3127
838.269	3104
838.406	3047
838.544	3070
838.681	2948
838.819	2922
838.956	2819
839.094	2807
839.231	2864
839.369	2982
839.506	3386
839.643	3211
839.781	3017
839.918	2956
840.055	2994
840.193	3055
840.33	3100
840.467	3051
840.604	3146
840.742	3405
840.879	3028
841.016	3051
841.153	3093
841.29	3313
841.427	3279
841.564	3279
841.701	3317
841.838	3230
841.975	3165
842.112	3207
842.249	3081
842.385	3005
842.522	3264
842.659	3097
842.796	3058
842.933	3081
843.069	3005
843.206	3009
843.343	3169
843.479	3097
843.616	3150
843.752	2906
843.889	2845
844.025	3097
844.162	2891
844.298	3066
844.435	2956
844.571	2899
844.708	3047
844.844	3226
844.98	3207
845.117	3195
845.253	3024
845.389	3001
845.525	3097
845.661	3100
845.798	2967
845.934	3112
846.07	3043
846.206	3211
846.342	3283
846.478	3199
846.614	3089
846.75	3062
846.886	2998
847.022	3203
847.158	3100
847.294	3199
847.429	3233
847.565	3233
847.701	3477
847.837	3062
847.972	2979
848.108	3131
848.244	3116
848.379	2982
848.515	2929
848.65	2895
848.786	2944
848.921	3039
849.057	3112
849.192	3135
849.328	3058
849.463	3081
849.598	3047
849.734	3005
849.869	2979
850.004	2887
850.14	2937
850.275	2933
850.41	2811
850.545	2838
850.68	2929
850.815	2918
850.95	2956
851.085	3165
851.22	3066
851.355	3001
851.49	2994
851.625	2982
851.76	2956
851.895	2922
852.03	2918
852.165	3039
852.299	3127
852.434	3195
852.569	3108
852.703	3192
852.838	3237
852.973	3294
853.107	3325
853.242	3142
853.376	3085
853.511	2971
853.645	3074
853.78	3211
853.914	3108
854.048	3074
854.183	3077
854.317	3146
854.451	3287
854.585	3062
854.72	3081
854.854	3165
854.988	3058
855.122	3104
855.256	2979
855.39	3119
855.524	3249
855.658	3165
855.792	3173
855.926	3199
856.06	3203
856.194	3272
856.327	3192
856.461	3055
856.595	3104
856.729	3112
856.862	3199
856.996	3150
857.13	3180
857.263	3195
857.397	3283
857.53	3135
857.664	3180
857.797	3253
857.931	3241
858.064	3131
858.197	3203
858.331	3123
858.464	3070
858.597	2975
858.731	3100
858.864	3138
858.997	3089
859.13	3154
859.263	3161
859.396	3180
859.529	3077
859.662	3036
859.795	3032
859.928	3173
860.061	3264
860.194	3260
860.327	3119
860.46	3074
860.592	3218
860.725	3237
860.858	3207
860.99	3100
861.123	3051
861.256	3039
861.388	3127
861.521	3812
861.653	3017
861.786	2998
861.918	3009
862.05	3039
862.183	3127
862.315	3127
862.447	3192
862.58	3039
862.712	2960
862.844	2914
862.976	3020
863.108	3017
863.24	3431
863.372	2883
863.504	2982
863.636	2956
863.768	3009
863.9	2948
864.032	2880
864.164	2910
864.296	3009
864.428	3055
864.559	3062
864.691	3032
864.823	3047
864.954	3051
865.086	3047
865.217	2952
865.349	2956
865.48	3001
865.612	2975
865.743	3116
865.875	2979
866.006	2952
866.137	2982
866.269	2963
866.4	2887
866.531	2899
866.662	2883
866.793	2895
866.924	2891
867.055	3001
867.186	2906
867.317	2864
867.448	2823
867.579	2876
867.71	2868
867.841	2800
867.972	2876
868.103	2887
868.233	2883
868.364	2876
868.495	2872
868.625	3051
868.756	3192
868.886	2937
869.017	3017
869.147	3184
869.278	3123
869.408	3081
869.539	3032
869.669	3104
869.799	3051
869.929	3131
870.06	3093
870.19	3306
870.32	3237
870.45	3256
870.58	3351
870.71	3443
870.84	3431
870.97	3264
871.1	3188
871.23	3454
871.36	3443
871.489	3355
871.619	3428
871.749	3412
871.879	3450
872.008	3420
872.138	3370
872.267	3260
872.397	3146
872.526	3074
872.656	3009
872.785	3108
872.915	3245
873.044	3294
873.173	3218
873.303	3233
873.432	3222
873.561	3226
873.69	3173
873.819	3157
873.948	3195
874.077	3097
874.206	3032
874.335	3081
874.464	3173
874.593	3348
874.722	3260
874.851	3370
874.979	3321
875.108	3302
875.237	3188
875.365	3188
875.494	3142
875.623	3245
875.751	3058
875.88	3138
876.008	3211
876.136	3211
876.265	3382
876.393	3523
876.521	3401
876.65	3397
876.778	3359
876.906	3253
877.034	3157
877.162	3207
877.29	3157
877.418	3218
877.546	3199
877.674	3264
877.802	3203
877.93	3211
878.058	3150
878.185	3066
878.313	3173
878.441	3173
878.568	3043
878.696	3123
878.824	3218
878.951	3241
879.079	3477
879.206	3610
879.333	3443
879.461	3344
879.588	3336
879.715	3447
879.842	3557
879.97	3386
880.097	3142
880.224	3146
880.351	3154
880.478	3180
880.605	3188
880.732	3218
880.859	3473
880.986	3325
881.112	3313
881.239	3207
881.366	3123
881.493	3043
881.619	3024
881.746	3085
881.872	3085
881.999	3138
882.125	3165
882.252	3241
882.378	3275
882.505	3454
882.631	3317
882.757	3211
882.883	3207
883.01	3211
883.136	3127
883.262	3097
883.388	3108
883.514	3325
883.64	3374
883.766	3344
883.892	3192
884.018	3253
884.143	3367
884.269	3526
884.395	3180
884.52	3169
884.646	3188
884.772	3085
884.897	3093
885.023	3184
885.148	3325
885.274	3447
885.399	3370
885.524	3241
885.65	3245
885.775	3287
885.9	3287
886.025	3393
886.15	3351
886.275	3310
886.4	3222
886.525	3291
886.65	3245
886.775	3279
886.9	3485
887.025	3591
887.149	3363
887.274	3260
887.399	3169
887.523	3211
887.648	3146
887.773	3146
887.897	3363
888.021	3374
888.146	3264
888.27	3397
888.395	3500
888.519	3462
888.643	3420
888.767	3454
888.891	3291
889.015	3237
889.139	3310
889.263	3218
889.387	3386
889.511	3485
889.635	3431
889.759	3291
889.883	3275
890.006	3370
890.13	3481
890.254	3256
890.377	3367
890.501	3199
890.624	3184
890.748	3298
890.871	3176
890.995	3085
891.118	3058
891.241	3188
891.364	3192
891.488	3332
891.611	3192
891.734	3237
891.857	3351
891.98	3230
892.103	3355
892.226	3218
892.349	3233
892.471	3119
892.594	3214
892.717	3287
892.839	3279
892.962	3283
893.085	3313
893.207	3260
893.33	3146
893.452	3237
893.575	3329
893.697	3260
893.819	3450
893.941	3492
894.064	3454
894.186	3260
894.308	3260
894.43	3389
894.552	3496
894.674	3488
894.796	3237
894.918	3283
895.04	3268
895.161	3424
895.283	3340
895.405	3310
895.526	3336
895.648	3420
895.769	3393
895.891	3450
896.012	3477
896.134	3496
896.255	3424
896.376	3363
896.498	3351
896.619	3397
896.74	3355
896.861	3374
896.982	3679
897.103	3816
897.224	3584
897.345	3519
897.466	3412
897.587	3504
897.708	3614
897.828	3538
897.949	3428
898.07	3340
898.19	3397
898.311	3599
898.431	3435
898.552	3530
898.672	3610
898.792	3572
898.913	3538
899.033	3389
899.153	3268
899.273	3195
899.393	3272
899.513	3272
899.633	3317
899.753	3313
899.873	3329
899.993	3382
900.113	3340
900.232	3409
900.352	3317
900.472	3241
900.591	3195
900.711	3275
900.83	3249
900.95	3424
901.069	3488
901.189	3351
901.308	3138
901.427	3123
901.546	3192
901.665	3272
901.784	3336
901.904	3207
902.023	3218
902.141	3047
902.26	3028
902.379	3131
902.498	3074
902.617	3039
902.735	3226
902.854	3233
902.973	3173
903.091	3024
903.21	3039
903.328	3142
903.446	3116
903.565	3081
903.683	3218
903.801	3100
903.919	3249
904.038	3302
904.156	3176
904.274	3275
904.392	3253
904.51	3253
904.627	3302
904.745	3439
904.863	3507
904.981	3233
905.098	3188
905.216	3207
905.334	3294
905.451	3310
905.569	3325
905.686	3416
905.803	3447
905.921	3275
906.038	3412
906.155	3313
906.272	3268
906.389	3329
906.506	3218
906.623	3256
906.74	3291
906.857	3184
906.974	3272
907.091	3431
907.208	3591
907.324	3496
907.441	3393
907.557	3222
907.674	3218
907.79	3195
907.907	3264
908.023	3351
908.139	3351
908.256	3294
908.372	3389
908.488	3329
908.604	3256
908.72	3211
908.836	3325
908.952	3298
909.068	3329
909.184	3450
909.3	3370
909.415	3492
909.531	3492
909.647	3279
909.762	3348
909.878	3237
909.993	3367
910.108	3329
910.224	3298
910.339	3370
910.454	3344
910.57	3253
910.685	3233
910.8	3610
910.915	3538
911.03	3382
911.145	3249
911.259	3192
911.374	3294
911.489	3230
911.604	3195
911.718	3100
911.833	3146
911.947	2979
912.062	2994
912.176	3180
912.291	3176
912.405	3165
912.519	3420
912.633	3431
912.748	3344
912.862	3310
912.976	3207
913.09	3051
913.204	3142
913.318	3233
913.431	3378
913.545	3306
913.659	3382
913.772	3355
913.886	3222
914	3218
914.113	3363
914.226	3393
914.34	3355
914.453	3184
914.566	3389
914.68	3310
914.793	3336
914.906	3154
915.019	3104
915.132	3104
915.245	3157
915.358	3192
915.47	3233
915.583	3233
915.696	3302
915.809	3382
915.921	3401
916.034	3230
916.146	3203
916.259	3203
916.371	3370
916.483	3378
916.595	3268
916.708	3325
916.82	3367
916.932	3325
917.044	3359
917.156	3329
917.268	3226
917.38	3256
917.491	3287
917.603	3329
917.715	3447
917.826	3439
917.938	3340
918.049	3260
918.161	3428
918.272	3580
918.384	3584
918.495	3466
918.606	3340
918.717	3237
918.828	3382
918.939	3428
919.05	3313
919.161	3378
919.272	3157
919.383	3340
919.494	3485
919.604	3667
919.715	3481
919.826	3378
919.936	3462
920.047	3584
920.157	3485
920.267	3709
920.378	3587
920.488	3545
920.598	3816
920.708	3918
920.818	3808
920.928	3827
921.038	4029
921.148	3991
921.258	3724
921.368	3595
921.477	3511
921.587	3526
921.697	3431
921.806	3644
921.916	3530
922.025	3329
922.134	3389
922.244	3332
922.353	3431
922.462	3264
922.571	3192
922.68	3089
922.789	3058
922.898	3142
923.007	3131
923.116	3184
923.224	3169
923.333	3165
923.442	3108
923.55	3116
923.659	3131
923.767	3226
923.876	3097
923.984	3237
924.092	3093
924.201	3173
924.309	3176
924.417	3249
924.525	3157
924.633	3230
924.741	4227
924.849	3055
924.956	3253
925.064	3089
925.172	3039
925.279	3108
925.387	3192
925.494	3199
925.602	3363
925.709	3306
925.816	3180
925.924	3256
926.031	3351
926.138	3332
926.245	3351
926.352	3245
926.459	3450
926.566	3462
926.673	3336
926.779	3275
926.886	3253
926.993	3154
927.099	3089
927.206	3089
927.312	3154
927.419	3253
927.525	3199
927.631	3241
927.737	3097
927.843	3142
927.95	3028
928.056	3100
928.162	3142
928.267	3260
928.373	3823
928.479	3302
928.585	3070
928.69	3230
928.796	3294
928.901	3165
929.007	3066
929.112	3146
929.218	3154
929.323	3161
929.428	3127
929.533	3317
929.638	3066
929.743	3180
929.848	3260
929.953	3188
930.058	3154
930.163	2986
930.267	3051
930.372	3214
930.477	3051
930.581	3291
930.685	3199
930.79	3036
930.894	3135
930.998	3062
931.103	3249
931.207	2971
931.311	2963
931.415	2922
931.519	2773
931.623	2773
