Data from test_V78500241_1552.txt Node
Date: Fri Mar 25 16:25:57 CST 2022
User: usil
Spectrometer: V785-0024
Trigger mode: 0
Integration Time (sec): 4.000000E-1
Scans to average: 1
Nonlinearity correction enabled: false
Boxcar width: 0
Storing dark spectrum: false
XAxis mode: Wavelengths
Number of Pixels in Spectrum: 1024
>>>>>Begin Spectral Data<<<<<
801.071	2914
801.214	2960
801.356	2845
801.499	2902
801.641	2876
801.783	2910
801.926	3024
802.068	2952
802.211	2994
802.353	3005
802.496	2925
802.638	2952
802.78	3017
802.923	3085
803.065	2948
803.208	2868
803.35	2876
803.492	2952
803.635	2910
803.777	2746
803.919	2842
804.061	3184
804.204	2902
804.346	2914
804.488	2838
804.63	2971
804.773	2868
804.915	2910
805.057	3047
805.199	2891
805.341	2941
805.483	2986
805.626	3017
805.768	2967
805.91	3093
806.052	3108
806.194	3013
806.336	3203
806.478	3017
806.62	2986
806.762	2963
806.904	3058
807.046	3146
807.188	2982
807.33	2914
807.472	2963
807.614	2887
807.756	2975
807.898	2895
808.04	2883
808.182	2941
808.324	2925
808.465	2880
808.607	2853
808.749	2746
808.891	2830
809.033	2941
809.174	2982
809.316	2902
809.458	2861
809.6	2750
809.741	2758
809.883	2754
810.025	2815
810.166	2834
810.308	2838
810.45	2826
810.591	2727
810.733	2762
810.875	2819
811.016	2792
811.158	2769
811.299	2826
811.441	2887
811.582	2922
811.724	2800
811.865	2785
812.007	2876
812.148	2868
812.29	2830
812.431	2891
812.573	2899
812.714	2933
812.855	3001
812.997	3039
813.138	3123
813.279	2994
813.421	2979
813.562	2941
813.703	2876
813.845	2872
813.986	2781
814.127	2735
814.268	2823
814.41	2819
814.551	2781
814.692	2853
814.833	2800
814.974	2899
815.115	2944
815.256	2830
815.397	2804
815.539	2857
815.68	2758
815.821	2830
815.962	2948
816.103	2922
816.244	2845
816.385	2819
816.526	2925
816.666	2887
816.807	2769
816.948	2853
817.089	2906
817.23	2815
817.371	2743
817.512	2785
817.653	2769
817.793	2800
817.934	2887
818.075	2956
818.216	2990
818.356	3020
818.497	2887
818.638	2769
818.778	2800
818.919	2804
819.06	2731
819.2	2864
819.341	2788
819.481	2766
819.622	2895
819.762	3112
819.903	3058
820.043	2895
820.184	2891
820.324	2910
820.465	2944
820.605	2971
820.746	3005
820.886	2899
821.026	3085
821.167	3161
821.307	3218
821.447	3230
821.588	3188
821.728	3165
821.868	3207
822.008	3051
822.149	3146
822.289	3195
822.429	3058
822.569	3085
822.709	3165
822.849	3032
822.99	3070
823.13	3146
823.27	3173
823.41	3077
823.55	3173
823.69	3123
823.83	3154
823.97	3085
824.11	3005
824.25	2979
824.389	3051
824.529	3077
824.669	3089
824.809	3195
824.949	3256
825.089	3230
825.228	3169
825.368	3020
825.508	2975
825.648	2963
825.787	3032
825.927	3028
826.067	2990
826.206	2979
826.346	3074
826.485	3062
826.625	3127
826.765	3268
826.904	3218
827.044	2990
827.183	2944
827.323	2922
827.462	3024
827.601	2979
827.741	2922
827.88	2979
828.02	2849
828.159	2960
828.298	3058
828.437	3131
828.577	3032
828.716	3268
828.855	3108
828.994	2956
829.134	2918
829.273	2960
829.412	2914
829.551	2899
829.69	2918
829.829	2971
829.968	3169
830.107	3005
830.246	3066
830.385	2967
830.524	2868
830.663	2868
830.802	2739
830.941	2701
831.08	2663
831.219	2815
831.357	2800
831.496	2982
831.635	2754
831.774	2693
831.913	2720
832.051	2590
832.19	2610
832.329	2727
832.467	2583
832.606	2537
832.744	2610
832.883	2636
833.022	2621
833.16	2678
833.299	2754
833.437	2735
833.576	2739
833.714	2777
833.852	2758
833.991	2804
834.129	2864
834.267	2887
834.406	2800
834.544	2891
834.682	2914
834.821	2853
834.959	3104
835.097	2918
835.235	3085
835.373	3028
835.511	3032
835.65	2998
835.788	2979
835.926	2902
836.064	2880
836.202	2876
836.34	3131
836.478	3199
836.615	3074
836.753	3150
836.891	3256
837.029	3222
837.167	3154
837.305	3127
837.443	3104
837.58	2982
837.718	3192
837.856	3097
837.993	3077
838.131	3127
838.269	3123
838.406	3135
838.544	3123
838.681	2986
838.819	2948
838.956	2842
839.094	2895
839.231	2902
839.369	3070
839.506	3454
839.643	3218
839.781	3055
839.918	2979
840.055	3077
840.193	3062
840.33	3097
840.467	3138
840.604	3100
840.742	3431
840.879	3055
841.016	3055
841.153	3173
841.29	3378
841.427	3329
841.564	3329
841.701	3348
841.838	3283
841.975	3173
842.112	3249
842.249	3119
842.385	3051
842.522	3253
842.659	3089
842.796	3081
842.933	3077
843.069	3055
843.206	3062
843.343	3150
843.479	3135
843.616	3142
843.752	2887
843.889	2899
844.025	3112
844.162	2937
844.298	3112
844.435	2956
844.571	2925
844.708	3085
844.844	3241
844.98	3279
845.117	3199
845.253	3089
845.389	3036
845.525	3131
845.661	3165
845.798	3074
845.934	3154
846.07	3081
846.206	3264
846.342	3359
846.478	3249
846.614	3116
846.75	3089
846.886	3043
847.022	3245
847.158	3184
847.294	3203
847.429	3245
847.565	3214
847.701	3462
847.837	3055
847.972	3028
848.108	3195
848.244	3188
848.379	2956
848.515	2979
848.65	2948
848.786	2990
848.921	3020
849.057	3108
849.192	3165
849.328	3131
849.463	3131
849.598	3108
849.734	3097
849.869	3024
850.004	2963
850.14	2979
850.275	2944
850.41	2861
850.545	2910
850.68	2963
850.815	2994
850.95	2986
851.085	3218
851.22	3131
851.355	3047
851.49	3001
851.625	3013
851.76	3066
851.895	2956
852.03	2914
852.165	3055
852.299	3127
852.434	3222
852.569	3180
852.703	3199
852.838	3275
852.973	3386
853.107	3363
853.242	3173
853.376	3104
853.511	2986
853.645	3104
853.78	3233
853.914	3150
854.048	3116
854.183	3146
854.317	3199
854.451	3329
854.585	3154
854.72	3112
854.854	3241
854.988	3028
855.122	3085
855.256	2975
855.39	3161
855.524	3253
855.658	3211
855.792	3184
855.926	3195
856.06	3245
856.194	3298
856.327	3169
856.461	3108
856.595	3093
856.729	3119
856.862	3253
856.996	3195
857.13	3188
857.263	3249
857.397	3310
857.53	3131
857.664	3211
857.797	3275
857.931	3268
858.064	3195
858.197	3237
858.331	3161
858.464	3085
858.597	3036
858.731	3138
858.864	3135
858.997	3112
859.13	3195
859.263	3192
859.396	3218
859.529	3081
859.662	3112
859.795	3062
859.928	3142
860.061	3325
860.194	3332
860.327	3169
860.46	3138
860.592	3275
860.725	3279
860.858	3256
860.99	3142
861.123	3085
861.256	3093
861.388	3123
861.521	3930
861.653	3020
861.786	2994
861.918	3062
862.05	3112
862.183	3104
862.315	3176
862.447	3207
862.58	3131
862.712	2967
862.844	2868
862.976	3089
863.108	3047
863.24	3355
863.372	2925
863.504	2979
863.636	2986
863.768	3070
863.9	3009
864.032	2925
864.164	2990
864.296	3043
864.428	3077
864.559	3123
864.691	3085
864.823	3081
864.954	3085
865.086	3051
865.217	3039
865.349	2906
865.48	3013
865.612	3036
865.743	3203
865.875	2998
866.006	2960
866.137	2998
866.269	2963
866.4	2933
866.531	2918
866.662	2910
866.793	2918
866.924	2929
867.055	2982
867.186	2933
867.317	2891
867.448	2861
867.579	2891
867.71	2891
867.841	2823
867.972	2868
868.103	2925
868.233	2864
868.364	2899
868.495	2956
868.625	3135
868.756	3176
868.886	2990
869.017	3062
869.147	3195
869.278	3199
869.408	3112
869.539	3009
869.669	3146
869.799	3100
869.929	3169
870.06	3104
870.19	3344
870.32	3306
870.45	3310
870.58	3370
870.71	3458
870.84	3477
870.97	3325
871.1	3260
871.23	3485
871.36	3488
871.489	3397
871.619	3416
871.749	3428
871.879	3439
872.008	3469
872.138	3401
872.267	3291
872.397	3184
872.526	3104
872.656	2971
872.785	3116
872.915	3294
873.044	3294
873.173	3237
873.303	3264
873.432	3287
873.561	3233
873.69	3195
873.819	3146
873.948	3233
874.077	3138
874.206	3051
874.335	3119
874.464	3233
874.593	3355
874.722	3279
874.851	3367
874.979	3351
875.108	3340
875.237	3214
875.365	3173
875.494	3154
875.623	3279
875.751	3081
875.88	3131
876.008	3199
876.136	3249
876.265	3412
876.393	3538
876.521	3409
876.65	3435
876.778	3351
876.906	3302
877.034	3207
877.162	3256
877.29	3207
877.418	3253
877.546	3249
877.674	3249
877.802	3241
877.93	3249
878.058	3169
878.185	3116
878.313	3214
878.441	3249
878.568	3108
878.696	3146
878.824	3275
878.951	3321
879.079	3481
879.206	3614
879.333	3481
879.461	3317
879.588	3363
879.715	3500
879.842	3587
879.97	3397
880.097	3180
880.224	3173
880.351	3226
880.478	3230
880.605	3176
880.732	3188
880.859	3466
880.986	3329
881.112	3329
881.239	3230
881.366	3150
881.493	3081
881.619	3017
881.746	3104
881.872	3100
881.999	3074
882.125	3157
882.252	3222
882.378	3310
882.505	3431
882.631	3283
882.757	3165
882.883	3230
883.01	3275
883.136	3176
883.262	3116
883.388	3138
883.514	3321
883.64	3393
883.766	3306
883.892	3214
884.018	3268
884.143	3416
884.269	3580
884.395	3211
884.52	3199
884.646	3241
884.772	3112
884.897	3097
885.023	3222
885.148	3344
885.274	3420
885.399	3393
885.524	3287
885.65	3298
885.775	3332
885.9	3291
886.025	3492
886.15	3424
886.275	3306
886.4	3256
886.525	3321
886.65	3279
886.775	3237
886.9	3511
887.025	3637
887.149	3435
887.274	3268
887.399	3211
887.523	3180
887.648	3188
887.773	3218
887.897	3386
888.021	3416
888.146	3260
888.27	3412
888.395	3530
888.519	3397
888.643	3439
888.767	3477
888.891	3298
889.015	3264
889.139	3298
889.263	3283
889.387	3454
889.511	3511
889.635	3462
889.759	3325
889.883	3260
890.006	3431
890.13	3481
890.254	3275
890.377	3359
890.501	3180
890.624	3199
890.748	3302
890.871	3161
890.995	3119
891.118	3112
891.241	3207
891.364	3195
891.488	3359
891.611	3142
891.734	3214
891.857	3325
891.98	3230
892.103	3359
892.226	3272
892.349	3199
892.471	3142
892.594	3264
892.717	3291
892.839	3283
892.962	3313
893.085	3351
893.207	3321
893.33	3138
893.452	3222
893.575	3332
893.697	3287
893.819	3454
893.941	3523
894.064	3458
894.186	3264
894.308	3279
894.43	3409
894.552	3580
894.674	3473
894.796	3264
894.918	3283
895.04	3310
895.161	3462
895.283	3378
895.405	3336
895.526	3344
895.648	3485
895.769	3462
895.891	3435
896.012	3496
896.134	3473
896.255	3416
896.376	3409
896.498	3393
896.619	3424
896.74	3367
896.861	3416
896.982	3724
897.103	3850
897.224	3587
897.345	3523
897.466	3443
897.587	3477
897.708	3622
897.828	3511
897.949	3447
898.07	3344
898.19	3412
898.311	3610
898.431	3450
898.552	3504
898.672	3633
898.792	3591
898.913	3500
899.033	3405
899.153	3279
899.273	3230
899.393	3279
899.513	3310
899.633	3313
899.753	3359
899.873	3313
899.993	3359
900.113	3363
900.232	3386
900.352	3359
900.472	3279
900.591	3192
900.711	3294
900.83	3233
900.95	3363
901.069	3481
901.189	3412
901.308	3180
901.427	3135
901.546	3207
901.665	3302
901.784	3363
901.904	3230
902.023	3154
902.141	3009
902.26	3009
902.379	3150
902.498	3081
902.617	3070
902.735	3233
902.854	3256
902.973	3211
903.091	3081
903.21	3085
903.328	3157
903.446	3176
903.565	3127
903.683	3192
903.801	3135
903.919	3241
904.038	3325
904.156	3188
904.274	3272
904.392	3279
904.51	3310
904.627	3355
904.745	3473
904.863	3523
904.981	3283
905.098	3199
905.216	3291
905.334	3367
905.451	3355
905.569	3310
905.686	3428
905.803	3492
905.921	3298
906.038	3485
906.155	3340
906.272	3268
906.389	3374
906.506	3272
906.623	3279
906.74	3325
906.857	3256
906.974	3294
907.091	3477
907.208	3618
907.324	3511
907.441	3428
907.557	3279
907.674	3291
907.79	3241
907.907	3348
908.023	3420
908.139	3416
908.256	3401
908.372	3412
908.488	3393
908.604	3321
908.72	3313
908.836	3332
908.952	3332
909.068	3401
909.184	3511
909.3	3412
909.415	3542
909.531	3496
909.647	3302
909.762	3344
909.878	3321
909.993	3409
910.108	3378
910.224	3344
910.339	3443
910.454	3348
910.57	3340
910.685	3336
910.8	3648
910.915	3568
911.03	3492
911.145	3291
911.259	3332
911.374	3374
911.489	3264
911.604	3302
911.718	3184
911.833	3192
911.947	3074
912.062	3024
912.176	3203
912.291	3279
912.405	3233
912.519	3485
912.633	3492
912.748	3393
912.862	3321
912.976	3214
913.09	3108
913.204	3184
913.318	3260
913.431	3409
913.545	3378
913.659	3431
913.772	3351
913.886	3245
914	3233
914.113	3386
914.226	3462
914.34	3409
914.453	3268
914.566	3488
914.68	3344
914.793	3363
914.906	3169
915.019	3157
915.132	3112
915.245	3180
915.358	3256
915.47	3283
915.583	3279
915.696	3325
915.809	3473
915.921	3462
916.034	3272
916.146	3253
916.259	3249
916.371	3424
916.483	3393
916.595	3298
916.708	3374
916.82	3389
916.932	3409
917.044	3428
917.156	3389
917.268	3306
917.38	3355
917.491	3294
917.603	3416
917.715	3462
917.826	3496
917.938	3416
918.049	3279
918.161	3431
918.272	3610
918.384	3625
918.495	3542
918.606	3382
918.717	3279
918.828	3428
918.939	3443
919.05	3313
919.161	3435
919.272	3199
919.383	3298
919.494	3500
919.604	3690
919.715	3507
919.826	3458
919.936	3492
920.047	3633
920.157	3591
920.267	3808
920.378	3633
920.488	3606
920.598	3804
920.708	3972
920.818	3854
920.928	3918
921.038	4090
921.148	4017
921.258	3724
921.368	3648
921.477	3644
921.587	3599
921.697	3469
921.806	3648
921.916	3496
922.025	3389
922.134	3424
922.244	3367
922.353	3477
922.462	3332
922.571	3218
922.68	3104
922.789	3112
922.898	3188
923.007	3104
923.116	3253
923.224	3195
923.333	3230
923.442	3146
923.55	3165
923.659	3150
923.767	3241
923.876	3154
923.984	3279
924.092	3131
924.201	3218
924.309	3268
924.417	3291
924.525	3211
924.633	3294
924.741	4204
924.849	3116
924.956	3275
925.064	3108
925.172	3077
925.279	3123
925.387	3241
925.494	3272
925.602	3386
925.709	3351
925.816	3207
925.924	3298
926.031	3386
926.138	3355
926.245	3355
926.352	3283
926.459	3424
926.566	3523
926.673	3332
926.779	3249
926.886	3256
926.993	3173
927.099	3154
927.206	3157
927.312	3157
927.419	3279
927.525	3222
927.631	3302
927.737	3165
927.843	3157
927.95	3032
928.056	3176
928.162	3165
928.267	3287
928.373	3812
928.479	3321
928.585	3100
928.69	3249
928.796	3348
928.901	3203
929.007	3074
929.112	3226
929.218	3233
929.323	3157
929.428	3142
929.533	3325
929.638	3150
929.743	3192
929.848	3283
929.953	3283
930.058	3131
930.163	3043
930.267	3066
930.372	3218
930.477	3089
930.581	3332
930.685	3214
930.79	3066
930.894	3123
930.998	3157
931.103	3310
931.207	2960
931.311	2963
931.415	2941
931.519	2800
931.623	2872
