Data from test_V78500241_1500.txt Node
Date: Fri Mar 25 16:25:35 CST 2022
User: usil
Spectrometer: V785-0024
Trigger mode: 0
Integration Time (sec): 4.000000E-1
Scans to average: 1
Nonlinearity correction enabled: false
Boxcar width: 0
Storing dark spectrum: false
XAxis mode: Wavelengths
Number of Pixels in Spectrum: 1024
>>>>>Begin Spectral Data<<<<<
801.071	2910
801.214	2929
801.356	2864
801.499	2887
801.641	2906
801.783	2933
801.926	3036
802.068	2948
802.211	2986
802.353	2998
802.496	2933
802.638	2963
802.78	3020
802.923	3074
803.065	2982
803.208	2895
803.35	2880
803.492	2918
803.635	2956
803.777	2735
803.919	2864
804.061	3169
804.204	2929
804.346	2918
804.488	2834
804.63	2975
804.773	2868
804.915	2906
805.057	3085
805.199	2895
805.341	2948
805.483	3036
805.626	2979
805.768	2922
805.91	3028
806.052	3104
806.194	3020
806.336	3237
806.478	3024
806.62	2933
806.762	2994
806.904	3017
807.046	3192
807.188	3001
807.33	2906
807.472	2979
807.614	2899
807.756	2933
807.898	2918
808.04	2899
808.182	2963
808.324	2956
808.465	2906
808.607	2845
808.749	2785
808.891	2857
809.033	2982
809.174	2963
809.316	2868
809.458	2876
809.6	2758
809.741	2777
809.883	2762
810.025	2842
810.166	2857
810.308	2834
810.45	2868
810.591	2788
810.733	2769
810.875	2834
811.016	2792
811.158	2750
811.299	2788
811.441	2895
811.582	2914
811.724	2830
811.865	2834
812.007	2902
812.148	2853
812.29	2845
812.431	2887
812.573	2899
812.714	2967
812.855	3032
812.997	3066
813.138	3108
813.279	3039
813.421	2941
813.562	2925
813.703	2887
813.845	2891
813.986	2731
814.127	2705
814.268	2788
814.41	2845
814.551	2823
814.692	2899
814.833	2834
814.974	2895
815.115	2925
815.256	2807
815.397	2819
815.539	2815
815.68	2792
815.821	2781
815.962	2918
816.103	2914
816.244	2849
816.385	2868
816.526	2960
816.666	2918
816.807	2777
816.948	2876
817.089	2899
817.23	2872
817.371	2796
817.512	2792
817.653	2800
817.793	2815
817.934	2902
818.075	2967
818.216	3005
818.356	3009
818.497	2864
818.638	2819
818.778	2792
818.919	2800
819.06	2777
819.2	2910
819.341	2804
819.481	2807
819.622	2914
819.762	3089
819.903	3017
820.043	2887
820.184	2872
820.324	2876
820.465	3013
820.605	2990
820.746	2986
820.886	2899
821.026	3127
821.167	3154
821.307	3226
821.447	3245
821.588	3226
821.728	3192
821.868	3214
822.008	3070
822.149	3180
822.289	3211
822.429	3097
822.569	3066
822.709	3157
822.849	3020
822.99	3066
823.13	3150
823.27	3176
823.41	3085
823.55	3195
823.69	3135
823.83	3169
823.97	3051
824.11	3017
824.25	2994
824.389	3081
824.529	3104
824.669	3039
824.809	3195
824.949	3241
825.089	3222
825.228	3211
825.368	2990
825.508	2971
825.648	2986
825.787	3001
825.927	3001
826.067	2994
826.206	2971
826.346	3047
826.485	3070
826.625	3146
826.765	3253
826.904	3218
827.044	3005
827.183	2937
827.323	2887
827.462	2986
827.601	2922
827.741	2994
827.88	2982
828.02	2902
828.159	3036
828.298	3066
828.437	3138
828.577	3051
828.716	3275
828.855	3123
828.994	2956
829.134	2922
829.273	2948
829.412	2891
829.551	2883
829.69	2922
829.829	3036
829.968	3150
830.107	3036
830.246	3020
830.385	2956
830.524	2925
830.663	2861
830.802	2746
830.941	2674
831.08	2678
831.219	2826
831.357	2792
831.496	2998
831.635	2766
831.774	2697
831.913	2678
832.051	2594
832.19	2625
832.329	2697
832.467	2598
832.606	2545
832.744	2644
832.883	2598
833.022	2606
833.16	2708
833.299	2743
833.437	2701
833.576	2739
833.714	2766
833.852	2781
833.991	2819
834.129	2872
834.267	2883
834.406	2842
834.544	2933
834.682	2948
834.821	2910
834.959	3089
835.097	2918
835.235	3070
835.373	3047
835.511	3039
835.65	3009
835.788	3001
835.926	2861
836.064	2845
836.202	2868
836.34	3108
836.478	3180
836.615	3074
836.753	3180
836.891	3253
837.029	3207
837.167	3131
837.305	3066
837.443	3047
837.58	3020
837.718	3138
837.856	3062
837.993	3074
838.131	3116
838.269	3127
838.406	3119
838.544	3127
838.681	3024
838.819	2967
838.956	2864
839.094	2853
839.231	2956
839.369	3039
839.506	3454
839.643	3214
839.781	3077
839.918	2956
840.055	3081
840.193	3074
840.33	3097
840.467	3135
840.604	3169
840.742	3428
840.879	3081
841.016	3097
841.153	3116
841.29	3370
841.427	3332
841.564	3306
841.701	3336
841.838	3222
841.975	3233
842.112	3245
842.249	3116
842.385	3085
842.522	3294
842.659	3112
842.796	3085
842.933	3104
843.069	3089
843.206	3051
843.343	3222
843.479	3131
843.616	3173
843.752	2925
843.889	2899
844.025	3116
844.162	2895
844.298	3104
844.435	3009
844.571	2948
844.708	3108
844.844	3230
844.98	3325
845.117	3241
845.253	3070
845.389	3013
845.525	3123
845.661	3081
845.798	3036
845.934	3161
846.07	3104
846.206	3264
846.342	3363
846.478	3264
846.614	3108
846.75	3093
846.886	3070
847.022	3279
847.158	3165
847.294	3264
847.429	3256
847.565	3249
847.701	3500
847.837	3100
847.972	3062
848.108	3180
848.244	3150
848.379	3009
848.515	2956
848.65	2937
848.786	2975
848.921	3058
849.057	3112
849.192	3157
849.328	3161
849.463	3131
849.598	3081
849.734	3070
849.869	3017
850.004	2925
850.14	2971
850.275	2952
850.41	2834
850.545	2933
850.68	2952
850.815	2975
850.95	2994
851.085	3226
851.22	3135
851.355	3077
851.49	3005
851.625	3036
851.76	3074
851.895	2952
852.03	2925
852.165	3077
852.299	3154
852.434	3195
852.569	3184
852.703	3176
852.838	3264
852.973	3386
853.107	3363
853.242	3180
853.376	3051
853.511	3020
853.645	3104
853.78	3226
853.914	3154
854.048	3157
854.183	3146
854.317	3180
854.451	3306
854.585	3157
854.72	3108
854.854	3195
854.988	3047
855.122	3116
855.256	3013
855.39	3131
855.524	3256
855.658	3192
855.792	3184
855.926	3211
856.06	3275
856.194	3272
856.327	3123
856.461	3116
856.595	3089
856.729	3108
856.862	3260
856.996	3180
857.13	3237
857.263	3241
857.397	3306
857.53	3146
857.664	3218
857.797	3302
857.931	3241
858.064	3211
858.197	3218
858.331	3142
858.464	3093
858.597	3028
858.731	3161
858.864	3157
858.997	3093
859.13	3218
859.263	3207
859.396	3226
859.529	3077
859.662	3089
859.795	3081
859.928	3184
860.061	3336
860.194	3272
860.327	3127
860.46	3169
860.592	3260
860.725	3283
860.858	3279
860.99	3119
861.123	3058
861.256	3089
861.388	3184
861.521	3838
861.653	3047
861.786	3017
861.918	3100
862.05	3047
862.183	3142
862.315	3188
862.447	3226
862.58	3146
862.712	2971
862.844	2887
862.976	2971
863.108	3028
863.24	3332
863.372	2883
863.504	3024
863.636	2948
863.768	3062
863.9	2998
864.032	2910
864.164	3001
864.296	3055
864.428	3097
864.559	3127
864.691	3097
864.823	3077
864.954	3036
865.086	3043
865.217	2994
865.349	2963
865.48	3036
865.612	3001
865.743	3165
865.875	2982
866.006	2948
866.137	3013
866.269	2967
866.4	2971
866.531	2952
866.662	2929
866.793	2944
866.924	2933
867.055	2998
867.186	2956
867.317	2902
867.448	2838
867.579	2872
867.71	2883
867.841	2834
867.972	2929
868.103	2960
868.233	2895
868.364	2910
868.495	2899
868.625	3108
868.756	3192
868.886	2998
869.017	3062
869.147	3214
869.278	3169
869.408	3032
869.539	3070
869.669	3135
869.799	3074
869.929	3146
870.06	3089
870.19	3325
870.32	3313
870.45	3313
870.58	3405
870.71	3450
870.84	3485
870.97	3329
871.1	3241
871.23	3458
871.36	3488
871.489	3317
871.619	3416
871.749	3458
871.879	3416
872.008	3492
872.138	3340
872.267	3298
872.397	3131
872.526	3138
872.656	3097
872.785	3146
872.915	3253
873.044	3325
873.173	3245
873.303	3256
873.432	3264
873.561	3260
873.69	3195
873.819	3173
873.948	3218
874.077	3131
874.206	3077
874.335	3108
874.464	3291
874.593	3378
874.722	3264
874.851	3370
874.979	3344
875.108	3340
875.237	3203
875.365	3138
875.494	3192
875.623	3249
875.751	3116
875.88	3100
876.008	3222
876.136	3256
876.265	3382
876.393	3481
876.521	3454
876.65	3401
876.778	3382
876.906	3272
877.034	3241
877.162	3264
877.29	3237
877.418	3283
877.546	3264
877.674	3245
877.802	3268
877.93	3253
878.058	3150
878.185	3157
878.313	3253
878.441	3230
878.568	3051
878.696	3195
878.824	3264
878.951	3275
879.079	3450
879.206	3641
879.333	3469
879.461	3325
879.588	3363
879.715	3496
879.842	3622
879.97	3428
880.097	3195
880.224	3127
880.351	3195
880.478	3237
880.605	3222
880.732	3188
880.859	3511
880.986	3329
881.112	3325
881.239	3203
881.366	3070
881.493	3070
881.619	3036
881.746	3058
881.872	3104
881.999	3157
882.125	3142
882.252	3260
882.378	3310
882.505	3424
882.631	3272
882.757	3188
882.883	3222
883.01	3260
883.136	3154
883.262	3108
883.388	3112
883.514	3332
883.64	3386
883.766	3287
883.892	3192
884.018	3272
884.143	3405
884.269	3504
884.395	3264
884.52	3161
884.646	3233
884.772	3165
884.897	3093
885.023	3184
885.148	3310
885.274	3416
885.399	3435
885.524	3291
885.65	3268
885.775	3306
885.9	3294
886.025	3443
886.15	3393
886.275	3302
886.4	3218
886.525	3306
886.65	3264
886.775	3298
886.9	3515
887.025	3622
887.149	3435
887.274	3260
887.399	3230
887.523	3249
887.648	3192
887.773	3222
887.897	3412
888.021	3405
888.146	3313
888.27	3477
888.395	3507
888.519	3466
888.643	3454
888.767	3485
888.891	3317
889.015	3241
889.139	3283
889.263	3260
889.387	3424
889.511	3542
889.635	3443
889.759	3287
889.883	3355
890.006	3378
890.13	3496
890.254	3294
890.377	3329
890.501	3237
890.624	3188
890.748	3344
890.871	3211
890.995	3142
891.118	3089
891.241	3226
891.364	3241
891.488	3340
891.611	3195
891.734	3237
891.857	3294
891.98	3207
892.103	3332
892.226	3302
892.349	3222
892.471	3138
892.594	3195
892.717	3279
892.839	3256
892.962	3329
893.085	3367
893.207	3272
893.33	3176
893.452	3203
893.575	3363
893.697	3241
893.819	3443
893.941	3515
894.064	3454
894.186	3279
894.308	3325
894.43	3477
894.552	3530
894.674	3526
894.796	3272
894.918	3329
895.04	3287
895.161	3431
895.283	3409
895.405	3321
895.526	3363
895.648	3428
895.769	3443
895.891	3485
896.012	3443
896.134	3507
896.255	3435
896.376	3351
896.498	3370
896.619	3431
896.74	3374
896.861	3401
896.982	3705
897.103	3876
897.224	3576
897.345	3523
897.466	3412
897.587	3469
897.708	3625
897.828	3557
897.949	3462
898.07	3340
898.19	3409
898.311	3587
898.431	3454
898.552	3538
898.672	3568
898.792	3576
898.913	3545
899.033	3435
899.153	3275
899.273	3226
899.393	3287
899.513	3317
899.633	3321
899.753	3374
899.873	3298
899.993	3351
900.113	3325
900.232	3405
900.352	3340
900.472	3291
900.591	3237
900.711	3287
900.83	3275
900.95	3450
901.069	3519
901.189	3374
901.308	3169
901.427	3119
901.546	3184
901.665	3291
901.784	3332
901.904	3226
902.023	3146
902.141	3017
902.26	2986
902.379	3127
902.498	3116
902.617	3089
902.735	3237
902.854	3249
902.973	3211
903.091	3077
903.21	3051
903.328	3192
903.446	3097
903.565	3150
903.683	3230
903.801	3135
903.919	3245
904.038	3336
904.156	3165
904.274	3310
904.392	3279
904.51	3291
904.627	3325
904.745	3428
904.863	3492
904.981	3268
905.098	3161
905.216	3230
905.334	3272
905.451	3313
905.569	3298
905.686	3405
905.803	3477
905.921	3268
906.038	3439
906.155	3329
906.272	3283
906.389	3359
906.506	3222
906.623	3256
906.74	3298
906.857	3192
906.974	3272
907.091	3431
907.208	3610
907.324	3496
907.441	3416
907.557	3249
907.674	3264
907.79	3199
907.907	3294
908.023	3416
908.139	3367
908.256	3348
908.372	3443
908.488	3363
908.604	3264
908.72	3249
908.836	3313
908.952	3253
909.068	3325
909.184	3469
909.3	3389
909.415	3485
909.531	3473
909.647	3268
909.762	3291
909.878	3268
909.993	3370
910.108	3393
910.224	3351
910.339	3405
910.454	3329
910.57	3287
910.685	3233
910.8	3568
910.915	3496
911.03	3424
911.145	3287
911.259	3256
911.374	3329
911.489	3226
911.604	3207
911.718	3108
911.833	3142
911.947	3043
912.062	2967
912.176	3218
912.291	3165
912.405	3203
912.519	3424
912.633	3431
912.748	3317
912.862	3272
912.976	3188
913.09	3043
913.204	3154
913.318	3211
913.431	3344
913.545	3332
913.659	3409
913.772	3329
913.886	3188
914	3214
914.113	3382
914.226	3439
914.34	3386
914.453	3241
914.566	3405
914.68	3302
914.793	3340
914.906	3157
915.019	3108
915.132	3074
915.245	3188
915.358	3192
915.47	3237
915.583	3260
915.696	3313
915.809	3389
915.921	3412
916.034	3294
916.146	3253
916.259	3222
916.371	3386
916.483	3367
916.595	3268
916.708	3302
916.82	3363
916.932	3351
917.044	3340
917.156	3351
917.268	3256
917.38	3329
917.491	3275
917.603	3409
917.715	3481
917.826	3458
917.938	3374
918.049	3268
918.161	3428
918.272	3572
918.384	3610
918.495	3488
918.606	3325
918.717	3332
918.828	3348
918.939	3420
919.05	3294
919.161	3363
919.272	3226
919.383	3291
919.494	3488
919.604	3682
919.715	3519
919.826	3393
919.936	3428
920.047	3595
920.157	3576
920.267	3759
920.378	3580
920.488	3561
920.598	3751
920.708	3964
920.818	3797
920.928	3800
921.038	4002
921.148	4002
921.258	3724
921.368	3644
921.477	3580
921.587	3530
921.697	3477
921.806	3576
921.916	3477
922.025	3348
922.134	3321
922.244	3302
922.353	3458
922.462	3275
922.571	3222
922.68	3108
922.789	3051
922.898	3157
923.007	3108
923.116	3138
923.224	3154
923.333	3218
923.442	3116
923.55	3062
923.659	3123
923.767	3173
923.876	3127
923.984	3218
924.092	3081
924.201	3233
924.309	3214
924.417	3237
924.525	3192
924.633	3245
924.741	4025
924.849	3051
924.956	3329
925.064	3093
925.172	3043
925.279	3127
925.387	3188
925.494	3211
925.602	3336
925.709	3329
925.816	3169
925.924	3302
926.031	3409
926.138	3313
926.245	3359
926.352	3283
926.459	3428
926.566	3466
926.673	3302
926.779	3218
926.886	3241
926.993	3184
927.099	3138
927.206	3127
927.312	3127
927.419	3241
927.525	3192
927.631	3226
927.737	3146
927.843	3146
927.95	3001
928.056	3131
928.162	3184
928.267	3264
928.373	3747
928.479	3329
928.585	3104
928.69	3176
928.796	3241
928.901	3188
929.007	3024
929.112	3218
929.218	3180
929.323	3119
929.428	3157
929.533	3302
929.638	3112
929.743	3165
929.848	3294
929.953	3211
930.058	3138
930.163	3017
930.267	3062
930.372	3195
930.477	3009
930.581	3329
930.685	3203
930.79	3074
930.894	3104
930.998	3081
931.103	3298
931.207	2982
931.311	2948
931.415	2906
931.519	2754
931.623	2834
