Data from test_V78500241_179.txt Node
Date: Fri Mar 25 16:16:26 CST 2022
User: usil
Spectrometer: V785-0024
Trigger mode: 0
Integration Time (sec): 4.000000E-1
Scans to average: 1
Nonlinearity correction enabled: false
Boxcar width: 0
Storing dark spectrum: false
XAxis mode: Wavelengths
Number of Pixels in Spectrum: 1024
>>>>>Begin Spectral Data<<<<<
801.071	2925
801.214	2963
801.356	2861
801.499	2899
801.641	2899
801.783	2864
801.926	3081
802.068	2971
802.211	3020
802.353	3028
802.496	2982
802.638	3024
802.78	3039
802.923	3089
803.065	2971
803.208	2902
803.35	2944
803.492	2963
803.635	2960
803.777	2800
803.919	2880
804.061	3241
804.204	2944
804.346	2925
804.488	2845
804.63	2967
804.773	2872
804.915	2925
805.057	3074
805.199	2941
805.341	2963
805.483	3066
805.626	2963
805.768	2994
805.91	3097
806.052	3112
806.194	3024
806.336	3226
806.478	3032
806.62	2941
806.762	2986
806.904	3039
807.046	3173
807.188	2994
807.33	2922
807.472	3032
807.614	2914
807.756	2986
807.898	2925
808.04	2906
808.182	2971
808.324	2994
808.465	2914
808.607	2914
808.749	2811
808.891	2853
809.033	2990
809.174	2994
809.316	2918
809.458	2914
809.6	2785
809.741	2785
809.883	2785
810.025	2864
810.166	2876
810.308	2883
810.45	2842
810.591	2804
810.733	2777
810.875	2804
811.016	2792
811.158	2769
811.299	2815
811.441	2963
811.582	2906
811.724	2826
811.865	2838
812.007	2918
812.148	2910
812.29	2880
812.431	2925
812.573	2963
812.714	2982
812.855	3077
812.997	3032
813.138	3131
813.279	2994
813.421	2952
813.562	2948
813.703	2899
813.845	2891
813.986	2769
814.127	2743
814.268	2834
814.41	2864
814.551	2823
814.692	2899
814.833	2800
814.974	2918
815.115	3009
815.256	2842
815.397	2826
815.539	2883
815.68	2781
815.821	2785
815.962	2975
816.103	2925
816.244	2918
816.385	2891
816.526	2979
816.666	2861
816.807	2739
816.948	2895
817.089	2872
817.23	2861
817.371	2785
817.512	2838
817.653	2857
817.793	2868
817.934	2891
818.075	2967
818.216	2990
818.356	3005
818.497	2883
818.638	2826
818.778	2766
818.919	2788
819.06	2766
819.2	2891
819.341	2815
819.481	2804
819.622	2918
819.762	3093
819.903	3043
820.043	2906
820.184	2914
820.324	2933
820.465	3017
820.605	3051
820.746	3032
820.886	2956
821.026	3127
821.167	3203
821.307	3256
821.447	3264
821.588	3203
821.728	3245
821.868	3154
822.008	3100
822.149	3169
822.289	3272
822.429	3093
822.569	3119
822.709	3203
822.849	3020
822.99	3047
823.13	3154
823.27	3218
823.41	3119
823.55	3169
823.69	3138
823.83	3222
823.97	3108
824.11	3024
824.25	3001
824.389	3108
824.529	3116
824.669	3066
824.809	3211
824.949	3264
825.089	3237
825.228	3161
825.368	3051
825.508	2910
825.648	3005
825.787	3001
825.927	3039
826.067	2963
826.206	2967
826.346	3039
826.485	3100
826.625	3138
826.765	3264
826.904	3195
827.044	3005
827.183	2929
827.323	2887
827.462	2982
827.601	2933
827.741	2918
827.88	2975
828.02	2853
828.159	2956
828.298	3036
828.437	3112
828.577	3017
828.716	3256
828.855	3104
828.994	2933
829.134	2914
829.273	2929
829.412	2899
829.551	2880
829.69	2891
829.829	2979
829.968	3146
830.107	3024
830.246	3001
830.385	2902
830.524	2910
830.663	2819
830.802	2743
830.941	2617
831.08	2636
831.219	2716
831.357	2758
831.496	2933
831.635	2689
831.774	2678
831.913	2682
832.051	2556
832.19	2587
832.329	2705
832.467	2545
832.606	2492
832.744	2613
832.883	2606
833.022	2594
833.16	2640
833.299	2670
833.437	2670
833.576	2693
833.714	2701
833.852	2762
833.991	2758
834.129	2899
834.267	2823
834.406	2811
834.544	2895
834.682	2876
834.821	2891
834.959	3058
835.097	2887
835.235	3062
835.373	3024
835.511	3001
835.65	2956
835.788	2941
835.926	2834
836.064	2785
836.202	2849
836.34	3104
836.478	3146
836.615	3062
836.753	3157
836.891	3222
837.029	3176
837.167	3123
837.305	3062
837.443	3005
837.58	2948
837.718	3138
837.856	3097
837.993	3020
838.131	3157
838.269	3116
838.406	3150
838.544	3119
838.681	2963
838.819	2906
838.956	2800
839.094	2883
839.231	2902
839.369	3058
839.506	3359
839.643	3260
839.781	3024
839.918	2925
840.055	3051
840.193	3058
840.33	3070
840.467	3097
840.604	3150
840.742	3367
840.879	3097
841.016	3089
841.153	3142
841.29	3363
841.427	3268
841.564	3287
841.701	3329
841.838	3230
841.975	3226
842.112	3214
842.249	3055
842.385	3036
842.522	3241
842.659	3119
842.796	3074
842.933	3116
843.069	3077
843.206	3055
843.343	3211
843.479	3081
843.616	3131
843.752	2914
843.889	2914
844.025	3074
844.162	2876
844.298	3104
844.435	2937
844.571	2925
844.708	3077
844.844	3211
844.98	3249
845.117	3184
845.253	3066
845.389	3039
845.525	3119
845.661	3131
845.798	3024
845.934	3176
846.07	3085
846.206	3241
846.342	3313
846.478	3241
846.614	3089
846.75	3051
846.886	3047
847.022	3237
847.158	3173
847.294	3214
847.429	3260
847.565	3241
847.701	3507
847.837	3055
847.972	3039
848.108	3169
848.244	3131
848.379	3009
848.515	2956
848.65	2937
848.786	2948
848.921	3013
849.057	3123
849.192	3154
849.328	3081
849.463	3077
849.598	3070
849.734	3028
849.869	2982
850.004	2906
850.14	2967
850.275	2929
850.41	2868
850.545	2872
850.68	2937
850.815	2971
850.95	2982
851.085	3165
851.22	3123
851.355	3070
851.49	3017
851.625	2998
851.76	3024
851.895	2902
852.03	2902
852.165	3039
852.299	3112
852.434	3188
852.569	3161
852.703	3154
852.838	3272
852.973	3332
853.107	3332
853.242	3135
853.376	3127
853.511	3005
853.645	3028
853.78	3226
853.914	3097
854.048	3119
854.183	3100
854.317	3165
854.451	3279
854.585	3138
854.72	3066
854.854	3222
854.988	3024
855.122	3104
855.256	3001
855.39	3131
855.524	3275
855.658	3161
855.792	3184
855.926	3264
856.06	3230
856.194	3291
856.327	3173
856.461	3070
856.595	3104
856.729	3104
856.862	3218
856.996	3184
857.13	3222
857.263	3241
857.397	3249
857.53	3150
857.664	3222
857.797	3260
857.931	3275
858.064	3150
858.197	3237
858.331	3112
858.464	3081
858.597	2994
858.731	3112
858.864	3154
858.997	3104
859.13	3165
859.263	3169
859.396	3203
859.529	3104
859.662	3051
859.795	3055
859.928	3135
860.061	3287
860.194	3325
860.327	3138
860.46	3123
860.592	3207
860.725	3211
860.858	3230
860.99	3131
861.123	3058
861.256	3085
861.388	3123
861.521	3740
861.653	3013
861.786	2982
861.918	2975
862.05	3058
862.183	3066
862.315	3165
862.447	3222
862.58	3127
862.712	2990
862.844	2883
862.976	3043
863.108	2990
863.24	3294
863.372	2895
863.504	2994
863.636	2952
863.768	3028
863.9	2990
864.032	2906
864.164	2941
864.296	3013
864.428	3081
864.559	3108
864.691	3055
864.823	3047
864.954	3028
865.086	3036
865.217	3001
865.349	2979
865.48	3001
865.612	3043
865.743	3146
865.875	3009
866.006	2937
866.137	2967
866.269	2922
866.4	2910
866.531	2918
866.662	2906
866.793	2876
866.924	2902
867.055	2941
867.186	2914
867.317	2895
867.448	2899
867.579	2891
867.71	2842
867.841	2826
867.972	2914
868.103	2891
868.233	2914
868.364	2933
868.495	2918
868.625	3062
868.756	3169
868.886	2971
869.017	3058
869.147	3161
869.278	3180
869.408	3085
869.539	3043
869.669	3146
869.799	3055
869.929	3104
870.06	3108
870.19	3310
870.32	3340
870.45	3351
870.58	3393
870.71	3500
870.84	3485
870.97	3291
871.1	3302
871.23	3515
871.36	3511
871.489	3409
871.619	3473
871.749	3386
871.879	3473
872.008	3523
872.138	3378
872.267	3325
872.397	3192
872.526	3169
872.656	3055
872.785	3180
872.915	3287
873.044	3370
873.173	3237
873.303	3306
873.432	3291
873.561	3310
873.69	3207
873.819	3207
873.948	3310
874.077	3135
874.206	3104
874.335	3157
874.464	3272
874.593	3409
874.722	3321
874.851	3447
874.979	3389
875.108	3363
875.237	3241
875.365	3218
875.494	3203
875.623	3317
875.751	3131
875.88	3173
876.008	3245
876.136	3291
876.265	3458
876.393	3542
876.521	3477
876.65	3454
876.778	3431
876.906	3298
877.034	3230
877.162	3249
877.29	3237
877.418	3321
877.546	3275
877.674	3325
877.802	3268
877.93	3287
878.058	3211
878.185	3161
878.313	3268
878.441	3268
878.568	3093
878.696	3211
878.824	3294
878.951	3351
879.079	3481
879.206	3671
879.333	3492
879.461	3393
879.588	3386
879.715	3576
879.842	3652
879.97	3409
880.097	3230
880.224	3169
880.351	3272
880.478	3298
880.605	3226
880.732	3260
880.859	3530
880.986	3374
881.112	3355
881.239	3226
881.366	3199
881.493	3081
881.619	3070
881.746	3146
881.872	3150
881.999	3173
882.125	3184
882.252	3279
882.378	3355
882.505	3481
882.631	3329
882.757	3203
882.883	3256
883.01	3272
883.136	3192
883.262	3127
883.388	3123
883.514	3389
883.64	3435
883.766	3348
883.892	3264
884.018	3245
884.143	3481
884.269	3591
884.395	3214
884.52	3214
884.646	3249
884.772	3169
884.897	3169
885.023	3245
885.148	3378
885.274	3447
885.399	3386
885.524	3310
885.65	3336
885.775	3325
885.9	3344
886.025	3454
886.15	3409
886.275	3363
886.4	3253
886.525	3317
886.65	3287
886.775	3294
886.9	3534
887.025	3648
887.149	3412
887.274	3306
887.399	3241
887.523	3245
887.648	3230
887.773	3245
887.897	3435
888.021	3443
888.146	3325
888.27	3469
888.395	3545
888.519	3424
888.643	3485
888.767	3462
888.891	3386
889.015	3268
889.139	3336
889.263	3302
889.387	3454
889.511	3549
889.635	3500
889.759	3287
889.883	3363
890.006	3389
890.13	3534
890.254	3287
890.377	3397
890.501	3245
890.624	3241
890.748	3367
890.871	3195
890.995	3135
891.118	3077
891.241	3226
891.364	3272
891.488	3405
891.611	3245
891.734	3287
891.857	3340
891.98	3245
892.103	3355
892.226	3325
892.349	3256
892.471	3157
892.594	3291
892.717	3332
892.839	3253
892.962	3313
893.085	3412
893.207	3321
893.33	3211
893.452	3268
893.575	3401
893.697	3298
893.819	3504
893.941	3568
894.064	3504
894.186	3325
894.308	3302
894.43	3435
894.552	3622
894.674	3538
894.796	3317
894.918	3363
895.04	3344
895.161	3485
895.283	3454
895.405	3382
895.526	3405
895.648	3488
895.769	3473
895.891	3473
896.012	3530
896.134	3492
896.255	3469
896.376	3420
896.498	3386
896.619	3428
896.74	3382
896.861	3424
896.982	3743
897.103	3865
897.224	3641
897.345	3572
897.466	3481
897.587	3538
897.708	3633
897.828	3587
897.949	3481
898.07	3386
898.19	3447
898.311	3629
898.431	3496
898.552	3561
898.672	3641
898.792	3629
898.913	3606
899.033	3523
899.153	3302
899.273	3260
899.393	3313
899.513	3336
899.633	3344
899.753	3363
899.873	3389
899.993	3412
900.113	3340
900.232	3443
900.352	3401
900.472	3332
900.591	3230
900.711	3367
900.83	3264
900.95	3469
901.069	3557
901.189	3363
901.308	3233
901.427	3184
901.546	3256
901.665	3310
901.784	3363
901.904	3249
902.023	3199
902.141	3066
902.26	3062
902.379	3154
902.498	3135
902.617	3127
902.735	3264
902.854	3283
902.973	3260
903.091	3051
903.21	3123
903.328	3199
903.446	3161
903.565	3154
903.683	3272
903.801	3173
903.919	3260
904.038	3332
904.156	3192
904.274	3317
904.392	3275
904.51	3367
904.627	3367
904.745	3473
904.863	3561
904.981	3302
905.098	3211
905.216	3272
905.334	3344
905.451	3348
905.569	3336
905.686	3443
905.803	3477
905.921	3325
906.038	3454
906.155	3370
906.272	3294
906.389	3401
906.506	3272
906.623	3298
906.74	3298
906.857	3184
906.974	3264
907.091	3500
907.208	3633
907.324	3545
907.441	3420
907.557	3264
907.674	3260
907.79	3283
907.907	3321
908.023	3428
908.139	3439
908.256	3416
908.372	3374
908.488	3378
908.604	3363
908.72	3249
908.836	3298
908.952	3302
909.068	3367
909.184	3507
909.3	3378
909.415	3557
909.531	3473
909.647	3382
909.762	3340
909.878	3287
909.993	3386
910.108	3363
910.224	3374
910.339	3435
910.454	3397
910.57	3340
910.685	3287
910.8	3656
910.915	3549
911.03	3428
911.145	3313
911.259	3302
911.374	3359
911.489	3260
911.604	3272
911.718	3188
911.833	3188
911.947	3085
912.062	2979
912.176	3218
912.291	3233
912.405	3226
912.519	3485
912.633	3488
912.748	3405
912.862	3325
912.976	3218
913.09	3089
913.204	3195
913.318	3253
913.431	3367
913.545	3367
913.659	3469
913.772	3374
913.886	3245
914	3241
914.113	3401
914.226	3435
914.34	3393
914.453	3272
914.566	3439
914.68	3313
914.793	3351
914.906	3169
915.019	3138
915.132	3135
915.245	3222
915.358	3256
915.47	3268
915.583	3279
915.696	3317
915.809	3424
915.921	3431
916.034	3294
916.146	3340
916.259	3256
916.371	3424
916.483	3447
916.595	3329
916.708	3359
916.82	3363
916.932	3367
917.044	3386
917.156	3367
917.268	3264
917.38	3336
917.491	3332
917.603	3389
917.715	3481
917.826	3507
917.938	3405
918.049	3287
918.161	3481
918.272	3618
918.384	3584
918.495	3553
918.606	3363
918.717	3287
918.828	3386
918.939	3447
919.05	3348
919.161	3393
919.272	3199
919.383	3363
919.494	3572
919.604	3751
919.715	3530
919.826	3466
919.936	3507
920.047	3610
920.157	3591
920.267	3846
920.378	3648
920.488	3614
920.598	3880
920.708	3987
920.818	3876
920.928	3884
921.038	4120
921.148	4029
921.258	3797
921.368	3709
921.477	3618
921.587	3549
921.697	3481
921.806	3648
921.916	3534
922.025	3374
922.134	3386
922.244	3321
922.353	3500
922.462	3268
922.571	3264
922.68	3150
922.789	3142
922.898	3165
923.007	3131
923.116	3222
923.224	3230
923.333	3214
923.442	3176
923.55	3104
923.659	3169
923.767	3253
923.876	3157
923.984	3256
924.092	3116
924.201	3241
924.309	3245
924.417	3321
924.525	3233
924.633	3264
924.741	4268
924.849	3108
924.956	3298
925.064	3119
925.172	3081
925.279	3135
925.387	3230
925.494	3226
925.602	3409
925.709	3351
925.816	3226
925.924	3306
926.031	3447
926.138	3321
926.245	3386
926.352	3287
926.459	3443
926.566	3515
926.673	3310
926.779	3272
926.886	3291
926.993	3176
927.099	3154
927.206	3135
927.312	3146
927.419	3245
927.525	3226
927.631	3287
927.737	3157
927.843	3154
927.95	3039
928.056	3169
928.162	3222
928.267	3260
928.373	3926
928.479	3374
928.585	3104
928.69	3237
928.796	3298
928.901	3237
929.007	3116
929.112	3218
929.218	3222
929.323	3173
929.428	3150
929.533	3344
929.638	3097
929.743	3233
929.848	3264
929.953	3214
930.058	3195
930.163	2982
930.267	3055
930.372	3237
930.477	3085
930.581	3363
930.685	3203
930.79	3070
930.894	3169
930.998	3131
931.103	3306
931.207	3005
931.311	2994
931.415	2960
931.519	2811
931.623	2815
