Data from test_V78500241_1664.txt Node
Date: Fri Mar 25 16:26:43 CST 2022
User: usil
Spectrometer: V785-0024
Trigger mode: 0
Integration Time (sec): 4.000000E-1
Scans to average: 1
Nonlinearity correction enabled: false
Boxcar width: 0
Storing dark spectrum: false
XAxis mode: Wavelengths
Number of Pixels in Spectrum: 1024
>>>>>Begin Spectral Data<<<<<
801.071	2952
801.214	2971
801.356	2883
801.499	2956
801.641	2918
801.783	2990
801.926	3089
802.068	3039
802.211	3005
802.353	3070
802.496	2990
802.638	3055
802.78	3047
802.923	3089
803.065	3051
803.208	2952
803.35	2956
803.492	2944
803.635	2979
803.777	2777
803.919	2918
804.061	3245
804.204	3001
804.346	2933
804.488	2876
804.63	2998
804.773	2933
804.915	2948
805.057	3123
805.199	2948
805.341	2979
805.483	3077
805.626	3028
805.768	3009
805.91	3097
806.052	3093
806.194	3051
806.336	3249
806.478	3055
806.62	2956
806.762	3009
806.904	3070
807.046	3192
807.188	3005
807.33	2948
807.472	3005
807.614	2918
807.756	3039
807.898	2956
808.04	2929
808.182	2990
808.324	2941
808.465	2918
808.607	2910
808.749	2823
808.891	2857
809.033	2994
809.174	2963
809.316	2876
809.458	2925
809.6	2773
809.741	2773
809.883	2800
810.025	2842
810.166	2899
810.308	2857
810.45	2868
810.591	2777
810.733	2781
810.875	2864
811.016	2811
811.158	2811
811.299	2811
811.441	2933
811.582	2906
811.724	2826
811.865	2853
812.007	2914
812.148	2868
812.29	2906
812.431	2895
812.573	2952
812.714	2994
812.855	3081
812.997	3062
813.138	3123
813.279	3017
813.421	2990
813.562	2982
813.703	2902
813.845	2914
813.986	2777
814.127	2746
814.268	2849
814.41	2853
814.551	2826
814.692	2853
814.833	2819
814.974	2902
815.115	2986
815.256	2864
815.397	2842
815.539	2895
815.68	2792
815.821	2857
815.962	2971
816.103	2960
816.244	2899
816.385	2887
816.526	2967
816.666	2948
816.807	2758
816.948	2887
817.089	2948
817.23	2880
817.371	2804
817.512	2819
817.653	2861
817.793	2902
817.934	2906
818.075	2960
818.216	3024
818.356	3017
818.497	2929
818.638	2819
818.778	2830
818.919	2823
819.06	2792
819.2	2895
819.341	2864
819.481	2838
819.622	2948
819.762	3085
819.903	3089
820.043	2963
820.184	2895
820.324	2937
820.465	3074
820.605	3039
820.746	3070
820.886	2933
821.026	3116
821.167	3192
821.307	3329
821.447	3321
821.588	3260
821.728	3249
821.868	3214
822.008	3112
822.149	3203
822.289	3272
822.429	3104
822.569	3104
822.709	3203
822.849	3047
822.99	3108
823.13	3169
823.27	3211
823.41	3135
823.55	3188
823.69	3165
823.83	3184
823.97	3146
824.11	3039
824.25	3009
824.389	3104
824.529	3138
824.669	3066
824.809	3214
824.949	3275
825.089	3214
825.228	3161
825.368	3039
825.508	2979
825.648	2963
825.787	3005
825.927	3058
826.067	2994
826.206	2944
826.346	3089
826.485	3093
826.625	3131
826.765	3272
826.904	3218
827.044	3017
827.183	2975
827.323	2868
827.462	2986
827.601	2952
827.741	2937
827.88	2979
828.02	2853
828.159	3009
828.298	3047
828.437	3100
828.577	3066
828.716	3233
828.855	3104
828.994	2948
829.134	2918
829.273	2910
829.412	2883
829.551	2902
829.69	2918
829.829	2990
829.968	3154
830.107	3089
830.246	3043
830.385	2944
830.524	2880
830.663	2838
830.802	2773
830.941	2659
831.08	2636
831.219	2781
831.357	2777
831.496	2944
831.635	2739
831.774	2655
831.913	2678
832.051	2571
832.19	2564
832.329	2727
832.467	2549
832.606	2492
832.744	2602
832.883	2594
833.022	2610
833.16	2686
833.299	2705
833.437	2689
833.576	2724
833.714	2754
833.852	2758
833.991	2769
834.129	2891
834.267	2868
834.406	2826
834.544	2883
834.682	2868
834.821	2918
834.959	3112
835.097	2918
835.235	3093
835.373	3020
835.511	2998
835.65	2956
835.788	2963
835.926	2906
836.064	2826
836.202	2876
836.34	3123
836.478	3119
836.615	3089
836.753	3127
836.891	3253
837.029	3169
837.167	3131
837.305	3081
837.443	3085
837.58	3001
837.718	3135
837.856	3077
837.993	3051
838.131	3150
838.269	3081
838.406	3081
838.544	3097
838.681	2956
838.819	2922
838.956	2861
839.094	2845
839.231	2948
839.369	3017
839.506	3405
839.643	3256
839.781	3013
839.918	2982
840.055	3055
840.193	3081
840.33	3100
840.467	3123
840.604	3131
840.742	3447
840.879	3077
841.016	3051
841.153	3142
841.29	3336
841.427	3340
841.564	3275
841.701	3310
841.838	3237
841.975	3188
842.112	3226
842.249	3081
842.385	3058
842.522	3260
842.659	3112
842.796	3043
842.933	3116
843.069	3047
843.206	3047
843.343	3203
843.479	3112
843.616	3176
843.752	2902
843.889	2868
844.025	3104
844.162	2899
844.298	3070
844.435	2948
844.571	2906
844.708	3108
844.844	3192
844.98	3249
845.117	3199
845.253	3047
845.389	3047
845.525	3081
845.661	3112
845.798	3009
845.934	3085
846.07	3074
846.206	3237
846.342	3321
846.478	3222
846.614	3089
846.75	3062
846.886	3032
847.022	3218
847.158	3146
847.294	3184
847.429	3260
847.565	3237
847.701	3507
847.837	3039
847.972	3017
848.108	3173
848.244	3142
848.379	3013
848.515	2944
848.65	2914
848.786	2967
848.921	3024
849.057	3119
849.192	3173
849.328	3055
849.463	3112
849.598	3085
849.734	3020
849.869	2975
850.004	2937
850.14	2982
850.275	2902
850.41	2849
850.545	2887
850.68	2937
850.815	2979
850.95	3009
851.085	3203
851.22	3135
851.355	3043
851.49	2979
851.625	3001
851.76	2982
851.895	2960
852.03	2941
852.165	3066
852.299	3104
852.434	3218
852.569	3169
852.703	3180
852.838	3211
852.973	3355
853.107	3363
853.242	3173
853.376	3077
853.511	2975
853.645	2990
853.78	3226
853.914	3100
854.048	3123
854.183	3093
854.317	3165
854.451	3310
854.585	3154
854.72	3089
854.854	3222
854.988	3036
855.122	3081
855.256	2979
855.39	3123
855.524	3226
855.658	3169
855.792	3142
855.926	3214
856.06	3241
856.194	3291
856.327	3138
856.461	3066
856.595	3077
856.729	3089
856.862	3188
856.996	3138
857.13	3195
857.263	3245
857.397	3287
857.53	3135
857.664	3188
857.797	3226
857.931	3222
858.064	3188
858.197	3199
858.331	3127
858.464	3146
858.597	3039
858.731	3135
858.864	3157
858.997	3058
859.13	3169
859.263	3135
859.396	3207
859.529	3100
859.662	3039
859.795	3051
859.928	3150
860.061	3245
860.194	3275
860.327	3100
860.46	3123
860.592	3233
860.725	3268
860.858	3268
860.99	3085
861.123	3070
861.256	3077
861.388	3173
861.521	3869
861.653	3020
861.786	2975
861.918	2990
862.05	3043
862.183	3108
862.315	3157
862.447	3195
862.58	3123
862.712	2971
862.844	2918
862.976	3043
863.108	3024
863.24	3420
863.372	2883
863.504	2963
863.636	2952
863.768	3043
863.9	2971
864.032	2929
864.164	2933
864.296	3013
864.428	3074
864.559	3119
864.691	3051
864.823	3043
864.954	3009
865.086	3058
865.217	3036
865.349	3001
865.48	2941
865.612	2979
865.743	3154
865.875	2979
866.006	2941
866.137	3009
866.269	2906
866.4	2960
866.531	2925
866.662	2887
866.793	2876
866.924	2887
867.055	2986
867.186	2944
867.317	2895
867.448	2857
867.579	2842
867.71	2849
867.841	2815
867.972	2925
868.103	2910
868.233	2864
868.364	2883
868.495	2906
868.625	3097
868.756	3188
868.886	3009
869.017	3013
869.147	3154
869.278	3207
869.408	3051
869.539	3036
869.669	3119
869.799	3070
869.929	3104
870.06	3097
870.19	3344
870.32	3291
870.45	3283
870.58	3382
870.71	3454
870.84	3450
870.97	3317
871.1	3233
871.23	3462
871.36	3466
871.489	3310
871.619	3367
871.749	3443
871.879	3420
872.008	3515
872.138	3336
872.267	3275
872.397	3138
872.526	3112
872.656	3009
872.785	3077
872.915	3218
873.044	3275
873.173	3184
873.303	3249
873.432	3253
873.561	3230
873.69	3119
873.819	3146
873.948	3207
874.077	3116
874.206	3081
874.335	3085
874.464	3230
874.593	3348
874.722	3214
874.851	3412
874.979	3294
875.108	3325
875.237	3214
875.365	3142
875.494	3176
875.623	3249
875.751	3089
875.88	3142
876.008	3176
876.136	3169
876.265	3393
876.393	3515
876.521	3401
876.65	3401
876.778	3397
876.906	3268
877.034	3176
877.162	3218
877.29	3199
877.418	3272
877.546	3241
877.674	3214
877.802	3226
877.93	3195
878.058	3146
878.185	3108
878.313	3203
878.441	3264
878.568	3085
878.696	3135
878.824	3253
878.951	3272
879.079	3458
879.206	3606
879.333	3450
879.461	3321
879.588	3340
879.715	3481
879.842	3542
879.97	3382
880.097	3154
880.224	3119
880.351	3195
880.478	3199
880.605	3207
880.732	3180
880.859	3496
880.986	3313
881.112	3313
881.239	3203
881.366	3104
881.493	3024
881.619	3017
881.746	3089
881.872	3100
881.999	3093
882.125	3157
882.252	3287
882.378	3321
882.505	3443
882.631	3275
882.757	3188
882.883	3230
883.01	3249
883.136	3108
883.262	3089
883.388	3123
883.514	3325
883.64	3310
883.766	3344
883.892	3169
884.018	3233
884.143	3401
884.269	3542
884.395	3203
884.52	3138
884.646	3180
884.772	3123
884.897	3116
885.023	3192
885.148	3344
885.274	3405
885.399	3389
885.524	3298
885.65	3233
885.775	3321
885.9	3325
886.025	3412
886.15	3336
886.275	3264
886.4	3199
886.525	3329
886.65	3264
886.775	3272
886.9	3466
887.025	3625
887.149	3420
887.274	3260
887.399	3157
887.523	3211
887.648	3188
887.773	3161
887.897	3367
888.021	3424
888.146	3291
888.27	3428
888.395	3496
888.519	3420
888.643	3443
888.767	3443
888.891	3344
889.015	3233
889.139	3325
889.263	3226
889.387	3405
889.511	3511
889.635	3420
889.759	3268
889.883	3294
890.006	3367
890.13	3500
890.254	3279
890.377	3336
890.501	3176
890.624	3203
890.748	3325
890.871	3131
890.995	3112
891.118	3043
891.241	3188
891.364	3230
891.488	3340
891.611	3184
891.734	3222
891.857	3256
891.98	3245
892.103	3321
892.226	3268
892.349	3157
892.471	3157
892.594	3253
892.717	3283
892.839	3272
892.962	3302
893.085	3382
893.207	3291
893.33	3169
893.452	3195
893.575	3348
893.697	3260
893.819	3458
893.941	3523
894.064	3454
894.186	3310
894.308	3272
894.43	3435
894.552	3431
894.674	3488
894.796	3313
894.918	3321
895.04	3241
895.161	3431
895.283	3382
895.405	3321
895.526	3370
895.648	3409
895.769	3447
895.891	3420
896.012	3462
896.134	3492
896.255	3439
896.376	3397
896.498	3370
896.619	3416
896.74	3325
896.861	3405
896.982	3698
897.103	3842
897.224	3603
897.345	3511
897.466	3462
897.587	3473
897.708	3652
897.828	3530
897.949	3477
898.07	3336
898.19	3412
898.311	3534
898.431	3424
898.552	3526
898.672	3564
898.792	3568
898.913	3523
899.033	3378
899.153	3272
899.273	3256
899.393	3306
899.513	3302
899.633	3310
899.753	3340
899.873	3268
899.993	3378
900.113	3310
900.232	3386
900.352	3351
900.472	3302
900.591	3211
900.711	3306
900.83	3226
900.95	3443
901.069	3523
901.189	3374
901.308	3199
901.427	3138
901.546	3157
901.665	3287
901.784	3348
901.904	3184
902.023	3176
902.141	2979
902.26	2956
902.379	3142
902.498	3074
902.617	3047
902.735	3192
902.854	3211
902.973	3199
903.091	3081
903.21	3039
903.328	3131
903.446	3077
903.565	3093
903.683	3180
903.801	3135
903.919	3253
904.038	3249
904.156	3173
904.274	3260
904.392	3237
904.51	3313
904.627	3302
904.745	3450
904.863	3477
904.981	3226
905.098	3211
905.216	3256
905.334	3287
905.451	3325
905.569	3287
905.686	3412
905.803	3382
905.921	3256
906.038	3397
906.155	3344
906.272	3291
906.389	3325
906.506	3199
906.623	3222
906.74	3260
906.857	3203
906.974	3233
907.091	3412
907.208	3568
907.324	3447
907.441	3363
907.557	3256
907.674	3264
907.79	3188
907.907	3268
908.023	3409
908.139	3370
908.256	3317
908.372	3397
908.488	3359
908.604	3249
908.72	3218
908.836	3275
908.952	3260
909.068	3317
909.184	3500
909.3	3370
909.415	3447
909.531	3466
909.647	3294
909.762	3298
909.878	3237
909.993	3370
910.108	3275
910.224	3344
910.339	3389
910.454	3310
910.57	3272
910.685	3256
910.8	3549
910.915	3507
911.03	3393
911.145	3260
911.259	3241
911.374	3291
911.489	3245
911.604	3203
911.718	3108
911.833	3154
911.947	3017
912.062	2967
912.176	3180
912.291	3150
912.405	3184
912.519	3405
912.633	3447
912.748	3313
912.862	3249
912.976	3154
913.09	3055
913.204	3108
913.318	3226
913.431	3302
913.545	3336
913.659	3397
913.772	3291
913.886	3214
914	3188
914.113	3332
914.226	3420
914.34	3370
914.453	3199
914.566	3397
914.68	3249
914.793	3310
914.906	3138
915.019	3161
915.132	3032
915.245	3154
915.358	3165
915.47	3211
915.583	3241
915.696	3279
915.809	3370
915.921	3389
916.034	3226
916.146	3256
916.259	3218
916.371	3378
916.483	3370
916.595	3294
916.708	3283
916.82	3313
916.932	3351
917.044	3321
917.156	3348
917.268	3249
917.38	3264
917.491	3260
917.603	3370
917.715	3439
917.826	3481
917.938	3389
918.049	3291
918.161	3450
918.272	3599
918.384	3568
918.495	3466
918.606	3336
918.717	3268
918.828	3393
918.939	3412
919.05	3298
919.161	3351
919.272	3192
919.383	3275
919.494	3485
919.604	3717
919.715	3481
919.826	3397
919.936	3435
920.047	3580
920.157	3526
920.267	3759
920.378	3587
920.488	3587
920.598	3743
920.708	3915
920.818	3816
920.928	3846
921.038	4013
921.148	3994
921.258	3671
921.368	3614
921.477	3564
921.587	3515
921.697	3454
921.806	3591
921.916	3538
922.025	3370
922.134	3344
922.244	3329
922.353	3466
922.462	3279
922.571	3211
922.68	3066
922.789	3074
922.898	3157
923.007	3097
923.116	3211
923.224	3161
923.333	3180
923.442	3085
923.55	3100
923.659	3104
923.767	3233
923.876	3127
923.984	3207
924.092	3123
924.201	3169
924.309	3188
924.417	3237
924.525	3161
924.633	3237
924.741	4185
924.849	3055
924.956	3275
925.064	3066
925.172	3020
925.279	3100
925.387	3165
925.494	3199
925.602	3329
925.709	3332
925.816	3214
925.924	3275
926.031	3321
926.138	3294
926.245	3332
926.352	3264
926.459	3435
926.566	3462
926.673	3310
926.779	3233
926.886	3233
926.993	3135
927.099	3119
927.206	3089
927.312	3104
927.419	3237
927.525	3211
927.631	3253
927.737	3131
927.843	3112
927.95	3028
928.056	3119
928.162	3169
928.267	3226
928.373	3755
928.479	3336
928.585	3051
928.69	3233
928.796	3249
928.901	3150
929.007	3024
929.112	3222
929.218	3165
929.323	3142
929.428	3150
929.533	3275
929.638	3112
929.743	3146
929.848	3264
929.953	3211
930.058	3135
930.163	2994
930.267	3024
930.372	3195
930.477	3055
930.581	3310
930.685	3203
930.79	3051
930.894	3104
930.998	3070
931.103	3283
931.207	2937
931.311	2918
931.415	2883
931.519	2720
931.623	2811
