Data from test_V78500241_1007.txt Node
Date: Fri Mar 25 16:22:10 CST 2022
User: usil
Spectrometer: V785-0024
Trigger mode: 0
Integration Time (sec): 4.000000E-1
Scans to average: 1
Nonlinearity correction enabled: false
Boxcar width: 0
Storing dark spectrum: false
XAxis mode: Wavelengths
Number of Pixels in Spectrum: 1024
>>>>>Begin Spectral Data<<<<<
801.071	2914
801.214	2906
801.356	2838
801.499	2880
801.641	2891
801.783	2887
801.926	3043
802.068	2967
802.211	3013
802.353	3039
802.496	3001
802.638	3017
802.78	3020
802.923	3097
803.065	2979
803.208	2906
803.35	2914
803.492	2914
803.635	2918
803.777	2762
803.919	2834
804.061	3207
804.204	2956
804.346	2883
804.488	2819
804.63	2982
804.773	2895
804.915	2906
805.057	3047
805.199	2944
805.341	2933
805.483	3051
805.626	2990
805.768	2967
805.91	3062
806.052	3142
806.194	3036
806.336	3169
806.478	2990
806.62	2922
806.762	2975
806.904	3036
807.046	3176
807.188	2990
807.33	2887
807.472	3001
807.614	2895
807.756	2948
807.898	2906
808.04	2895
808.182	2990
808.324	2956
808.465	2891
808.607	2826
808.749	2804
808.891	2842
809.033	2967
809.174	2971
809.316	2895
809.458	2899
809.6	2762
809.741	2804
809.883	2746
810.025	2880
810.166	2857
810.308	2834
810.45	2868
810.591	2750
810.733	2758
810.875	2807
811.016	2766
811.158	2769
811.299	2800
811.441	2944
811.582	2887
811.724	2788
811.865	2823
812.007	2902
812.148	2891
812.29	2811
812.431	2910
812.573	2918
812.714	2998
812.855	3017
812.997	3062
813.138	3081
813.279	2975
813.421	2956
813.562	2925
813.703	2883
813.845	2883
813.986	2773
814.127	2754
814.268	2823
814.41	2857
814.551	2773
814.692	2876
814.833	2804
814.974	2891
815.115	2986
815.256	2880
815.397	2823
815.539	2887
815.68	2773
815.821	2792
815.962	2922
816.103	2929
816.244	2883
816.385	2826
816.526	2948
816.666	2914
816.807	2731
816.948	2876
817.089	2918
817.23	2872
817.371	2785
817.512	2792
817.653	2838
817.793	2804
817.934	2891
818.075	2963
818.216	2979
818.356	2990
818.497	2861
818.638	2796
818.778	2842
818.919	2819
819.06	2716
819.2	2899
819.341	2830
819.481	2796
819.622	2906
819.762	3123
819.903	3024
820.043	2906
820.184	2902
820.324	2891
820.465	2998
820.605	3005
820.746	2986
820.886	2944
821.026	3074
821.167	3146
821.307	3245
821.447	3272
821.588	3268
821.728	3188
821.868	3161
822.008	3066
822.149	3161
822.289	3207
822.429	3058
822.569	3055
822.709	3176
822.849	3001
822.99	3051
823.13	3142
823.27	3188
823.41	3051
823.55	3131
823.69	3161
823.83	3192
823.97	3085
824.11	3028
824.25	2990
824.389	3070
824.529	3116
824.669	3074
824.809	3180
824.949	3272
825.089	3192
825.228	3169
825.368	3028
825.508	2922
825.648	2960
825.787	3017
825.927	3009
826.067	2963
826.206	2952
826.346	3036
826.485	3066
826.625	3100
826.765	3260
826.904	3165
827.044	2975
827.183	2906
827.323	2849
827.462	2944
827.601	2937
827.741	2925
827.88	2986
828.02	2864
828.159	2952
828.298	3009
828.437	3085
828.577	3036
828.716	3218
828.855	3097
828.994	2925
829.134	2914
829.273	2902
829.412	2891
829.551	2838
829.69	2868
829.829	2986
829.968	3108
830.107	3043
830.246	3066
830.385	2883
830.524	2880
830.663	2804
830.802	2743
830.941	2648
831.08	2636
831.219	2777
831.357	2773
831.496	2887
831.635	2716
831.774	2682
831.913	2651
832.051	2537
832.19	2575
832.329	2636
832.467	2514
832.606	2495
832.744	2571
832.883	2571
833.022	2617
833.16	2610
833.299	2659
833.437	2667
833.576	2670
833.714	2693
833.852	2724
833.991	2773
834.129	2845
834.267	2823
834.406	2811
834.544	2857
834.682	2883
834.821	2861
834.959	3047
835.097	2899
835.235	3100
835.373	2960
835.511	3028
835.65	2971
835.788	2933
835.926	2811
836.064	2800
836.202	2853
836.34	3100
836.478	3138
836.615	3020
836.753	3150
836.891	3161
837.029	3142
837.167	3127
837.305	3077
837.443	3036
837.58	2941
837.718	3100
837.856	3062
837.993	3013
838.131	3112
838.269	3093
838.406	3077
838.544	3085
838.681	2933
838.819	2933
838.956	2807
839.094	2842
839.231	2918
839.369	2986
839.506	3389
839.643	3184
839.781	3017
839.918	2952
840.055	3032
840.193	3070
840.33	3062
840.467	3119
840.604	3161
840.742	3382
840.879	3066
841.016	3032
841.153	3119
841.29	3321
841.427	3310
841.564	3245
841.701	3313
841.838	3203
841.975	3146
842.112	3207
842.249	3085
842.385	3013
842.522	3275
842.659	3100
842.796	3028
842.933	3070
843.069	3047
843.206	3032
843.343	3131
843.479	3077
843.616	3119
843.752	2899
843.889	2880
844.025	3074
844.162	2891
844.298	3043
844.435	2914
844.571	2906
844.708	3062
844.844	3226
844.98	3207
845.117	3142
845.253	3047
845.389	2998
845.525	3093
845.661	3077
845.798	3017
845.934	3142
846.07	3028
846.206	3214
846.342	3329
846.478	3226
846.614	3058
846.75	3051
846.886	3032
847.022	3241
847.158	3093
847.294	3176
847.429	3222
847.565	3207
847.701	3526
847.837	3032
847.972	3005
848.108	3119
848.244	3176
848.379	2986
848.515	2925
848.65	2941
848.786	2944
848.921	3017
849.057	3116
849.192	3119
849.328	3047
849.463	3077
849.598	3051
849.734	3058
849.869	2982
850.004	2925
850.14	2937
850.275	2887
850.41	2834
850.545	2887
850.68	2922
850.815	2941
850.95	2956
851.085	3214
851.22	3119
851.355	3055
851.49	2956
851.625	2998
851.76	3009
851.895	2918
852.03	2887
852.165	3020
852.299	3089
852.434	3161
852.569	3100
852.703	3188
852.838	3268
852.973	3351
853.107	3313
853.242	3138
853.376	3062
853.511	2990
853.645	3013
853.78	3218
853.914	3100
854.048	3062
854.183	3051
854.317	3119
854.451	3268
854.585	3142
854.72	3089
854.854	3237
854.988	3032
855.122	3058
855.256	2929
855.39	3108
855.524	3199
855.658	3165
855.792	3154
855.926	3188
856.06	3237
856.194	3260
856.327	3146
856.461	3043
856.595	3100
856.729	3077
856.862	3207
856.996	3203
857.13	3211
857.263	3233
857.397	3268
857.53	3108
857.664	3192
857.797	3249
857.931	3275
858.064	3131
858.197	3199
858.331	3108
858.464	3119
858.597	3009
858.731	3108
858.864	3127
858.997	3066
859.13	3138
859.263	3199
859.396	3180
859.529	3108
859.662	3077
859.795	3047
859.928	3123
860.061	3283
860.194	3283
860.327	3093
860.46	3089
860.592	3287
860.725	3226
860.858	3260
860.99	3074
861.123	3032
861.256	3043
861.388	3154
861.521	3808
861.653	3043
861.786	2975
861.918	2994
862.05	3062
862.183	3085
862.315	3142
862.447	3199
862.58	3097
862.712	2956
862.844	2880
862.976	3001
863.108	3017
863.24	3401
863.372	2891
863.504	2941
863.636	2933
863.768	3028
863.9	2948
864.032	2914
864.164	2922
864.296	2982
864.428	3108
864.559	3074
864.691	3055
864.823	3070
864.954	3036
865.086	3047
865.217	2998
865.349	2952
865.48	2979
865.612	2982
865.743	3116
865.875	2994
866.006	2937
866.137	2975
866.269	2960
866.4	2941
866.531	2925
866.662	2902
866.793	2887
866.924	2891
867.055	2971
867.186	2925
867.317	2861
867.448	2815
867.579	2864
867.71	2823
867.841	2804
867.972	2914
868.103	2899
868.233	2887
868.364	2842
868.495	2910
868.625	3093
868.756	3146
868.886	2982
869.017	2975
869.147	3150
869.278	3112
869.408	3024
869.539	3017
869.669	3074
869.799	3047
869.929	3138
870.06	3123
870.19	3302
870.32	3272
870.45	3310
870.58	3359
870.71	3424
870.84	3439
870.97	3260
871.1	3253
871.23	3485
871.36	3431
871.489	3336
871.619	3401
871.749	3416
871.879	3443
872.008	3481
872.138	3355
872.267	3245
872.397	3157
872.526	3097
872.656	2994
872.785	3123
872.915	3233
873.044	3294
873.173	3199
873.303	3237
873.432	3207
873.561	3272
873.69	3157
873.819	3146
873.948	3165
874.077	3085
874.206	3013
874.335	3066
874.464	3192
874.593	3359
874.722	3233
874.851	3416
874.979	3336
875.108	3325
875.237	3184
875.365	3150
875.494	3157
875.623	3241
875.751	3089
875.88	3127
876.008	3199
876.136	3218
876.265	3363
876.393	3488
876.521	3424
876.65	3389
876.778	3336
876.906	3218
877.034	3184
877.162	3214
877.29	3192
877.418	3249
877.546	3241
877.674	3241
877.802	3218
877.93	3256
878.058	3150
878.185	3108
878.313	3180
878.441	3226
878.568	3097
878.696	3150
878.824	3268
878.951	3287
879.079	3466
879.206	3622
879.333	3420
879.461	3310
879.588	3344
879.715	3492
879.842	3606
879.97	3386
880.097	3188
880.224	3131
880.351	3165
880.478	3203
880.605	3165
880.732	3157
880.859	3488
880.986	3302
881.112	3329
881.239	3176
881.366	3104
881.493	3001
881.619	3017
881.746	3058
881.872	3116
881.999	3077
882.125	3135
882.252	3260
882.378	3256
882.505	3439
882.631	3268
882.757	3146
882.883	3233
883.01	3192
883.136	3112
883.262	3085
883.388	3142
883.514	3313
883.64	3355
883.766	3306
883.892	3195
884.018	3195
884.143	3454
884.269	3545
884.395	3188
884.52	3146
884.646	3176
884.772	3104
884.897	3104
885.023	3214
885.148	3317
885.274	3435
885.399	3355
885.524	3253
885.65	3226
885.775	3298
885.9	3279
886.025	3420
886.15	3329
886.275	3245
886.4	3188
886.525	3268
886.65	3291
886.775	3237
886.9	3504
887.025	3610
887.149	3439
887.274	3230
887.399	3165
887.523	3199
887.648	3176
887.773	3165
887.897	3336
888.021	3367
888.146	3279
888.27	3386
888.395	3500
888.519	3397
888.643	3409
888.767	3481
888.891	3291
889.015	3245
889.139	3249
889.263	3279
889.387	3386
889.511	3523
889.635	3431
889.759	3260
889.883	3283
890.006	3348
890.13	3466
890.254	3294
890.377	3321
890.501	3188
890.624	3142
890.748	3264
890.871	3192
890.995	3089
891.118	3055
891.241	3165
891.364	3203
891.488	3336
891.611	3176
891.734	3230
891.857	3245
891.98	3237
892.103	3329
892.226	3279
892.349	3218
892.471	3127
892.594	3211
892.717	3279
892.839	3253
892.962	3317
893.085	3336
893.207	3306
893.33	3119
893.452	3176
893.575	3291
893.697	3264
893.819	3485
893.941	3481
894.064	3412
894.186	3264
894.308	3275
894.43	3412
894.552	3530
894.674	3405
894.796	3256
894.918	3275
895.04	3302
895.161	3378
895.283	3382
895.405	3340
895.526	3340
895.648	3420
895.769	3393
895.891	3450
896.012	3473
896.134	3447
896.255	3409
896.376	3405
896.498	3389
896.619	3416
896.74	3348
896.861	3435
896.982	3671
897.103	3838
897.224	3557
897.345	3511
897.466	3420
897.587	3485
897.708	3625
897.828	3534
897.949	3428
898.07	3329
898.19	3431
898.311	3618
898.431	3439
898.552	3534
898.672	3572
898.792	3564
898.913	3488
899.033	3409
899.153	3298
899.273	3195
899.393	3287
899.513	3275
899.633	3317
899.753	3351
899.873	3298
899.993	3386
900.113	3351
900.232	3389
900.352	3313
900.472	3283
900.591	3169
900.711	3268
900.83	3218
900.95	3382
901.069	3462
901.189	3317
901.308	3195
901.427	3108
901.546	3180
901.665	3279
901.784	3332
901.904	3188
902.023	3157
902.141	2990
902.26	2975
902.379	3135
902.498	3081
902.617	3047
902.735	3161
902.854	3237
902.973	3169
903.091	2994
903.21	3062
903.328	3123
903.446	3085
903.565	3074
903.683	3180
903.801	3127
903.919	3233
904.038	3298
904.156	3108
904.274	3294
904.392	3256
904.51	3283
904.627	3298
904.745	3416
904.863	3488
904.981	3268
905.098	3123
905.216	3233
905.334	3306
905.451	3249
905.569	3272
905.686	3393
905.803	3363
905.921	3249
906.038	3431
906.155	3291
906.272	3237
906.389	3317
906.506	3253
906.623	3207
906.74	3245
906.857	3176
906.974	3245
907.091	3431
907.208	3584
907.324	3458
907.441	3355
907.557	3169
907.674	3233
907.79	3157
907.907	3256
908.023	3344
908.139	3370
908.256	3332
908.372	3378
908.488	3355
908.604	3260
908.72	3207
908.836	3272
908.952	3260
909.068	3332
909.184	3511
909.3	3389
909.415	3462
909.531	3450
909.647	3256
909.762	3325
909.878	3233
909.993	3313
910.108	3332
910.224	3329
910.339	3367
910.454	3325
910.57	3272
910.685	3260
910.8	3614
910.915	3545
911.03	3405
911.145	3256
911.259	3298
911.374	3340
911.489	3245
911.604	3222
911.718	3138
911.833	3142
911.947	3013
912.062	2975
912.176	3169
912.291	3176
912.405	3253
912.519	3450
912.633	3447
912.748	3313
912.862	3260
912.976	3211
913.09	3108
913.204	3192
913.318	3279
913.431	3344
913.545	3348
913.659	3416
913.772	3428
913.886	3233
914	3222
914.113	3374
914.226	3409
914.34	3389
914.453	3249
914.566	3405
914.68	3325
914.793	3329
914.906	3157
915.019	3154
915.132	3070
915.245	3203
915.358	3237
915.47	3249
915.583	3283
915.696	3298
915.809	3439
915.921	3416
916.034	3298
916.146	3283
916.259	3241
916.371	3428
916.483	3454
916.595	3291
916.708	3378
916.82	3370
916.932	3363
917.044	3374
917.156	3412
917.268	3291
917.38	3313
917.491	3332
917.603	3431
917.715	3466
917.826	3496
917.938	3431
918.049	3340
918.161	3473
918.272	3584
918.384	3599
918.495	3542
918.606	3397
918.717	3348
918.828	3447
918.939	3466
919.05	3336
919.161	3405
919.272	3192
919.383	3294
919.494	3538
919.604	3732
919.715	3519
919.826	3428
919.936	3526
920.047	3625
920.157	3557
920.267	3800
920.378	3686
920.488	3610
920.598	3838
920.708	3987
920.818	3846
920.928	3876
921.038	4082
921.148	3987
921.258	3762
921.368	3637
921.477	3599
921.587	3576
921.697	3477
921.806	3694
921.916	3561
922.025	3416
922.134	3386
922.244	3374
922.353	3458
922.462	3287
922.571	3230
922.68	3146
922.789	3119
922.898	3203
923.007	3081
923.116	3260
923.224	3176
923.333	3241
923.442	3195
923.55	3146
923.659	3169
923.767	3294
923.876	3142
923.984	3275
924.092	3127
924.201	3222
924.309	3256
924.417	3283
924.525	3188
924.633	3260
924.741	4196
924.849	3081
924.956	3313
925.064	3154
925.172	3039
925.279	3138
925.387	3260
925.494	3226
925.602	3409
925.709	3393
925.816	3199
925.924	3329
926.031	3386
926.138	3382
926.245	3378
926.352	3260
926.459	3469
926.566	3515
926.673	3370
926.779	3249
926.886	3268
926.993	3165
927.099	3169
927.206	3127
927.312	3188
927.419	3264
927.525	3253
927.631	3310
927.737	3195
927.843	3127
927.95	3039
928.056	3135
928.162	3203
928.267	3279
928.373	3884
928.479	3313
928.585	3085
928.69	3237
928.796	3294
928.901	3135
929.007	3058
929.112	3260
929.218	3230
929.323	3184
929.428	3199
929.533	3298
929.638	3154
929.743	3180
929.848	3275
929.953	3226
930.058	3192
930.163	3024
930.267	3074
930.372	3264
930.477	3043
930.581	3348
930.685	3214
930.79	3100
930.894	3142
930.998	3142
931.103	3302
931.207	3013
931.311	2963
931.415	2929
931.519	2819
931.623	2857
