Data from test_V78500241_452.txt Node
Date: Fri Mar 25 16:18:20 CST 2022
User: usil
Spectrometer: V785-0024
Trigger mode: 0
Integration Time (sec): 4.000000E-1
Scans to average: 1
Nonlinearity correction enabled: false
Boxcar width: 0
Storing dark spectrum: false
XAxis mode: Wavelengths
Number of Pixels in Spectrum: 1024
>>>>>Begin Spectral Data<<<<<
801.071	2963
801.214	2918
801.356	2876
801.499	2834
801.641	2864
801.783	2929
801.926	3081
802.068	2948
802.211	3017
802.353	3043
802.496	2925
802.638	3043
802.78	3017
802.923	3077
803.065	3039
803.208	2918
803.35	2937
803.492	2933
803.635	2944
803.777	2788
803.919	2861
804.061	3233
804.204	2956
804.346	2914
804.488	2842
804.63	2975
804.773	2880
804.915	2925
805.057	3047
805.199	2902
805.341	2960
805.483	3036
805.626	3036
805.768	2952
805.91	3097
806.052	3104
806.194	3055
806.336	3256
806.478	3028
806.62	2956
806.762	2994
806.904	3077
807.046	3157
807.188	3005
807.33	2895
807.472	3013
807.614	2883
807.756	2944
807.898	2914
808.04	2880
808.182	2952
808.324	2971
808.465	2880
808.607	2853
808.749	2834
808.891	2887
809.033	2944
809.174	3028
809.316	2933
809.458	2910
809.6	2777
809.741	2773
809.883	2788
810.025	2826
810.166	2849
810.308	2834
810.45	2845
810.591	2773
810.733	2766
810.875	2849
811.016	2758
811.158	2758
811.299	2849
811.441	2918
811.582	2914
811.724	2845
811.865	2853
812.007	2910
812.148	2910
812.29	2868
812.431	2868
812.573	2948
812.714	2990
812.855	3081
812.997	3070
813.138	3123
813.279	3058
813.421	2975
813.562	2982
813.703	2872
813.845	2914
813.986	2781
814.127	2727
814.268	2842
814.41	2864
814.551	2804
814.692	2899
814.833	2842
814.974	2899
815.115	2986
815.256	2807
815.397	2819
815.539	2838
815.68	2758
815.821	2815
815.962	2933
816.103	2982
816.244	2880
816.385	2872
816.526	3001
816.666	2941
816.807	2777
816.948	2925
817.089	2922
817.23	2861
817.371	2781
817.512	2823
817.653	2857
817.793	2807
817.934	2895
818.075	2971
818.216	2982
818.356	3047
818.497	2880
818.638	2804
818.778	2842
818.919	2815
819.06	2769
819.2	2838
819.341	2811
819.481	2777
819.622	2937
819.762	3116
819.903	3047
820.043	2941
820.184	2922
820.324	2899
820.465	3036
820.605	3001
820.746	3009
820.886	2975
821.026	3108
821.167	3138
821.307	3275
821.447	3260
821.588	3214
821.728	3203
821.868	3237
822.008	3131
822.149	3180
822.289	3222
822.429	3093
822.569	3058
822.709	3222
822.849	3013
822.99	3062
823.13	3116
823.27	3199
823.41	3146
823.55	3173
823.69	3184
823.83	3218
823.97	3093
824.11	2979
824.25	3013
824.389	3081
824.529	3142
824.669	3077
824.809	3192
824.949	3260
825.089	3188
825.228	3150
825.368	3017
825.508	2982
825.648	2990
825.787	2986
825.927	3036
826.067	2941
826.206	3017
826.346	3043
826.485	3089
826.625	3131
826.765	3233
826.904	3222
827.044	2956
827.183	2937
827.323	2857
827.462	3005
827.601	2883
827.741	2956
827.88	2937
828.02	2899
828.159	2979
828.298	3013
828.437	3138
828.577	3070
828.716	3268
828.855	3093
828.994	2876
829.134	2914
829.273	2906
829.412	2853
829.551	2899
829.69	2864
829.829	2952
829.968	3146
830.107	3028
830.246	3024
830.385	2910
830.524	2861
830.663	2823
830.802	2758
830.941	2678
831.08	2644
831.219	2766
831.357	2781
831.496	2971
831.635	2712
831.774	2659
831.913	2651
832.051	2560
832.19	2571
832.329	2663
832.467	2526
832.606	2480
832.744	2594
832.883	2583
833.022	2594
833.16	2648
833.299	2686
833.437	2705
833.576	2689
833.714	2750
833.852	2739
833.991	2796
834.129	2792
834.267	2857
834.406	2800
834.544	2861
834.682	2868
834.821	2876
834.959	3089
835.097	2929
835.235	3043
835.373	2963
835.511	3017
835.65	2986
835.788	2929
835.926	2819
836.064	2811
836.202	2845
836.34	3112
836.478	3173
836.615	3074
836.753	3135
836.891	3226
837.029	3157
837.167	3089
837.305	3081
837.443	3070
837.58	2967
837.718	3093
837.856	3077
837.993	3024
838.131	3112
838.269	3123
838.406	3066
838.544	3108
838.681	2914
838.819	2906
838.956	2834
839.094	2804
839.231	2887
839.369	3005
839.506	3367
839.643	3211
839.781	3001
839.918	2971
840.055	3051
840.193	2994
840.33	3085
840.467	3085
840.604	3165
840.742	3439
840.879	3028
841.016	3039
841.153	3154
841.29	3321
841.427	3291
841.564	3256
841.701	3317
841.838	3211
841.975	3180
842.112	3195
842.249	3058
842.385	3051
842.522	3226
842.659	3085
842.796	3058
842.933	3112
843.069	3036
843.206	3070
843.343	3199
843.479	3100
843.616	3135
843.752	2899
843.889	2899
844.025	3074
844.162	2906
844.298	3051
844.435	2944
844.571	2906
844.708	3100
844.844	3157
844.98	3237
845.117	3173
845.253	3047
845.389	3013
845.525	3074
845.661	3089
845.798	3036
845.934	3074
846.07	3074
846.206	3226
846.342	3325
846.478	3230
846.614	3070
846.75	3028
846.886	3005
847.022	3233
847.158	3093
847.294	3195
847.429	3226
847.565	3230
847.701	3466
847.837	3028
847.972	2994
848.108	3161
848.244	3161
848.379	3028
848.515	2967
848.65	2933
848.786	2941
848.921	3009
849.057	3119
849.192	3131
849.328	3058
849.463	3093
849.598	3051
849.734	3036
849.869	2979
850.004	2914
850.14	2967
850.275	2941
850.41	2834
850.545	2906
850.68	2925
850.815	2948
850.95	2979
851.085	3161
851.22	3097
851.355	3051
851.49	2975
851.625	3001
851.76	2967
851.895	2933
852.03	2902
852.165	3009
852.299	3066
852.434	3211
852.569	3138
852.703	3165
852.838	3237
852.973	3325
853.107	3302
853.242	3173
853.376	3070
853.511	2952
853.645	3047
853.78	3241
853.914	3119
854.048	3089
854.183	3062
854.317	3127
854.451	3321
854.585	3116
854.72	3097
854.854	3211
854.988	3058
855.122	3043
855.256	2956
855.39	3127
855.524	3214
855.658	3203
855.792	3180
855.926	3154
856.06	3218
856.194	3260
856.327	3203
856.461	3085
856.595	3081
856.729	3085
856.862	3268
856.996	3184
857.13	3157
857.263	3203
857.397	3241
857.53	3135
857.664	3180
857.797	3214
857.931	3211
858.064	3161
858.197	3192
858.331	3123
858.464	3093
858.597	2963
858.731	3093
858.864	3131
858.997	3074
859.13	3138
859.263	3169
859.396	3203
859.529	3055
859.662	3077
859.795	3024
859.928	3157
860.061	3249
860.194	3275
860.327	3138
860.46	3100
860.592	3264
860.725	3241
860.858	3256
860.99	3112
861.123	3062
861.256	3028
861.388	3119
861.521	3934
861.653	3036
861.786	2960
861.918	2979
862.05	3043
862.183	3081
862.315	3184
862.447	3207
862.58	3070
862.712	2918
862.844	2872
862.976	3005
863.108	2979
863.24	3412
863.372	2895
863.504	2925
863.636	2952
863.768	3032
863.9	2975
864.032	2880
864.164	2982
864.296	3020
864.428	3077
864.559	3077
864.691	3104
864.823	3058
864.954	2990
865.086	3066
865.217	3017
865.349	2963
865.48	2971
865.612	3039
865.743	3112
865.875	2982
866.006	2933
866.137	2998
866.269	2990
866.4	2944
866.531	2944
866.662	2853
866.793	2883
866.924	2899
867.055	2948
867.186	2910
867.317	2864
867.448	2804
867.579	2845
867.71	2861
867.841	2777
867.972	2906
868.103	2887
868.233	2868
868.364	2899
868.495	2891
868.625	3081
868.756	3180
868.886	2944
869.017	2990
869.147	3203
869.278	3173
869.408	3055
869.539	3001
869.669	3123
869.799	3051
869.929	3127
870.06	3131
870.19	3336
870.32	3306
870.45	3294
870.58	3367
870.71	3374
870.84	3443
870.97	3287
871.1	3237
871.23	3439
871.36	3447
871.489	3321
871.619	3351
871.749	3389
871.879	3447
872.008	3466
872.138	3359
872.267	3264
872.397	3123
872.526	3093
872.656	3036
872.785	3123
872.915	3245
873.044	3298
873.173	3211
873.303	3199
873.432	3249
873.561	3211
873.69	3123
873.819	3138
873.948	3207
874.077	3085
874.206	3085
874.335	3077
874.464	3157
874.593	3329
874.722	3237
874.851	3386
874.979	3340
875.108	3340
875.237	3218
875.365	3169
875.494	3131
875.623	3253
875.751	3062
875.88	3127
876.008	3188
876.136	3245
876.265	3386
876.393	3481
876.521	3416
876.65	3355
876.778	3340
876.906	3241
877.034	3165
877.162	3199
877.29	3199
877.418	3249
877.546	3226
877.674	3245
877.802	3245
877.93	3233
878.058	3123
878.185	3100
878.313	3199
878.441	3199
878.568	3051
878.696	3100
878.824	3245
878.951	3306
879.079	3447
879.206	3580
879.333	3477
879.461	3298
879.588	3363
879.715	3477
879.842	3606
879.97	3378
880.097	3161
880.224	3089
880.351	3180
880.478	3211
880.605	3157
880.732	3203
880.859	3447
880.986	3291
881.112	3287
881.239	3214
881.366	3154
881.493	3058
881.619	3032
881.746	3058
881.872	3100
881.999	3116
882.125	3173
882.252	3264
882.378	3291
882.505	3386
882.631	3283
882.757	3135
882.883	3199
883.01	3233
883.136	3154
883.262	3085
883.388	3123
883.514	3302
883.64	3401
883.766	3298
883.892	3165
884.018	3264
884.143	3401
884.269	3526
884.395	3203
884.52	3127
884.646	3169
884.772	3138
884.897	3100
885.023	3214
885.148	3348
885.274	3397
885.399	3348
885.524	3268
885.65	3245
885.775	3287
885.9	3233
886.025	3443
886.15	3336
886.275	3329
886.4	3218
886.525	3298
886.65	3283
886.775	3279
886.9	3496
887.025	3644
887.149	3401
887.274	3237
887.399	3176
887.523	3211
887.648	3180
887.773	3165
887.897	3405
888.021	3416
888.146	3332
888.27	3431
888.395	3507
888.519	3435
888.643	3439
888.767	3447
888.891	3317
889.015	3268
889.139	3302
889.263	3275
889.387	3435
889.511	3488
889.635	3428
889.759	3306
889.883	3313
890.006	3348
890.13	3431
890.254	3256
890.377	3344
890.501	3211
890.624	3180
890.748	3275
890.871	3176
890.995	3074
891.118	3081
891.241	3192
891.364	3203
891.488	3310
891.611	3173
891.734	3233
891.857	3313
891.98	3245
892.103	3298
892.226	3272
892.349	3226
892.471	3123
892.594	3226
892.717	3298
892.839	3275
892.962	3310
893.085	3340
893.207	3275
893.33	3165
893.452	3218
893.575	3302
893.697	3230
893.819	3424
893.941	3473
894.064	3428
894.186	3230
894.308	3268
894.43	3447
894.552	3545
894.674	3466
894.796	3233
894.918	3279
895.04	3298
895.161	3439
895.283	3386
895.405	3310
895.526	3359
895.648	3409
895.769	3389
895.891	3481
896.012	3500
896.134	3466
896.255	3420
896.376	3382
896.498	3351
896.619	3405
896.74	3367
896.861	3378
896.982	3724
897.103	3842
897.224	3599
897.345	3549
897.466	3439
897.587	3473
897.708	3606
897.828	3519
897.949	3409
898.07	3310
898.19	3386
898.311	3576
898.431	3447
898.552	3523
898.672	3603
898.792	3553
898.913	3542
899.033	3386
899.153	3317
899.273	3233
899.393	3291
899.513	3306
899.633	3321
899.753	3306
899.873	3268
899.993	3416
900.113	3332
900.232	3393
900.352	3294
900.472	3283
900.591	3214
900.711	3279
900.83	3249
900.95	3389
901.069	3538
901.189	3298
901.308	3188
901.427	3135
901.546	3188
901.665	3310
901.784	3302
901.904	3173
902.023	3146
902.141	3036
902.26	2971
902.379	3104
902.498	3077
902.617	3047
902.735	3214
902.854	3222
902.973	3180
903.091	3039
903.21	3055
903.328	3173
903.446	3108
903.565	3135
903.683	3203
903.801	3100
903.919	3245
904.038	3245
904.156	3195
904.274	3272
904.392	3291
904.51	3256
904.627	3344
904.745	3420
904.863	3530
904.981	3230
905.098	3157
905.216	3169
905.334	3264
905.451	3291
905.569	3279
905.686	3424
905.803	3450
905.921	3260
906.038	3363
906.155	3336
906.272	3321
906.389	3332
906.506	3253
906.623	3260
906.74	3256
906.857	3195
906.974	3241
907.091	3397
907.208	3557
907.324	3454
907.441	3397
907.557	3249
907.674	3241
907.79	3237
907.907	3264
908.023	3340
908.139	3409
908.256	3336
908.372	3424
908.488	3359
908.604	3287
908.72	3218
908.836	3302
908.952	3287
909.068	3340
909.184	3477
909.3	3370
909.415	3504
909.531	3443
909.647	3306
909.762	3294
909.878	3272
909.993	3382
910.108	3306
910.224	3344
910.339	3409
910.454	3325
910.57	3275
910.685	3260
910.8	3652
910.915	3526
911.03	3401
911.145	3268
911.259	3283
911.374	3336
911.489	3233
911.604	3237
911.718	3081
911.833	3116
911.947	2986
912.062	2971
912.176	3203
912.291	3207
912.405	3157
912.519	3424
912.633	3431
912.748	3344
912.862	3272
912.976	3169
913.09	3051
913.204	3100
913.318	3226
913.431	3363
913.545	3321
913.659	3412
913.772	3348
913.886	3230
914	3199
914.113	3325
914.226	3412
914.34	3397
914.453	3192
914.566	3374
914.68	3275
914.793	3317
914.906	3138
915.019	3097
915.132	3043
915.245	3184
915.358	3195
915.47	3230
915.583	3283
915.696	3264
915.809	3416
915.921	3386
916.034	3272
916.146	3268
916.259	3230
916.371	3367
916.483	3359
916.595	3256
916.708	3325
916.82	3336
916.932	3325
917.044	3359
917.156	3329
917.268	3260
917.38	3241
917.491	3287
917.603	3409
917.715	3401
917.826	3435
917.938	3397
918.049	3298
918.161	3431
918.272	3591
918.384	3576
918.495	3492
918.606	3359
918.717	3325
918.828	3393
918.939	3397
919.05	3340
919.161	3382
919.272	3192
919.383	3310
919.494	3488
919.604	3686
919.715	3485
919.826	3412
919.936	3458
920.047	3606
920.157	3564
920.267	3759
920.378	3614
920.488	3538
920.598	3755
920.708	3949
920.818	3812
920.928	3831
921.038	4025
921.148	3956
921.258	3732
921.368	3641
921.477	3584
921.587	3492
921.697	3507
921.806	3614
921.916	3523
922.025	3344
922.134	3348
922.244	3351
922.353	3401
922.462	3275
922.571	3195
922.68	3119
922.789	3097
922.898	3112
923.007	3058
923.116	3195
923.224	3142
923.333	3157
923.442	3070
923.55	3077
923.659	3131
923.767	3222
923.876	3089
923.984	3230
924.092	3085
924.201	3161
924.309	3218
924.417	3272
924.525	3165
924.633	3272
924.741	4021
924.849	3058
924.956	3241
925.064	3112
925.172	3005
925.279	3142
925.387	3199
925.494	3169
925.602	3378
925.709	3313
925.816	3180
925.924	3283
926.031	3393
926.138	3348
926.245	3351
926.352	3279
926.459	3374
926.566	3507
926.673	3310
926.779	3287
926.886	3245
926.993	3123
927.099	3157
927.206	3093
927.312	3123
927.419	3218
927.525	3180
927.631	3264
927.737	3173
927.843	3097
927.95	3024
928.056	3085
928.162	3161
928.267	3237
928.373	3812
928.479	3306
928.585	3013
928.69	3249
928.796	3253
928.901	3169
929.007	3070
929.112	3214
929.218	3188
929.323	3135
929.428	3146
929.533	3310
929.638	3089
929.743	3146
929.848	3264
929.953	3188
930.058	3131
930.163	2975
930.267	3066
930.372	3195
930.477	3005
930.581	3302
930.685	3207
930.79	3043
930.894	3089
930.998	3108
931.103	3272
931.207	2952
931.311	2910
931.415	2933
931.519	2769
931.623	2819
