Data from test_V78500241_1991.txt Node
Date: Fri Mar 25 16:28:59 CST 2022
User: usil
Spectrometer: V785-0024
Trigger mode: 0
Integration Time (sec): 4.000000E-1
Scans to average: 1
Nonlinearity correction enabled: false
Boxcar width: 0
Storing dark spectrum: false
XAxis mode: Wavelengths
Number of Pixels in Spectrum: 1024
>>>>>Begin Spectral Data<<<<<
801.071	2937
801.214	2967
801.356	2891
801.499	2902
801.641	2929
801.783	2979
801.926	3062
802.068	2982
802.211	2998
802.353	3062
802.496	2956
802.638	2963
802.78	3020
802.923	3093
803.065	3032
803.208	2925
803.35	2933
803.492	2933
803.635	2952
803.777	2750
803.919	2868
804.061	3207
804.204	2918
804.346	2910
804.488	2834
804.63	2998
804.773	2887
804.915	2914
805.057	3085
805.199	2963
805.341	2933
805.483	3055
805.626	2979
805.768	2956
805.91	3116
806.052	3131
806.194	2990
806.336	3237
806.478	3009
806.62	2956
806.762	2971
806.904	3089
807.046	3195
807.188	2967
807.33	2937
807.472	2960
807.614	2868
807.756	3028
807.898	2925
808.04	2891
808.182	2986
808.324	2941
808.465	2910
808.607	2906
808.749	2804
808.891	2876
809.033	3005
809.174	2971
809.316	2899
809.458	2880
809.6	2739
809.741	2769
809.883	2735
810.025	2872
810.166	2838
810.308	2853
810.45	2876
810.591	2773
810.733	2781
810.875	2830
811.016	2750
811.158	2773
811.299	2804
811.441	2944
811.582	2887
811.724	2838
811.865	2807
812.007	2883
812.148	2868
812.29	2838
812.431	2891
812.573	2944
812.714	2979
812.855	3043
812.997	3051
813.138	3135
813.279	2975
813.421	2990
813.562	2941
813.703	2834
813.845	2899
813.986	2796
814.127	2735
814.268	2838
814.41	2842
814.551	2815
814.692	2906
814.833	2815
814.974	2868
815.115	2937
815.256	2811
815.397	2807
815.539	2887
815.68	2811
815.821	2792
815.962	2929
816.103	2910
816.244	2883
816.385	2849
816.526	2929
816.666	2929
816.807	2739
816.948	2838
817.089	2933
817.23	2872
817.371	2754
817.512	2781
817.653	2864
817.793	2800
817.934	2880
818.075	2982
818.216	2967
818.356	3028
818.497	2902
818.638	2781
818.778	2830
818.919	2781
819.06	2769
819.2	2845
819.341	2804
819.481	2788
819.622	2925
819.762	3108
819.903	3024
820.043	2895
820.184	2872
820.324	2918
820.465	2998
820.605	3017
820.746	3039
820.886	2963
821.026	3089
821.167	3157
821.307	3253
821.447	3294
821.588	3268
821.728	3214
821.868	3253
822.008	3104
822.149	3214
822.289	3233
822.429	3097
822.569	3131
822.709	3203
822.849	3024
822.99	3062
823.13	3192
823.27	3169
823.41	3142
823.55	3180
823.69	3184
823.83	3214
823.97	3127
824.11	3074
824.25	3039
824.389	3085
824.529	3135
824.669	3093
824.809	3253
824.949	3272
825.089	3211
825.228	3207
825.368	3058
825.508	2994
825.648	2986
825.787	3051
825.927	3039
826.067	2990
826.206	2998
826.346	3070
826.485	3150
826.625	3169
826.765	3325
826.904	3275
827.044	3043
827.183	2986
827.323	2887
827.462	3020
827.601	2918
827.741	2967
827.88	2998
828.02	2864
828.159	3017
828.298	3058
828.437	3127
828.577	3070
828.716	3302
828.855	3116
828.994	2952
829.134	2922
829.273	2918
829.412	2914
829.551	2944
829.69	2941
829.829	2998
829.968	3150
830.107	3043
830.246	3074
830.385	2986
830.524	2937
830.663	2891
830.802	2777
830.941	2708
831.08	2663
831.219	2792
831.357	2811
831.496	3017
831.635	2766
831.774	2682
831.913	2743
832.051	2632
832.19	2632
832.329	2705
832.467	2552
832.606	2511
832.744	2632
832.883	2613
833.022	2625
833.16	2678
833.299	2731
833.437	2727
833.576	2743
833.714	2762
833.852	2781
833.991	2804
834.129	2868
834.267	2902
834.406	2830
834.544	2891
834.682	2910
834.821	2883
834.959	3123
835.097	2925
835.235	3119
835.373	3005
835.511	3058
835.65	2971
835.788	2963
835.926	2880
836.064	2842
836.202	2899
836.34	3146
836.478	3195
836.615	3039
836.753	3188
836.891	3226
837.029	3188
837.167	3146
837.305	3104
837.443	3070
837.58	3043
837.718	3150
837.856	3093
837.993	3081
838.131	3097
838.269	3119
838.406	3138
838.544	3131
838.681	2975
838.819	2982
838.956	2853
839.094	2861
839.231	2971
839.369	3036
839.506	3416
839.643	3245
839.781	3043
839.918	3032
840.055	3081
840.193	3093
840.33	3123
840.467	3138
840.604	3184
840.742	3428
840.879	3081
841.016	3119
841.153	3146
841.29	3367
841.427	3321
841.564	3279
841.701	3325
841.838	3218
841.975	3207
842.112	3253
842.249	3108
842.385	3055
842.522	3279
842.659	3150
842.796	3070
842.933	3142
843.069	3077
843.206	3062
843.343	3165
843.479	3119
843.616	3142
843.752	2887
843.889	2929
844.025	3093
844.162	2914
844.298	3085
844.435	2994
844.571	2960
844.708	3085
844.844	3199
844.98	3264
845.117	3233
845.253	3085
845.389	3047
845.525	3131
845.661	3097
845.798	3032
845.934	3188
846.07	3089
846.206	3230
846.342	3310
846.478	3230
846.614	3089
846.75	3074
846.886	3055
847.022	3272
847.158	3161
847.294	3218
847.429	3291
847.565	3226
847.701	3477
847.837	3047
847.972	3066
848.108	3188
848.244	3150
848.379	3028
848.515	2960
848.65	2944
848.786	3005
848.921	3017
849.057	3135
849.192	3142
849.328	3081
849.463	3131
849.598	3097
849.734	3089
849.869	2967
850.004	2914
850.14	2975
850.275	2967
850.41	2853
850.545	2872
850.68	2918
850.815	3005
850.95	2941
851.085	3230
851.22	3085
851.355	3051
851.49	2975
851.625	3036
851.76	3024
851.895	2956
852.03	2971
852.165	3074
852.299	3169
852.434	3207
852.569	3188
852.703	3165
852.838	3253
852.973	3363
853.107	3363
853.242	3195
853.376	3138
853.511	2986
853.645	3047
853.78	3222
853.914	3157
854.048	3161
854.183	3104
854.317	3188
854.451	3291
854.585	3154
854.72	3154
854.854	3241
854.988	3085
855.122	3146
855.256	2990
855.39	3123
855.524	3249
855.658	3195
855.792	3161
855.926	3230
856.06	3268
856.194	3275
856.327	3142
856.461	3104
856.595	3138
856.729	3100
856.862	3237
856.996	3184
857.13	3226
857.263	3249
857.397	3329
857.53	3154
857.664	3214
857.797	3298
857.931	3272
858.064	3173
858.197	3211
858.331	3176
858.464	3119
858.597	3032
858.731	3157
858.864	3138
858.997	3146
859.13	3184
859.263	3214
859.396	3218
859.529	3127
859.662	3081
859.795	3062
859.928	3165
860.061	3325
860.194	3287
860.327	3180
860.46	3097
860.592	3249
860.725	3253
860.858	3241
860.99	3123
861.123	3093
861.256	3085
861.388	3165
861.521	3884
861.653	3036
861.786	3013
861.918	3028
862.05	3089
862.183	3112
862.315	3127
862.447	3222
862.58	3142
862.712	2956
862.844	2937
862.976	3062
863.108	3032
863.24	3481
863.372	2895
863.504	2971
863.636	2998
863.768	3020
863.9	2979
864.032	2941
864.164	2975
864.296	3020
864.428	3097
864.559	3123
864.691	3112
864.823	3070
864.954	3047
865.086	3039
865.217	3036
865.349	2944
865.48	2990
865.612	3017
865.743	3169
865.875	3001
866.006	2982
866.137	2986
866.269	2998
866.4	2948
866.531	2922
866.662	2971
866.793	2914
866.924	2914
867.055	3020
867.186	2967
867.317	2902
867.448	2823
867.579	2895
867.71	2857
867.841	2838
867.972	2925
868.103	2941
868.233	2902
868.364	2883
868.495	2910
868.625	3070
868.756	3214
868.886	2990
869.017	3055
869.147	3199
869.278	3211
869.408	3070
869.539	3028
869.669	3150
869.799	3028
869.929	3173
870.06	3154
870.19	3340
870.32	3275
870.45	3317
870.58	3386
870.71	3439
870.84	3401
870.97	3287
871.1	3272
871.23	3511
871.36	3469
871.489	3351
871.619	3431
871.749	3420
871.879	3447
872.008	3515
872.138	3355
872.267	3313
872.397	3165
872.526	3070
872.656	3058
872.785	3093
872.915	3260
873.044	3351
873.173	3207
873.303	3253
873.432	3226
873.561	3226
873.69	3119
873.819	3138
873.948	3226
874.077	3108
874.206	3055
874.335	3142
874.464	3230
874.593	3412
874.722	3260
874.851	3409
874.979	3321
875.108	3329
875.237	3218
875.365	3192
875.494	3165
875.623	3283
875.751	3142
875.88	3138
876.008	3207
876.136	3237
876.265	3428
876.393	3507
876.521	3416
876.65	3416
876.778	3351
876.906	3279
877.034	3207
877.162	3199
877.29	3222
877.418	3241
877.546	3218
877.674	3241
877.802	3264
877.93	3241
878.058	3199
878.185	3116
878.313	3199
878.441	3211
878.568	3085
878.696	3173
878.824	3275
878.951	3283
879.079	3477
879.206	3637
879.333	3473
879.461	3336
879.588	3348
879.715	3481
879.842	3606
879.97	3378
880.097	3207
880.224	3142
880.351	3222
880.478	3203
880.605	3207
880.732	3233
880.859	3526
880.986	3306
881.112	3340
881.239	3245
881.366	3165
881.493	3077
881.619	3036
881.746	3081
881.872	3081
881.999	3119
882.125	3180
882.252	3272
882.378	3329
882.505	3450
882.631	3283
882.757	3157
882.883	3195
883.01	3253
883.136	3157
883.262	3108
883.388	3154
883.514	3348
883.64	3374
883.766	3329
883.892	3211
884.018	3237
884.143	3431
884.269	3580
884.395	3192
884.52	3173
884.646	3230
884.772	3131
884.897	3093
885.023	3275
885.148	3351
885.274	3412
885.399	3401
885.524	3287
885.65	3279
885.775	3321
885.9	3287
886.025	3450
886.15	3367
886.275	3302
886.4	3245
886.525	3321
886.65	3302
886.775	3260
886.9	3534
887.025	3648
887.149	3412
887.274	3272
887.399	3192
887.523	3226
887.648	3184
887.773	3226
887.897	3382
888.021	3393
888.146	3260
888.27	3435
888.395	3523
888.519	3416
888.643	3450
888.767	3477
888.891	3317
889.015	3230
889.139	3313
889.263	3294
889.387	3450
889.511	3507
889.635	3473
889.759	3283
889.883	3272
890.006	3405
890.13	3538
890.254	3294
890.377	3386
890.501	3199
890.624	3150
890.748	3275
890.871	3176
890.995	3138
891.118	3055
891.241	3188
891.364	3237
891.488	3336
891.611	3192
891.734	3256
891.857	3310
891.98	3230
892.103	3336
892.226	3306
892.349	3184
892.471	3131
892.594	3264
892.717	3317
892.839	3294
892.962	3279
893.085	3351
893.207	3313
893.33	3142
893.452	3218
893.575	3355
893.697	3283
893.819	3458
893.941	3519
894.064	3450
894.186	3298
894.308	3275
894.43	3458
894.552	3534
894.674	3485
894.796	3283
894.918	3317
895.04	3264
895.161	3420
895.283	3405
895.405	3317
895.526	3363
895.648	3466
895.769	3412
895.891	3409
896.012	3507
896.134	3458
896.255	3393
896.376	3370
896.498	3389
896.619	3405
896.74	3359
896.861	3416
896.982	3698
897.103	3892
897.224	3580
897.345	3526
897.466	3462
897.587	3469
897.708	3656
897.828	3545
897.949	3428
898.07	3340
898.19	3424
898.311	3625
898.431	3454
898.552	3530
898.672	3603
898.792	3580
898.913	3538
899.033	3431
899.153	3272
899.273	3192
899.393	3291
899.513	3294
899.633	3298
899.753	3329
899.873	3336
899.993	3378
900.113	3367
900.232	3386
900.352	3363
900.472	3283
900.591	3203
900.711	3321
900.83	3256
900.95	3424
901.069	3511
901.189	3374
901.308	3195
901.427	3154
901.546	3226
901.665	3275
901.784	3348
901.904	3214
902.023	3154
902.141	3062
902.26	2994
902.379	3173
902.498	3036
902.617	3066
902.735	3222
902.854	3241
902.973	3237
903.091	3058
903.21	3036
903.328	3138
903.446	3081
903.565	3093
903.683	3199
903.801	3131
903.919	3230
904.038	3283
904.156	3188
904.274	3291
904.392	3264
904.51	3302
904.627	3351
904.745	3428
904.863	3462
904.981	3279
905.098	3165
905.216	3245
905.334	3287
905.451	3294
905.569	3321
905.686	3443
905.803	3405
905.921	3287
906.038	3435
906.155	3340
906.272	3256
906.389	3294
906.506	3260
906.623	3279
906.74	3264
906.857	3169
906.974	3249
907.091	3473
907.208	3564
907.324	3450
907.441	3363
907.557	3256
907.674	3249
907.79	3176
907.907	3268
908.023	3348
908.139	3386
908.256	3298
908.372	3367
908.488	3363
908.604	3226
908.72	3264
908.836	3294
908.952	3268
909.068	3348
909.184	3496
909.3	3412
909.415	3492
909.531	3454
909.647	3283
909.762	3336
909.878	3256
909.993	3363
910.108	3363
910.224	3325
910.339	3462
910.454	3382
910.57	3291
910.685	3226
910.8	3606
910.915	3523
911.03	3454
911.145	3264
911.259	3249
911.374	3298
911.489	3237
911.604	3279
911.718	3112
911.833	3154
911.947	3066
912.062	3005
912.176	3176
912.291	3230
912.405	3207
912.519	3443
912.633	3428
912.748	3336
912.862	3294
912.976	3173
913.09	3062
913.204	3104
913.318	3237
913.431	3332
913.545	3321
913.659	3393
913.772	3313
913.886	3241
914	3184
914.113	3378
914.226	3401
914.34	3389
914.453	3233
914.566	3401
914.68	3321
914.793	3317
914.906	3184
915.019	3100
915.132	3077
915.245	3180
915.358	3226
915.47	3241
915.583	3260
915.696	3264
915.809	3420
915.921	3424
916.034	3283
916.146	3294
916.259	3241
916.371	3397
916.483	3363
916.595	3249
916.708	3317
916.82	3332
916.932	3310
917.044	3306
917.156	3348
917.268	3268
917.38	3325
917.491	3275
917.603	3355
917.715	3447
917.826	3496
917.938	3393
918.049	3294
918.161	3424
918.272	3526
918.384	3542
918.495	3507
918.606	3348
918.717	3291
918.828	3393
918.939	3401
919.05	3298
919.161	3378
919.272	3192
919.383	3279
919.494	3511
919.604	3656
919.715	3492
919.826	3405
919.936	3416
920.047	3622
920.157	3534
920.267	3755
920.378	3618
920.488	3545
920.598	3759
920.708	3960
920.818	3816
920.928	3800
921.038	4006
921.148	3956
921.258	3717
921.368	3629
921.477	3564
921.587	3523
921.697	3458
921.806	3603
921.916	3526
922.025	3367
922.134	3363
922.244	3291
922.353	3450
922.462	3253
922.571	3203
922.68	3119
922.789	3013
922.898	3131
923.007	3116
923.116	3230
923.224	3154
923.333	3138
923.442	3093
923.55	3089
923.659	3123
923.767	3203
923.876	3119
923.984	3226
924.092	3100
924.201	3230
924.309	3199
924.417	3245
924.525	3180
924.633	3226
924.741	4188
924.849	3089
924.956	3241
925.064	3123
925.172	3070
925.279	3108
925.387	3173
925.494	3222
925.602	3389
925.709	3351
925.816	3157
925.924	3298
926.031	3351
926.138	3348
926.245	3332
926.352	3294
926.459	3367
926.566	3450
926.673	3344
926.779	3287
926.886	3207
926.993	3131
927.099	3150
927.206	3077
927.312	3055
927.419	3180
927.525	3161
927.631	3272
927.737	3176
927.843	3112
927.95	3013
928.056	3093
928.162	3169
928.267	3233
928.373	3846
928.479	3321
928.585	3058
928.69	3237
928.796	3241
928.901	3184
929.007	3070
929.112	3184
929.218	3169
929.323	3138
929.428	3142
929.533	3291
929.638	3104
929.743	3176
929.848	3241
929.953	3226
930.058	3169
930.163	2994
930.267	3070
930.372	3188
930.477	3039
930.581	3279
930.685	3169
930.79	2998
930.894	3104
930.998	3104
931.103	3291
931.207	2918
931.311	2971
931.415	2967
931.519	2796
931.623	2826
