Data from test_V78500241_1732.txt Node
Date: Fri Mar 25 16:27:12 CST 2022
User: usil
Spectrometer: V785-0024
Trigger mode: 0
Integration Time (sec): 4.000000E-1
Scans to average: 1
Nonlinearity correction enabled: false
Boxcar width: 0
Storing dark spectrum: false
XAxis mode: Wavelengths
Number of Pixels in Spectrum: 1024
>>>>>Begin Spectral Data<<<<<
801.071	2933
801.214	2902
801.356	2902
801.499	2895
801.641	2883
801.783	2963
801.926	3081
802.068	2948
802.211	2998
802.353	3005
802.496	2941
802.638	2998
802.78	3043
802.923	3097
803.065	3005
803.208	2887
803.35	2910
803.492	2910
803.635	2975
803.777	2739
803.919	2864
804.061	3142
804.204	2910
804.346	2887
804.488	2819
804.63	3001
804.773	2861
804.915	2933
805.057	3081
805.199	2937
805.341	2994
805.483	3047
805.626	2998
805.768	2956
805.91	3085
806.052	3123
806.194	3036
806.336	3241
806.478	3036
806.62	2948
806.762	2960
806.904	3055
807.046	3146
807.188	2960
807.33	2925
807.472	2952
807.614	2891
807.756	2967
807.898	2929
808.04	2883
808.182	2994
808.324	2944
808.465	2883
808.607	2883
808.749	2788
808.891	2883
809.033	3013
809.174	2925
809.316	2895
809.458	2872
809.6	2777
809.741	2785
809.883	2739
810.025	2823
810.166	2872
810.308	2807
810.45	2857
810.591	2777
810.733	2788
810.875	2815
811.016	2792
811.158	2731
811.299	2804
811.441	2937
811.582	2842
811.724	2834
811.865	2853
812.007	2906
812.148	2876
812.29	2868
812.431	2876
812.573	2910
812.714	2956
812.855	3036
812.997	2998
813.138	3097
813.279	3001
813.421	2990
813.562	2956
813.703	2857
813.845	2895
813.986	2735
814.127	2731
814.268	2834
814.41	2823
814.551	2823
814.692	2823
814.833	2823
814.974	2880
815.115	2979
815.256	2819
815.397	2834
815.539	2849
815.68	2769
815.821	2777
815.962	2914
816.103	2914
816.244	2864
816.385	2853
816.526	2971
816.666	2895
816.807	2724
816.948	2895
817.089	2899
817.23	2861
817.371	2773
817.512	2815
817.653	2807
817.793	2826
817.934	2868
818.075	2956
818.216	2982
818.356	3005
818.497	2899
818.638	2788
818.778	2838
818.919	2773
819.06	2746
819.2	2887
819.341	2815
819.481	2777
819.622	2963
819.762	3070
819.903	2982
820.043	2910
820.184	2914
820.324	2914
820.465	3017
820.605	3009
820.746	3013
820.886	2941
821.026	3043
821.167	3131
821.307	3233
821.447	3268
821.588	3222
821.728	3222
821.868	3214
822.008	3085
822.149	3207
822.289	3203
822.429	3077
822.569	3100
822.709	3173
822.849	2990
822.99	3024
823.13	3138
823.27	3211
823.41	3097
823.55	3142
823.69	3173
823.83	3176
823.97	3093
824.11	3028
824.25	2967
824.389	3089
824.529	3146
824.669	3070
824.809	3207
824.949	3245
825.089	3226
825.228	3150
825.368	2998
825.508	2990
825.648	2960
825.787	3017
825.927	3013
826.067	2963
826.206	2982
826.346	3036
826.485	3055
826.625	3112
826.765	3230
826.904	3233
827.044	2941
827.183	2948
827.323	2842
827.462	2982
827.601	2887
827.741	2918
827.88	2933
828.02	2815
828.159	2982
828.298	3047
828.437	3135
828.577	3051
828.716	3241
828.855	3055
828.994	2902
829.134	2849
829.273	2918
829.412	2887
829.551	2842
829.69	2872
829.829	2986
829.968	3119
830.107	3013
830.246	3066
830.385	2925
830.524	2853
830.663	2807
830.802	2758
830.941	2686
831.08	2651
831.219	2766
831.357	2727
831.496	2967
831.635	2693
831.774	2651
831.913	2644
832.051	2552
832.19	2575
832.329	2670
832.467	2545
832.606	2480
832.744	2564
832.883	2587
833.022	2560
833.16	2629
833.299	2663
833.437	2682
833.576	2682
833.714	2697
833.852	2720
833.991	2762
834.129	2861
834.267	2819
834.406	2766
834.544	2918
834.682	2842
834.821	2838
834.959	3036
835.097	2887
835.235	3051
835.373	2979
835.511	3032
835.65	2979
835.788	2994
835.926	2838
836.064	2788
836.202	2845
836.34	3112
836.478	3135
836.615	3020
836.753	3123
836.891	3180
837.029	3165
837.167	3116
837.305	3097
837.443	3051
837.58	2963
837.718	3138
837.856	3043
837.993	3024
838.131	3104
838.269	3097
838.406	3081
838.544	3032
838.681	2956
838.819	2910
838.956	2819
839.094	2861
839.231	2914
839.369	3039
839.506	3329
839.643	3188
839.781	3024
839.918	2963
840.055	3047
840.193	3047
840.33	3070
840.467	3108
840.604	3119
840.742	3393
840.879	3032
841.016	3039
841.153	3089
841.29	3332
841.427	3313
841.564	3230
841.701	3306
841.838	3188
841.975	3203
842.112	3211
842.249	3058
842.385	3028
842.522	3253
842.659	3089
842.796	3062
842.933	3116
843.069	3017
843.206	3051
843.343	3199
843.479	3089
843.616	3108
843.752	2925
843.889	2902
844.025	3062
844.162	2876
844.298	3066
844.435	2929
844.571	2891
844.708	3085
844.844	3161
844.98	3199
845.117	3188
845.253	3047
845.389	3020
845.525	3104
845.661	3097
845.798	2990
845.934	3127
846.07	3024
846.206	3192
846.342	3298
846.478	3226
846.614	3108
846.75	3032
846.886	3039
847.022	3253
847.158	3138
847.294	3214
847.429	3230
847.565	3214
847.701	3466
847.837	3028
847.972	3028
848.108	3180
848.244	3157
848.379	2990
848.515	2914
848.65	2944
848.786	2918
848.921	3024
849.057	3097
849.192	3146
849.328	3093
849.463	3062
849.598	3051
849.734	3020
849.869	2963
850.004	2902
850.14	2975
850.275	2868
850.41	2838
850.545	2883
850.68	2914
850.815	2910
850.95	2944
851.085	3188
851.22	3100
851.355	3070
851.49	2990
851.625	2986
851.76	2986
851.895	2914
852.03	2876
852.165	3020
852.299	3089
852.434	3173
852.569	3146
852.703	3192
852.838	3245
852.973	3313
853.107	3344
853.242	3157
853.376	3058
853.511	2971
853.645	2986
853.78	3195
853.914	3093
854.048	3116
854.183	3055
854.317	3154
854.451	3283
854.585	3146
854.72	3055
854.854	3180
854.988	3043
855.122	3093
855.256	2967
855.39	3100
855.524	3222
855.658	3211
855.792	3146
855.926	3131
856.06	3203
856.194	3264
856.327	3150
856.461	3058
856.595	3074
856.729	3066
856.862	3249
856.996	3138
857.13	3195
857.263	3180
857.397	3264
857.53	3089
857.664	3203
857.797	3218
857.931	3253
858.064	3165
858.197	3184
858.331	3150
858.464	3097
858.597	3051
858.731	3077
858.864	3108
858.997	3097
859.13	3150
859.263	3173
859.396	3169
859.529	3093
859.662	3077
859.795	3039
859.928	3104
860.061	3275
860.194	3272
860.327	3119
860.46	3085
860.592	3207
860.725	3226
860.858	3230
860.99	3154
861.123	3032
861.256	3066
861.388	3112
861.521	3960
861.653	3005
861.786	2994
861.918	2990
862.05	3055
862.183	3047
862.315	3135
862.447	3199
862.58	3051
862.712	2948
862.844	2876
862.976	3051
863.108	2998
863.24	3302
863.372	2861
863.504	2956
863.636	2979
863.768	3005
863.9	2990
864.032	2895
864.164	2929
864.296	2979
864.428	3100
864.559	3093
864.691	3058
864.823	3039
864.954	3005
865.086	3047
865.217	2960
865.349	2948
865.48	2971
865.612	3020
865.743	3135
865.875	3001
866.006	2933
866.137	2975
866.269	2952
866.4	2956
866.531	2925
866.662	2872
866.793	2895
866.924	2887
867.055	2941
867.186	2933
867.317	2857
867.448	2800
867.579	2830
867.71	2861
867.841	2823
867.972	2918
868.103	2910
868.233	2861
868.364	2887
868.495	2902
868.625	3077
868.756	3150
868.886	2956
869.017	2975
869.147	3165
869.278	3131
869.408	3047
869.539	2979
869.669	3081
869.799	3047
869.929	3142
870.06	3116
870.19	3279
870.32	3279
870.45	3302
870.58	3382
870.71	3450
870.84	3428
870.97	3306
871.1	3245
871.23	3469
871.36	3431
871.489	3378
871.619	3370
871.749	3367
871.879	3431
872.008	3511
872.138	3332
872.267	3264
872.397	3089
872.526	3131
872.656	3005
872.785	3089
872.915	3218
873.044	3272
873.173	3222
873.303	3241
873.432	3237
873.561	3226
873.69	3150
873.819	3112
873.948	3184
874.077	3077
874.206	3001
874.335	3085
874.464	3207
874.593	3363
874.722	3211
874.851	3378
874.979	3332
875.108	3332
875.237	3199
875.365	3176
875.494	3184
875.623	3256
875.751	3066
875.88	3104
876.008	3176
876.136	3272
876.265	3382
876.393	3488
876.521	3374
876.65	3416
876.778	3332
876.906	3237
877.034	3211
877.162	3226
877.29	3135
877.418	3272
877.546	3195
877.674	3241
877.802	3203
877.93	3241
878.058	3176
878.185	3112
878.313	3180
878.441	3218
878.568	3062
878.696	3146
878.824	3249
878.951	3306
879.079	3454
879.206	3595
879.333	3416
879.461	3332
879.588	3378
879.715	3488
879.842	3549
879.97	3378
880.097	3119
880.224	3119
880.351	3188
880.478	3180
880.605	3199
880.732	3176
880.859	3428
880.986	3291
881.112	3310
881.239	3184
881.366	3108
881.493	3005
881.619	2986
881.746	3089
881.872	3074
881.999	3062
882.125	3108
882.252	3241
882.378	3298
882.505	3428
882.631	3283
882.757	3142
882.883	3226
883.01	3218
883.136	3142
883.262	3093
883.388	3135
883.514	3272
883.64	3367
883.766	3279
883.892	3180
884.018	3226
884.143	3382
884.269	3542
884.395	3188
884.52	3169
884.646	3195
884.772	3138
884.897	3108
885.023	3218
885.148	3348
885.274	3401
885.399	3348
885.524	3287
885.65	3233
885.775	3279
885.9	3302
886.025	3431
886.15	3393
886.275	3294
886.4	3195
886.525	3237
886.65	3253
886.775	3313
886.9	3458
887.025	3610
887.149	3405
887.274	3214
887.399	3127
887.523	3169
887.648	3154
887.773	3195
887.897	3336
888.021	3389
888.146	3302
888.27	3428
888.395	3530
888.519	3386
888.643	3405
888.767	3466
888.891	3344
889.015	3207
889.139	3283
889.263	3253
889.387	3412
889.511	3519
889.635	3462
889.759	3233
889.883	3306
890.006	3367
890.13	3450
890.254	3272
890.377	3310
890.501	3180
890.624	3173
890.748	3268
890.871	3176
890.995	3089
891.118	3062
891.241	3211
891.364	3218
891.488	3302
891.611	3150
891.734	3222
891.857	3245
891.98	3218
892.103	3325
892.226	3291
892.349	3230
892.471	3108
892.594	3207
892.717	3310
892.839	3291
892.962	3294
893.085	3329
893.207	3302
893.33	3161
893.452	3180
893.575	3317
893.697	3207
893.819	3435
893.941	3488
894.064	3416
894.186	3249
894.308	3272
894.43	3428
894.552	3500
894.674	3420
894.796	3260
894.918	3272
895.04	3302
895.161	3397
895.283	3382
895.405	3268
895.526	3336
895.648	3420
895.769	3424
895.891	3405
896.012	3458
896.134	3450
896.255	3382
896.376	3336
896.498	3355
896.619	3435
896.74	3317
896.861	3386
896.982	3663
897.103	3819
897.224	3580
897.345	3477
897.466	3424
897.587	3515
897.708	3557
897.828	3534
897.949	3447
898.07	3348
898.19	3382
898.311	3576
898.431	3469
898.552	3488
898.672	3633
898.792	3580
898.913	3561
899.033	3409
899.153	3287
899.273	3241
899.393	3291
899.513	3329
899.633	3348
899.753	3355
899.873	3294
899.993	3382
900.113	3283
900.232	3412
900.352	3344
900.472	3298
900.591	3199
900.711	3332
900.83	3249
900.95	3393
901.069	3507
901.189	3355
901.308	3218
901.427	3169
901.546	3222
901.665	3355
901.784	3363
901.904	3253
902.023	3161
902.141	3058
902.26	3051
902.379	3173
902.498	3100
902.617	3081
902.735	3256
902.854	3256
902.973	3222
903.091	3055
903.21	3081
903.328	3161
903.446	3131
903.565	3123
903.683	3222
903.801	3199
903.919	3260
904.038	3348
904.156	3203
904.274	3310
904.392	3256
904.51	3348
904.627	3351
904.745	3485
904.863	3523
904.981	3283
905.098	3211
905.216	3275
905.334	3340
905.451	3359
905.569	3317
905.686	3466
905.803	3488
905.921	3329
906.038	3492
906.155	3367
906.272	3321
906.389	3370
906.506	3256
906.623	3302
906.74	3340
906.857	3218
906.974	3287
907.091	3485
907.208	3614
907.324	3523
907.441	3458
907.557	3264
907.674	3275
907.79	3237
907.907	3264
908.023	3424
908.139	3401
908.256	3389
908.372	3397
908.488	3367
908.604	3287
908.72	3253
908.836	3359
908.952	3344
909.068	3340
909.184	3477
909.3	3409
909.415	3519
909.531	3545
909.647	3332
909.762	3348
909.878	3344
909.993	3420
910.108	3401
910.224	3428
910.339	3439
910.454	3363
910.57	3332
910.685	3241
910.8	3652
910.915	3534
911.03	3469
911.145	3275
911.259	3306
911.374	3317
911.489	3291
911.604	3260
911.718	3161
911.833	3188
911.947	3039
912.062	3020
912.176	3176
912.291	3226
912.405	3230
912.519	3473
912.633	3504
912.748	3340
912.862	3291
912.976	3157
913.09	3093
913.204	3211
913.318	3245
913.431	3367
913.545	3317
913.659	3443
913.772	3382
913.886	3230
914	3195
914.113	3348
914.226	3428
914.34	3389
914.453	3241
914.566	3409
914.68	3332
914.793	3313
914.906	3161
915.019	3142
915.132	3127
915.245	3211
915.358	3226
915.47	3275
915.583	3298
915.696	3325
915.809	3382
915.921	3458
916.034	3203
916.146	3310
916.259	3268
916.371	3416
916.483	3363
916.595	3325
916.708	3363
916.82	3336
916.932	3359
917.044	3344
917.156	3370
917.268	3256
917.38	3310
917.491	3344
917.603	3409
917.715	3469
917.826	3511
917.938	3416
918.049	3302
918.161	3473
918.272	3603
918.384	3603
918.495	3488
918.606	3367
918.717	3310
918.828	3389
918.939	3435
919.05	3306
919.161	3424
919.272	3195
919.383	3302
919.494	3504
919.604	3747
919.715	3561
919.826	3424
919.936	3492
920.047	3614
920.157	3568
920.267	3812
920.378	3667
920.488	3572
920.598	3793
920.708	3949
920.818	3899
920.928	3930
921.038	4074
921.148	4021
921.258	3705
921.368	3713
921.477	3614
921.587	3572
921.697	3511
921.806	3663
921.916	3511
922.025	3389
922.134	3363
922.244	3298
922.353	3462
922.462	3272
922.571	3245
922.68	3142
922.789	3058
922.898	3180
923.007	3100
923.116	3268
923.224	3211
923.333	3279
923.442	3097
923.55	3135
923.659	3165
923.767	3287
923.876	3150
923.984	3264
924.092	3127
924.201	3272
924.309	3203
924.417	3264
924.525	3184
924.633	3275
924.741	4067
924.849	3104
924.956	3302
925.064	3093
925.172	3070
925.279	3131
925.387	3188
925.494	3241
925.602	3420
925.709	3359
925.816	3241
925.924	3302
926.031	3401
926.138	3355
926.245	3405
926.352	3332
926.459	3443
926.566	3526
926.673	3275
926.779	3291
926.886	3310
926.993	3180
927.099	3184
927.206	3138
927.312	3108
927.419	3275
927.525	3260
927.631	3329
927.737	3230
927.843	3119
927.95	3062
928.056	3157
928.162	3176
928.267	3245
928.373	3892
928.479	3306
928.585	3116
928.69	3214
928.796	3272
928.901	3199
929.007	3077
929.112	3245
929.218	3211
929.323	3169
929.428	3169
929.533	3348
929.638	3116
929.743	3184
929.848	3275
929.953	3260
930.058	3180
930.163	3028
930.267	3058
930.372	3241
930.477	3051
930.581	3298
930.685	3214
930.79	3066
930.894	3112
930.998	3112
931.103	3298
931.207	2963
931.311	2960
931.415	2960
931.519	2807
931.623	2849
