Data from test_V78500241_963.txt Node
Date: Fri Mar 25 16:21:52 CST 2022
User: usil
Spectrometer: V785-0024
Trigger mode: 0
Integration Time (sec): 4.000000E-1
Scans to average: 1
Nonlinearity correction enabled: false
Boxcar width: 0
Storing dark spectrum: false
XAxis mode: Wavelengths
Number of Pixels in Spectrum: 1024
>>>>>Begin Spectral Data<<<<<
801.071	2956
801.214	2975
801.356	2857
801.499	2933
801.641	2883
801.783	2990
801.926	3070
802.068	2994
802.211	3013
802.353	3051
802.496	2952
802.638	3066
802.78	3093
802.923	3097
803.065	3001
803.208	2899
803.35	2925
803.492	2952
803.635	2933
803.777	2758
803.919	2899
804.061	3180
804.204	2975
804.346	2906
804.488	2857
804.63	3001
804.773	2906
804.915	2929
805.057	3074
805.199	2941
805.341	3017
805.483	3013
805.626	3032
805.768	2952
805.91	3085
806.052	3135
806.194	3017
806.336	3245
806.478	3017
806.62	2975
806.762	2994
806.904	3047
807.046	3184
807.188	3005
807.33	2925
807.472	3009
807.614	2937
807.756	3001
807.898	2922
808.04	2880
808.182	3001
808.324	2971
808.465	2895
808.607	2914
808.749	2792
808.891	2876
809.033	2967
809.174	2982
809.316	2883
809.458	2929
809.6	2762
809.741	2766
809.883	2766
810.025	2830
810.166	2857
810.308	2857
810.45	2861
810.591	2781
810.733	2777
810.875	2838
811.016	2762
811.158	2785
811.299	2838
811.441	2956
811.582	2891
811.724	2849
811.865	2823
812.007	2906
812.148	2883
812.29	2842
812.431	2891
812.573	2941
812.714	2933
812.855	3039
812.997	3039
813.138	3165
813.279	3013
813.421	3005
813.562	2998
813.703	2872
813.845	2906
813.986	2773
814.127	2758
814.268	2807
814.41	2861
814.551	2826
814.692	2857
814.833	2823
814.974	2895
815.115	2982
815.256	2830
815.397	2819
815.539	2868
815.68	2785
815.821	2834
815.962	2914
816.103	2918
816.244	2842
816.385	2902
816.526	2986
816.666	2925
816.807	2743
816.948	2902
817.089	2914
817.23	2864
817.371	2792
817.512	2800
817.653	2864
817.793	2819
817.934	2902
818.075	2967
818.216	3013
818.356	3024
818.497	2895
818.638	2815
818.778	2834
818.919	2792
819.06	2727
819.2	2902
819.341	2804
819.481	2758
819.622	2922
819.762	3077
819.903	3058
820.043	2967
820.184	2872
820.324	2902
820.465	3001
820.605	3017
820.746	3032
820.886	2960
821.026	3100
821.167	3184
821.307	3279
821.447	3268
821.588	3233
821.728	3241
821.868	3184
822.008	3093
822.149	3154
822.289	3260
822.429	3051
822.569	3070
822.709	3176
822.849	3055
822.99	3055
823.13	3146
823.27	3173
823.41	3119
823.55	3150
823.69	3161
823.83	3214
823.97	3123
824.11	3013
824.25	2998
824.389	3055
824.529	3123
824.669	3066
824.809	3199
824.949	3287
825.089	3214
825.228	3161
825.368	2963
825.508	2986
825.648	2948
825.787	2986
825.927	3013
826.067	2975
826.206	2941
826.346	3047
826.485	3066
826.625	3089
826.765	3268
826.904	3253
827.044	3005
827.183	2952
827.323	2872
827.462	2979
827.601	2880
827.741	2922
827.88	2944
828.02	2823
828.159	2948
828.298	3043
828.437	3081
828.577	3043
828.716	3211
828.855	3055
828.994	2906
829.134	2872
829.273	2902
829.412	2868
829.551	2883
829.69	2902
829.829	2956
829.968	3127
830.107	3028
830.246	3013
830.385	2914
830.524	2868
830.663	2826
830.802	2754
830.941	2640
831.08	2644
831.219	2727
831.357	2743
831.496	2948
831.635	2682
831.774	2617
831.913	2663
832.051	2549
832.19	2587
832.329	2667
832.467	2541
832.606	2499
832.744	2564
832.883	2590
833.022	2594
833.16	2674
833.299	2716
833.437	2667
833.576	2697
833.714	2731
833.852	2697
833.991	2720
834.129	2834
834.267	2773
834.406	2792
834.544	2849
834.682	2861
834.821	2868
834.959	3055
835.097	2872
835.235	3070
835.373	3001
835.511	3017
835.65	2982
835.788	2941
835.926	2868
836.064	2800
836.202	2842
836.34	3097
836.478	3108
836.615	3020
836.753	3138
836.891	3203
837.029	3176
837.167	3108
837.305	3077
837.443	3058
837.58	2956
837.718	3100
837.856	3036
837.993	3001
838.131	3108
838.269	3123
838.406	3104
838.544	3062
838.681	2937
838.819	2883
838.956	2796
839.094	2830
839.231	2891
839.369	3017
839.506	3397
839.643	3211
839.781	3020
839.918	2967
840.055	3017
840.193	3070
840.33	3051
840.467	3093
840.604	3119
840.742	3412
840.879	3089
841.016	3032
841.153	3119
841.29	3351
841.427	3260
841.564	3275
841.701	3310
841.838	3222
841.975	3203
842.112	3188
842.249	3062
842.385	3024
842.522	3253
842.659	3097
842.796	3028
842.933	3097
843.069	3062
843.206	3020
843.343	3211
843.479	3119
843.616	3119
843.752	2918
843.889	2883
844.025	3066
844.162	2864
844.298	3077
844.435	2937
844.571	2902
844.708	3070
844.844	3169
844.98	3211
845.117	3154
845.253	3062
845.389	3039
845.525	3100
845.661	3093
845.798	3009
845.934	3119
846.07	3055
846.206	3241
846.342	3321
846.478	3233
846.614	3081
846.75	3032
846.886	3024
847.022	3207
847.158	3100
847.294	3169
847.429	3256
847.565	3192
847.701	3431
847.837	2994
847.972	3005
848.108	3154
848.244	3112
848.379	3001
848.515	2933
848.65	2922
848.786	2941
848.921	3017
849.057	3093
849.192	3154
849.328	3032
849.463	3123
849.598	3058
849.734	3020
849.869	2956
850.004	2887
850.14	2986
850.275	2899
850.41	2819
850.545	2906
850.68	2918
850.815	2929
850.95	2952
851.085	3203
851.22	3116
851.355	3051
851.49	3001
851.625	3009
851.76	3024
851.895	2948
852.03	2906
852.165	2979
852.299	3119
852.434	3199
852.569	3116
852.703	3173
852.838	3207
852.973	3329
853.107	3317
853.242	3146
853.376	3123
853.511	2994
853.645	3032
853.78	3214
853.914	3074
854.048	3138
854.183	3081
854.317	3135
854.451	3306
854.585	3116
854.72	3131
854.854	3207
854.988	3055
855.122	3123
855.256	2979
855.39	3112
855.524	3211
855.658	3195
855.792	3154
855.926	3180
856.06	3203
856.194	3256
856.327	3123
856.461	3070
856.595	3089
856.729	3097
856.862	3245
856.996	3127
857.13	3249
857.263	3222
857.397	3279
857.53	3093
857.664	3180
857.797	3222
857.931	3275
858.064	3161
858.197	3192
858.331	3108
858.464	3089
858.597	2998
858.731	3116
858.864	3097
858.997	3085
859.13	3161
859.263	3154
859.396	3253
859.529	3074
859.662	3032
859.795	3043
859.928	3112
860.061	3279
860.194	3275
860.327	3135
860.46	3051
860.592	3253
860.725	3222
860.858	3218
860.99	3085
861.123	3039
861.256	3028
861.388	3131
861.521	3785
861.653	3028
861.786	2994
861.918	3005
862.05	3047
862.183	3077
862.315	3146
862.447	3203
862.58	3108
862.712	2918
862.844	2849
862.976	3001
863.108	3020
863.24	3435
863.372	2876
863.504	2952
863.636	2948
863.768	3032
863.9	3009
864.032	2883
864.164	2914
864.296	3020
864.428	3093
864.559	3093
864.691	3058
864.823	3047
864.954	3039
865.086	3020
865.217	3043
865.349	2944
865.48	2971
865.612	3001
865.743	3161
865.875	2967
866.006	2929
866.137	2982
866.269	2925
866.4	2902
866.531	2880
866.662	2834
866.793	2861
866.924	2899
867.055	2956
867.186	2910
867.317	2883
867.448	2864
867.579	2838
867.71	2876
867.841	2785
867.972	2891
868.103	2956
868.233	2891
868.364	2887
868.495	2914
868.625	3077
868.756	3157
868.886	2986
869.017	3017
869.147	3157
869.278	3146
869.408	3058
869.539	3032
869.669	3074
869.799	3020
869.929	3119
870.06	3100
870.19	3306
870.32	3260
870.45	3313
870.58	3336
870.71	3420
870.84	3458
870.97	3260
871.1	3249
871.23	3431
871.36	3466
871.489	3332
871.619	3382
871.749	3416
871.879	3405
872.008	3462
872.138	3351
872.267	3287
872.397	3169
872.526	3074
872.656	3020
872.785	3100
872.915	3264
873.044	3294
873.173	3249
873.303	3226
873.432	3195
873.561	3264
873.69	3150
873.819	3157
873.948	3173
874.077	3074
874.206	3058
874.335	3142
874.464	3211
874.593	3370
874.722	3245
874.851	3367
874.979	3367
875.108	3348
875.237	3180
875.365	3161
875.494	3165
875.623	3249
875.751	3058
875.88	3112
876.008	3188
876.136	3241
876.265	3378
876.393	3492
876.521	3363
876.65	3409
876.778	3325
876.906	3249
877.034	3195
877.162	3195
877.29	3176
877.418	3226
877.546	3245
877.674	3253
877.802	3199
877.93	3230
878.058	3154
878.185	3104
878.313	3237
878.441	3211
878.568	3055
878.696	3142
878.824	3249
878.951	3302
879.079	3454
879.206	3622
879.333	3435
879.461	3344
879.588	3344
879.715	3458
879.842	3557
879.97	3401
880.097	3173
880.224	3150
880.351	3176
880.478	3192
880.605	3173
880.732	3157
880.859	3526
880.986	3317
881.112	3317
881.239	3218
881.366	3097
881.493	3055
881.619	3043
881.746	3066
881.872	3085
881.999	3070
882.125	3146
882.252	3211
882.378	3275
882.505	3393
882.631	3275
882.757	3173
882.883	3188
883.01	3165
883.136	3157
883.262	3058
883.388	3097
883.514	3306
883.64	3348
883.766	3272
883.892	3169
884.018	3249
884.143	3458
884.269	3568
884.395	3218
884.52	3161
884.646	3154
884.772	3089
884.897	3104
885.023	3230
885.148	3291
885.274	3389
885.399	3348
885.524	3287
885.65	3226
885.775	3287
885.9	3249
886.025	3416
886.15	3336
886.275	3313
886.4	3222
886.525	3256
886.65	3237
886.775	3253
886.9	3488
887.025	3595
887.149	3386
887.274	3192
887.399	3150
887.523	3165
887.648	3173
887.773	3173
887.897	3367
888.021	3386
888.146	3287
888.27	3405
888.395	3500
888.519	3458
888.643	3397
888.767	3428
888.891	3310
889.015	3237
889.139	3275
889.263	3241
889.387	3401
889.511	3473
889.635	3424
889.759	3279
889.883	3294
890.006	3382
890.13	3458
890.254	3298
890.377	3306
890.501	3211
890.624	3195
890.748	3264
890.871	3165
890.995	3093
891.118	3051
891.241	3146
891.364	3218
891.488	3310
891.611	3161
891.734	3226
891.857	3268
891.98	3199
892.103	3348
892.226	3279
892.349	3211
892.471	3138
892.594	3211
892.717	3268
892.839	3283
892.962	3291
893.085	3329
893.207	3264
893.33	3123
893.452	3165
893.575	3313
893.697	3275
893.819	3450
893.941	3511
894.064	3428
894.186	3287
894.308	3218
894.43	3435
894.552	3523
894.674	3435
894.796	3264
894.918	3306
895.04	3302
895.161	3447
895.283	3359
895.405	3298
895.526	3329
895.648	3420
895.769	3386
895.891	3454
896.012	3454
896.134	3443
896.255	3424
896.376	3370
896.498	3332
896.619	3420
896.74	3359
896.861	3397
896.982	3671
897.103	3819
897.224	3580
897.345	3549
897.466	3424
897.587	3462
897.708	3606
897.828	3545
897.949	3416
898.07	3313
898.19	3420
898.311	3549
898.431	3431
898.552	3481
898.672	3568
898.792	3519
898.913	3504
899.033	3420
899.153	3283
899.273	3249
899.393	3283
899.513	3275
899.633	3256
899.753	3359
899.873	3294
899.993	3370
900.113	3317
900.232	3378
900.352	3332
900.472	3310
900.591	3192
900.711	3279
900.83	3233
900.95	3428
901.069	3507
901.189	3351
901.308	3176
901.427	3112
901.546	3165
901.665	3317
901.784	3306
901.904	3199
902.023	3127
902.141	3024
902.26	2994
902.379	3112
902.498	3085
902.617	3047
902.735	3214
902.854	3222
902.973	3207
903.091	3013
903.21	3032
903.328	3131
903.446	3112
903.565	3100
903.683	3138
903.801	3123
903.919	3195
904.038	3279
904.156	3165
904.274	3264
904.392	3218
904.51	3272
904.627	3313
904.745	3416
904.863	3424
904.981	3230
905.098	3203
905.216	3192
905.334	3272
905.451	3260
905.569	3336
905.686	3393
905.803	3454
905.921	3275
906.038	3428
906.155	3393
906.272	3298
906.389	3325
906.506	3203
906.623	3207
906.74	3249
906.857	3211
906.974	3260
907.091	3450
907.208	3538
907.324	3458
907.441	3386
907.557	3214
907.674	3230
907.79	3195
907.907	3279
908.023	3386
908.139	3340
908.256	3310
908.372	3340
908.488	3344
908.604	3260
908.72	3211
908.836	3283
908.952	3287
909.068	3310
909.184	3435
909.3	3370
909.415	3477
909.531	3481
909.647	3233
909.762	3302
909.878	3260
909.993	3336
910.108	3313
910.224	3310
910.339	3393
910.454	3321
910.57	3298
910.685	3207
910.8	3599
910.915	3488
911.03	3424
911.145	3226
911.259	3245
911.374	3306
911.489	3203
911.604	3237
911.718	3127
911.833	3119
911.947	3009
912.062	2952
912.176	3116
912.291	3157
912.405	3222
912.519	3382
912.633	3435
912.748	3348
912.862	3230
912.976	3127
913.09	3009
913.204	3127
913.318	3146
913.431	3344
913.545	3287
913.659	3351
913.772	3329
913.886	3230
914	3176
914.113	3336
914.226	3397
914.34	3351
914.453	3218
914.566	3412
914.68	3268
914.793	3325
914.906	3108
915.019	3100
915.132	3058
915.245	3157
915.358	3207
915.47	3180
915.583	3214
915.696	3291
915.809	3374
915.921	3443
916.034	3253
916.146	3218
916.259	3188
916.371	3374
916.483	3329
916.595	3233
916.708	3325
916.82	3332
916.932	3348
917.044	3332
917.156	3386
917.268	3272
917.38	3306
917.491	3306
917.603	3393
917.715	3454
917.826	3473
917.938	3397
918.049	3260
918.161	3454
918.272	3587
918.384	3591
918.495	3507
918.606	3374
918.717	3294
918.828	3397
918.939	3424
919.05	3329
919.161	3409
919.272	3203
919.383	3294
919.494	3534
919.604	3736
919.715	3507
919.826	3435
919.936	3485
920.047	3568
920.157	3568
920.267	3762
920.378	3591
920.488	3641
920.598	3850
920.708	3975
920.818	3850
920.928	3880
921.038	4029
921.148	3979
921.258	3728
921.368	3682
921.477	3591
921.587	3564
921.697	3473
921.806	3679
921.916	3553
922.025	3370
922.134	3405
922.244	3370
922.353	3496
922.462	3302
922.571	3253
922.68	3157
922.789	3135
922.898	3188
923.007	3131
923.116	3264
923.224	3173
923.333	3222
923.442	3157
923.55	3142
923.659	3150
923.767	3275
923.876	3150
923.984	3275
924.092	3131
924.201	3253
924.309	3291
924.417	3287
924.525	3169
924.633	3306
924.741	4207
924.849	3116
924.956	3294
925.064	3123
925.172	3093
925.279	3150
925.387	3214
925.494	3241
925.602	3374
925.709	3393
925.816	3230
925.924	3317
926.031	3412
926.138	3359
926.245	3363
926.352	3310
926.459	3454
926.566	3523
926.673	3321
926.779	3287
926.886	3298
926.993	3131
927.099	3157
927.206	3157
927.312	3169
927.419	3260
927.525	3275
927.631	3355
927.737	3173
927.843	3161
927.95	3077
928.056	3176
928.162	3207
928.267	3287
928.373	3869
928.479	3298
928.585	3100
928.69	3222
928.796	3317
928.901	3157
929.007	3062
929.112	3214
929.218	3207
929.323	3214
929.428	3222
929.533	3313
929.638	3142
929.743	3222
929.848	3302
929.953	3222
930.058	3195
930.163	3039
930.267	3039
930.372	3230
930.477	3081
930.581	3348
930.685	3203
930.79	3116
930.894	3154
930.998	3131
931.103	3294
931.207	3028
931.311	3009
931.415	2937
931.519	2811
931.623	2815
