Data from test_V78500241_1846.txt Node
Date: Fri Mar 25 16:27:59 CST 2022
User: usil
Spectrometer: V785-0024
Trigger mode: 0
Integration Time (sec): 4.000000E-1
Scans to average: 1
Nonlinearity correction enabled: false
Boxcar width: 0
Storing dark spectrum: false
XAxis mode: Wavelengths
Number of Pixels in Spectrum: 1024
>>>>>Begin Spectral Data<<<<<
801.071	2887
801.214	2971
801.356	2902
801.499	2948
801.641	2883
801.783	2963
801.926	3058
802.068	2979
802.211	3047
802.353	3077
802.496	2986
802.638	2998
802.78	3051
802.923	3081
803.065	3028
803.208	2899
803.35	2902
803.492	2948
803.635	2944
803.777	2788
803.919	2872
804.061	3184
804.204	2960
804.346	2868
804.488	2861
804.63	2990
804.773	2857
804.915	2902
805.057	3116
805.199	2979
805.341	2956
805.483	3017
805.626	3017
805.768	2971
805.91	3093
806.052	3104
806.194	3062
806.336	3272
806.478	3047
806.62	2963
806.762	2975
806.904	3074
807.046	3188
807.188	3001
807.33	2895
807.472	3020
807.614	2918
807.756	2967
807.898	2933
808.04	2952
808.182	2956
808.324	2982
808.465	2910
808.607	2872
808.749	2788
808.891	2861
809.033	2975
809.174	2975
809.316	2895
809.458	2906
809.6	2796
809.741	2785
809.883	2785
810.025	2845
810.166	2887
810.308	2861
810.45	2876
810.591	2766
810.733	2815
810.875	2830
811.016	2804
811.158	2800
811.299	2823
811.441	2922
811.582	2918
811.724	2781
811.865	2864
812.007	2899
812.148	2834
812.29	2861
812.431	2891
812.573	2929
812.714	2975
812.855	3077
812.997	3070
813.138	3176
813.279	3043
813.421	2975
813.562	2963
813.703	2891
813.845	2902
813.986	2800
814.127	2720
814.268	2838
814.41	2872
814.551	2830
814.692	2868
814.833	2834
814.974	2918
815.115	2948
815.256	2811
815.397	2842
815.539	2891
815.68	2781
815.821	2819
815.962	2956
816.103	2967
816.244	2861
816.385	2868
816.526	2952
816.666	2956
816.807	2781
816.948	2868
817.089	2925
817.23	2838
817.371	2766
817.512	2823
817.653	2864
817.793	2853
817.934	2868
818.075	2971
818.216	2967
818.356	3020
818.497	2876
818.638	2826
818.778	2785
818.919	2823
819.06	2773
819.2	2906
819.341	2800
819.481	2826
819.622	2937
819.762	3097
819.903	3017
820.043	2922
820.184	2902
820.324	2937
820.465	3032
820.605	2998
820.746	3036
820.886	2925
821.026	3077
821.167	3169
821.307	3226
821.447	3294
821.588	3226
821.728	3241
821.868	3180
822.008	3108
822.149	3199
822.289	3241
822.429	3081
822.569	3119
822.709	3184
822.849	2998
822.99	3062
823.13	3169
823.27	3184
823.41	3108
823.55	3157
823.69	3138
823.83	3184
823.97	3085
824.11	3032
824.25	3017
824.389	3062
824.529	3146
824.669	3051
824.809	3195
824.949	3264
825.089	3218
825.228	3161
825.368	2994
825.508	2963
825.648	2979
825.787	2990
825.927	2994
826.067	2960
826.206	2933
826.346	3036
826.485	3093
826.625	3127
826.765	3249
826.904	3233
827.044	2986
827.183	2918
827.323	2883
827.462	2979
827.601	2895
827.741	2914
827.88	2952
828.02	2857
828.159	2971
828.298	3032
828.437	3077
828.577	3028
828.716	3256
828.855	3085
828.994	2929
829.134	2864
829.273	2933
829.412	2880
829.551	2868
829.69	2944
829.829	2963
829.968	3100
830.107	3020
830.246	2979
830.385	2895
830.524	2883
830.663	2834
830.802	2731
830.941	2659
831.08	2678
831.219	2769
831.357	2777
831.496	2933
831.635	2705
831.774	2640
831.913	2651
832.051	2560
832.19	2613
832.329	2667
832.467	2549
832.606	2480
832.744	2590
832.883	2587
833.022	2579
833.16	2670
833.299	2693
833.437	2682
833.576	2716
833.714	2754
833.852	2720
833.991	2773
834.129	2857
834.267	2815
834.406	2826
834.544	2834
834.682	2857
834.821	2861
834.959	3074
835.097	2895
835.235	3066
835.373	2990
835.511	3013
835.65	2937
835.788	2948
835.926	2834
836.064	2807
836.202	2857
836.34	3058
836.478	3108
836.615	3062
836.753	3161
836.891	3214
837.029	3176
837.167	3131
837.305	3074
837.443	3051
837.58	2982
837.718	3116
837.856	3070
837.993	3017
838.131	3104
838.269	3077
838.406	3093
838.544	3085
838.681	2910
838.819	2883
838.956	2834
839.094	2815
839.231	2933
839.369	3047
839.506	3401
839.643	3241
839.781	3017
839.918	2948
840.055	3009
840.193	3055
840.33	3062
840.467	3138
840.604	3161
840.742	3435
840.879	3013
841.016	3058
841.153	3100
841.29	3329
841.427	3298
841.564	3275
841.701	3325
841.838	3241
841.975	3169
842.112	3176
842.249	3058
842.385	3024
842.522	3245
842.659	3058
842.796	3074
842.933	3112
843.069	2998
843.206	3024
843.343	3211
843.479	3097
843.616	3146
843.752	2853
843.889	2849
844.025	3097
844.162	2834
844.298	3051
844.435	2944
844.571	2902
844.708	3055
844.844	3188
844.98	3207
845.117	3207
845.253	3039
845.389	3020
845.525	3100
845.661	3081
845.798	3001
845.934	3100
846.07	3051
846.206	3226
846.342	3306
846.478	3268
846.614	3070
846.75	3070
846.886	2979
847.022	3233
847.158	3165
847.294	3176
847.429	3237
847.565	3207
847.701	3504
847.837	3013
847.972	2990
848.108	3135
848.244	3161
848.379	2944
848.515	2910
848.65	2914
848.786	2933
848.921	3013
849.057	3074
849.192	3131
849.328	3066
849.463	3138
849.598	3039
849.734	3039
849.869	2982
850.004	2914
850.14	2994
850.275	2891
850.41	2826
850.545	2876
850.68	2944
850.815	2971
850.95	2971
851.085	3203
851.22	3085
851.355	3024
851.49	3001
851.625	3009
851.76	3005
851.895	2933
852.03	2963
852.165	3043
852.299	3146
852.434	3226
852.569	3169
852.703	3188
852.838	3275
852.973	3363
853.107	3359
853.242	3169
853.376	3142
853.511	3032
853.645	3070
853.78	3241
853.914	3142
854.048	3100
854.183	3085
854.317	3180
854.451	3363
854.585	3142
854.72	3142
854.854	3260
854.988	3089
855.122	3093
855.256	3024
855.39	3135
855.524	3283
855.658	3203
855.792	3176
855.926	3226
856.06	3249
856.194	3272
856.327	3192
856.461	3108
856.595	3135
856.729	3146
856.862	3268
856.996	3230
857.13	3233
857.263	3245
857.397	3340
857.53	3131
857.664	3226
857.797	3275
857.931	3325
858.064	3184
858.197	3241
858.331	3169
858.464	3150
858.597	3058
858.731	3165
858.864	3150
858.997	3176
859.13	3199
859.263	3199
859.396	3253
859.529	3119
859.662	3123
859.795	3081
859.928	3173
860.061	3264
860.194	3325
860.327	3157
860.46	3108
860.592	3268
860.725	3283
860.858	3264
860.99	3123
861.123	3074
861.256	3085
861.388	3226
861.521	3846
861.653	3089
861.786	3024
861.918	3062
862.05	3100
862.183	3165
862.315	3199
862.447	3203
862.58	3184
862.712	2998
862.844	2922
862.976	3081
863.108	3005
863.24	3462
863.372	2918
863.504	3001
863.636	2944
863.768	3020
863.9	3039
864.032	2971
864.164	2994
864.296	3032
864.428	3108
864.559	3131
864.691	3081
864.823	3089
864.954	3070
865.086	3093
865.217	3009
865.349	2990
865.48	3047
865.612	3062
865.743	3173
865.875	3032
866.006	2975
866.137	3017
866.269	2963
866.4	2967
866.531	2937
866.662	2960
866.793	2910
866.924	2948
867.055	3024
867.186	2960
867.317	2906
867.448	2887
867.579	2910
867.71	2891
867.841	2853
867.972	2937
868.103	2906
868.233	2925
868.364	2918
868.495	2960
868.625	3104
868.756	3180
868.886	3036
869.017	3074
869.147	3195
869.278	3203
869.408	3089
869.539	3070
869.669	3154
869.799	3085
869.929	3169
870.06	3119
870.19	3359
870.32	3340
870.45	3317
870.58	3447
870.71	3485
870.84	3447
870.97	3332
871.1	3275
871.23	3515
871.36	3542
871.489	3389
871.619	3386
871.749	3431
871.879	3473
872.008	3515
872.138	3374
872.267	3351
872.397	3161
872.526	3146
872.656	3081
872.785	3127
872.915	3260
873.044	3370
873.173	3279
873.303	3298
873.432	3260
873.561	3291
873.69	3188
873.819	3142
873.948	3241
874.077	3135
874.206	3039
874.335	3108
874.464	3253
874.593	3370
874.722	3245
874.851	3378
874.979	3348
875.108	3348
875.237	3199
875.365	3203
875.494	3188
875.623	3279
875.751	3119
875.88	3131
876.008	3203
876.136	3233
876.265	3409
876.393	3538
876.521	3439
876.65	3401
876.778	3332
876.906	3260
877.034	3207
877.162	3256
877.29	3226
877.418	3268
877.546	3275
877.674	3245
877.802	3275
877.93	3249
878.058	3173
878.185	3116
878.313	3226
878.441	3214
878.568	3085
878.696	3169
878.824	3275
878.951	3287
879.079	3431
879.206	3629
879.333	3424
879.461	3340
879.588	3367
879.715	3500
879.842	3595
879.97	3420
880.097	3180
880.224	3188
880.351	3237
880.478	3195
880.605	3211
880.732	3233
880.859	3523
880.986	3306
881.112	3351
881.239	3222
881.366	3131
881.493	3047
881.619	3066
881.746	3161
881.872	3089
881.999	3127
882.125	3154
882.252	3291
882.378	3302
882.505	3485
882.631	3332
882.757	3173
882.883	3203
883.01	3260
883.136	3173
883.262	3119
883.388	3123
883.514	3321
883.64	3378
883.766	3370
883.892	3199
884.018	3256
884.143	3447
884.269	3515
884.395	3226
884.52	3157
884.646	3173
884.772	3176
884.897	3123
885.023	3214
885.148	3306
885.274	3428
885.399	3401
885.524	3321
885.65	3283
885.775	3348
885.9	3325
886.025	3424
886.15	3363
886.275	3321
886.4	3218
886.525	3329
886.65	3310
886.775	3291
886.9	3557
887.025	3679
887.149	3416
887.274	3260
887.399	3230
887.523	3241
887.648	3260
887.773	3207
887.897	3389
888.021	3428
888.146	3344
888.27	3462
888.395	3557
888.519	3454
888.643	3458
888.767	3473
888.891	3340
889.015	3272
889.139	3332
889.263	3237
889.387	3435
889.511	3538
889.635	3458
889.759	3279
889.883	3310
890.006	3416
890.13	3523
890.254	3272
890.377	3344
890.501	3245
890.624	3180
890.748	3302
890.871	3214
890.995	3142
891.118	3097
891.241	3199
891.364	3214
891.488	3310
891.611	3173
891.734	3253
891.857	3310
891.98	3298
892.103	3336
892.226	3287
892.349	3272
892.471	3169
892.594	3245
892.717	3306
892.839	3264
892.962	3321
893.085	3367
893.207	3317
893.33	3161
893.452	3199
893.575	3344
893.697	3245
893.819	3542
893.941	3534
894.064	3450
894.186	3302
894.308	3294
894.43	3389
894.552	3545
894.674	3507
894.796	3275
894.918	3329
895.04	3329
895.161	3443
895.283	3389
895.405	3370
895.526	3405
895.648	3412
895.769	3428
895.891	3519
896.012	3431
896.134	3515
896.255	3412
896.376	3447
896.498	3344
896.619	3428
896.74	3363
896.861	3397
896.982	3743
897.103	3888
897.224	3618
897.345	3526
897.466	3454
897.587	3515
897.708	3660
897.828	3526
897.949	3435
898.07	3367
898.19	3435
898.311	3618
898.431	3458
898.552	3515
898.672	3584
898.792	3629
898.913	3530
899.033	3443
899.153	3287
899.273	3253
899.393	3313
899.513	3325
899.633	3313
899.753	3378
899.873	3321
899.993	3412
900.113	3348
900.232	3382
900.352	3348
900.472	3310
900.591	3199
900.711	3279
900.83	3253
900.95	3420
901.069	3466
901.189	3374
901.308	3161
901.427	3142
901.546	3233
901.665	3329
901.784	3332
901.904	3226
902.023	3161
902.141	3051
902.26	3036
902.379	3123
902.498	3077
902.617	3085
902.735	3264
902.854	3233
902.973	3218
903.091	3058
903.21	3089
903.328	3135
903.446	3108
903.565	3104
903.683	3230
903.801	3150
903.919	3249
904.038	3294
904.156	3203
904.274	3340
904.392	3287
904.51	3310
904.627	3344
904.745	3488
904.863	3511
904.981	3287
905.098	3214
905.216	3237
905.334	3291
905.451	3310
905.569	3317
905.686	3466
905.803	3454
905.921	3332
906.038	3473
906.155	3370
906.272	3279
906.389	3344
906.506	3256
906.623	3310
906.74	3249
906.857	3184
906.974	3256
907.091	3435
907.208	3564
907.324	3454
907.441	3344
907.557	3214
907.674	3268
907.79	3222
907.907	3310
908.023	3401
908.139	3416
908.256	3321
908.372	3416
908.488	3340
908.604	3256
908.72	3226
908.836	3279
908.952	3275
909.068	3405
909.184	3477
909.3	3412
909.415	3523
909.531	3492
909.647	3268
909.762	3317
909.878	3302
909.993	3386
910.108	3332
910.224	3359
910.339	3389
910.454	3340
910.57	3321
910.685	3233
910.8	3599
910.915	3545
911.03	3443
911.145	3264
911.259	3253
911.374	3344
911.489	3245
911.604	3237
911.718	3119
911.833	3161
911.947	3047
912.062	3013
912.176	3169
912.291	3184
912.405	3233
912.519	3416
912.633	3469
912.748	3378
912.862	3298
912.976	3188
913.09	3043
913.204	3157
913.318	3230
913.431	3348
913.545	3302
913.659	3420
913.772	3393
913.886	3230
914	3195
914.113	3397
914.226	3412
914.34	3397
914.453	3237
914.566	3439
914.68	3332
914.793	3332
914.906	3173
915.019	3123
915.132	3081
915.245	3203
915.358	3195
915.47	3249
915.583	3306
915.696	3306
915.809	3412
915.921	3405
916.034	3249
916.146	3268
916.259	3214
916.371	3386
916.483	3367
916.595	3287
916.708	3363
916.82	3306
916.932	3344
917.044	3363
917.156	3329
917.268	3264
917.38	3298
917.491	3291
917.603	3378
917.715	3500
917.826	3466
917.938	3386
918.049	3222
918.161	3420
918.272	3584
918.384	3580
918.495	3462
918.606	3306
918.717	3287
918.828	3367
918.939	3397
919.05	3336
919.161	3370
919.272	3165
919.383	3291
919.494	3523
919.604	3740
919.715	3481
919.826	3420
919.936	3485
920.047	3606
920.157	3568
920.267	3781
920.378	3633
920.488	3595
920.598	3781
920.708	3945
920.818	3865
920.928	3808
921.038	4032
921.148	3983
921.258	3728
921.368	3606
921.477	3633
921.587	3584
921.697	3496
921.806	3614
921.916	3473
922.025	3393
922.134	3351
922.244	3344
922.353	3431
922.462	3260
922.571	3237
922.68	3116
922.789	3077
922.898	3165
923.007	3089
923.116	3218
923.224	3154
923.333	3169
923.442	3135
923.55	3127
923.659	3138
923.767	3218
923.876	3074
923.984	3260
924.092	3116
924.201	3245
924.309	3264
924.417	3298
924.525	3207
924.633	3253
924.741	4150
924.849	3039
924.956	3275
925.064	3097
925.172	3051
925.279	3070
925.387	3237
925.494	3218
925.602	3378
925.709	3336
925.816	3169
925.924	3256
926.031	3378
926.138	3302
926.245	3359
926.352	3249
926.459	3462
926.566	3443
926.673	3302
926.779	3241
926.886	3237
926.993	3154
927.099	3154
927.206	3097
927.312	3097
927.419	3237
927.525	3214
927.631	3260
927.737	3112
927.843	3150
927.95	3017
928.056	3157
928.162	3192
928.267	3249
928.373	3751
928.479	3325
928.585	3058
928.69	3176
928.796	3268
928.901	3138
929.007	3077
929.112	3211
929.218	3157
929.323	3165
929.428	3123
929.533	3321
929.638	3157
929.743	3184
929.848	3256
929.953	3233
930.058	3169
930.163	2960
930.267	3047
930.372	3211
930.477	3032
930.581	3329
930.685	3192
930.79	3036
930.894	3108
930.998	3100
931.103	3313
931.207	2929
931.311	2906
931.415	2967
931.519	2807
931.623	2815
