Data from test_V78500241_764.txt Node
Date: Fri Mar 25 16:20:29 CST 2022
User: usil
Spectrometer: V785-0024
Trigger mode: 0
Integration Time (sec): 4.000000E-1
Scans to average: 1
Nonlinearity correction enabled: false
Boxcar width: 0
Storing dark spectrum: false
XAxis mode: Wavelengths
Number of Pixels in Spectrum: 1024
>>>>>Begin Spectral Data<<<<<
801.071	2929
801.214	2948
801.356	2887
801.499	2891
801.641	2883
801.783	2979
801.926	3097
802.068	2990
802.211	2998
802.353	3028
802.496	2975
802.638	2994
802.78	3047
802.923	3093
803.065	2994
803.208	2902
803.35	2922
803.492	2960
803.635	2929
803.777	2758
803.919	2864
804.061	3184
804.204	2971
804.346	2891
804.488	2823
804.63	2990
804.773	2876
804.915	2922
805.057	3051
805.199	2963
805.341	3043
805.483	3036
805.626	2982
805.768	2963
805.91	3112
806.052	3127
806.194	2990
806.336	3260
806.478	3028
806.62	3036
806.762	2979
806.904	3051
807.046	3161
807.188	2990
807.33	2914
807.472	2990
807.614	2925
807.756	3001
807.898	2952
808.04	2887
808.182	2994
808.324	2963
808.465	2864
808.607	2868
808.749	2826
808.891	2842
809.033	2990
809.174	2956
809.316	2861
809.458	2883
809.6	2781
809.741	2792
809.883	2781
810.025	2861
810.166	2792
810.308	2842
810.45	2849
810.591	2823
810.733	2766
810.875	2868
811.016	2800
811.158	2754
811.299	2792
811.441	2906
811.582	2929
811.724	2815
811.865	2845
812.007	2895
812.148	2899
812.29	2861
812.431	2895
812.573	2922
812.714	2963
812.855	3093
812.997	3051
813.138	3165
813.279	3028
813.421	2998
813.562	2948
813.703	2902
813.845	2914
813.986	2766
814.127	2712
814.268	2811
814.41	2838
814.551	2830
814.692	2872
814.833	2823
814.974	2914
815.115	2952
815.256	2792
815.397	2819
815.539	2838
815.68	2758
815.821	2811
815.962	2960
816.103	2914
816.244	2845
816.385	2838
816.526	2979
816.666	2880
816.807	2746
816.948	2872
817.089	2891
817.23	2857
817.371	2750
817.512	2788
817.653	2845
817.793	2883
817.934	2887
818.075	2979
818.216	2975
818.356	3017
818.497	2914
818.638	2807
818.778	2857
818.919	2792
819.06	2807
819.2	2880
819.341	2800
819.481	2785
819.622	2918
819.762	3104
819.903	3017
820.043	2906
820.184	2906
820.324	2910
820.465	3024
820.605	3028
820.746	3005
820.886	2906
821.026	3070
821.167	3188
821.307	3253
821.447	3283
821.588	3214
821.728	3188
821.868	3184
822.008	3062
822.149	3207
822.289	3230
822.429	3112
822.569	3074
822.709	3161
822.849	3066
822.99	3074
823.13	3154
823.27	3211
823.41	3112
823.55	3112
823.69	3146
823.83	3203
823.97	3081
824.11	3036
824.25	3017
824.389	3028
824.529	3138
824.669	3070
824.809	3214
824.949	3245
825.089	3203
825.228	3161
825.368	2960
825.508	2982
825.648	2960
825.787	3005
825.927	3017
826.067	2963
826.206	2960
826.346	3032
826.485	3043
826.625	3123
826.765	3237
826.904	3211
827.044	2963
827.183	2918
827.323	2906
827.462	2990
827.601	2941
827.741	2925
827.88	2933
828.02	2849
828.159	2967
828.298	3024
828.437	3131
828.577	3062
828.716	3233
828.855	3081
828.994	2944
829.134	2880
829.273	2880
829.412	2868
829.551	2834
829.69	2902
829.829	2975
829.968	3138
830.107	3005
830.246	3013
830.385	2895
830.524	2872
830.663	2838
830.802	2712
830.941	2636
831.08	2682
831.219	2766
831.357	2758
831.496	2925
831.635	2739
831.774	2621
831.913	2640
832.051	2541
832.19	2579
832.329	2705
832.467	2549
832.606	2488
832.744	2598
832.883	2560
833.022	2579
833.16	2632
833.299	2640
833.437	2716
833.576	2724
833.714	2701
833.852	2708
833.991	2769
834.129	2838
834.267	2861
834.406	2769
834.544	2849
834.682	2857
834.821	2876
834.959	3062
835.097	2899
835.235	3055
835.373	2990
835.511	2990
835.65	2979
835.788	2937
835.926	2861
836.064	2796
836.202	2849
836.34	3047
836.478	3146
836.615	3070
836.753	3108
836.891	3180
837.029	3150
837.167	3112
837.305	3089
837.443	3043
837.58	2956
837.718	3116
837.856	3051
837.993	3032
838.131	3081
838.269	3104
838.406	3085
838.544	3085
838.681	2933
838.819	2891
838.956	2834
839.094	2834
839.231	2906
839.369	3028
839.506	3363
839.643	3192
839.781	2975
839.918	2941
840.055	3028
840.193	3036
840.33	3081
840.467	3085
840.604	3127
840.742	3420
840.879	3047
841.016	3077
841.153	3089
841.29	3344
841.427	3302
841.564	3268
841.701	3313
841.838	3245
841.975	3192
842.112	3222
842.249	3039
842.385	2998
842.522	3260
842.659	3055
842.796	3039
842.933	3100
843.069	3058
843.206	3051
843.343	3173
843.479	3093
843.616	3104
843.752	2895
843.889	2842
844.025	3089
844.162	2895
844.298	3058
844.435	2918
844.571	2918
844.708	3066
844.844	3233
844.98	3218
845.117	3199
845.253	3051
845.389	3047
845.525	3104
845.661	3100
845.798	2994
845.934	3112
846.07	3047
846.206	3218
846.342	3302
846.478	3249
846.614	3074
846.75	3028
846.886	3020
847.022	3253
847.158	3081
847.294	3188
847.429	3256
847.565	3176
847.701	3485
847.837	3058
847.972	2982
848.108	3161
848.244	3127
848.379	2982
848.515	2944
848.65	2952
848.786	2994
848.921	3001
849.057	3104
849.192	3108
849.328	3081
849.463	3146
849.598	2986
849.734	3032
849.869	2990
850.004	2929
850.14	2948
850.275	2925
850.41	2811
850.545	2876
850.68	2948
850.815	2918
850.95	2982
851.085	3180
851.22	3097
851.355	3036
851.49	2998
851.625	2998
851.76	3013
851.895	2956
852.03	2918
852.165	2998
852.299	3100
852.434	3188
852.569	3116
852.703	3127
852.838	3264
852.973	3332
853.107	3325
853.242	3146
853.376	3093
853.511	2971
853.645	3032
853.78	3176
853.914	3112
854.048	3077
854.183	3074
854.317	3142
854.451	3287
854.585	3123
854.72	3093
854.854	3176
854.988	3051
855.122	3085
855.256	2960
855.39	3100
855.524	3203
855.658	3131
855.792	3146
855.926	3173
856.06	3184
856.194	3249
856.327	3146
856.461	3066
856.595	3085
856.729	3089
856.862	3188
856.996	3142
857.13	3188
857.263	3222
857.397	3268
857.53	3077
857.664	3199
857.797	3218
857.931	3245
858.064	3131
858.197	3176
858.331	3135
858.464	3100
858.597	2975
858.731	3138
858.864	3119
858.997	3097
859.13	3138
859.263	3165
859.396	3195
859.529	3047
859.662	3070
859.795	3043
859.928	3138
860.061	3233
860.194	3306
860.327	3127
860.46	3089
860.592	3233
860.725	3222
860.858	3256
860.99	3108
861.123	3081
861.256	3055
861.388	3100
861.521	3918
861.653	3013
861.786	2986
861.918	2967
862.05	3055
862.183	3081
862.315	3116
862.447	3176
862.58	3074
862.712	2956
862.844	2914
862.976	3024
863.108	2971
863.24	3416
863.372	2845
863.504	2952
863.636	2914
863.768	3051
863.9	2967
864.032	2891
864.164	2933
864.296	2986
864.428	3081
864.559	3058
864.691	3070
864.823	3077
864.954	3013
865.086	3028
865.217	2967
865.349	2952
865.48	2986
865.612	2998
865.743	3169
865.875	2971
866.006	2948
866.137	2963
866.269	2937
866.4	2918
866.531	2883
866.662	2872
866.793	2891
866.924	2925
867.055	2956
867.186	2902
867.317	2872
867.448	2823
867.579	2830
867.71	2861
867.841	2830
867.972	2883
868.103	2876
868.233	2880
868.364	2872
868.495	2914
868.625	3058
868.756	3157
868.886	2963
869.017	3043
869.147	3176
869.278	3161
869.408	3039
869.539	3058
869.669	3085
869.799	3039
869.929	3131
870.06	3104
870.19	3306
870.32	3298
870.45	3306
870.58	3386
870.71	3416
870.84	3454
870.97	3275
871.1	3260
871.23	3500
871.36	3462
871.489	3351
871.619	3374
871.749	3386
871.879	3405
872.008	3481
872.138	3378
872.267	3287
872.397	3142
872.526	3070
872.656	3020
872.785	3058
872.915	3230
873.044	3325
873.173	3146
873.303	3256
873.432	3233
873.561	3188
873.69	3123
873.819	3135
873.948	3230
874.077	3123
874.206	3017
874.335	3089
874.464	3211
874.593	3355
874.722	3253
874.851	3378
874.979	3329
875.108	3306
875.237	3195
875.365	3169
875.494	3157
875.623	3233
875.751	3104
875.88	3108
876.008	3203
876.136	3207
876.265	3340
876.393	3500
876.521	3454
876.65	3374
876.778	3310
876.906	3253
877.034	3218
877.162	3195
877.29	3150
877.418	3275
877.546	3218
877.674	3207
877.802	3207
877.93	3222
878.058	3173
878.185	3108
878.313	3184
878.441	3192
878.568	3104
878.696	3169
878.824	3233
878.951	3287
879.079	3409
879.206	3576
879.333	3405
879.461	3351
879.588	3405
879.715	3488
879.842	3595
879.97	3382
880.097	3176
880.224	3138
880.351	3146
880.478	3214
880.605	3203
880.732	3188
880.859	3485
880.986	3325
881.112	3287
881.239	3207
881.366	3089
881.493	3051
881.619	3032
881.746	3058
881.872	3070
881.999	3089
882.125	3131
882.252	3230
882.378	3260
882.505	3420
882.631	3298
882.757	3154
882.883	3233
883.01	3241
883.136	3180
883.262	3108
883.388	3108
883.514	3283
883.64	3363
883.766	3287
883.892	3180
884.018	3268
884.143	3412
884.269	3523
884.395	3176
884.52	3131
884.646	3157
884.772	3146
884.897	3104
885.023	3199
885.148	3313
885.274	3393
885.399	3378
885.524	3264
885.65	3253
885.775	3279
885.9	3291
886.025	3412
886.15	3332
886.275	3321
886.4	3256
886.525	3283
886.65	3256
886.775	3310
886.9	3466
887.025	3663
887.149	3424
887.274	3241
887.399	3173
887.523	3188
887.648	3157
887.773	3195
887.897	3325
888.021	3412
888.146	3317
888.27	3412
888.395	3526
888.519	3435
888.643	3420
888.767	3450
888.891	3294
889.015	3218
889.139	3249
889.263	3226
889.387	3397
889.511	3507
889.635	3454
889.759	3287
889.883	3310
890.006	3367
890.13	3488
890.254	3298
890.377	3317
890.501	3218
890.624	3214
890.748	3294
890.871	3165
890.995	3085
891.118	3062
891.241	3207
891.364	3226
891.488	3332
891.611	3188
891.734	3180
891.857	3275
891.98	3249
892.103	3363
892.226	3298
892.349	3203
892.471	3119
892.594	3207
892.717	3237
892.839	3272
892.962	3302
893.085	3363
893.207	3291
893.33	3150
893.452	3203
893.575	3367
893.697	3245
893.819	3435
893.941	3507
894.064	3462
894.186	3256
894.308	3275
894.43	3462
894.552	3523
894.674	3477
894.796	3260
894.918	3253
895.04	3294
895.161	3450
895.283	3397
895.405	3287
895.526	3378
895.648	3405
895.769	3397
895.891	3443
896.012	3462
896.134	3477
896.255	3428
896.376	3393
896.498	3329
896.619	3389
896.74	3374
896.861	3389
896.982	3622
897.103	3823
897.224	3599
897.345	3492
897.466	3397
897.587	3492
897.708	3656
897.828	3515
897.949	3416
898.07	3367
898.19	3439
898.311	3557
898.431	3439
898.552	3534
898.672	3561
898.792	3561
898.913	3523
899.033	3420
899.153	3260
899.273	3260
899.393	3272
899.513	3317
899.633	3302
899.753	3348
899.873	3325
899.993	3382
900.113	3336
900.232	3374
900.352	3340
900.472	3260
900.591	3203
900.711	3279
900.83	3222
900.95	3409
901.069	3496
901.189	3348
901.308	3211
901.427	3135
901.546	3222
901.665	3306
901.784	3325
901.904	3207
902.023	3142
902.141	3017
902.26	2975
902.379	3116
902.498	3085
902.617	3062
902.735	3233
902.854	3256
902.973	3142
903.091	3047
903.21	3070
903.328	3142
903.446	3119
903.565	3066
903.683	3230
903.801	3100
903.919	3241
904.038	3287
904.156	3135
904.274	3279
904.392	3222
904.51	3253
904.627	3317
904.745	3416
904.863	3485
904.981	3241
905.098	3169
905.216	3184
905.334	3302
905.451	3291
905.569	3302
905.686	3386
905.803	3431
905.921	3298
906.038	3397
906.155	3321
906.272	3245
906.389	3332
906.506	3207
906.623	3218
906.74	3230
906.857	3192
906.974	3237
907.091	3454
907.208	3557
907.324	3481
907.441	3370
907.557	3230
907.674	3230
907.79	3169
907.907	3272
908.023	3351
908.139	3363
908.256	3344
908.372	3367
908.488	3351
908.604	3264
908.72	3237
908.836	3287
908.952	3260
909.068	3336
909.184	3466
909.3	3401
909.415	3504
909.531	3431
909.647	3310
909.762	3283
909.878	3214
909.993	3374
910.108	3336
910.224	3321
910.339	3401
910.454	3348
910.57	3272
910.685	3249
910.8	3637
910.915	3526
911.03	3428
911.145	3275
911.259	3256
911.374	3302
911.489	3199
911.604	3275
911.718	3081
911.833	3199
911.947	3032
912.062	3005
912.176	3169
912.291	3199
912.405	3199
912.519	3443
912.633	3405
912.748	3348
912.862	3268
912.976	3176
913.09	3085
913.204	3127
913.318	3233
913.431	3302
913.545	3367
913.659	3424
913.772	3321
913.886	3237
914	3222
914.113	3359
914.226	3409
914.34	3409
914.453	3218
914.566	3431
914.68	3272
914.793	3279
914.906	3127
915.019	3108
915.132	3051
915.245	3184
915.358	3146
915.47	3241
915.583	3233
915.696	3260
915.809	3370
915.921	3431
916.034	3245
916.146	3226
916.259	3192
916.371	3336
916.483	3378
916.595	3245
916.708	3382
916.82	3336
916.932	3348
917.044	3332
917.156	3340
917.268	3237
917.38	3321
917.491	3256
917.603	3378
917.715	3424
917.826	3443
917.938	3405
918.049	3287
918.161	3481
918.272	3591
918.384	3549
918.495	3473
918.606	3325
918.717	3256
918.828	3397
918.939	3393
919.05	3268
919.161	3359
919.272	3135
919.383	3294
919.494	3519
919.604	3679
919.715	3458
919.826	3378
919.936	3466
920.047	3595
920.157	3542
920.267	3736
920.378	3587
920.488	3538
920.598	3804
920.708	3922
920.818	3827
920.928	3800
921.038	4021
921.148	3949
921.258	3652
921.368	3618
921.477	3549
921.587	3511
921.697	3443
921.806	3618
921.916	3549
922.025	3389
922.134	3393
922.244	3294
922.353	3401
922.462	3291
922.571	3222
922.68	3127
922.789	3058
922.898	3112
923.007	3089
923.116	3245
923.224	3165
923.333	3195
923.442	3097
923.55	3119
923.659	3154
923.767	3230
923.876	3089
923.984	3237
924.092	3089
924.201	3207
924.309	3233
924.417	3287
924.525	3211
924.633	3253
924.741	4192
924.849	3047
924.956	3298
925.064	3089
925.172	3036
925.279	3062
925.387	3218
925.494	3207
925.602	3386
925.709	3279
925.816	3150
925.924	3302
926.031	3409
926.138	3283
926.245	3370
926.352	3253
926.459	3405
926.566	3500
926.673	3344
926.779	3275
926.886	3237
926.993	3161
927.099	3097
927.206	3081
927.312	3097
927.419	3245
927.525	3199
927.631	3291
927.737	3150
927.843	3100
927.95	3017
928.056	3104
928.162	3169
928.267	3268
928.373	3816
928.479	3340
928.585	3081
928.69	3211
928.796	3272
928.901	3135
929.007	3047
929.112	3165
929.218	3180
929.323	3127
929.428	3135
929.533	3317
929.638	3138
929.743	3142
929.848	3272
929.953	3157
930.058	3176
930.163	2990
930.267	3020
930.372	3112
930.477	3032
930.581	3306
930.685	3169
930.79	3028
930.894	3142
930.998	3089
931.103	3272
931.207	2963
931.311	2929
931.415	2895
931.519	2766
931.623	2800
