Data from test_V78500241_1937.txt Node
Date: Fri Mar 25 16:28:37 CST 2022
User: usil
Spectrometer: V785-0024
Trigger mode: 0
Integration Time (sec): 4.000000E-1
Scans to average: 1
Nonlinearity correction enabled: false
Boxcar width: 0
Storing dark spectrum: false
XAxis mode: Wavelengths
Number of Pixels in Spectrum: 1024
>>>>>Begin Spectral Data<<<<<
801.071	2925
801.214	2922
801.356	2853
801.499	2887
801.641	2872
801.783	2902
801.926	3093
802.068	2967
802.211	2967
802.353	3005
802.496	3001
802.638	2990
802.78	3051
802.923	3066
803.065	2979
803.208	2914
803.35	2933
803.492	2887
803.635	2929
803.777	2739
803.919	2823
804.061	3226
804.204	2994
804.346	2906
804.488	2830
804.63	2982
804.773	2902
804.915	2891
805.057	3116
805.199	2922
805.341	2982
805.483	3024
805.626	3001
805.768	2941
805.91	3081
806.052	3074
806.194	3005
806.336	3192
806.478	3020
806.62	2933
806.762	2944
806.904	3062
807.046	3222
807.188	3013
807.33	2891
807.472	2986
807.614	2876
807.756	2963
807.898	2872
808.04	2876
808.182	2944
808.324	2948
808.465	2895
808.607	2883
808.749	2800
808.891	2830
809.033	2941
809.174	2963
809.316	2872
809.458	2887
809.6	2785
809.741	2781
809.883	2754
810.025	2815
810.166	2845
810.308	2868
810.45	2857
810.591	2746
810.733	2788
810.875	2823
811.016	2769
811.158	2743
811.299	2785
811.441	2918
811.582	2880
811.724	2823
811.865	2845
812.007	2925
812.148	2883
812.29	2838
812.431	2899
812.573	2887
812.714	2960
812.855	3081
812.997	3093
813.138	3131
813.279	3043
813.421	2971
813.562	2967
813.703	2857
813.845	2883
813.986	2766
814.127	2701
814.268	2811
814.41	2849
814.551	2838
814.692	2857
814.833	2800
814.974	2895
815.115	2952
815.256	2826
815.397	2788
815.539	2883
815.68	2769
815.821	2796
815.962	2941
816.103	2910
816.244	2880
816.385	2853
816.526	2941
816.666	2925
816.807	2735
816.948	2906
817.089	2861
817.23	2815
817.371	2785
817.512	2796
817.653	2887
817.793	2815
817.934	2895
818.075	2941
818.216	2994
818.356	2990
818.497	2887
818.638	2792
818.778	2785
818.919	2792
819.06	2746
819.2	2868
819.341	2792
819.481	2815
819.622	2895
819.762	3100
819.903	3047
820.043	2914
820.184	2922
820.324	2880
820.465	3036
820.605	3020
820.746	3055
820.886	2960
821.026	3108
821.167	3173
821.307	3264
821.447	3275
821.588	3211
821.728	3188
821.868	3184
822.008	3077
822.149	3195
822.289	3211
822.429	3062
822.569	3104
822.709	3123
822.849	2990
822.99	3085
823.13	3138
823.27	3207
823.41	3074
823.55	3150
823.69	3146
823.83	3180
823.97	3100
824.11	2994
824.25	2982
824.389	3036
824.529	3127
824.669	3039
824.809	3169
824.949	3275
825.089	3233
825.228	3146
825.368	2994
825.508	2975
825.648	2956
825.787	3032
825.927	2979
826.067	2952
826.206	2956
826.346	3032
826.485	3051
826.625	3131
826.765	3249
826.904	3230
827.044	2982
827.183	2971
827.323	2853
827.462	2963
827.601	2922
827.741	2906
827.88	2933
828.02	2838
828.159	2929
828.298	3032
828.437	3108
828.577	3009
828.716	3249
828.855	3058
828.994	2948
829.134	2864
829.273	2899
829.412	2883
829.551	2872
829.69	2887
829.829	2975
829.968	3112
830.107	2998
830.246	2998
830.385	2918
830.524	2868
830.663	2823
830.802	2727
830.941	2632
831.08	2640
831.219	2739
831.357	2746
831.496	2929
831.635	2678
831.774	2644
831.913	2648
832.051	2556
832.19	2560
832.329	2697
832.467	2526
832.606	2480
832.744	2564
832.883	2541
833.022	2568
833.16	2629
833.299	2701
833.437	2640
833.576	2697
833.714	2712
833.852	2731
833.991	2754
834.129	2842
834.267	2815
834.406	2769
834.544	2861
834.682	2872
834.821	2845
834.959	3070
835.097	2899
835.235	3058
835.373	2982
835.511	3043
835.65	2956
835.788	2960
835.926	2842
836.064	2804
836.202	2811
836.34	3058
836.478	3138
836.615	3058
836.753	3104
836.891	3173
837.029	3154
837.167	3097
837.305	3085
837.443	3028
837.58	2956
837.718	3138
837.856	3032
837.993	3036
838.131	3108
838.269	3112
838.406	3055
838.544	3058
838.681	2933
838.819	2918
838.956	2792
839.094	2853
839.231	2899
839.369	3020
839.506	3401
839.643	3226
839.781	3013
839.918	2971
840.055	3020
840.193	3028
840.33	3058
840.467	3066
840.604	3138
840.742	3386
840.879	3058
841.016	3058
841.153	3116
841.29	3329
841.427	3325
841.564	3283
841.701	3302
841.838	3192
841.975	3142
842.112	3195
842.249	3074
842.385	3005
842.522	3245
842.659	3100
842.796	3070
842.933	3100
843.069	3062
843.206	3020
843.343	3157
843.479	3097
843.616	3108
843.752	2876
843.889	2868
844.025	3028
844.162	2883
844.298	3070
844.435	2922
844.571	2941
844.708	3051
844.844	3203
844.98	3275
845.117	3188
845.253	3013
845.389	2982
845.525	3081
845.661	3051
845.798	2990
845.934	3131
846.07	3024
846.206	3188
846.342	3332
846.478	3207
846.614	3104
846.75	3089
846.886	3024
847.022	3245
847.158	3123
847.294	3195
847.429	3230
847.565	3180
847.701	3477
847.837	3013
847.972	2979
848.108	3116
848.244	3146
848.379	2971
848.515	2899
848.65	2925
848.786	2960
848.921	2986
849.057	3089
849.192	3135
849.328	3043
849.463	3097
849.598	3062
849.734	3066
849.869	2960
850.004	2899
850.14	2944
850.275	2929
850.41	2857
850.545	2918
850.68	2952
850.815	2948
850.95	2948
851.085	3176
851.22	3085
851.355	3066
851.49	2963
851.625	3001
851.76	2998
851.895	2902
852.03	2944
852.165	3043
852.299	3089
852.434	3157
852.569	3138
852.703	3173
852.838	3272
852.973	3382
853.107	3279
853.242	3154
853.376	3074
853.511	2941
853.645	3066
853.78	3237
853.914	3127
854.048	3116
854.183	3097
854.317	3097
854.451	3272
854.585	3116
854.72	3077
854.854	3218
854.988	3055
855.122	3036
855.256	3001
855.39	3127
855.524	3237
855.658	3192
855.792	3150
855.926	3203
856.06	3226
856.194	3249
856.327	3116
856.461	3070
856.595	3066
856.729	3089
856.862	3188
856.996	3146
857.13	3192
857.263	3207
857.397	3260
857.53	3138
857.664	3192
857.797	3245
857.931	3291
858.064	3180
858.197	3180
858.331	3138
858.464	3066
858.597	2990
858.731	3104
858.864	3135
858.997	3077
859.13	3150
859.263	3165
859.396	3218
859.529	3097
859.662	3070
859.795	3009
859.928	3127
860.061	3264
860.194	3260
860.327	3131
860.46	3093
860.592	3241
860.725	3237
860.858	3230
860.99	3123
861.123	3051
861.256	3070
861.388	3161
861.521	3854
861.653	3032
861.786	2948
861.918	2979
862.05	3047
862.183	3100
862.315	3123
862.447	3214
862.58	3093
862.712	2956
862.844	2868
862.976	3020
863.108	3013
863.24	3298
863.372	2845
863.504	2971
863.636	2952
863.768	3028
863.9	2986
864.032	2880
864.164	2941
864.296	3017
864.428	3062
864.559	3066
864.691	3017
864.823	3055
864.954	2998
865.086	3036
865.217	2967
865.349	2883
865.48	3005
865.612	3051
865.743	3157
865.875	2994
866.006	2948
866.137	2937
866.269	2933
866.4	2941
866.531	2922
866.662	2864
866.793	2857
866.924	2899
867.055	2956
867.186	2922
867.317	2861
867.448	2830
867.579	2842
867.71	2868
867.841	2788
867.972	2906
868.103	2864
868.233	2895
868.364	2876
868.495	2922
868.625	3077
868.756	3135
868.886	2960
869.017	3024
869.147	3169
869.278	3154
869.408	3024
869.539	2998
869.669	3100
869.799	3036
869.929	3119
870.06	3085
870.19	3275
870.32	3287
870.45	3291
870.58	3420
870.71	3424
870.84	3473
870.97	3325
871.1	3230
871.23	3466
871.36	3450
871.489	3321
871.619	3405
871.749	3439
871.879	3454
872.008	3481
872.138	3344
872.267	3291
872.397	3100
872.526	3055
872.656	3028
872.785	3089
872.915	3275
873.044	3332
873.173	3203
873.303	3241
873.432	3222
873.561	3222
873.69	3100
873.819	3131
873.948	3165
874.077	3142
874.206	3062
874.335	3081
874.464	3226
874.593	3344
874.722	3249
874.851	3401
874.979	3317
875.108	3336
875.237	3218
875.365	3173
875.494	3173
875.623	3222
875.751	3051
875.88	3108
876.008	3173
876.136	3237
876.265	3348
876.393	3504
876.521	3428
876.65	3367
876.778	3325
876.906	3268
877.034	3211
877.162	3195
877.29	3173
877.418	3245
877.546	3230
877.674	3233
877.802	3195
877.93	3192
878.058	3135
878.185	3093
878.313	3188
878.441	3199
878.568	3081
878.696	3150
878.824	3249
878.951	3287
879.079	3393
879.206	3603
879.333	3447
879.461	3306
879.588	3363
879.715	3473
879.842	3568
879.97	3340
880.097	3169
880.224	3119
880.351	3233
880.478	3184
880.605	3195
880.732	3176
880.859	3481
880.986	3348
881.112	3370
881.239	3184
881.366	3081
881.493	3039
881.619	2998
881.746	3058
881.872	3070
881.999	3089
882.125	3146
882.252	3260
882.378	3279
882.505	3412
882.631	3283
882.757	3135
882.883	3211
883.01	3226
883.136	3146
883.262	3081
883.388	3089
883.514	3298
883.64	3351
883.766	3294
883.892	3173
884.018	3218
884.143	3389
884.269	3530
884.395	3173
884.52	3154
884.646	3142
884.772	3127
884.897	3100
885.023	3230
885.148	3298
885.274	3416
885.399	3336
885.524	3291
885.65	3253
885.775	3306
885.9	3226
886.025	3416
886.15	3374
886.275	3310
886.4	3195
886.525	3310
886.65	3253
886.775	3283
886.9	3454
887.025	3660
887.149	3393
887.274	3207
887.399	3161
887.523	3165
887.648	3180
887.773	3184
887.897	3367
888.021	3393
888.146	3272
888.27	3409
888.395	3549
888.519	3389
888.643	3469
888.767	3447
888.891	3279
889.015	3233
889.139	3256
889.263	3207
889.387	3389
889.511	3488
889.635	3420
889.759	3272
889.883	3291
890.006	3367
890.13	3485
890.254	3283
890.377	3294
890.501	3199
890.624	3195
890.748	3264
890.871	3176
890.995	3108
891.118	3085
891.241	3169
891.364	3237
891.488	3268
891.611	3142
891.734	3211
891.857	3249
891.98	3241
892.103	3325
892.226	3272
892.349	3214
892.471	3138
892.594	3199
892.717	3279
892.839	3283
892.962	3253
893.085	3313
893.207	3279
893.33	3138
893.452	3184
893.575	3359
893.697	3214
893.819	3428
893.941	3492
894.064	3450
894.186	3272
894.308	3218
894.43	3447
894.552	3538
894.674	3481
894.796	3237
894.918	3313
895.04	3310
895.161	3450
895.283	3355
895.405	3275
895.526	3355
895.648	3424
895.769	3439
895.891	3431
896.012	3481
896.134	3439
896.255	3424
896.376	3393
896.498	3374
896.619	3435
896.74	3344
896.861	3378
896.982	3690
897.103	3846
897.224	3553
897.345	3500
897.466	3412
897.587	3466
897.708	3625
897.828	3584
897.949	3439
898.07	3306
898.19	3412
898.311	3587
898.431	3450
898.552	3473
898.672	3587
898.792	3572
898.913	3511
899.033	3389
899.153	3294
899.273	3195
899.393	3222
899.513	3294
899.633	3321
899.753	3355
899.873	3287
899.993	3348
900.113	3291
900.232	3412
900.352	3291
900.472	3298
900.591	3192
900.711	3283
900.83	3253
900.95	3420
901.069	3469
901.189	3332
901.308	3138
901.427	3089
901.546	3199
901.665	3298
901.784	3321
901.904	3192
902.023	3112
902.141	3005
902.26	2967
902.379	3142
902.498	3047
902.617	3020
902.735	3180
902.854	3245
902.973	3176
903.091	3017
903.21	3036
903.328	3131
903.446	3119
903.565	3077
903.683	3203
903.801	3085
903.919	3214
904.038	3253
904.156	3157
904.274	3268
904.392	3199
904.51	3245
904.627	3317
904.745	3412
904.863	3469
904.981	3245
905.098	3142
905.216	3230
905.334	3287
905.451	3294
905.569	3287
905.686	3386
905.803	3401
905.921	3298
906.038	3424
906.155	3344
906.272	3283
906.389	3317
906.506	3222
906.623	3222
906.74	3256
906.857	3180
906.974	3214
907.091	3424
907.208	3584
907.324	3424
907.441	3332
907.557	3233
907.674	3272
907.79	3230
907.907	3275
908.023	3386
908.139	3355
908.256	3332
908.372	3370
908.488	3344
908.604	3268
908.72	3211
908.836	3272
908.952	3298
909.068	3393
909.184	3523
909.3	3367
909.415	3485
909.531	3500
909.647	3294
909.762	3302
909.878	3283
909.993	3363
910.108	3382
910.224	3367
910.339	3412
910.454	3351
910.57	3291
910.685	3245
910.8	3603
910.915	3587
911.03	3462
911.145	3313
911.259	3298
911.374	3359
911.489	3260
911.604	3268
911.718	3131
911.833	3195
911.947	3066
912.062	3047
912.176	3195
912.291	3180
912.405	3230
912.519	3420
912.633	3481
912.748	3363
912.862	3287
912.976	3226
913.09	3112
913.204	3188
913.318	3249
913.431	3378
913.545	3393
913.659	3447
913.772	3367
913.886	3272
914	3241
914.113	3431
914.226	3462
914.34	3389
914.453	3264
914.566	3439
914.68	3332
914.793	3321
914.906	3222
915.019	3138
915.132	3127
915.245	3226
915.358	3245
915.47	3294
915.583	3317
915.696	3344
915.809	3428
915.921	3450
916.034	3294
916.146	3294
916.259	3249
916.371	3439
916.483	3412
916.595	3340
916.708	3363
916.82	3378
916.932	3374
917.044	3355
917.156	3355
917.268	3260
917.38	3332
917.491	3340
917.603	3420
917.715	3519
917.826	3496
917.938	3416
918.049	3310
918.161	3481
918.272	3603
918.384	3633
918.495	3572
918.606	3351
918.717	3302
918.828	3405
918.939	3431
919.05	3359
919.161	3370
919.272	3203
919.383	3287
919.494	3488
919.604	3720
919.715	3500
919.826	3447
919.936	3473
920.047	3614
920.157	3553
920.267	3816
920.378	3629
920.488	3610
920.598	3797
920.708	4021
920.818	3819
920.928	3873
921.038	4059
921.148	4036
921.258	3755
921.368	3644
921.477	3641
921.587	3553
921.697	3507
921.806	3667
921.916	3538
922.025	3393
922.134	3367
922.244	3359
922.353	3450
922.462	3306
922.571	3291
922.68	3150
922.789	3074
922.898	3192
923.007	3150
923.116	3253
923.224	3222
923.333	3211
923.442	3142
923.55	3146
923.659	3211
923.767	3256
923.876	3131
923.984	3325
924.092	3123
924.201	3283
924.309	3230
924.417	3294
924.525	3233
924.633	3245
924.741	4204
924.849	3074
924.956	3313
925.064	3135
925.172	3085
925.279	3123
925.387	3214
925.494	3230
925.602	3386
925.709	3340
925.816	3214
925.924	3287
926.031	3409
926.138	3386
926.245	3439
926.352	3268
926.459	3409
926.566	3523
926.673	3321
926.779	3294
926.886	3279
926.993	3184
927.099	3146
927.206	3138
927.312	3154
927.419	3283
927.525	3237
927.631	3283
927.737	3165
927.843	3161
927.95	3024
928.056	3169
928.162	3180
928.267	3291
928.373	3903
928.479	3367
928.585	3077
928.69	3241
928.796	3310
928.901	3173
929.007	3055
929.112	3222
929.218	3249
929.323	3169
929.428	3154
929.533	3386
929.638	3142
929.743	3192
929.848	3336
929.953	3222
930.058	3211
930.163	3036
930.267	3074
930.372	3260
930.477	3070
930.581	3332
930.685	3207
930.79	3100
930.894	3157
930.998	3119
931.103	3313
931.207	3013
931.311	2941
931.415	2925
931.519	2842
931.623	2849
