Data from test_V78500241_286.txt Node
Date: Fri Mar 25 16:17:11 CST 2022
User: usil
Spectrometer: V785-0024
Trigger mode: 0
Integration Time (sec): 4.000000E-1
Scans to average: 1
Nonlinearity correction enabled: false
Boxcar width: 0
Storing dark spectrum: false
XAxis mode: Wavelengths
Number of Pixels in Spectrum: 1024
>>>>>Begin Spectral Data<<<<<
801.071	2925
801.214	2967
801.356	2880
801.499	2967
801.641	2887
801.783	2982
801.926	3089
802.068	3017
802.211	3039
802.353	3077
802.496	3009
802.638	3062
802.78	3104
802.923	3097
803.065	3036
803.208	2929
803.35	2929
803.492	2944
803.635	2941
803.777	2781
803.919	2902
804.061	3199
804.204	2979
804.346	2971
804.488	2853
804.63	2979
804.773	2876
804.915	2960
805.057	3093
805.199	2925
805.341	2994
805.483	3051
805.626	3028
805.768	2998
805.91	3135
806.052	3119
806.194	3055
806.336	3230
806.478	3028
806.62	2933
806.762	3028
806.904	3081
807.046	3195
807.188	2998
807.33	2956
807.472	3017
807.614	2929
807.756	2986
807.898	2933
808.04	2902
808.182	3005
808.324	2963
808.465	2910
808.607	2883
808.749	2830
808.891	2845
809.033	3028
809.174	3051
809.316	2902
809.458	2922
809.6	2746
809.741	2777
809.883	2830
810.025	2876
810.166	2861
810.308	2876
810.45	2864
810.591	2777
810.733	2804
810.875	2861
811.016	2819
811.158	2796
811.299	2826
811.441	2933
811.582	2948
811.724	2857
811.865	2838
812.007	2925
812.148	2933
812.29	2849
812.431	2933
812.573	2979
812.714	3013
812.855	3047
812.997	3093
813.138	3112
813.279	3028
813.421	2994
813.562	2960
813.703	2891
813.845	2902
813.986	2785
814.127	2746
814.268	2845
814.41	2857
814.551	2857
814.692	2944
814.833	2853
814.974	2937
815.115	2998
815.256	2864
815.397	2868
815.539	2899
815.68	2796
815.821	2796
815.962	2979
816.103	2948
816.244	2891
816.385	2899
816.526	2979
816.666	2880
816.807	2781
816.948	2902
817.089	2979
817.23	2864
817.371	2796
817.512	2823
817.653	2868
817.793	2857
817.934	2876
818.075	2956
818.216	3020
818.356	3028
818.497	2887
818.638	2804
818.778	2800
818.919	2819
819.06	2796
819.2	2876
819.341	2815
819.481	2819
819.622	2944
819.762	3081
819.903	3036
820.043	2948
820.184	2925
820.324	2914
820.465	3020
820.605	3020
820.746	3009
820.886	2975
821.026	3138
821.167	3161
821.307	3279
821.447	3275
821.588	3230
821.728	3249
821.868	3233
822.008	3074
822.149	3188
822.289	3253
822.429	3119
822.569	3104
822.709	3169
822.849	3032
822.99	3077
823.13	3180
823.27	3195
823.41	3161
823.55	3138
823.69	3150
823.83	3207
823.97	3097
824.11	3047
824.25	3001
824.389	3123
824.529	3112
824.669	3108
824.809	3188
824.949	3272
825.089	3272
825.228	3180
825.368	3013
825.508	2967
825.648	3005
825.787	3024
825.927	3028
826.067	2979
826.206	2944
826.346	3062
826.485	3077
826.625	3150
826.765	3294
826.904	3207
827.044	2998
827.183	2952
827.323	2857
827.462	2998
827.601	2963
827.741	2967
827.88	2990
828.02	2887
828.159	2971
828.298	3089
828.437	3074
828.577	3051
828.716	3275
828.855	3058
828.994	2914
829.134	2925
829.273	2944
829.412	2853
829.551	2899
829.69	2880
829.829	2990
829.968	3142
830.107	3028
830.246	3055
830.385	2929
830.524	2910
830.663	2826
830.802	2724
830.941	2670
831.08	2667
831.219	2796
831.357	2762
831.496	2925
831.635	2731
831.774	2644
831.913	2712
832.051	2545
832.19	2594
832.329	2693
832.467	2545
832.606	2507
832.744	2579
832.883	2594
833.022	2610
833.16	2651
833.299	2701
833.437	2708
833.576	2705
833.714	2735
833.852	2731
833.991	2777
834.129	2830
834.267	2853
834.406	2811
834.544	2868
834.682	2906
834.821	2899
834.959	3085
835.097	2929
835.235	3077
835.373	3028
835.511	3013
835.65	2979
835.788	2963
835.926	2834
836.064	2796
836.202	2868
836.34	3119
836.478	3218
836.615	3070
836.753	3085
836.891	3161
837.029	3176
837.167	3142
837.305	3089
837.443	3066
837.58	3009
837.718	3161
837.856	3070
837.993	3039
838.131	3154
838.269	3108
838.406	3108
838.544	3097
838.681	2948
838.819	2960
838.956	2800
839.094	2842
839.231	2948
839.369	3024
839.506	3409
839.643	3211
839.781	3036
839.918	2956
840.055	3055
840.193	3051
840.33	3066
840.467	3081
840.604	3169
840.742	3439
840.879	3043
841.016	3028
841.153	3131
841.29	3336
841.427	3348
841.564	3298
841.701	3283
841.838	3218
841.975	3184
842.112	3218
842.249	3093
842.385	3047
842.522	3268
842.659	3104
842.796	3081
842.933	3097
843.069	3066
843.206	3062
843.343	3192
843.479	3100
843.616	3161
843.752	2910
843.889	2842
844.025	3081
844.162	2899
844.298	3081
844.435	2986
844.571	2937
844.708	3093
844.844	3199
844.98	3249
845.117	3199
845.253	3051
845.389	3005
845.525	3097
845.661	3074
845.798	3009
845.934	3123
846.07	3028
846.206	3233
846.342	3340
846.478	3245
846.614	3123
846.75	3058
846.886	3001
847.022	3245
847.158	3142
847.294	3218
847.429	3256
847.565	3207
847.701	3462
847.837	3051
847.972	3028
848.108	3142
848.244	3157
848.379	3013
848.515	2963
848.65	2944
848.786	2929
848.921	2990
849.057	3070
849.192	3184
849.328	3062
849.463	3108
849.598	3043
849.734	3100
849.869	2948
850.004	2944
850.14	3001
850.275	2906
850.41	2830
850.545	2902
850.68	2982
850.815	2960
850.95	2979
851.085	3222
851.22	3127
851.355	3005
851.49	3028
851.625	3036
851.76	3070
851.895	2975
852.03	2933
852.165	3032
852.299	3093
852.434	3176
852.569	3176
852.703	3188
852.838	3268
852.973	3344
853.107	3359
853.242	3142
853.376	3100
853.511	2956
853.645	3058
853.78	3218
853.914	3100
854.048	3150
854.183	3116
854.317	3142
854.451	3317
854.585	3123
854.72	3104
854.854	3199
854.988	3070
855.122	3097
855.256	2990
855.39	3108
855.524	3230
855.658	3169
855.792	3176
855.926	3150
856.06	3233
856.194	3275
856.327	3142
856.461	3070
856.595	3097
856.729	3097
856.862	3237
856.996	3161
857.13	3184
857.263	3230
857.397	3287
857.53	3100
857.664	3188
857.797	3268
857.931	3260
858.064	3184
858.197	3230
858.331	3135
858.464	3150
858.597	2982
858.731	3104
858.864	3127
858.997	3077
859.13	3135
859.263	3207
859.396	3211
859.529	3116
859.662	3081
859.795	3036
859.928	3165
860.061	3317
860.194	3310
860.327	3161
860.46	3043
860.592	3253
860.725	3260
860.858	3291
860.99	3085
861.123	3066
861.256	3036
861.388	3154
861.521	3873
861.653	3020
861.786	2982
861.918	2998
862.05	3066
862.183	3135
862.315	3161
862.447	3184
862.58	3104
862.712	2944
862.844	2876
862.976	3017
863.108	3009
863.24	3317
863.372	2902
863.504	2948
863.636	2925
863.768	3005
863.9	3005
864.032	2895
864.164	2952
864.296	3047
864.428	3108
864.559	3135
864.691	3070
864.823	3058
864.954	3024
865.086	3058
865.217	2982
865.349	2941
865.48	2994
865.612	3032
865.743	3150
865.875	2979
866.006	2929
866.137	3009
866.269	2952
866.4	2948
866.531	2883
866.662	2914
866.793	2922
866.924	2876
867.055	2982
867.186	2933
867.317	2899
867.448	2857
867.579	2864
867.71	2861
867.841	2815
867.972	2952
868.103	2895
868.233	2883
868.364	2895
868.495	2891
868.625	3074
868.756	3157
868.886	3001
869.017	3039
869.147	3214
869.278	3165
869.408	3070
869.539	3036
869.669	3119
869.799	3028
869.929	3123
870.06	3100
870.19	3306
870.32	3340
870.45	3298
870.58	3389
870.71	3428
870.84	3450
870.97	3306
871.1	3260
871.23	3496
871.36	3473
871.489	3351
871.619	3367
871.749	3450
871.879	3431
872.008	3450
872.138	3340
872.267	3279
872.397	3165
872.526	3116
872.656	2994
872.785	3146
872.915	3233
873.044	3321
873.173	3199
873.303	3253
873.432	3237
873.561	3226
873.69	3169
873.819	3127
873.948	3207
874.077	3058
874.206	3047
874.335	3077
874.464	3226
874.593	3332
874.722	3237
874.851	3397
874.979	3336
875.108	3317
875.237	3188
875.365	3169
875.494	3150
875.623	3260
875.751	3070
875.88	3112
876.008	3237
876.136	3226
876.265	3420
876.393	3549
876.521	3435
876.65	3382
876.778	3321
876.906	3275
877.034	3222
877.162	3241
877.29	3188
877.418	3260
877.546	3256
877.674	3264
877.802	3264
877.93	3264
878.058	3127
878.185	3138
878.313	3233
878.441	3253
878.568	3066
878.696	3173
878.824	3260
878.951	3291
879.079	3447
879.206	3633
879.333	3412
879.461	3325
879.588	3359
879.715	3485
879.842	3561
879.97	3389
880.097	3154
880.224	3146
880.351	3173
880.478	3230
880.605	3199
880.732	3230
880.859	3504
880.986	3294
881.112	3344
881.239	3195
881.366	3104
881.493	3036
881.619	3051
881.746	3100
881.872	3097
881.999	3081
882.125	3157
882.252	3275
882.378	3256
882.505	3431
882.631	3294
882.757	3150
882.883	3233
883.01	3207
883.136	3157
883.262	3119
883.388	3097
883.514	3313
883.64	3355
883.766	3306
883.892	3207
884.018	3218
884.143	3393
884.269	3526
884.395	3218
884.52	3157
884.646	3184
884.772	3138
884.897	3093
885.023	3218
885.148	3355
885.274	3416
885.399	3393
885.524	3253
885.65	3268
885.775	3351
885.9	3253
886.025	3428
886.15	3340
886.275	3302
886.4	3218
886.525	3302
886.65	3260
886.775	3253
886.9	3466
887.025	3629
887.149	3397
887.274	3256
887.399	3165
887.523	3176
887.648	3199
887.773	3188
887.897	3367
888.021	3405
888.146	3302
888.27	3424
888.395	3507
888.519	3443
888.643	3439
888.767	3462
888.891	3306
889.015	3233
889.139	3268
889.263	3241
889.387	3397
889.511	3515
889.635	3473
889.759	3268
889.883	3336
890.006	3374
890.13	3473
890.254	3264
890.377	3329
890.501	3222
890.624	3184
890.748	3321
890.871	3203
890.995	3108
891.118	3043
891.241	3173
891.364	3256
891.488	3310
891.611	3199
891.734	3203
891.857	3294
891.98	3230
892.103	3351
892.226	3275
892.349	3180
892.471	3104
892.594	3275
892.717	3287
892.839	3241
892.962	3287
893.085	3355
893.207	3302
893.33	3161
893.452	3203
893.575	3329
893.697	3245
893.819	3485
893.941	3496
894.064	3431
894.186	3253
894.308	3253
894.43	3454
894.552	3511
894.674	3496
894.796	3275
894.918	3306
895.04	3294
895.161	3420
895.283	3416
895.405	3287
895.526	3401
895.648	3428
895.769	3420
895.891	3454
896.012	3447
896.134	3481
896.255	3382
896.376	3374
896.498	3351
896.619	3462
896.74	3386
896.861	3401
896.982	3663
897.103	3846
897.224	3591
897.345	3447
897.466	3420
897.587	3534
897.708	3603
897.828	3580
897.949	3462
898.07	3340
898.19	3420
898.311	3587
898.431	3469
898.552	3534
898.672	3580
898.792	3576
898.913	3523
899.033	3428
899.153	3332
899.273	3218
899.393	3279
899.513	3310
899.633	3329
899.753	3291
899.873	3310
899.993	3401
900.113	3325
900.232	3416
900.352	3359
900.472	3294
900.591	3180
900.711	3332
900.83	3287
900.95	3401
901.069	3504
901.189	3325
901.308	3188
901.427	3146
901.546	3211
901.665	3291
901.784	3313
901.904	3199
902.023	3184
902.141	2998
902.26	2982
902.379	3154
902.498	3085
902.617	3055
902.735	3211
902.854	3218
902.973	3237
903.091	3024
903.21	3051
903.328	3131
903.446	3119
903.565	3123
903.683	3169
903.801	3131
903.919	3233
904.038	3321
904.156	3173
904.274	3302
904.392	3222
904.51	3298
904.627	3344
904.745	3447
904.863	3504
904.981	3279
905.098	3211
905.216	3237
905.334	3298
905.451	3325
905.569	3298
905.686	3424
905.803	3428
905.921	3317
906.038	3424
906.155	3374
906.272	3264
906.389	3336
906.506	3241
906.623	3237
906.74	3264
906.857	3192
906.974	3260
907.091	3431
907.208	3595
907.324	3488
907.441	3370
907.557	3245
907.674	3214
907.79	3199
907.907	3310
908.023	3412
908.139	3374
908.256	3363
908.372	3363
908.488	3348
908.604	3237
908.72	3218
908.836	3298
908.952	3306
909.068	3313
909.184	3477
909.3	3382
909.415	3504
909.531	3466
909.647	3253
909.762	3283
909.878	3291
909.993	3359
910.108	3325
910.224	3340
910.339	3412
910.454	3363
910.57	3283
910.685	3275
910.8	3603
910.915	3526
911.03	3435
911.145	3279
911.259	3241
911.374	3306
911.489	3241
911.604	3237
911.718	3089
911.833	3138
911.947	3032
912.062	2979
912.176	3169
912.291	3176
912.405	3230
912.519	3443
912.633	3454
912.748	3321
912.862	3291
912.976	3176
913.09	3085
913.204	3104
913.318	3176
913.431	3332
913.545	3344
913.659	3435
913.772	3351
913.886	3222
914	3188
914.113	3359
914.226	3450
914.34	3393
914.453	3230
914.566	3412
914.68	3310
914.793	3313
914.906	3119
915.019	3104
915.132	3093
915.245	3176
915.358	3214
915.47	3245
915.583	3245
915.696	3287
915.809	3386
915.921	3473
916.034	3249
916.146	3256
916.259	3237
916.371	3397
916.483	3370
916.595	3275
916.708	3355
916.82	3325
916.932	3336
917.044	3332
917.156	3332
917.268	3294
917.38	3279
917.491	3302
917.603	3389
917.715	3416
917.826	3454
917.938	3389
918.049	3245
918.161	3466
918.272	3564
918.384	3561
918.495	3500
918.606	3329
918.717	3237
918.828	3382
918.939	3443
919.05	3298
919.161	3336
919.272	3135
919.383	3283
919.494	3530
919.604	3732
919.715	3492
919.826	3428
919.936	3428
920.047	3580
920.157	3519
920.267	3766
920.378	3629
920.488	3576
920.598	3778
920.708	3975
920.818	3800
920.928	3800
921.038	3979
921.148	4029
921.258	3740
921.368	3644
921.477	3568
921.587	3530
921.697	3454
921.806	3618
921.916	3511
922.025	3344
922.134	3363
922.244	3291
922.353	3443
922.462	3268
922.571	3230
922.68	3100
922.789	3093
922.898	3127
923.007	3108
923.116	3195
923.224	3192
923.333	3222
923.442	3089
923.55	3062
923.659	3150
923.767	3214
923.876	3131
923.984	3237
924.092	3093
924.201	3188
924.309	3222
924.417	3264
924.525	3161
924.633	3230
924.741	4181
924.849	3047
924.956	3283
925.064	3104
925.172	3017
925.279	3112
925.387	3195
925.494	3176
925.602	3370
925.709	3329
925.816	3184
925.924	3245
926.031	3382
926.138	3313
926.245	3340
926.352	3241
926.459	3389
926.566	3462
926.673	3325
926.779	3264
926.886	3268
926.993	3123
927.099	3112
927.206	3108
927.312	3138
927.419	3237
927.525	3142
927.631	3287
927.737	3108
927.843	3119
927.95	3024
928.056	3138
928.162	3180
928.267	3260
928.373	3892
928.479	3317
928.585	3066
928.69	3268
928.796	3272
928.901	3146
929.007	3001
929.112	3195
929.218	3195
929.323	3142
929.428	3154
929.533	3325
929.638	3135
929.743	3195
929.848	3253
929.953	3241
930.058	3150
930.163	2979
930.267	3047
930.372	3207
930.477	3039
930.581	3321
930.685	3207
930.79	3058
930.894	3089
930.998	3097
931.103	3268
931.207	2971
931.311	2975
931.415	2925
931.519	2811
931.623	2819
