Data from test_V78500241_1661.txt Node
Date: Fri Mar 25 16:26:42 CST 2022
User: usil
Spectrometer: V785-0024
Trigger mode: 0
Integration Time (sec): 4.000000E-1
Scans to average: 1
Nonlinearity correction enabled: false
Boxcar width: 0
Storing dark spectrum: false
XAxis mode: Wavelengths
Number of Pixels in Spectrum: 1024
>>>>>Begin Spectral Data<<<<<
801.071	2963
801.214	2944
801.356	2902
801.499	2906
801.641	2906
801.783	2933
801.926	3062
802.068	2971
802.211	3028
802.353	3039
802.496	2967
802.638	3036
802.78	3028
802.923	3047
803.065	2971
803.208	2872
803.35	2929
803.492	2948
803.635	2956
803.777	2792
803.919	2876
804.061	3180
804.204	2952
804.346	2922
804.488	2857
804.63	2990
804.773	2845
804.915	2861
805.057	3070
805.199	2979
805.341	2971
805.483	3009
805.626	3001
805.768	2986
805.91	3074
806.052	3093
806.194	3074
806.336	3241
806.478	2998
806.62	2963
806.762	2971
806.904	3058
807.046	3207
807.188	2998
807.33	2922
807.472	2994
807.614	2914
807.756	2975
807.898	2944
808.04	2845
808.182	2975
808.324	2971
808.465	2887
808.607	2864
808.749	2834
808.891	2842
809.033	2979
809.174	2925
809.316	2895
809.458	2895
809.6	2727
809.741	2773
809.883	2773
810.025	2838
810.166	2811
810.308	2811
810.45	2880
810.591	2766
810.733	2777
810.875	2849
811.016	2785
811.158	2758
811.299	2815
811.441	2918
811.582	2895
811.724	2853
811.865	2807
812.007	2895
812.148	2864
812.29	2845
812.431	2883
812.573	2925
812.714	2979
812.855	3036
812.997	3047
813.138	3112
813.279	3009
813.421	2990
813.562	2948
813.703	2868
813.845	2887
813.986	2788
814.127	2739
814.268	2823
814.41	2815
814.551	2811
814.692	2876
814.833	2834
814.974	2891
815.115	2952
815.256	2891
815.397	2853
815.539	2872
815.68	2766
815.821	2762
815.962	2906
816.103	2914
816.244	2872
816.385	2872
816.526	2925
816.666	2929
816.807	2697
816.948	2853
817.089	2944
817.23	2868
817.371	2788
817.512	2796
817.653	2857
817.793	2804
817.934	2876
818.075	2975
818.216	2982
818.356	3005
818.497	2876
818.638	2796
818.778	2823
818.919	2792
819.06	2788
819.2	2872
819.341	2819
819.481	2819
819.622	2880
819.762	3097
819.903	3009
820.043	2941
820.184	2895
820.324	2887
820.465	3024
820.605	2979
820.746	3013
820.886	2925
821.026	3089
821.167	3142
821.307	3260
821.447	3283
821.588	3249
821.728	3237
821.868	3195
822.008	3077
822.149	3214
822.289	3230
822.429	3093
822.569	3077
822.709	3218
822.849	3024
822.99	3062
823.13	3142
823.27	3199
823.41	3127
823.55	3138
823.69	3165
823.83	3199
823.97	3119
824.11	3020
824.25	2967
824.389	3104
824.529	3093
824.669	3074
824.809	3203
824.949	3287
825.089	3249
825.228	3157
825.368	3028
825.508	2944
825.648	3009
825.787	3013
825.927	3055
826.067	3001
826.206	2952
826.346	3077
826.485	3100
826.625	3119
826.765	3272
826.904	3192
827.044	3024
827.183	2963
827.323	2899
827.462	3005
827.601	2963
827.741	2967
827.88	2956
828.02	2876
828.159	2986
828.298	3047
828.437	3161
828.577	3100
828.716	3283
828.855	3093
828.994	2982
829.134	2944
829.273	2975
829.412	2910
829.551	2876
829.69	2922
829.829	3017
829.968	3173
830.107	3043
830.246	3108
830.385	2960
830.524	2929
830.663	2902
830.802	2773
830.941	2667
831.08	2708
831.219	2804
831.357	2819
831.496	3001
831.635	2758
831.774	2659
831.913	2678
832.051	2583
832.19	2617
832.329	2750
832.467	2560
832.606	2571
832.744	2613
832.883	2579
833.022	2670
833.16	2674
833.299	2727
833.437	2758
833.576	2754
833.714	2739
833.852	2754
833.991	2773
834.129	2857
834.267	2834
834.406	2838
834.544	2899
834.682	2887
834.821	2902
834.959	3089
835.097	2941
835.235	3077
835.373	3043
835.511	3020
835.65	2979
835.788	2982
835.926	2861
836.064	2830
836.202	2922
836.34	3112
836.478	3138
836.615	3058
836.753	3188
836.891	3207
837.029	3211
837.167	3150
837.305	3108
837.443	3085
837.58	2971
837.718	3165
837.856	3100
837.993	3085
838.131	3135
838.269	3123
838.406	3135
838.544	3116
838.681	2944
838.819	2982
838.956	2861
839.094	2861
839.231	2891
839.369	3013
839.506	3420
839.643	3214
839.781	3074
839.918	2975
840.055	3089
840.193	3097
840.33	3123
840.467	3119
840.604	3176
840.742	3447
840.879	3112
841.016	3104
841.153	3131
841.29	3336
841.427	3344
841.564	3306
841.701	3325
841.838	3249
841.975	3222
842.112	3237
842.249	3112
842.385	3081
842.522	3306
842.659	3116
842.796	3085
842.933	3116
843.069	3074
843.206	3032
843.343	3195
843.479	3119
843.616	3184
843.752	2902
843.889	2895
844.025	3100
844.162	2925
844.298	3146
844.435	2971
844.571	2975
844.708	3089
844.844	3233
844.98	3264
845.117	3218
845.253	3032
845.389	2998
845.525	3077
845.661	3100
845.798	3024
845.934	3138
846.07	3081
846.206	3245
846.342	3351
846.478	3272
846.614	3138
846.75	3085
846.886	3066
847.022	3264
847.158	3150
847.294	3195
847.429	3291
847.565	3237
847.701	3507
847.837	3077
847.972	3028
848.108	3150
848.244	3176
848.379	2990
848.515	2963
848.65	2971
848.786	2975
848.921	3017
849.057	3150
849.192	3169
849.328	3100
849.463	3123
849.598	3077
849.734	3039
849.869	3043
850.004	2929
850.14	3005
850.275	2944
850.41	2842
850.545	2918
850.68	2925
850.815	2971
850.95	2986
851.085	3222
851.22	3131
851.355	3055
851.49	3032
851.625	3032
851.76	3020
851.895	2994
852.03	2933
852.165	3043
852.299	3097
852.434	3241
852.569	3169
852.703	3192
852.838	3291
852.973	3363
853.107	3359
853.242	3165
853.376	3093
853.511	3005
853.645	3032
853.78	3237
853.914	3176
854.048	3127
854.183	3138
854.317	3184
854.451	3321
854.585	3135
854.72	3112
854.854	3275
854.988	3085
855.122	3093
855.256	2960
855.39	3195
855.524	3264
855.658	3218
855.792	3142
855.926	3211
856.06	3249
856.194	3302
856.327	3176
856.461	3135
856.595	3116
856.729	3089
856.862	3256
856.996	3142
857.13	3222
857.263	3241
857.397	3332
857.53	3150
857.664	3211
857.797	3214
857.931	3226
858.064	3188
858.197	3214
858.331	3184
858.464	3112
858.597	3020
858.731	3142
858.864	3199
858.997	3104
859.13	3199
859.263	3184
859.396	3233
859.529	3116
859.662	3097
859.795	3077
859.928	3161
860.061	3306
860.194	3317
860.327	3154
860.46	3085
860.592	3241
860.725	3264
860.858	3306
860.99	3104
861.123	3077
861.256	3047
861.388	3176
861.521	3865
861.653	3024
861.786	2994
861.918	3051
862.05	3077
862.183	3135
862.315	3173
862.447	3233
862.58	3135
862.712	2971
862.844	2914
862.976	3043
863.108	3066
863.24	3443
863.372	2910
863.504	3001
863.636	2979
863.768	3043
863.9	2975
864.032	2929
864.164	2994
864.296	3005
864.428	3104
864.559	3131
864.691	3138
864.823	3081
864.954	3013
865.086	3062
865.217	3055
865.349	2998
865.48	2982
865.612	3058
865.743	3150
865.875	3009
866.006	2952
866.137	2982
866.269	2971
866.4	2937
866.531	2975
866.662	2906
866.793	2883
866.924	2933
867.055	3009
867.186	2922
867.317	2952
867.448	2857
867.579	2891
867.71	2830
867.841	2834
867.972	2910
868.103	2922
868.233	2914
868.364	2872
868.495	2922
868.625	3116
868.756	3188
868.886	3039
869.017	3032
869.147	3218
869.278	3180
869.408	3055
869.539	3043
869.669	3097
869.799	3032
869.929	3142
870.06	3131
870.19	3340
870.32	3351
870.45	3351
870.58	3409
870.71	3473
870.84	3462
870.97	3294
871.1	3260
871.23	3466
871.36	3477
871.489	3378
871.619	3431
871.749	3428
871.879	3401
872.008	3443
872.138	3397
872.267	3306
872.397	3176
872.526	3161
872.656	2979
872.785	3116
872.915	3233
873.044	3325
873.173	3245
873.303	3218
873.432	3268
873.561	3249
873.69	3180
873.819	3180
873.948	3222
874.077	3135
874.206	3051
874.335	3081
874.464	3222
874.593	3370
874.722	3260
874.851	3412
874.979	3340
875.108	3355
875.237	3230
875.365	3169
875.494	3146
875.623	3287
875.751	3104
875.88	3161
876.008	3207
876.136	3249
876.265	3401
876.393	3545
876.521	3466
876.65	3389
876.778	3310
876.906	3283
877.034	3203
877.162	3230
877.29	3157
877.418	3233
877.546	3264
877.674	3237
877.802	3249
877.93	3245
878.058	3161
878.185	3131
878.313	3249
878.441	3249
878.568	3066
878.696	3180
878.824	3291
878.951	3317
879.079	3458
879.206	3606
879.333	3462
879.461	3329
879.588	3367
879.715	3492
879.842	3644
879.97	3401
880.097	3207
880.224	3123
880.351	3233
880.478	3268
880.605	3245
880.732	3233
880.859	3485
880.986	3336
881.112	3332
881.239	3199
881.366	3089
881.493	3058
881.619	3058
881.746	3058
881.872	3089
881.999	3104
882.125	3169
882.252	3233
882.378	3283
882.505	3431
882.631	3306
882.757	3176
882.883	3203
883.01	3218
883.136	3142
883.262	3100
883.388	3112
883.514	3336
883.64	3401
883.766	3317
883.892	3222
884.018	3260
884.143	3428
884.269	3549
884.395	3237
884.52	3142
884.646	3176
884.772	3131
884.897	3119
885.023	3211
885.148	3321
885.274	3481
885.399	3401
885.524	3306
885.65	3306
885.775	3340
885.9	3264
886.025	3416
886.15	3336
886.275	3317
886.4	3222
886.525	3283
886.65	3291
886.775	3272
886.9	3526
887.025	3686
887.149	3393
887.274	3260
887.399	3199
887.523	3241
887.648	3199
887.773	3203
887.897	3386
888.021	3447
888.146	3287
888.27	3420
888.395	3526
888.519	3435
888.643	3462
888.767	3496
888.891	3298
889.015	3256
889.139	3294
889.263	3211
889.387	3462
889.511	3488
889.635	3443
889.759	3306
889.883	3302
890.006	3382
890.13	3496
890.254	3302
890.377	3302
890.501	3192
890.624	3218
890.748	3302
890.871	3169
890.995	3123
891.118	3085
891.241	3195
891.364	3203
891.488	3306
891.611	3169
891.734	3188
891.857	3291
891.98	3264
892.103	3351
892.226	3264
892.349	3184
892.471	3146
892.594	3226
892.717	3287
892.839	3241
892.962	3287
893.085	3351
893.207	3313
893.33	3131
893.452	3214
893.575	3359
893.697	3253
893.819	3466
893.941	3473
894.064	3466
894.186	3268
894.308	3298
894.43	3466
894.552	3584
894.674	3519
894.796	3233
894.918	3325
895.04	3298
895.161	3485
895.283	3401
895.405	3306
895.526	3355
895.648	3443
895.769	3443
895.891	3450
896.012	3485
896.134	3507
896.255	3454
896.376	3355
896.498	3401
896.619	3450
896.74	3386
896.861	3348
896.982	3679
897.103	3789
897.224	3614
897.345	3515
897.466	3450
897.587	3496
897.708	3660
897.828	3534
897.949	3454
898.07	3325
898.19	3416
898.311	3557
898.431	3492
898.552	3530
898.672	3584
898.792	3542
898.913	3523
899.033	3397
899.153	3310
899.273	3218
899.393	3264
899.513	3310
899.633	3329
899.753	3367
899.873	3317
899.993	3386
900.113	3325
900.232	3359
900.352	3344
900.472	3283
900.591	3184
900.711	3310
900.83	3256
900.95	3431
901.069	3477
901.189	3382
901.308	3195
901.427	3176
901.546	3207
901.665	3313
901.784	3325
901.904	3214
902.023	3138
902.141	3024
902.26	2998
902.379	3154
902.498	3089
902.617	3017
902.735	3233
902.854	3249
902.973	3188
903.091	3055
903.21	3081
903.328	3119
903.446	3157
903.565	3108
903.683	3207
903.801	3116
903.919	3245
904.038	3260
904.156	3192
904.274	3275
904.392	3275
904.51	3268
904.627	3306
904.745	3466
904.863	3530
904.981	3260
905.098	3165
905.216	3222
905.334	3264
905.451	3287
905.569	3321
905.686	3443
905.803	3466
905.921	3287
906.038	3435
906.155	3325
906.272	3287
906.389	3363
906.506	3218
906.623	3237
906.74	3287
906.857	3180
906.974	3264
907.091	3492
907.208	3564
907.324	3485
907.441	3454
907.557	3233
907.674	3256
907.79	3222
907.907	3279
908.023	3355
908.139	3355
908.256	3329
908.372	3359
908.488	3405
908.604	3260
908.72	3233
908.836	3268
908.952	3272
909.068	3329
909.184	3500
909.3	3443
909.415	3530
909.531	3526
909.647	3287
909.762	3291
909.878	3260
909.993	3363
910.108	3344
910.224	3340
910.339	3420
910.454	3336
910.57	3321
910.685	3298
910.8	3584
910.915	3530
911.03	3439
911.145	3283
911.259	3260
911.374	3306
911.489	3230
911.604	3245
911.718	3112
911.833	3192
911.947	3062
912.062	2990
912.176	3154
912.291	3207
912.405	3237
912.519	3405
912.633	3462
912.748	3310
912.862	3279
912.976	3157
913.09	3070
913.204	3135
913.318	3184
913.431	3363
913.545	3336
913.659	3428
913.772	3348
913.886	3241
914	3188
914.113	3393
914.226	3409
914.34	3348
914.453	3195
914.566	3424
914.68	3310
914.793	3325
914.906	3123
915.019	3142
915.132	3066
915.245	3150
915.358	3218
915.47	3218
915.583	3279
915.696	3287
915.809	3389
915.921	3412
916.034	3256
916.146	3260
916.259	3230
916.371	3378
916.483	3359
916.595	3253
916.708	3325
916.82	3359
916.932	3340
917.044	3336
917.156	3378
917.268	3279
917.38	3325
917.491	3306
917.603	3340
917.715	3420
917.826	3511
917.938	3374
918.049	3249
918.161	3450
918.272	3595
918.384	3553
918.495	3507
918.606	3313
918.717	3283
918.828	3382
918.939	3409
919.05	3287
919.161	3386
919.272	3154
919.383	3275
919.494	3454
919.604	3686
919.715	3504
919.826	3367
919.936	3496
920.047	3576
920.157	3549
920.267	3762
920.378	3587
920.488	3538
920.598	3793
920.708	4032
920.818	3793
920.928	3838
921.038	4059
921.148	3964
921.258	3720
921.368	3663
921.477	3557
921.587	3515
921.697	3477
921.806	3629
921.916	3511
922.025	3428
922.134	3348
922.244	3348
922.353	3420
922.462	3245
922.571	3233
922.68	3089
922.789	3066
922.898	3112
923.007	3112
923.116	3218
923.224	3154
923.333	3207
923.442	3089
923.55	3119
923.659	3150
923.767	3169
923.876	3146
923.984	3237
924.092	3108
924.201	3192
924.309	3226
924.417	3237
924.525	3195
924.633	3237
924.741	4135
924.849	3047
924.956	3279
925.064	3100
925.172	3036
925.279	3089
925.387	3207
925.494	3195
925.602	3321
925.709	3321
925.816	3169
925.924	3260
926.031	3355
926.138	3321
926.245	3355
926.352	3256
926.459	3393
926.566	3447
926.673	3306
926.779	3222
926.886	3218
926.993	3135
927.099	3135
927.206	3077
927.312	3119
927.419	3237
927.525	3192
927.631	3287
927.737	3116
927.843	3108
927.95	3043
928.056	3161
928.162	3135
928.267	3264
928.373	3774
928.479	3310
928.585	3039
928.69	3211
928.796	3237
928.901	3150
929.007	3039
929.112	3173
929.218	3188
929.323	3142
929.428	3142
929.533	3310
929.638	3112
929.743	3157
929.848	3287
929.953	3211
930.058	3146
930.163	2998
930.267	3032
930.372	3222
930.477	3001
930.581	3325
930.685	3169
930.79	3058
930.894	3154
930.998	3131
931.103	3287
931.207	2956
931.311	2929
931.415	2925
931.519	2792
931.623	2842
