Data from test_V78500241_84.txt Node
Date: Fri Mar 25 16:15:47 CST 2022
User: usil
Spectrometer: V785-0024
Trigger mode: 0
Integration Time (sec): 4.000000E-1
Scans to average: 1
Nonlinearity correction enabled: false
Boxcar width: 0
Storing dark spectrum: false
XAxis mode: Wavelengths
Number of Pixels in Spectrum: 1024
>>>>>Begin Spectral Data<<<<<
801.071	2963
801.214	2994
801.356	2941
801.499	2944
801.641	2952
801.783	2990
801.926	3100
802.068	3013
802.211	3024
802.353	3081
802.496	3005
802.638	3051
802.78	3024
802.923	3184
803.065	3093
803.208	2929
803.35	2910
803.492	3009
803.635	2960
803.777	2804
803.919	2929
804.061	3207
804.204	2975
804.346	2960
804.488	2853
804.63	3039
804.773	2910
804.915	2963
805.057	3123
805.199	2933
805.341	3017
805.483	3089
805.626	3051
805.768	3009
805.91	3154
806.052	3150
806.194	3097
806.336	3268
806.478	3051
806.62	3013
806.762	3009
806.904	3123
807.046	3222
807.188	3017
807.33	2952
807.472	2982
807.614	2952
807.756	3043
807.898	2963
808.04	2948
808.182	3020
808.324	3005
808.465	2922
808.607	2902
808.749	2838
808.891	2899
809.033	3009
809.174	3017
809.316	2944
809.458	2880
809.6	2830
809.741	2830
809.883	2826
810.025	2918
810.166	2891
810.308	2895
810.45	2910
810.591	2823
810.733	2800
810.875	2880
811.016	2845
811.158	2796
811.299	2887
811.441	2941
811.582	2956
811.724	2910
811.865	2899
812.007	2944
812.148	2906
812.29	2887
812.431	2937
812.573	2963
812.714	3001
812.855	3074
812.997	3104
813.138	3184
813.279	3058
813.421	3051
813.562	3036
813.703	2918
813.845	2971
813.986	2857
814.127	2788
814.268	2853
814.41	2880
814.551	2880
814.692	2948
814.833	2876
814.974	2902
815.115	3001
815.256	2883
815.397	2864
815.539	2922
815.68	2788
815.821	2834
815.962	2998
816.103	2963
816.244	2922
816.385	2902
816.526	3043
816.666	2963
816.807	2773
816.948	2941
817.089	2975
817.23	2914
817.371	2849
817.512	2861
817.653	2914
817.793	2880
817.934	2948
818.075	3001
818.216	3039
818.356	3055
818.497	2922
818.638	2811
818.778	2883
818.919	2834
819.06	2819
819.2	2937
819.341	2868
819.481	2857
819.622	2986
819.762	3146
819.903	3123
820.043	2941
820.184	2948
820.324	2937
820.465	3127
820.605	3055
820.746	3055
820.886	2994
821.026	3180
821.167	3207
821.307	3317
821.447	3298
821.588	3272
821.728	3245
821.868	3275
822.008	3112
822.149	3264
822.289	3260
822.429	3165
822.569	3108
822.709	3222
822.849	3085
822.99	3116
823.13	3222
823.27	3230
823.41	3165
823.55	3211
823.69	3214
823.83	3260
823.97	3154
824.11	3062
824.25	3013
824.389	3070
824.529	3150
824.669	3123
824.809	3256
824.949	3268
825.089	3249
825.228	3230
825.368	3074
825.508	2990
825.648	3017
825.787	3047
825.927	3074
826.067	3009
826.206	3028
826.346	3070
826.485	3116
826.625	3131
826.765	3279
826.904	3245
827.044	3005
827.183	2986
827.323	2899
827.462	3024
827.601	2956
827.741	2986
827.88	2998
828.02	2899
828.159	3020
828.298	3058
828.437	3169
828.577	3070
828.716	3275
828.855	3116
828.994	2956
829.134	2933
829.273	2967
829.412	2910
829.551	2899
829.69	2922
829.829	3017
829.968	3161
830.107	3024
830.246	3085
830.385	2975
830.524	2906
830.663	2864
830.802	2785
830.941	2708
831.08	2686
831.219	2834
831.357	2815
831.496	2963
831.635	2762
831.774	2655
831.913	2712
832.051	2575
832.19	2598
832.329	2712
832.467	2571
832.606	2518
832.744	2636
832.883	2606
833.022	2629
833.16	2693
833.299	2746
833.437	2720
833.576	2739
833.714	2792
833.852	2788
833.991	2792
834.129	2895
834.267	2910
834.406	2815
834.544	2883
834.682	2914
834.821	2868
834.959	3093
835.097	2952
835.235	3062
835.373	3036
835.511	3043
835.65	3001
835.788	3005
835.926	2887
836.064	2887
836.202	2902
836.34	3085
836.478	3218
836.615	3066
836.753	3135
836.891	3268
837.029	3207
837.167	3116
837.305	3116
837.443	3108
837.58	3005
837.718	3180
837.856	3097
837.993	3085
838.131	3157
838.269	3123
838.406	3116
838.544	3131
838.681	2967
838.819	2982
838.956	2876
839.094	2914
839.231	2944
839.369	3032
839.506	3447
839.643	3260
839.781	3036
839.918	3020
840.055	3135
840.193	3077
840.33	3104
840.467	3146
840.604	3249
840.742	3447
840.879	3074
841.016	3089
841.153	3154
841.29	3401
841.427	3348
841.564	3313
841.701	3355
841.838	3275
841.975	3237
842.112	3226
842.249	3123
842.385	3074
842.522	3310
842.659	3131
842.796	3123
842.933	3131
843.069	3051
843.206	3066
843.343	3211
843.479	3142
843.616	3131
843.752	2925
843.889	2895
844.025	3089
844.162	2914
844.298	3077
844.435	2986
844.571	2941
844.708	3089
844.844	3211
844.98	3245
845.117	3203
845.253	3074
845.389	3017
845.525	3150
845.661	3157
845.798	3047
845.934	3165
846.07	3097
846.206	3283
846.342	3370
846.478	3226
846.614	3146
846.75	3089
846.886	3074
847.022	3317
847.158	3203
847.294	3245
847.429	3306
847.565	3253
847.701	3538
847.837	3085
847.972	3020
848.108	3211
848.244	3176
848.379	3005
848.515	2952
848.65	2948
848.786	2990
848.921	3074
849.057	3119
849.192	3157
849.328	3112
849.463	3108
849.598	3055
849.734	3058
849.869	3032
850.004	2929
850.14	3013
850.275	2960
850.41	2880
850.545	2918
850.68	2971
850.815	2967
850.95	3009
851.085	3253
851.22	3142
851.355	3085
851.49	3032
851.625	3055
851.76	3097
851.895	2990
852.03	2933
852.165	3104
852.299	3169
852.434	3222
852.569	3203
852.703	3226
852.838	3310
852.973	3416
853.107	3397
853.242	3214
853.376	3180
853.511	3047
853.645	3176
853.78	3264
853.914	3211
854.048	3173
854.183	3173
854.317	3222
854.451	3325
854.585	3233
854.72	3180
854.854	3291
854.988	3112
855.122	3131
855.256	3070
855.39	3157
855.524	3351
855.658	3287
855.792	3283
855.926	3260
856.06	3298
856.194	3351
856.327	3226
856.461	3173
856.595	3135
856.729	3123
856.862	3298
856.996	3256
857.13	3272
857.263	3325
857.397	3306
857.53	3192
857.664	3260
857.797	3306
857.931	3310
858.064	3230
858.197	3268
858.331	3233
858.464	3169
858.597	3066
858.731	3173
858.864	3226
858.997	3161
859.13	3211
859.263	3260
859.396	3298
859.529	3135
859.662	3135
859.795	3112
859.928	3218
860.061	3374
860.194	3313
860.327	3253
860.46	3180
860.592	3340
860.725	3332
860.858	3325
860.99	3161
861.123	3104
861.256	3108
861.388	3180
861.521	3766
861.653	3062
861.786	3055
861.918	3039
862.05	3146
862.183	3157
862.315	3142
862.447	3260
862.58	3150
862.712	3013
862.844	2925
862.976	3077
863.108	3074
863.24	3367
863.372	2941
863.504	3013
863.636	2971
863.768	3077
863.9	3062
864.032	2990
864.164	3036
864.296	3097
864.428	3188
864.559	3116
864.691	3131
864.823	3116
864.954	3070
865.086	3146
865.217	3081
865.349	3020
865.48	3074
865.612	3062
865.743	3222
865.875	3062
866.006	3043
866.137	3020
866.269	2994
866.4	3013
866.531	2982
866.662	2956
866.793	2971
866.924	3009
867.055	2994
867.186	2979
867.317	2925
867.448	2910
867.579	2895
867.71	2902
867.841	2883
867.972	2937
868.103	2998
868.233	2971
868.364	2929
868.495	2982
868.625	3116
868.756	3214
868.886	3017
869.017	3066
869.147	3249
869.278	3264
869.408	3135
869.539	3085
869.669	3150
869.799	3108
869.929	3214
870.06	3188
870.19	3405
870.32	3363
870.45	3336
870.58	3466
870.71	3511
870.84	3523
870.97	3397
871.1	3317
871.23	3511
871.36	3561
871.489	3443
871.619	3469
871.749	3473
871.879	3545
872.008	3553
872.138	3431
872.267	3329
872.397	3214
872.526	3157
872.656	3051
872.785	3131
872.915	3306
873.044	3378
873.173	3306
873.303	3317
873.432	3313
873.561	3287
873.69	3214
873.819	3203
873.948	3230
874.077	3157
874.206	3097
874.335	3176
874.464	3275
874.593	3409
874.722	3325
874.851	3492
874.979	3420
875.108	3351
875.237	3264
875.365	3211
875.494	3253
875.623	3325
875.751	3169
875.88	3184
876.008	3306
876.136	3264
876.265	3450
876.393	3568
876.521	3477
876.65	3466
876.778	3435
876.906	3321
877.034	3241
877.162	3253
877.29	3245
877.418	3336
877.546	3298
877.674	3321
877.802	3287
877.93	3298
878.058	3214
878.185	3180
878.313	3214
878.441	3298
878.568	3108
878.696	3222
878.824	3344
878.951	3355
879.079	3473
879.206	3698
879.333	3534
879.461	3386
879.588	3424
879.715	3542
879.842	3667
879.97	3477
880.097	3214
880.224	3131
880.351	3203
880.478	3272
880.605	3268
880.732	3241
880.859	3545
880.986	3351
881.112	3386
881.239	3268
881.366	3207
881.493	3127
881.619	3077
881.746	3146
881.872	3169
881.999	3169
882.125	3173
882.252	3294
882.378	3367
882.505	3473
882.631	3325
882.757	3214
882.883	3237
883.01	3275
883.136	3214
883.262	3157
883.388	3161
883.514	3382
883.64	3412
883.766	3386
883.892	3272
884.018	3302
884.143	3481
884.269	3652
884.395	3256
884.52	3226
884.646	3283
884.772	3176
884.897	3169
885.023	3253
885.148	3409
885.274	3488
885.399	3447
885.524	3298
885.65	3313
885.775	3374
885.9	3329
886.025	3477
886.15	3401
886.275	3359
886.4	3329
886.525	3367
886.65	3344
886.775	3351
886.9	3542
887.025	3728
887.149	3450
887.274	3355
887.399	3256
887.523	3237
887.648	3233
887.773	3256
887.897	3435
888.021	3469
888.146	3359
888.27	3553
888.395	3576
888.519	3492
888.643	3500
888.767	3534
888.891	3374
889.015	3279
889.139	3325
889.263	3317
889.387	3458
889.511	3572
889.635	3485
889.759	3329
889.883	3351
890.006	3458
890.13	3542
890.254	3321
890.377	3412
890.501	3283
890.624	3260
890.748	3389
890.871	3222
890.995	3180
891.118	3135
891.241	3233
891.364	3233
891.488	3397
891.611	3237
891.734	3230
891.857	3302
891.98	3298
892.103	3397
892.226	3344
892.349	3272
892.471	3165
892.594	3294
892.717	3401
892.839	3313
892.962	3355
893.085	3431
893.207	3294
893.33	3199
893.452	3256
893.575	3424
893.697	3310
893.819	3496
893.941	3549
894.064	3500
894.186	3321
894.308	3348
894.43	3500
894.552	3648
894.674	3492
894.796	3306
894.918	3359
895.04	3340
895.161	3450
895.283	3454
895.405	3340
895.526	3443
895.648	3454
895.769	3519
895.891	3523
896.012	3534
896.134	3500
896.255	3458
896.376	3447
896.498	3431
896.619	3424
896.74	3416
896.861	3466
896.982	3705
897.103	3896
897.224	3660
897.345	3534
897.466	3492
897.587	3557
897.708	3709
897.828	3633
897.949	3515
898.07	3370
898.19	3492
898.311	3671
898.431	3504
898.552	3599
898.672	3637
898.792	3614
898.913	3599
899.033	3454
899.153	3351
899.273	3264
899.393	3355
899.513	3401
899.633	3344
899.753	3389
899.873	3378
899.993	3443
900.113	3428
900.232	3386
900.352	3374
900.472	3332
900.591	3256
900.711	3344
900.83	3310
900.95	3428
901.069	3534
901.189	3420
901.308	3222
901.427	3199
901.546	3268
901.665	3291
901.784	3382
901.904	3233
902.023	3165
902.141	3077
902.26	3036
902.379	3169
902.498	3123
902.617	3142
902.735	3298
902.854	3317
902.973	3253
903.091	3058
903.21	3138
903.328	3233
903.446	3131
903.565	3188
903.683	3256
903.801	3154
903.919	3260
904.038	3329
904.156	3233
904.274	3355
904.392	3310
904.51	3317
904.627	3378
904.745	3519
904.863	3530
904.981	3291
905.098	3188
905.216	3287
905.334	3378
905.451	3348
905.569	3386
905.686	3447
905.803	3504
905.921	3329
906.038	3477
906.155	3431
906.272	3317
906.389	3359
906.506	3302
906.623	3321
906.74	3348
906.857	3241
906.974	3332
907.091	3523
907.208	3618
907.324	3534
907.441	3420
907.557	3249
907.674	3253
907.79	3237
907.907	3329
908.023	3424
908.139	3431
908.256	3389
908.372	3424
908.488	3386
908.604	3291
908.72	3294
908.836	3340
908.952	3355
909.068	3389
909.184	3580
909.3	3469
909.415	3534
909.531	3500
909.647	3321
909.762	3317
909.878	3310
909.993	3409
910.108	3336
910.224	3367
910.339	3439
910.454	3374
910.57	3351
910.685	3325
910.8	3637
910.915	3564
911.03	3458
911.145	3310
911.259	3291
911.374	3359
911.489	3264
911.604	3287
911.718	3135
911.833	3184
911.947	3085
912.062	3013
912.176	3184
912.291	3249
912.405	3226
912.519	3496
912.633	3504
912.748	3378
912.862	3321
912.976	3230
913.09	3119
913.204	3180
913.318	3283
913.431	3382
913.545	3351
913.659	3466
913.772	3389
913.886	3264
914	3233
914.113	3389
914.226	3443
914.34	3412
914.453	3249
914.566	3466
914.68	3367
914.793	3363
914.906	3161
915.019	3173
915.132	3097
915.245	3184
915.358	3260
915.47	3249
915.583	3355
915.696	3329
915.809	3511
915.921	3462
916.034	3302
916.146	3313
916.259	3256
916.371	3405
916.483	3393
916.595	3310
916.708	3386
916.82	3405
916.932	3363
917.044	3416
917.156	3401
917.268	3264
917.38	3329
917.491	3321
917.603	3378
917.715	3500
917.826	3504
917.938	3428
918.049	3279
918.161	3488
918.272	3618
918.384	3625
918.495	3576
918.606	3393
918.717	3306
918.828	3420
918.939	3435
919.05	3348
919.161	3454
919.272	3241
919.383	3363
919.494	3538
919.604	3724
919.715	3526
919.826	3450
919.936	3492
920.047	3644
920.157	3606
920.267	3827
920.378	3656
920.488	3625
920.598	3850
920.708	4006
920.818	3876
920.928	3869
921.038	4078
921.148	4048
921.258	3751
921.368	3694
921.477	3610
921.587	3572
921.697	3507
921.806	3675
921.916	3587
922.025	3351
922.134	3405
922.244	3359
922.353	3485
922.462	3291
922.571	3287
922.68	3138
922.789	3089
922.898	3184
923.007	3104
923.116	3226
923.224	3226
923.333	3260
923.442	3127
923.55	3150
923.659	3176
923.767	3287
923.876	3173
923.984	3294
924.092	3184
924.201	3218
924.309	3256
924.417	3317
924.525	3249
924.633	3245
924.741	4223
924.849	3104
924.956	3294
925.064	3123
925.172	3074
925.279	3116
925.387	3237
925.494	3218
925.602	3389
925.709	3374
925.816	3218
925.924	3340
926.031	3439
926.138	3409
926.245	3412
926.352	3283
926.459	3488
926.566	3485
926.673	3374
926.779	3264
926.886	3264
926.993	3211
927.099	3169
927.206	3112
927.312	3142
927.419	3260
927.525	3249
927.631	3313
927.737	3169
927.843	3161
927.95	3077
928.056	3184
928.162	3195
928.267	3291
928.373	3842
928.479	3363
928.585	3085
928.69	3222
928.796	3294
928.901	3230
929.007	3039
929.112	3253
929.218	3211
929.323	3131
929.428	3146
929.533	3344
929.638	3119
929.743	3249
929.848	3256
929.953	3256
930.058	3169
930.163	3005
930.267	3062
930.372	3230
930.477	3055
930.581	3344
930.685	3195
930.79	3100
930.894	3127
930.998	3135
931.103	3310
931.207	3013
931.311	2963
931.415	2948
931.519	2826
931.623	2834
