Data from test_V78500241_245.txt Node
Date: Fri Mar 25 16:16:54 CST 2022
User: usil
Spectrometer: V785-0024
Trigger mode: 0
Integration Time (sec): 4.000000E-1
Scans to average: 1
Nonlinearity correction enabled: false
Boxcar width: 0
Storing dark spectrum: false
XAxis mode: Wavelengths
Number of Pixels in Spectrum: 1024
>>>>>Begin Spectral Data<<<<<
801.071	2872
801.214	2941
801.356	2887
801.499	2910
801.641	2876
801.783	2918
801.926	3077
802.068	2956
802.211	2975
802.353	3043
802.496	2963
802.638	3028
802.78	3036
802.923	3081
803.065	3028
803.208	2918
803.35	2937
803.492	2925
803.635	2975
803.777	2773
803.919	2872
804.061	3188
804.204	2948
804.346	2899
804.488	2830
804.63	3005
804.773	2906
804.915	2910
805.057	3070
805.199	2902
805.341	2990
805.483	3039
805.626	2998
805.768	2982
805.91	3081
806.052	3135
806.194	3062
806.336	3268
806.478	3024
806.62	2960
806.762	2979
806.904	3070
807.046	3150
807.188	2979
807.33	2929
807.472	3009
807.614	2914
807.756	2994
807.898	2960
808.04	2910
808.182	2967
808.324	2941
808.465	2876
808.607	2861
808.749	2811
808.891	2876
809.033	2990
809.174	2952
809.316	2891
809.458	2906
809.6	2766
809.741	2819
809.883	2792
810.025	2826
810.166	2864
810.308	2834
810.45	2834
810.591	2758
810.733	2781
810.875	2842
811.016	2785
811.158	2777
811.299	2819
811.441	2952
811.582	2922
811.724	2807
811.865	2800
812.007	2899
812.148	2834
812.29	2864
812.431	2880
812.573	2944
812.714	3001
812.855	3013
812.997	3036
813.138	3127
813.279	2998
813.421	3001
813.562	2963
813.703	2880
813.845	2910
813.986	2807
814.127	2716
814.268	2815
814.41	2864
814.551	2815
814.692	2872
814.833	2800
814.974	2918
815.115	2979
815.256	2842
815.397	2857
815.539	2872
815.68	2788
815.821	2792
815.962	2960
816.103	2914
816.244	2906
816.385	2853
816.526	2956
816.666	2906
816.807	2758
816.948	2910
817.089	2906
817.23	2883
817.371	2796
817.512	2800
817.653	2842
817.793	2834
817.934	2868
818.075	2963
818.216	2986
818.356	3047
818.497	2887
818.638	2830
818.778	2834
818.919	2769
819.06	2766
819.2	2895
819.341	2800
819.481	2819
819.622	2960
819.762	3089
819.903	3070
820.043	2937
820.184	2883
820.324	2906
820.465	3020
820.605	2998
820.746	3024
820.886	2918
821.026	3100
821.167	3123
821.307	3275
821.447	3317
821.588	3256
821.728	3203
821.868	3199
822.008	3070
822.149	3199
822.289	3218
822.429	3089
822.569	3089
822.709	3180
822.849	3005
822.99	3070
823.13	3157
823.27	3176
823.41	3119
823.55	3142
823.69	3146
823.83	3180
823.97	3104
824.11	3024
824.25	3017
824.389	3047
824.529	3043
824.669	3047
824.809	3188
824.949	3268
825.089	3249
825.228	3169
825.368	2982
825.508	2963
825.648	2948
825.787	3005
825.927	3036
826.067	2975
826.206	2975
826.346	3039
826.485	3070
826.625	3123
826.765	3264
826.904	3230
827.044	2994
827.183	2922
827.323	2891
827.462	2982
827.601	2883
827.741	2922
827.88	2948
828.02	2857
828.159	2986
828.298	3039
828.437	3150
828.577	3024
828.716	3260
828.855	3089
828.994	2933
829.134	2922
829.273	2925
829.412	2857
829.551	2849
829.69	2887
829.829	3032
829.968	3138
830.107	3005
830.246	3047
830.385	2948
830.524	2872
830.663	2769
830.802	2739
830.941	2659
831.08	2674
831.219	2727
831.357	2754
831.496	2960
831.635	2735
831.774	2670
831.913	2670
832.051	2549
832.19	2568
832.329	2674
832.467	2518
832.606	2450
832.744	2575
832.883	2564
833.022	2564
833.16	2625
833.299	2708
833.437	2697
833.576	2667
833.714	2731
833.852	2712
833.991	2754
834.129	2872
834.267	2823
834.406	2781
834.544	2883
834.682	2883
834.821	2872
834.959	3036
835.097	2914
835.235	3047
835.373	2960
835.511	3017
835.65	2956
835.788	2952
835.926	2834
836.064	2788
836.202	2857
836.34	3108
836.478	3180
836.615	3047
836.753	3127
836.891	3192
837.029	3150
837.167	3108
837.305	3047
837.443	3066
837.58	2956
837.718	3116
837.856	3097
837.993	3001
838.131	3127
838.269	3089
838.406	3112
838.544	3089
838.681	2937
838.819	2937
838.956	2766
839.094	2861
839.231	2914
839.369	3024
839.506	3370
839.643	3226
839.781	3009
839.918	2948
840.055	3051
840.193	3058
840.33	3097
840.467	3112
840.604	3154
840.742	3416
840.879	3070
841.016	3081
841.153	3146
841.29	3359
841.427	3283
841.564	3249
841.701	3294
841.838	3218
841.975	3188
842.112	3184
842.249	3097
842.385	3039
842.522	3241
842.659	3085
842.796	3036
842.933	3123
843.069	3013
843.206	3043
843.343	3173
843.479	3116
843.616	3112
843.752	2887
843.889	2887
844.025	3081
844.162	2887
844.298	3074
844.435	2925
844.571	2906
844.708	3089
844.844	3195
844.98	3226
845.117	3192
845.253	3066
845.389	2986
845.525	3058
845.661	3097
845.798	3039
845.934	3127
846.07	3070
846.206	3214
846.342	3317
846.478	3283
846.614	3116
846.75	3032
846.886	3077
847.022	3256
847.158	3104
847.294	3161
847.429	3237
847.565	3195
847.701	3488
847.837	3062
847.972	2998
848.108	3142
848.244	3154
848.379	3020
848.515	2941
848.65	2929
848.786	2982
848.921	3032
849.057	3093
849.192	3184
849.328	3039
849.463	3093
849.598	3081
849.734	3085
849.869	3020
850.004	2948
850.14	2956
850.275	2937
850.41	2876
850.545	2845
850.68	2941
850.815	2979
850.95	2944
851.085	3195
851.22	3123
851.355	3028
851.49	2967
851.625	2975
851.76	3001
851.895	2937
852.03	2906
852.165	3032
852.299	3123
852.434	3176
852.569	3131
852.703	3169
852.838	3241
852.973	3329
853.107	3344
853.242	3123
853.376	3089
853.511	3009
853.645	3032
853.78	3237
853.914	3104
854.048	3112
854.183	3058
854.317	3138
854.451	3291
854.585	3146
854.72	3085
854.854	3222
854.988	3081
855.122	3089
855.256	3009
855.39	3135
855.524	3218
855.658	3176
855.792	3180
855.926	3199
856.06	3233
856.194	3214
856.327	3154
856.461	3116
856.595	3123
856.729	3112
856.862	3233
856.996	3165
857.13	3188
857.263	3230
857.397	3260
857.53	3112
857.664	3195
857.797	3233
857.931	3287
858.064	3138
858.197	3230
858.331	3169
858.464	3093
858.597	3036
858.731	3123
858.864	3119
858.997	3089
859.13	3123
859.263	3184
859.396	3211
859.529	3116
859.662	3108
859.795	3070
859.928	3146
860.061	3253
860.194	3302
860.327	3100
860.46	3112
860.592	3272
860.725	3218
860.858	3237
860.99	3135
861.123	3055
861.256	3020
861.388	3127
861.521	3869
861.653	3013
861.786	2941
861.918	3043
862.05	3062
862.183	3089
862.315	3161
862.447	3180
862.58	3085
862.712	2937
862.844	2918
862.976	3009
863.108	2994
863.24	3317
863.372	2872
863.504	2967
863.636	2937
863.768	3032
863.9	2941
864.032	2933
864.164	2960
864.296	3017
864.428	3116
864.559	3070
864.691	3074
864.823	3047
864.954	3032
865.086	3062
865.217	3017
865.349	2948
865.48	2990
865.612	3013
865.743	3135
865.875	2998
866.006	2918
866.137	2975
866.269	2944
866.4	2918
866.531	2906
866.662	2906
866.793	2891
866.924	2895
867.055	2956
867.186	2922
867.317	2883
867.448	2834
867.579	2845
867.71	2834
867.841	2857
867.972	2899
868.103	2918
868.233	2895
868.364	2872
868.495	2941
868.625	3085
868.756	3154
868.886	2963
869.017	3013
869.147	3184
869.278	3146
869.408	3028
869.539	2994
869.669	3081
869.799	3051
869.929	3161
870.06	3058
870.19	3332
870.32	3287
870.45	3298
870.58	3363
870.71	3492
870.84	3469
870.97	3294
871.1	3237
871.23	3492
871.36	3450
871.489	3359
871.619	3397
871.749	3393
871.879	3450
872.008	3454
872.138	3355
872.267	3294
872.397	3150
872.526	3093
872.656	3036
872.785	3131
872.915	3272
873.044	3298
873.173	3203
873.303	3245
873.432	3245
873.561	3237
873.69	3138
873.819	3150
873.948	3218
874.077	3100
874.206	3077
874.335	3074
874.464	3199
874.593	3386
874.722	3226
874.851	3386
874.979	3321
875.108	3374
875.237	3180
875.365	3169
875.494	3173
875.623	3245
875.751	3062
875.88	3108
876.008	3184
876.136	3237
876.265	3389
876.393	3496
876.521	3428
876.65	3412
876.778	3336
876.906	3275
877.034	3226
877.162	3222
877.29	3173
877.418	3268
877.546	3214
877.674	3249
877.802	3226
877.93	3203
878.058	3123
878.185	3097
878.313	3154
878.441	3226
878.568	3093
878.696	3142
878.824	3249
878.951	3241
879.079	3412
879.206	3618
879.333	3450
879.461	3317
879.588	3359
879.715	3485
879.842	3610
879.97	3378
880.097	3146
880.224	3119
880.351	3184
880.478	3214
880.605	3211
880.732	3241
880.859	3500
880.986	3317
881.112	3370
881.239	3222
881.366	3100
881.493	3013
881.619	3017
881.746	3074
881.872	3093
881.999	3089
882.125	3116
882.252	3253
882.378	3283
882.505	3416
882.631	3287
882.757	3161
882.883	3195
883.01	3237
883.136	3165
883.262	3089
883.388	3142
883.514	3264
883.64	3348
883.766	3302
883.892	3199
884.018	3249
884.143	3382
884.269	3545
884.395	3203
884.52	3150
884.646	3173
884.772	3112
884.897	3093
885.023	3176
885.148	3313
885.274	3393
885.399	3363
885.524	3275
885.65	3241
885.775	3321
885.9	3287
886.025	3447
886.15	3359
886.275	3325
886.4	3230
886.525	3313
886.65	3256
886.775	3302
886.9	3477
887.025	3644
887.149	3424
887.274	3264
887.399	3211
887.523	3249
887.648	3203
887.773	3199
887.897	3389
888.021	3405
888.146	3310
888.27	3473
888.395	3534
888.519	3443
888.643	3439
888.767	3477
888.891	3306
889.015	3256
889.139	3298
889.263	3233
889.387	3416
889.511	3488
889.635	3488
889.759	3294
889.883	3268
890.006	3378
890.13	3473
890.254	3302
890.377	3355
890.501	3249
890.624	3230
890.748	3317
890.871	3150
890.995	3100
891.118	3066
891.241	3241
891.364	3184
891.488	3348
891.611	3169
891.734	3249
891.857	3302
891.98	3241
892.103	3294
892.226	3268
892.349	3184
892.471	3097
892.594	3195
892.717	3310
892.839	3313
892.962	3306
893.085	3329
893.207	3291
893.33	3154
893.452	3211
893.575	3344
893.697	3283
893.819	3447
893.941	3519
894.064	3443
894.186	3294
894.308	3264
894.43	3462
894.552	3496
894.674	3511
894.796	3279
894.918	3298
895.04	3264
895.161	3458
895.283	3336
895.405	3279
895.526	3332
895.648	3428
895.769	3439
895.891	3416
896.012	3431
896.134	3435
896.255	3405
896.376	3374
896.498	3374
896.619	3386
896.74	3378
896.861	3401
896.982	3701
897.103	3835
897.224	3591
897.345	3477
897.466	3416
897.587	3466
897.708	3610
897.828	3523
897.949	3447
898.07	3332
898.19	3367
898.311	3595
898.431	3447
898.552	3515
898.672	3629
898.792	3572
898.913	3530
899.033	3431
899.153	3310
899.273	3230
899.393	3287
899.513	3332
899.633	3351
899.753	3325
899.873	3321
899.993	3401
900.113	3317
900.232	3401
900.352	3332
900.472	3272
900.591	3222
900.711	3275
900.83	3218
900.95	3412
901.069	3511
901.189	3374
901.308	3230
901.427	3146
901.546	3180
901.665	3264
901.784	3332
901.904	3226
902.023	3123
902.141	3039
902.26	3001
902.379	3165
902.498	3074
902.617	3062
902.735	3218
902.854	3207
902.973	3157
903.091	3043
903.21	3066
903.328	3146
903.446	3127
903.565	3112
903.683	3192
903.801	3135
903.919	3211
904.038	3302
904.156	3176
904.274	3291
904.392	3230
904.51	3317
904.627	3344
904.745	3458
904.863	3526
904.981	3268
905.098	3131
905.216	3203
905.334	3294
905.451	3313
905.569	3287
905.686	3397
905.803	3412
905.921	3260
906.038	3416
906.155	3359
906.272	3302
906.389	3340
906.506	3241
906.623	3249
906.74	3317
906.857	3165
906.974	3249
907.091	3454
907.208	3572
907.324	3428
907.441	3378
907.557	3195
907.674	3226
907.79	3173
907.907	3283
908.023	3355
908.139	3355
908.256	3306
908.372	3340
908.488	3310
908.604	3222
908.72	3237
908.836	3275
908.952	3279
909.068	3340
909.184	3473
909.3	3409
909.415	3500
909.531	3481
909.647	3306
909.762	3291
909.878	3275
909.993	3367
910.108	3332
910.224	3313
910.339	3431
910.454	3332
910.57	3329
910.685	3287
910.8	3599
910.915	3584
911.03	3435
911.145	3321
911.259	3272
911.374	3336
911.489	3291
911.604	3237
911.718	3161
911.833	3127
911.947	3062
912.062	2998
912.176	3211
912.291	3207
912.405	3214
912.519	3450
912.633	3466
912.748	3382
912.862	3310
912.976	3203
913.09	3097
913.204	3165
913.318	3241
913.431	3393
913.545	3370
913.659	3416
913.772	3344
913.886	3260
914	3233
914.113	3431
914.226	3485
914.34	3401
914.453	3245
914.566	3450
914.68	3367
914.793	3378
914.906	3142
915.019	3161
915.132	3119
915.245	3203
915.358	3253
915.47	3291
915.583	3329
915.696	3374
915.809	3454
915.921	3496
916.034	3317
916.146	3302
916.259	3283
916.371	3416
916.483	3416
916.595	3344
916.708	3348
916.82	3359
916.932	3397
917.044	3416
917.156	3374
917.268	3336
917.38	3336
917.491	3359
917.603	3435
917.715	3511
917.826	3538
917.938	3389
918.049	3298
918.161	3469
918.272	3606
918.384	3629
918.495	3530
918.606	3405
918.717	3321
918.828	3469
918.939	3469
919.05	3340
919.161	3450
919.272	3173
919.383	3325
919.494	3542
919.604	3720
919.715	3530
919.826	3485
919.936	3481
920.047	3660
920.157	3599
920.267	3838
920.378	3660
920.488	3595
920.598	3816
920.708	3994
920.818	3835
920.928	3892
921.038	4044
921.148	4013
921.258	3728
921.368	3663
921.477	3633
921.587	3603
921.697	3530
921.806	3694
921.916	3580
922.025	3401
922.134	3405
922.244	3378
922.353	3458
922.462	3317
922.571	3291
922.68	3127
922.789	3104
922.898	3157
923.007	3173
923.116	3245
923.224	3226
923.333	3241
923.442	3169
923.55	3169
923.659	3195
923.767	3272
923.876	3150
923.984	3298
924.092	3138
924.201	3233
924.309	3253
924.417	3287
924.525	3287
924.633	3272
924.741	4253
924.849	3116
924.956	3355
925.064	3104
925.172	3108
925.279	3135
925.387	3249
925.494	3241
925.602	3389
925.709	3359
925.816	3207
925.924	3340
926.031	3431
926.138	3355
926.245	3416
926.352	3317
926.459	3462
926.566	3526
926.673	3359
926.779	3336
926.886	3275
926.993	3211
927.099	3150
927.206	3173
927.312	3154
927.419	3256
927.525	3222
927.631	3329
927.737	3165
927.843	3176
927.95	3108
928.056	3207
928.162	3226
928.267	3325
928.373	3922
928.479	3370
928.585	3127
928.69	3279
928.796	3317
928.901	3188
929.007	3116
929.112	3260
929.218	3241
929.323	3188
929.428	3211
929.533	3348
929.638	3138
929.743	3233
929.848	3275
929.953	3279
930.058	3154
930.163	3020
930.267	3089
930.372	3230
930.477	3055
930.581	3332
930.685	3218
930.79	3066
930.894	3142
930.998	3169
931.103	3340
931.207	2986
931.311	2975
931.415	2986
931.519	2800
931.623	2861
