Data from test_V78500241_1246.txt Node
Date: Fri Mar 25 16:23:50 CST 2022
User: usil
Spectrometer: V785-0024
Trigger mode: 0
Integration Time (sec): 4.000000E-1
Scans to average: 1
Nonlinearity correction enabled: false
Boxcar width: 0
Storing dark spectrum: false
XAxis mode: Wavelengths
Number of Pixels in Spectrum: 1024
>>>>>Begin Spectral Data<<<<<
801.071	2922
801.214	2952
801.356	2868
801.499	2899
801.641	2906
801.783	2872
801.926	3062
802.068	3028
802.211	2982
802.353	3009
802.496	2963
802.638	3017
802.78	3001
802.923	3074
803.065	2998
803.208	2887
803.35	2880
803.492	2929
803.635	2906
803.777	2792
803.919	2868
804.061	3192
804.204	2941
804.346	2933
804.488	2830
804.63	2971
804.773	2868
804.915	2864
805.057	3097
805.199	2906
805.341	2994
805.483	3051
805.626	3001
805.768	2975
805.91	3066
806.052	3085
806.194	3036
806.336	3230
806.478	3028
806.62	2971
806.762	2994
806.904	3036
807.046	3165
807.188	2998
807.33	2883
807.472	2990
807.614	2910
807.756	2990
807.898	2933
808.04	2914
808.182	2998
808.324	2925
808.465	2899
808.607	2906
808.749	2804
808.891	2823
809.033	2986
809.174	2952
809.316	2895
809.458	2899
809.6	2792
809.741	2777
809.883	2754
810.025	2868
810.166	2864
810.308	2849
810.45	2853
810.591	2804
810.733	2788
810.875	2807
811.016	2773
811.158	2777
811.299	2785
811.441	2918
811.582	2937
811.724	2796
811.865	2842
812.007	2929
812.148	2899
812.29	2861
812.431	2857
812.573	2937
812.714	2971
812.855	3028
812.997	3039
813.138	3108
813.279	3047
813.421	3001
813.562	2963
813.703	2864
813.845	2914
813.986	2773
814.127	2727
814.268	2823
814.41	2819
814.551	2819
814.692	2883
814.833	2845
814.974	2895
815.115	2948
815.256	2834
815.397	2800
815.539	2834
815.68	2769
815.821	2823
815.962	2941
816.103	2948
816.244	2857
816.385	2891
816.526	2960
816.666	2914
816.807	2716
816.948	2902
817.089	2910
817.23	2845
817.371	2788
817.512	2819
817.653	2815
817.793	2826
817.934	2887
818.075	2944
818.216	2998
818.356	3020
818.497	2891
818.638	2796
818.778	2796
818.919	2800
819.06	2735
819.2	2849
819.341	2800
819.481	2815
819.622	2933
819.762	3108
819.903	3039
820.043	2948
820.184	2944
820.324	2872
820.465	3005
820.605	2990
820.746	3005
820.886	2975
821.026	3119
821.167	3123
821.307	3245
821.447	3241
821.588	3230
821.728	3226
821.868	3218
822.008	3066
822.149	3188
822.289	3230
822.429	3127
822.569	3112
822.709	3188
822.849	3066
822.99	3062
823.13	3169
823.27	3195
823.41	3119
823.55	3180
823.69	3112
823.83	3192
823.97	3074
824.11	3028
824.25	3005
824.389	3055
824.529	3112
824.669	3028
824.809	3195
824.949	3268
825.089	3230
825.228	3146
825.368	2971
825.508	2956
825.648	2967
825.787	3020
825.927	2986
826.067	2948
826.206	2967
826.346	3062
826.485	3047
826.625	3112
826.765	3203
826.904	3226
827.044	2998
827.183	2960
827.323	2876
827.462	2975
827.601	2910
827.741	2910
827.88	2944
828.02	2868
828.159	2960
828.298	3017
828.437	3093
828.577	3039
828.716	3226
828.855	3093
828.994	2925
829.134	2914
829.273	2891
829.412	2842
829.551	2830
829.69	2918
829.829	2986
829.968	3157
830.107	2998
830.246	3062
830.385	2906
830.524	2899
830.663	2796
830.802	2743
830.941	2625
831.08	2598
831.219	2750
831.357	2754
831.496	2944
831.635	2705
831.774	2648
831.913	2659
832.051	2522
832.19	2598
832.329	2716
832.467	2537
832.606	2488
832.744	2590
832.883	2587
833.022	2587
833.16	2636
833.299	2659
833.437	2678
833.576	2670
833.714	2716
833.852	2739
833.991	2720
834.129	2788
834.267	2853
834.406	2796
834.544	2883
834.682	2868
834.821	2842
834.959	3066
835.097	2906
835.235	3066
835.373	2994
835.511	3013
835.65	2937
835.788	2937
835.926	2807
836.064	2792
836.202	2796
836.34	3093
836.478	3154
836.615	3055
836.753	3150
836.891	3211
837.029	3165
837.167	3081
837.305	3047
837.443	3013
837.58	2941
837.718	3135
837.856	3089
837.993	3036
838.131	3135
838.269	3093
838.406	3119
838.544	3081
838.681	2914
838.819	2933
838.956	2807
839.094	2842
839.231	2899
839.369	2990
839.506	3409
839.643	3233
839.781	3017
839.918	2948
840.055	3032
840.193	3058
840.33	3062
840.467	3108
840.604	3146
840.742	3386
840.879	3047
841.016	3047
841.153	3131
841.29	3317
841.427	3291
841.564	3241
841.701	3272
841.838	3203
841.975	3169
842.112	3184
842.249	3108
842.385	2986
842.522	3275
842.659	3085
842.796	3036
842.933	3081
843.069	3032
843.206	3013
843.343	3173
843.479	3112
843.616	3142
843.752	2849
843.889	2880
844.025	3051
844.162	2853
844.298	3058
844.435	2967
844.571	2944
844.708	3055
844.844	3188
844.98	3222
845.117	3195
845.253	3070
845.389	2998
845.525	3051
845.661	3070
845.798	3032
845.934	3138
846.07	3047
846.206	3214
846.342	3321
846.478	3192
846.614	3085
846.75	3036
846.886	3001
847.022	3253
847.158	3127
847.294	3173
847.429	3256
847.565	3211
847.701	3428
847.837	3032
847.972	2971
848.108	3104
848.244	3119
848.379	3001
848.515	2971
848.65	2895
848.786	2944
848.921	3001
849.057	3085
849.192	3138
849.328	3070
849.463	3146
849.598	3093
849.734	3024
849.869	2960
850.004	2891
850.14	2975
850.275	2899
850.41	2823
850.545	2895
850.68	2925
850.815	2986
850.95	2963
851.085	3169
851.22	3116
851.355	2990
851.49	2941
851.625	2986
851.76	3043
851.895	2906
852.03	2887
852.165	3005
852.299	3135
852.434	3188
852.569	3135
852.703	3188
852.838	3211
852.973	3344
853.107	3313
853.242	3131
853.376	3062
853.511	2956
853.645	3047
853.78	3230
853.914	3100
854.048	3135
854.183	3093
854.317	3119
854.451	3275
854.585	3116
854.72	3058
854.854	3188
854.988	3047
855.122	3081
855.256	2963
855.39	3142
855.524	3214
855.658	3188
855.792	3176
855.926	3176
856.06	3207
856.194	3279
856.327	3142
856.461	3062
856.595	3135
856.729	3077
856.862	3249
856.996	3142
857.13	3222
857.263	3199
857.397	3298
857.53	3100
857.664	3192
857.797	3195
857.931	3268
858.064	3184
858.197	3184
858.331	3142
858.464	3085
858.597	3001
858.731	3138
858.864	3112
858.997	3108
859.13	3108
859.263	3180
859.396	3207
859.529	3066
859.662	3081
859.795	3062
859.928	3104
860.061	3222
860.194	3268
860.327	3116
860.46	3100
860.592	3237
860.725	3233
860.858	3237
860.99	3085
861.123	3039
861.256	3009
861.388	3142
861.521	3690
861.653	3017
861.786	2952
861.918	2994
862.05	3081
862.183	3104
862.315	3161
862.447	3214
862.58	3036
862.712	2967
862.844	2849
862.976	2998
863.108	3017
863.24	3283
863.372	2864
863.504	2967
863.636	2948
863.768	3013
863.9	2948
864.032	2880
864.164	2971
864.296	3020
864.428	3074
864.559	3089
864.691	3062
864.823	3074
864.954	3024
865.086	3028
865.217	2998
865.349	2944
865.48	2998
865.612	3001
865.743	3131
865.875	2994
866.006	2975
866.137	2960
866.269	2941
866.4	2941
866.531	2906
866.662	2876
866.793	2925
866.924	2929
867.055	2952
867.186	2922
867.317	2887
867.448	2864
867.579	2842
867.71	2876
867.841	2815
867.972	2895
868.103	2891
868.233	2857
868.364	2891
868.495	2910
868.625	3112
868.756	3150
868.886	2982
869.017	3024
869.147	3176
869.278	3161
869.408	3024
869.539	3001
869.669	3104
869.799	3039
869.929	3104
870.06	3123
870.19	3317
870.32	3313
870.45	3298
870.58	3374
870.71	3412
870.84	3416
870.97	3279
871.1	3211
871.23	3492
871.36	3416
871.489	3340
871.619	3397
871.749	3389
871.879	3439
872.008	3481
872.138	3332
872.267	3283
872.397	3154
872.526	3085
872.656	3032
872.785	3093
872.915	3199
873.044	3302
873.173	3188
873.303	3230
873.432	3237
873.561	3230
873.69	3169
873.819	3131
873.948	3211
874.077	3104
874.206	3036
874.335	3119
874.464	3188
874.593	3321
874.722	3233
874.851	3382
874.979	3272
875.108	3378
875.237	3184
875.365	3188
875.494	3146
875.623	3268
875.751	3085
875.88	3127
876.008	3218
876.136	3237
876.265	3363
876.393	3534
876.521	3424
876.65	3393
876.778	3363
876.906	3214
877.034	3207
877.162	3233
877.29	3142
877.418	3241
877.546	3233
877.674	3226
877.802	3207
877.93	3199
878.058	3146
878.185	3089
878.313	3154
878.441	3176
878.568	3085
878.696	3135
878.824	3214
878.951	3279
879.079	3447
879.206	3614
879.333	3439
879.461	3332
879.588	3332
879.715	3492
879.842	3549
879.97	3355
880.097	3165
880.224	3127
880.351	3176
880.478	3207
880.605	3188
880.732	3188
880.859	3488
880.986	3283
881.112	3348
881.239	3207
881.366	3104
881.493	3066
881.619	3028
881.746	3047
881.872	3112
881.999	3070
882.125	3173
882.252	3199
882.378	3291
882.505	3439
882.631	3275
882.757	3127
882.883	3214
883.01	3199
883.136	3146
883.262	3097
883.388	3085
883.514	3348
883.64	3355
883.766	3298
883.892	3173
884.018	3222
884.143	3401
884.269	3568
884.395	3184
884.52	3165
884.646	3203
884.772	3112
884.897	3112
885.023	3188
885.148	3348
885.274	3370
885.399	3355
885.524	3241
885.65	3249
885.775	3370
885.9	3313
886.025	3393
886.15	3374
886.275	3310
886.4	3226
886.525	3287
886.65	3245
886.775	3272
886.9	3485
887.025	3625
887.149	3412
887.274	3256
887.399	3180
887.523	3188
887.648	3211
887.773	3192
887.897	3363
888.021	3389
888.146	3287
888.27	3409
888.395	3534
888.519	3447
888.643	3450
888.767	3466
888.891	3272
889.015	3233
889.139	3264
889.263	3222
889.387	3428
889.511	3500
889.635	3405
889.759	3298
889.883	3310
890.006	3389
890.13	3500
890.254	3264
890.377	3317
890.501	3192
890.624	3207
890.748	3302
890.871	3173
890.995	3112
891.118	3058
891.241	3165
891.364	3195
891.488	3260
891.611	3176
891.734	3214
891.857	3310
891.98	3214
892.103	3329
892.226	3283
892.349	3173
892.471	3123
892.594	3230
892.717	3310
892.839	3264
892.962	3260
893.085	3351
893.207	3272
893.33	3138
893.452	3211
893.575	3340
893.697	3249
893.819	3450
893.941	3507
894.064	3439
894.186	3298
894.308	3237
894.43	3435
894.552	3511
894.674	3424
894.796	3241
894.918	3321
895.04	3325
895.161	3416
895.283	3336
895.405	3275
895.526	3351
895.648	3424
895.769	3409
895.891	3416
896.012	3435
896.134	3454
896.255	3401
896.376	3363
896.498	3302
896.619	3397
896.74	3363
896.861	3401
896.982	3701
897.103	3854
897.224	3572
897.345	3515
897.466	3393
897.587	3507
897.708	3595
897.828	3526
897.949	3424
898.07	3332
898.19	3443
898.311	3606
898.431	3443
898.552	3488
898.672	3576
898.792	3549
898.913	3519
899.033	3412
899.153	3287
899.273	3192
899.393	3260
899.513	3283
899.633	3306
899.753	3321
899.873	3294
899.993	3325
900.113	3306
900.232	3367
900.352	3321
900.472	3256
900.591	3173
900.711	3325
900.83	3237
900.95	3431
901.069	3523
901.189	3351
901.308	3188
901.427	3146
901.546	3195
901.665	3249
901.784	3329
901.904	3180
902.023	3188
902.141	3017
902.26	3024
902.379	3131
902.498	3070
902.617	3089
902.735	3180
902.854	3253
902.973	3233
903.091	3062
903.21	3051
903.328	3169
903.446	3093
903.565	3074
903.683	3214
903.801	3138
903.919	3260
904.038	3283
904.156	3214
904.274	3275
904.392	3237
904.51	3279
904.627	3294
904.745	3409
904.863	3458
904.981	3245
905.098	3142
905.216	3214
905.334	3272
905.451	3302
905.569	3351
905.686	3420
905.803	3431
905.921	3268
906.038	3485
906.155	3351
906.272	3279
906.389	3359
906.506	3253
906.623	3268
906.74	3287
906.857	3195
906.974	3222
907.091	3428
907.208	3561
907.324	3488
907.441	3382
907.557	3241
907.674	3241
907.79	3203
907.907	3294
908.023	3382
908.139	3370
908.256	3367
908.372	3367
908.488	3389
908.604	3272
908.72	3275
908.836	3272
908.952	3264
909.068	3344
909.184	3454
909.3	3386
909.415	3500
909.531	3492
909.647	3260
909.762	3306
909.878	3264
909.993	3355
910.108	3329
910.224	3329
910.339	3393
910.454	3294
910.57	3306
910.685	3218
910.8	3568
910.915	3507
911.03	3431
911.145	3241
911.259	3260
911.374	3294
911.489	3264
911.604	3226
911.718	3097
911.833	3176
911.947	3028
912.062	2979
912.176	3104
912.291	3173
912.405	3203
912.519	3416
912.633	3481
912.748	3283
912.862	3294
912.976	3199
913.09	3055
913.204	3127
913.318	3218
913.431	3348
913.545	3325
913.659	3420
913.772	3321
913.886	3203
914	3165
914.113	3336
914.226	3397
914.34	3321
914.453	3237
914.566	3370
914.68	3256
914.793	3336
914.906	3150
915.019	3119
915.132	3055
915.245	3203
915.358	3245
915.47	3173
915.583	3294
915.696	3272
915.809	3401
915.921	3412
916.034	3249
916.146	3241
916.259	3268
916.371	3340
916.483	3359
916.595	3268
916.708	3340
916.82	3359
916.932	3325
917.044	3348
917.156	3340
917.268	3241
917.38	3287
917.491	3287
917.603	3389
917.715	3481
917.826	3450
917.938	3378
918.049	3264
918.161	3424
918.272	3526
918.384	3538
918.495	3469
918.606	3332
918.717	3256
918.828	3412
918.939	3401
919.05	3310
919.161	3351
919.272	3188
919.383	3268
919.494	3492
919.604	3686
919.715	3466
919.826	3397
919.936	3462
920.047	3591
920.157	3557
920.267	3762
920.378	3614
920.488	3545
920.598	3793
920.708	3934
920.818	3819
920.928	3819
921.038	4010
921.148	4002
921.258	3740
921.368	3629
921.477	3606
921.587	3534
921.697	3447
921.806	3606
921.916	3504
922.025	3302
922.134	3332
922.244	3355
922.353	3466
922.462	3279
922.571	3180
922.68	3100
922.789	3085
922.898	3131
923.007	3097
923.116	3211
923.224	3138
923.333	3188
923.442	3127
923.55	3131
923.659	3154
923.767	3176
923.876	3119
923.984	3233
924.092	3108
924.201	3222
924.309	3211
924.417	3233
924.525	3173
924.633	3241
924.741	4006
924.849	3043
924.956	3241
925.064	3051
925.172	2979
925.279	3066
925.387	3131
925.494	3180
925.602	3386
925.709	3291
925.816	3176
925.924	3237
926.031	3386
926.138	3332
926.245	3382
926.352	3249
926.459	3374
926.566	3473
926.673	3310
926.779	3233
926.886	3241
926.993	3142
927.099	3138
927.206	3089
927.312	3100
927.419	3241
927.525	3207
927.631	3268
927.737	3142
927.843	3142
927.95	3020
928.056	3142
928.162	3165
928.267	3253
928.373	3899
928.479	3325
928.585	3081
928.69	3211
928.796	3283
928.901	3157
929.007	3013
929.112	3264
929.218	3176
929.323	3142
929.428	3146
929.533	3310
929.638	3077
929.743	3161
929.848	3275
929.953	3188
930.058	3161
930.163	2986
930.267	3039
930.372	3207
930.477	3036
930.581	3294
930.685	3180
930.79	3077
930.894	3150
930.998	3055
931.103	3260
931.207	2952
931.311	2948
931.415	2925
931.519	2788
931.623	2819
