Data from test_V78500241_899.txt Node
Date: Fri Mar 25 16:21:25 CST 2022
User: usil
Spectrometer: V785-0024
Trigger mode: 0
Integration Time (sec): 4.000000E-1
Scans to average: 1
Nonlinearity correction enabled: false
Boxcar width: 0
Storing dark spectrum: false
XAxis mode: Wavelengths
Number of Pixels in Spectrum: 1024
>>>>>Begin Spectral Data<<<<<
801.071	2948
801.214	2952
801.356	2853
801.499	2922
801.641	2895
801.783	2902
801.926	3009
802.068	2937
802.211	3017
802.353	3032
802.496	2918
802.638	3020
802.78	3013
802.923	3062
803.065	2971
803.208	2891
803.35	2910
803.492	2933
803.635	2887
803.777	2788
803.919	2857
804.061	3180
804.204	2944
804.346	2910
804.488	2849
804.63	2975
804.773	2845
804.915	2925
805.057	3089
805.199	2922
805.341	2933
805.483	3062
805.626	3013
805.768	2963
805.91	3066
806.052	3108
806.194	3009
806.336	3253
806.478	3005
806.62	2941
806.762	2990
806.904	3051
807.046	3150
807.188	2982
807.33	2922
807.472	2994
807.614	2891
807.756	2982
807.898	2899
808.04	2883
808.182	2979
808.324	2933
808.465	2864
808.607	2883
808.749	2781
808.891	2823
809.033	3001
809.174	2929
809.316	2864
809.458	2864
809.6	2754
809.741	2739
809.883	2739
810.025	2815
810.166	2823
810.308	2819
810.45	2811
810.591	2773
810.733	2720
810.875	2823
811.016	2777
811.158	2769
811.299	2830
811.441	2941
811.582	2910
811.724	2811
811.865	2830
812.007	2922
812.148	2853
812.29	2830
812.431	2876
812.573	2937
812.714	2960
812.855	3039
812.997	3058
813.138	3108
813.279	2952
813.421	2963
813.562	2967
813.703	2872
813.845	2891
813.986	2777
814.127	2731
814.268	2819
814.41	2788
814.551	2819
814.692	2864
814.833	2838
814.974	2838
815.115	2948
815.256	2826
815.397	2823
815.539	2842
815.68	2777
815.821	2788
815.962	2944
816.103	2941
816.244	2872
816.385	2864
816.526	2971
816.666	2906
816.807	2739
816.948	2872
817.089	2941
817.23	2838
817.371	2788
817.512	2773
817.653	2845
817.793	2845
817.934	2887
818.075	2967
818.216	3024
818.356	3043
818.497	2861
818.638	2785
818.778	2861
818.919	2811
819.06	2807
819.2	2906
819.341	2792
819.481	2819
819.622	2883
819.762	3055
819.903	3024
820.043	2937
820.184	2906
820.324	2895
820.465	2994
820.605	3036
820.746	3039
820.886	2925
821.026	3104
821.167	3135
821.307	3272
821.447	3287
821.588	3249
821.728	3214
821.868	3233
822.008	3081
822.149	3211
822.289	3226
822.429	3085
822.569	3070
822.709	3188
822.849	3039
822.99	3051
823.13	3127
823.27	3169
823.41	3116
823.55	3119
823.69	3127
823.83	3199
823.97	3108
824.11	3028
824.25	3013
824.389	3043
824.529	3104
824.669	3058
824.809	3176
824.949	3291
825.089	3169
825.228	3165
825.368	2979
825.508	2979
825.648	2994
825.787	2998
825.927	3001
826.067	2975
826.206	2979
826.346	3047
826.485	3077
826.625	3127
826.765	3253
826.904	3233
827.044	2971
827.183	2956
827.323	2868
827.462	2960
827.601	2922
827.741	2952
827.88	2895
828.02	2853
828.159	2948
828.298	3051
828.437	3104
828.577	3005
828.716	3264
828.855	3058
828.994	2891
829.134	2849
829.273	2925
829.412	2842
829.551	2838
829.69	2883
829.829	2971
829.968	3104
830.107	3013
830.246	3017
830.385	2933
830.524	2872
830.663	2807
830.802	2724
830.941	2629
831.08	2655
831.219	2792
831.357	2746
831.496	2944
831.635	2659
831.774	2625
831.913	2655
832.051	2552
832.19	2602
832.329	2686
832.467	2522
832.606	2476
832.744	2552
832.883	2602
833.022	2568
833.16	2674
833.299	2670
833.437	2689
833.576	2724
833.714	2701
833.852	2750
833.991	2712
834.129	2830
834.267	2804
834.406	2804
834.544	2834
834.682	2842
834.821	2842
834.959	3066
835.097	2845
835.235	3055
835.373	3005
835.511	3005
835.65	2952
835.788	2941
835.926	2815
836.064	2792
836.202	2826
836.34	3055
836.478	3161
836.615	3039
836.753	3104
836.891	3188
837.029	3135
837.167	3077
837.305	3043
837.443	3043
837.58	2948
837.718	3108
837.856	3036
837.993	3005
838.131	3093
838.269	3097
838.406	3055
838.544	3058
838.681	2922
838.819	2906
838.956	2781
839.094	2777
839.231	2902
839.369	3001
839.506	3393
839.643	3211
839.781	2998
839.918	2982
840.055	3028
840.193	3039
840.33	3043
840.467	3093
840.604	3150
840.742	3412
840.879	3024
841.016	3047
841.153	3108
841.29	3351
841.427	3283
841.564	3272
841.701	3317
841.838	3214
841.975	3195
842.112	3218
842.249	3051
842.385	3036
842.522	3230
842.659	3070
842.796	3051
842.933	3100
843.069	3017
843.206	3028
843.343	3184
843.479	3058
843.616	3116
843.752	2872
843.889	2861
844.025	3051
844.162	2883
844.298	3051
844.435	2986
844.571	2902
844.708	3055
844.844	3169
844.98	3249
845.117	3176
845.253	3047
845.389	2986
845.525	3089
845.661	3081
845.798	3013
845.934	3150
846.07	3100
846.206	3199
846.342	3283
846.478	3207
846.614	3123
846.75	3043
846.886	2986
847.022	3241
847.158	3135
847.294	3188
847.429	3230
847.565	3230
847.701	3485
847.837	2998
847.972	2982
848.108	3184
848.244	3138
848.379	2994
848.515	2902
848.65	2925
848.786	2982
848.921	2967
849.057	3070
849.192	3150
849.328	3009
849.463	3119
849.598	3032
849.734	3055
849.869	2990
850.004	2899
850.14	2952
850.275	2899
850.41	2811
850.545	2830
850.68	2895
850.815	2963
850.95	2960
851.085	3161
851.22	3104
851.355	3020
851.49	2986
851.625	2971
851.76	3013
851.895	2944
852.03	2872
852.165	3017
852.299	3074
852.434	3131
852.569	3154
852.703	3188
852.838	3230
852.973	3321
853.107	3275
853.242	3119
853.376	3100
853.511	2941
853.645	3024
853.78	3203
853.914	3116
854.048	3097
854.183	3085
854.317	3127
854.451	3260
854.585	3077
854.72	3062
854.854	3211
854.988	3020
855.122	3055
855.256	2960
855.39	3085
855.524	3222
855.658	3154
855.792	3131
855.926	3127
856.06	3241
856.194	3256
856.327	3157
856.461	3051
856.595	3058
856.729	3089
856.862	3199
856.996	3116
857.13	3188
857.263	3192
857.397	3264
857.53	3081
857.664	3169
857.797	3207
857.931	3222
858.064	3169
858.197	3211
858.331	3108
858.464	3093
858.597	2963
858.731	3062
858.864	3123
858.997	3058
859.13	3108
859.263	3138
859.396	3195
859.529	3047
859.662	3077
859.795	3047
859.928	3108
860.061	3264
860.194	3260
860.327	3138
860.46	3104
860.592	3249
860.725	3253
860.858	3241
860.99	3123
861.123	3066
861.256	3047
861.388	3119
861.521	3835
861.653	2998
861.786	2979
861.918	2994
862.05	3112
862.183	3085
862.315	3089
862.447	3157
862.58	3089
862.712	2982
862.844	2914
862.976	3055
863.108	2994
863.24	3306
863.372	2910
863.504	3009
863.636	2975
863.768	3081
863.9	3001
864.032	2929
864.164	2982
864.296	3043
864.428	3131
864.559	3085
864.691	3077
864.823	3123
864.954	3085
865.086	3058
865.217	3043
865.349	2982
865.48	3013
865.612	3093
865.743	3165
865.875	3032
866.006	2979
866.137	2990
866.269	3005
866.4	2982
866.531	2929
866.662	2929
866.793	2925
866.924	2937
867.055	3005
867.186	2979
867.317	2891
867.448	2899
867.579	2906
867.71	2937
867.841	2868
867.972	2963
868.103	2922
868.233	2887
868.364	2941
868.495	2937
868.625	3100
868.756	3207
868.886	2998
869.017	3055
869.147	3211
869.278	3207
869.408	3058
869.539	3058
869.669	3089
869.799	3081
869.929	3154
870.06	3131
870.19	3336
870.32	3351
870.45	3336
870.58	3409
870.71	3477
870.84	3485
870.97	3317
871.1	3256
871.23	3507
871.36	3507
871.489	3397
871.619	3416
871.749	3469
871.879	3477
872.008	3542
872.138	3389
872.267	3306
872.397	3157
872.526	3131
872.656	3074
872.785	3135
872.915	3283
873.044	3386
873.173	3279
873.303	3272
873.432	3275
873.561	3294
873.69	3157
873.819	3169
873.948	3279
874.077	3135
874.206	3058
874.335	3161
874.464	3230
874.593	3389
874.722	3272
874.851	3393
874.979	3389
875.108	3348
875.237	3192
875.365	3214
875.494	3211
875.623	3272
875.751	3119
875.88	3142
876.008	3245
876.136	3249
876.265	3405
876.393	3576
876.521	3469
876.65	3428
876.778	3386
876.906	3291
877.034	3192
877.162	3291
877.29	3192
877.418	3302
877.546	3233
877.674	3275
877.802	3253
877.93	3287
878.058	3165
878.185	3119
878.313	3249
878.441	3230
878.568	3127
878.696	3188
878.824	3306
878.951	3317
879.079	3435
879.206	3686
879.333	3428
879.461	3321
879.588	3359
879.715	3561
879.842	3652
879.97	3447
880.097	3214
880.224	3150
880.351	3222
880.478	3275
880.605	3222
880.732	3211
880.859	3538
880.986	3348
881.112	3386
881.239	3287
881.366	3112
881.493	3074
881.619	3036
881.746	3108
881.872	3077
881.999	3127
882.125	3192
882.252	3298
882.378	3329
882.505	3454
882.631	3344
882.757	3165
882.883	3245
883.01	3233
883.136	3161
883.262	3116
883.388	3138
883.514	3386
883.64	3401
883.766	3359
883.892	3211
884.018	3256
884.143	3439
884.269	3545
884.395	3241
884.52	3192
884.646	3199
884.772	3138
884.897	3104
885.023	3233
885.148	3397
885.274	3428
885.399	3378
885.524	3298
885.65	3340
885.775	3310
885.9	3317
886.025	3462
886.15	3374
886.275	3348
886.4	3241
886.525	3283
886.65	3241
886.775	3321
886.9	3523
887.025	3690
887.149	3416
887.274	3287
887.399	3169
887.523	3214
887.648	3245
887.773	3218
887.897	3374
888.021	3439
888.146	3340
888.27	3504
888.395	3530
888.519	3450
888.643	3481
888.767	3469
888.891	3332
889.015	3291
889.139	3321
889.263	3275
889.387	3469
889.511	3564
889.635	3477
889.759	3344
889.883	3306
890.006	3458
890.13	3557
890.254	3313
890.377	3378
890.501	3218
890.624	3199
890.748	3340
890.871	3203
890.995	3131
891.118	3077
891.241	3264
891.364	3272
891.488	3359
891.611	3237
891.734	3218
891.857	3329
891.98	3241
892.103	3348
892.226	3294
892.349	3253
892.471	3173
892.594	3253
892.717	3317
892.839	3279
892.962	3310
893.085	3405
893.207	3317
893.33	3207
893.452	3256
893.575	3382
893.697	3226
893.819	3485
893.941	3538
894.064	3473
894.186	3340
894.308	3302
894.43	3450
894.552	3545
894.674	3500
894.796	3283
894.918	3348
895.04	3294
895.161	3458
895.283	3401
895.405	3332
895.526	3409
895.648	3431
895.769	3428
895.891	3447
896.012	3481
896.134	3447
896.255	3454
896.376	3420
896.498	3386
896.619	3454
896.74	3374
896.861	3424
896.982	3713
897.103	3926
897.224	3629
897.345	3561
897.466	3435
897.587	3568
897.708	3663
897.828	3530
897.949	3450
898.07	3336
898.19	3412
898.311	3629
898.431	3431
898.552	3553
898.672	3629
898.792	3584
898.913	3534
899.033	3450
899.153	3313
899.273	3180
899.393	3332
899.513	3340
899.633	3348
899.753	3340
899.873	3348
899.993	3378
900.113	3310
900.232	3386
900.352	3351
900.472	3279
900.591	3237
900.711	3340
900.83	3279
900.95	3469
901.069	3538
901.189	3344
901.308	3226
901.427	3199
901.546	3222
901.665	3306
901.784	3332
901.904	3222
902.023	3150
902.141	3074
902.26	3039
902.379	3169
902.498	3089
902.617	3093
902.735	3211
902.854	3268
902.973	3241
903.091	3097
903.21	3104
903.328	3154
903.446	3119
903.565	3104
903.683	3203
903.801	3127
903.919	3233
904.038	3298
904.156	3249
904.274	3329
904.392	3287
904.51	3329
904.627	3325
904.745	3409
904.863	3488
904.981	3287
905.098	3176
905.216	3245
905.334	3306
905.451	3329
905.569	3344
905.686	3435
905.803	3435
905.921	3302
906.038	3428
906.155	3409
906.272	3283
906.389	3313
906.506	3275
906.623	3260
906.74	3275
906.857	3241
906.974	3260
907.091	3466
907.208	3591
907.324	3492
907.441	3386
907.557	3249
907.674	3207
907.79	3268
907.907	3310
908.023	3420
908.139	3348
908.256	3363
908.372	3332
908.488	3370
908.604	3313
908.72	3214
908.836	3283
908.952	3298
909.068	3363
909.184	3507
909.3	3405
909.415	3564
909.531	3466
909.647	3272
909.762	3306
909.878	3279
909.993	3367
910.108	3340
910.224	3348
910.339	3466
910.454	3340
910.57	3294
910.685	3294
910.8	3599
910.915	3587
911.03	3431
911.145	3283
911.259	3348
911.374	3386
911.489	3253
911.604	3245
911.718	3146
911.833	3161
911.947	3077
912.062	2971
912.176	3161
912.291	3211
912.405	3192
912.519	3473
912.633	3462
912.748	3329
912.862	3298
912.976	3211
913.09	3081
913.204	3161
913.318	3253
913.431	3367
913.545	3329
913.659	3439
913.772	3344
913.886	3214
914	3211
914.113	3359
914.226	3431
914.34	3412
914.453	3264
914.566	3424
914.68	3298
914.793	3325
914.906	3142
915.019	3112
915.132	3066
915.245	3173
915.358	3233
915.47	3233
915.583	3249
915.696	3332
915.809	3439
915.921	3405
916.034	3287
916.146	3272
916.259	3230
916.371	3363
916.483	3382
916.595	3264
916.708	3359
916.82	3355
916.932	3336
917.044	3355
917.156	3325
917.268	3294
917.38	3355
917.491	3317
917.603	3351
917.715	3420
917.826	3492
917.938	3389
918.049	3275
918.161	3447
918.272	3564
918.384	3576
918.495	3515
918.606	3310
918.717	3253
918.828	3378
918.939	3389
919.05	3329
919.161	3389
919.272	3199
919.383	3306
919.494	3523
919.604	3751
919.715	3523
919.826	3401
919.936	3466
920.047	3595
920.157	3625
920.267	3762
920.378	3606
920.488	3622
920.598	3781
920.708	3964
920.818	3819
920.928	3876
921.038	4040
921.148	3987
921.258	3713
921.368	3652
921.477	3595
921.587	3568
921.697	3462
921.806	3652
921.916	3538
922.025	3351
922.134	3332
922.244	3363
922.353	3462
922.462	3241
922.571	3218
922.68	3119
922.789	3081
922.898	3135
923.007	3100
923.116	3249
923.224	3169
923.333	3233
923.442	3116
923.55	3123
923.659	3150
923.767	3233
923.876	3150
923.984	3268
924.092	3127
924.201	3188
924.309	3237
924.417	3180
924.525	3207
924.633	3268
924.741	4173
924.849	3058
924.956	3272
925.064	3062
925.172	3028
925.279	3104
925.387	3199
925.494	3241
925.602	3348
925.709	3329
925.816	3157
925.924	3268
926.031	3386
926.138	3306
926.245	3393
926.352	3230
926.459	3409
926.566	3500
926.673	3332
926.779	3245
926.886	3245
926.993	3146
927.099	3123
927.206	3085
927.312	3127
927.419	3253
927.525	3214
927.631	3268
927.737	3173
927.843	3104
927.95	3001
928.056	3192
928.162	3150
928.267	3230
928.373	3865
928.479	3306
928.585	3024
928.69	3230
928.796	3317
928.901	3188
929.007	3058
929.112	3203
929.218	3218
929.323	3161
929.428	3161
929.533	3325
929.638	3116
929.743	3176
929.848	3298
929.953	3207
930.058	3203
930.163	3051
930.267	3085
930.372	3222
930.477	3093
930.581	3351
930.685	3245
930.79	3100
930.894	3173
930.998	3123
931.103	3336
931.207	2986
931.311	2998
931.415	2941
931.519	2796
931.623	2857
