Data from test_V78500241_1920.txt Node
Date: Fri Mar 25 16:28:30 CST 2022
User: usil
Spectrometer: V785-0024
Trigger mode: 0
Integration Time (sec): 4.000000E-1
Scans to average: 1
Nonlinearity correction enabled: false
Boxcar width: 0
Storing dark spectrum: false
XAxis mode: Wavelengths
Number of Pixels in Spectrum: 1024
>>>>>Begin Spectral Data<<<<<
801.071	2956
801.214	2982
801.356	2887
801.499	2941
801.641	2914
801.783	2982
801.926	3081
802.068	2998
802.211	3043
802.353	3047
802.496	3001
802.638	3024
802.78	3089
802.923	3135
803.065	3055
803.208	2910
803.35	2922
803.492	2967
803.635	2937
803.777	2788
803.919	2883
804.061	3222
804.204	2944
804.346	2929
804.488	2906
804.63	3009
804.773	2872
804.915	2944
805.057	3100
805.199	2948
805.341	2998
805.483	3066
805.626	3024
805.768	3005
805.91	3074
806.052	3146
806.194	3058
806.336	3241
806.478	3020
806.62	2986
806.762	3001
806.904	3077
807.046	3207
807.188	3017
807.33	2937
807.472	3005
807.614	2876
807.756	2979
807.898	2922
808.04	2895
808.182	3009
808.324	2982
808.465	2895
808.607	2918
808.749	2800
808.891	2883
809.033	2986
809.174	2986
809.316	2906
809.458	2925
809.6	2807
809.741	2838
809.883	2811
810.025	2891
810.166	2826
810.308	2876
810.45	2880
810.591	2762
810.733	2785
810.875	2883
811.016	2788
811.158	2826
811.299	2830
811.441	2963
811.582	2906
811.724	2887
811.865	2834
812.007	2979
812.148	2895
812.29	2910
812.431	2868
812.573	2982
812.714	3005
812.855	3032
812.997	3081
813.138	3154
813.279	3051
813.421	3013
813.562	2963
813.703	2864
813.845	2929
813.986	2792
814.127	2739
814.268	2861
814.41	2891
814.551	2819
814.692	2922
814.833	2868
814.974	2883
815.115	2956
815.256	2849
815.397	2819
815.539	2880
815.68	2815
815.821	2849
815.962	2933
816.103	2952
816.244	2880
816.385	2941
816.526	3001
816.666	2899
816.807	2788
816.948	2914
817.089	2925
817.23	2876
817.371	2811
817.512	2811
817.653	2910
817.793	2872
817.934	2883
818.075	2979
818.216	3020
818.356	3070
818.497	2902
818.638	2868
818.778	2845
818.919	2807
819.06	2800
819.2	2895
819.341	2853
819.481	2826
819.622	2922
819.762	3104
819.903	3070
820.043	2975
820.184	2929
820.324	2937
820.465	3043
820.605	3017
820.746	3024
820.886	3013
821.026	3142
821.167	3203
821.307	3275
821.447	3275
821.588	3226
821.728	3222
821.868	3226
822.008	3112
822.149	3203
822.289	3256
822.429	3150
822.569	3104
822.709	3199
822.849	3032
822.99	3135
823.13	3176
823.27	3203
823.41	3127
823.55	3146
823.69	3154
823.83	3233
823.97	3089
824.11	3013
824.25	3043
824.389	3070
824.529	3138
824.669	3085
824.809	3241
824.949	3264
825.089	3226
825.228	3146
825.368	3043
825.508	3005
825.648	3005
825.787	3058
825.927	3020
826.067	2975
826.206	2994
826.346	3077
826.485	3074
826.625	3119
826.765	3260
826.904	3222
827.044	2998
827.183	2960
827.323	2891
827.462	3032
827.601	2910
827.741	2952
827.88	2975
828.02	2857
828.159	2986
828.298	3058
828.437	3123
828.577	3066
828.716	3279
828.855	3104
828.994	2922
829.134	2929
829.273	2960
829.412	2887
829.551	2864
829.69	2933
829.829	3036
829.968	3142
830.107	3024
830.246	3043
830.385	2960
830.524	2845
830.663	2880
830.802	2716
830.941	2682
831.08	2629
831.219	2773
831.357	2750
831.496	2986
831.635	2739
831.774	2648
831.913	2655
832.051	2552
832.19	2583
832.329	2701
832.467	2568
832.606	2526
832.744	2606
832.883	2606
833.022	2617
833.16	2644
833.299	2712
833.437	2689
833.576	2701
833.714	2750
833.852	2785
833.991	2773
834.129	2819
834.267	2838
834.406	2807
834.544	2891
834.682	2922
834.821	2853
834.959	3070
835.097	2868
835.235	3097
835.373	3047
835.511	3032
835.65	2986
835.788	3017
835.926	2861
836.064	2842
836.202	2838
836.34	3108
836.478	3146
836.615	3070
836.753	3173
836.891	3192
837.029	3188
837.167	3116
837.305	3093
837.443	3070
837.58	3009
837.718	3154
837.856	3062
837.993	3039
838.131	3119
838.269	3127
838.406	3119
838.544	3100
838.681	2971
838.819	2929
838.956	2834
839.094	2838
839.231	2933
839.369	3020
839.506	3397
839.643	3253
839.781	3039
839.918	2963
840.055	3062
840.193	3062
840.33	3093
840.467	3085
840.604	3180
840.742	3405
840.879	3055
841.016	3062
841.153	3157
841.29	3340
841.427	3336
841.564	3268
841.701	3253
841.838	3275
841.975	3199
842.112	3245
842.249	3127
842.385	3047
842.522	3268
842.659	3112
842.796	3062
842.933	3108
843.069	3058
843.206	3028
843.343	3173
843.479	3150
843.616	3203
843.752	2914
843.889	2910
844.025	3070
844.162	2849
844.298	3081
844.435	2971
844.571	2971
844.708	3032
844.844	3180
844.98	3241
845.117	3199
845.253	3097
845.389	3043
845.525	3100
845.661	3127
845.798	3009
845.934	3138
846.07	3058
846.206	3203
846.342	3336
846.478	3230
846.614	3089
846.75	3093
846.886	3036
847.022	3241
847.158	3138
847.294	3230
847.429	3241
847.565	3226
847.701	3523
847.837	3066
847.972	2998
848.108	3173
848.244	3138
848.379	3001
848.515	2933
848.65	2925
848.786	2952
848.921	3032
849.057	3119
849.192	3154
849.328	3074
849.463	3150
849.598	3100
849.734	3047
849.869	2967
850.004	2967
850.14	2971
850.275	2941
850.41	2849
850.545	2895
850.68	2971
850.815	2956
850.95	3001
851.085	3207
851.22	3123
851.355	3047
851.49	2979
851.625	2994
851.76	3028
851.895	2963
852.03	2941
852.165	3024
852.299	3119
852.434	3203
852.569	3146
852.703	3169
852.838	3260
852.973	3321
853.107	3325
853.242	3131
853.376	3077
853.511	3039
853.645	3043
853.78	3245
853.914	3119
854.048	3093
854.183	3100
854.317	3161
854.451	3283
854.585	3150
854.72	3116
854.854	3211
854.988	3032
855.122	3112
855.256	3001
855.39	3100
855.524	3245
855.658	3195
855.792	3165
855.926	3188
856.06	3203
856.194	3260
856.327	3161
856.461	3085
856.595	3055
856.729	3093
856.862	3226
856.996	3169
857.13	3211
857.263	3264
857.397	3283
857.53	3104
857.664	3199
857.797	3222
857.931	3287
858.064	3161
858.197	3184
858.331	3146
858.464	3085
858.597	2994
858.731	3135
858.864	3116
858.997	3051
859.13	3154
859.263	3173
859.396	3199
859.529	3097
859.662	3097
859.795	3039
859.928	3123
860.061	3272
860.194	3260
860.327	3142
860.46	3104
860.592	3211
860.725	3253
860.858	3211
860.99	3097
861.123	3081
861.256	3066
861.388	3207
861.521	3816
861.653	3032
861.786	2979
861.918	2994
862.05	3085
862.183	3077
862.315	3150
862.447	3207
862.58	3089
862.712	2952
862.844	2887
862.976	3028
863.108	3013
863.24	3325
863.372	2899
863.504	2922
863.636	2975
863.768	3032
863.9	3001
864.032	2902
864.164	2963
864.296	3009
864.428	3066
864.559	3127
864.691	3131
864.823	3070
864.954	3047
865.086	3062
865.217	2990
865.349	2952
865.48	3013
865.612	3024
865.743	3165
865.875	2990
866.006	2948
866.137	3039
866.269	2933
866.4	2933
866.531	2952
866.662	2887
866.793	2899
866.924	2918
867.055	3017
867.186	2963
867.317	2883
867.448	2842
867.579	2838
867.71	2887
867.841	2834
867.972	2895
868.103	2925
868.233	2895
868.364	2902
868.495	2918
868.625	3074
868.756	3165
868.886	3009
869.017	3024
869.147	3180
869.278	3188
869.408	3070
869.539	3062
869.669	3077
869.799	3036
869.929	3157
870.06	3112
870.19	3351
870.32	3302
870.45	3287
870.58	3348
870.71	3420
870.84	3515
870.97	3310
871.1	3275
871.23	3477
871.36	3435
871.489	3370
871.619	3378
871.749	3416
871.879	3424
872.008	3458
872.138	3370
872.267	3279
872.397	3131
872.526	3123
872.656	3017
872.785	3112
872.915	3245
873.044	3306
873.173	3203
873.303	3275
873.432	3211
873.561	3230
873.69	3131
873.819	3180
873.948	3169
874.077	3093
874.206	3051
874.335	3100
874.464	3211
874.593	3359
874.722	3218
874.851	3393
874.979	3344
875.108	3294
875.237	3188
875.365	3150
875.494	3184
875.623	3253
875.751	3093
875.88	3135
876.008	3230
876.136	3253
876.265	3351
876.393	3496
876.521	3393
876.65	3374
876.778	3313
876.906	3287
877.034	3203
877.162	3272
877.29	3199
877.418	3272
877.546	3245
877.674	3275
877.802	3218
877.93	3226
878.058	3150
878.185	3108
878.313	3195
878.441	3226
878.568	3062
878.696	3173
878.824	3249
878.951	3294
879.079	3397
879.206	3610
879.333	3439
879.461	3344
879.588	3363
879.715	3519
879.842	3587
879.97	3344
880.097	3123
880.224	3127
880.351	3180
880.478	3245
880.605	3180
880.732	3222
880.859	3492
880.986	3313
881.112	3325
881.239	3192
881.366	3070
881.493	3074
881.619	2990
881.746	3081
881.872	3116
881.999	3085
882.125	3176
882.252	3253
882.378	3325
882.505	3412
882.631	3298
882.757	3146
882.883	3218
883.01	3241
883.136	3211
883.262	3085
883.388	3108
883.514	3351
883.64	3393
883.766	3340
883.892	3211
884.018	3245
884.143	3443
884.269	3526
884.395	3260
884.52	3161
884.646	3192
884.772	3100
884.897	3108
885.023	3222
885.148	3329
885.274	3424
885.399	3374
885.524	3283
885.65	3253
885.775	3321
885.9	3249
886.025	3431
886.15	3332
886.275	3298
886.4	3218
886.525	3275
886.65	3272
886.775	3279
886.9	3519
887.025	3629
887.149	3374
887.274	3279
887.399	3184
887.523	3226
887.648	3173
887.773	3199
887.897	3355
888.021	3435
888.146	3294
888.27	3428
888.395	3519
888.519	3454
888.643	3462
888.767	3458
888.891	3329
889.015	3272
889.139	3336
889.263	3237
889.387	3405
889.511	3511
889.635	3412
889.759	3298
889.883	3279
890.006	3325
890.13	3466
890.254	3294
890.377	3321
890.501	3211
890.624	3218
890.748	3306
890.871	3192
890.995	3127
891.118	3066
891.241	3184
891.364	3233
891.488	3298
891.611	3192
891.734	3249
891.857	3321
891.98	3222
892.103	3348
892.226	3272
892.349	3207
892.471	3085
892.594	3211
892.717	3260
892.839	3279
892.962	3249
893.085	3329
893.207	3302
893.33	3142
893.452	3256
893.575	3355
893.697	3233
893.819	3435
893.941	3504
894.064	3443
894.186	3268
894.308	3283
894.43	3439
894.552	3534
894.674	3458
894.796	3283
894.918	3294
895.04	3249
895.161	3420
895.283	3344
895.405	3332
895.526	3370
895.648	3454
895.769	3378
895.891	3477
896.012	3481
896.134	3458
896.255	3428
896.376	3378
896.498	3351
896.619	3454
896.74	3348
896.861	3378
896.982	3701
897.103	3816
897.224	3603
897.345	3534
897.466	3431
897.587	3515
897.708	3599
897.828	3530
897.949	3450
898.07	3370
898.19	3412
898.311	3595
898.431	3431
898.552	3519
898.672	3557
898.792	3580
898.913	3530
899.033	3393
899.153	3317
899.273	3173
899.393	3268
899.513	3306
899.633	3325
899.753	3363
899.873	3272
899.993	3405
900.113	3329
900.232	3416
900.352	3332
900.472	3302
900.591	3211
900.711	3317
900.83	3245
900.95	3443
901.069	3500
901.189	3355
901.308	3184
901.427	3146
901.546	3203
901.665	3268
901.784	3321
901.904	3203
902.023	3173
902.141	3005
902.26	3005
902.379	3142
902.498	3058
902.617	3017
902.735	3203
902.854	3249
902.973	3203
903.091	3039
903.21	3077
903.328	3161
903.446	3116
903.565	3135
903.683	3222
903.801	3150
903.919	3230
904.038	3283
904.156	3161
904.274	3264
904.392	3291
904.51	3260
904.627	3325
904.745	3447
904.863	3469
904.981	3283
905.098	3176
905.216	3264
905.334	3291
905.451	3306
905.569	3321
905.686	3386
905.803	3485
905.921	3306
906.038	3416
906.155	3370
906.272	3260
906.389	3321
906.506	3226
906.623	3287
906.74	3279
906.857	3207
906.974	3245
907.091	3454
907.208	3584
907.324	3473
907.441	3382
907.557	3241
907.674	3237
907.79	3211
907.907	3253
908.023	3374
908.139	3416
908.256	3321
908.372	3348
908.488	3294
908.604	3279
908.72	3222
908.836	3264
908.952	3260
909.068	3329
909.184	3477
909.3	3386
909.415	3466
909.531	3511
909.647	3260
909.762	3260
909.878	3260
909.993	3382
910.108	3348
910.224	3370
910.339	3378
910.454	3382
910.57	3283
910.685	3218
910.8	3599
910.915	3553
911.03	3420
911.145	3272
911.259	3256
911.374	3306
911.489	3249
911.604	3214
911.718	3127
911.833	3135
911.947	3055
912.062	2994
912.176	3138
912.291	3173
912.405	3195
912.519	3424
912.633	3454
912.748	3306
912.862	3260
912.976	3184
913.09	3062
913.204	3127
913.318	3226
913.431	3397
913.545	3344
913.659	3424
913.772	3325
913.886	3203
914	3199
914.113	3336
914.226	3428
914.34	3332
914.453	3218
914.566	3420
914.68	3272
914.793	3313
914.906	3112
915.019	3089
915.132	3058
915.245	3180
915.358	3184
915.47	3226
915.583	3272
915.696	3279
915.809	3409
915.921	3431
916.034	3260
916.146	3283
916.259	3211
916.371	3382
916.483	3416
916.595	3249
916.708	3321
916.82	3351
916.932	3348
917.044	3336
917.156	3336
917.268	3222
917.38	3279
917.491	3275
917.603	3378
917.715	3477
917.826	3504
917.938	3389
918.049	3264
918.161	3435
918.272	3614
918.384	3557
918.495	3488
918.606	3336
918.717	3268
918.828	3332
918.939	3424
919.05	3291
919.161	3370
919.272	3131
919.383	3287
919.494	3500
919.604	3705
919.715	3511
919.826	3397
919.936	3488
920.047	3568
920.157	3534
920.267	3743
920.378	3580
920.488	3538
920.598	3755
920.708	3972
920.818	3812
920.928	3838
921.038	4021
921.148	3994
921.258	3660
921.368	3652
921.477	3561
921.587	3526
921.697	3469
921.806	3629
921.916	3515
922.025	3306
922.134	3348
922.244	3283
922.353	3370
922.462	3294
922.571	3195
922.68	3085
922.789	3066
922.898	3074
923.007	3081
923.116	3195
923.224	3157
923.333	3192
923.442	3131
923.55	3085
923.659	3154
923.767	3230
923.876	3161
923.984	3237
924.092	3112
924.201	3203
924.309	3226
924.417	3230
924.525	3192
924.633	3253
924.741	4173
924.849	3028
924.956	3268
925.064	3097
925.172	3051
925.279	3081
925.387	3176
925.494	3184
925.602	3336
925.709	3348
925.816	3188
925.924	3287
926.031	3378
926.138	3340
926.245	3348
926.352	3245
926.459	3405
926.566	3416
926.673	3321
926.779	3230
926.886	3245
926.993	3112
927.099	3142
927.206	3116
927.312	3131
927.419	3241
927.525	3173
927.631	3272
927.737	3150
927.843	3131
927.95	3043
928.056	3127
928.162	3199
928.267	3264
928.373	3854
928.479	3336
928.585	3077
928.69	3226
928.796	3249
928.901	3169
929.007	3051
929.112	3226
929.218	3180
929.323	3150
929.428	3169
929.533	3313
929.638	3123
929.743	3207
929.848	3279
929.953	3199
930.058	3154
930.163	2986
930.267	3017
930.372	3176
930.477	2994
930.581	3298
930.685	3199
930.79	3097
930.894	3081
930.998	3081
931.103	3310
931.207	2948
931.311	2929
931.415	2922
931.519	2766
931.623	2800
