Data from test_V78500241_672.txt Node
Date: Fri Mar 25 16:19:51 CST 2022
User: usil
Spectrometer: V785-0024
Trigger mode: 0
Integration Time (sec): 4.000000E-1
Scans to average: 1
Nonlinearity correction enabled: false
Boxcar width: 0
Storing dark spectrum: false
XAxis mode: Wavelengths
Number of Pixels in Spectrum: 1024
>>>>>Begin Spectral Data<<<<<
801.071	2880
801.214	2914
801.356	2880
801.499	2891
801.641	2857
801.783	2933
801.926	3055
802.068	2937
802.211	2952
802.353	3024
802.496	2960
802.638	3009
802.78	3020
802.923	3055
803.065	3017
803.208	2883
803.35	2910
803.492	2929
803.635	2918
803.777	2712
803.919	2834
804.061	3207
804.204	2952
804.346	2906
804.488	2853
804.63	3005
804.773	2910
804.915	2918
805.057	3043
805.199	2914
805.341	2986
805.483	3017
805.626	2952
805.768	2937
805.91	3055
806.052	3112
806.194	3058
806.336	3245
806.478	3024
806.62	2963
806.762	2979
806.904	3043
807.046	3188
807.188	2990
807.33	2914
807.472	2994
807.614	2899
807.756	2979
807.898	2906
808.04	2864
808.182	2971
808.324	2944
808.465	2864
808.607	2864
808.749	2792
808.891	2834
809.033	2922
809.174	2998
809.316	2895
809.458	2902
809.6	2758
809.741	2796
809.883	2766
810.025	2864
810.166	2883
810.308	2845
810.45	2834
810.591	2758
810.733	2781
810.875	2807
811.016	2788
811.158	2746
811.299	2796
811.441	2891
811.582	2891
811.724	2838
811.865	2819
812.007	2918
812.148	2880
812.29	2864
812.431	2876
812.573	2929
812.714	2925
812.855	3043
812.997	3066
813.138	3119
813.279	3001
813.421	2956
813.562	2929
813.703	2868
813.845	2845
813.986	2781
814.127	2712
814.268	2773
814.41	2807
814.551	2845
814.692	2861
814.833	2842
814.974	2899
815.115	2914
815.256	2807
815.397	2781
815.539	2845
815.68	2750
815.821	2800
815.962	2941
816.103	2929
816.244	2838
816.385	2868
816.526	2975
816.666	2937
816.807	2758
816.948	2861
817.089	2891
817.23	2842
817.371	2762
817.512	2750
817.653	2815
817.793	2845
817.934	2857
818.075	2929
818.216	2986
818.356	3017
818.497	2883
818.638	2754
818.778	2815
818.919	2788
819.06	2746
819.2	2910
819.341	2826
819.481	2830
819.622	2876
819.762	3116
819.903	3051
820.043	2902
820.184	2872
820.324	2872
820.465	3013
820.605	3001
820.746	3028
820.886	2952
821.026	3085
821.167	3116
821.307	3256
821.447	3291
821.588	3272
821.728	3188
821.868	3207
822.008	3085
822.149	3184
822.289	3226
822.429	3097
822.569	3093
822.709	3169
822.849	2982
822.99	3066
823.13	3146
823.27	3203
823.41	3127
823.55	3142
823.69	3108
823.83	3192
823.97	3138
824.11	2948
824.25	2994
824.389	3131
824.529	3146
824.669	3070
824.809	3230
824.949	3264
825.089	3241
825.228	3176
825.368	3024
825.508	2982
825.648	2986
825.787	3028
825.927	3085
826.067	3020
826.206	2975
826.346	3066
826.485	3100
826.625	3146
826.765	3283
826.904	3218
827.044	2994
827.183	2967
827.323	2868
827.462	3005
827.601	2941
827.741	2963
827.88	2998
828.02	2902
828.159	2990
828.298	3077
828.437	3108
828.577	3043
828.716	3283
828.855	3093
828.994	2971
829.134	2929
829.273	2963
829.412	2918
829.551	2910
829.69	2925
829.829	3039
829.968	3195
830.107	3051
830.246	3043
830.385	2960
830.524	2925
830.663	2857
830.802	2804
830.941	2720
831.08	2701
831.219	2800
831.357	2807
831.496	3005
831.635	2788
831.774	2686
831.913	2716
832.051	2587
832.19	2613
832.329	2697
832.467	2571
832.606	2514
832.744	2629
832.883	2621
833.022	2632
833.16	2674
833.299	2746
833.437	2686
833.576	2716
833.714	2739
833.852	2762
833.991	2796
834.129	2891
834.267	2883
834.406	2811
834.544	2941
834.682	2910
834.821	2880
834.959	3055
835.097	2941
835.235	3100
835.373	3058
835.511	3081
835.65	3005
835.788	2994
835.926	2906
836.064	2834
836.202	2891
836.34	3154
836.478	3173
836.615	3100
836.753	3165
836.891	3226
837.029	3192
837.167	3131
837.305	3081
837.443	3066
837.58	2971
837.718	3165
837.856	3097
837.993	3089
838.131	3135
838.269	3154
838.406	3142
838.544	3127
838.681	2971
838.819	2929
838.956	2830
839.094	2880
839.231	2933
839.369	3047
839.506	3389
839.643	3233
839.781	3055
839.918	3020
840.055	3066
840.193	3112
840.33	3097
840.467	3116
840.604	3173
840.742	3435
840.879	3074
841.016	3123
841.153	3127
841.29	3359
841.427	3332
841.564	3332
841.701	3344
841.838	3275
841.975	3203
842.112	3264
842.249	3058
842.385	3077
842.522	3291
842.659	3142
842.796	3089
842.933	3127
843.069	3081
843.206	3055
843.343	3192
843.479	3116
843.616	3184
843.752	2922
843.889	2929
844.025	3081
844.162	2933
844.298	3100
844.435	2975
844.571	2952
844.708	3100
844.844	3230
844.98	3279
845.117	3199
845.253	3081
845.389	3070
845.525	3123
845.661	3104
845.798	3074
845.934	3169
846.07	3089
846.206	3260
846.342	3348
846.478	3237
846.614	3123
846.75	3112
846.886	3058
847.022	3279
847.158	3142
847.294	3260
847.429	3260
847.565	3233
847.701	3488
847.837	3055
847.972	3047
848.108	3195
848.244	3169
848.379	3020
848.515	2918
848.65	2986
848.786	2998
848.921	3020
849.057	3161
849.192	3180
849.328	3104
849.463	3138
849.598	3085
849.734	3066
849.869	3039
850.004	2963
850.14	3032
850.275	2956
850.41	2861
850.545	2933
850.68	2933
850.815	3039
850.95	2998
851.085	3253
851.22	3123
851.355	3036
851.49	3032
851.625	3017
851.76	3039
851.895	2948
852.03	2937
852.165	3047
852.299	3112
852.434	3203
852.569	3150
852.703	3184
852.838	3275
852.973	3351
853.107	3351
853.242	3169
853.376	3119
853.511	3005
853.645	3070
853.78	3268
853.914	3135
854.048	3157
854.183	3119
854.317	3138
854.451	3317
854.585	3188
854.72	3108
854.854	3249
854.988	3085
855.122	3123
855.256	3017
855.39	3135
855.524	3249
855.658	3222
855.792	3207
855.926	3241
856.06	3233
856.194	3310
856.327	3207
856.461	3116
856.595	3123
856.729	3131
856.862	3226
856.996	3180
857.13	3226
857.263	3260
857.397	3279
857.53	3127
857.664	3203
857.797	3253
857.931	3279
858.064	3192
858.197	3222
858.331	3146
858.464	3135
858.597	3028
858.731	3150
858.864	3142
858.997	3123
859.13	3173
859.263	3207
859.396	3226
859.529	3161
859.662	3089
859.795	3062
859.928	3173
860.061	3336
860.194	3291
860.327	3142
860.46	3112
860.592	3268
860.725	3260
860.858	3253
860.99	3093
861.123	3066
861.256	3024
861.388	3157
861.521	3911
861.653	3020
861.786	3005
861.918	3009
862.05	3074
862.183	3142
862.315	3146
862.447	3218
862.58	3146
862.712	2971
862.844	2906
862.976	3062
863.108	3017
863.24	3454
863.372	2906
863.504	2979
863.636	2986
863.768	3074
863.9	2982
864.032	2941
864.164	3013
864.296	3028
864.428	3131
864.559	3138
864.691	3089
864.823	3077
864.954	3055
865.086	3043
865.217	2967
865.349	2979
865.48	3020
865.612	3036
865.743	3192
865.875	3005
866.006	2982
866.137	2982
866.269	2963
866.4	2937
866.531	2944
866.662	2891
866.793	2918
866.924	2922
867.055	2975
867.186	2975
867.317	2922
867.448	2891
867.579	2826
867.71	2880
867.841	2861
867.972	2914
868.103	2910
868.233	2933
868.364	2902
868.495	2883
868.625	3066
868.756	3176
868.886	2998
869.017	3081
869.147	3218
869.278	3195
869.408	3058
869.539	3055
869.669	3116
869.799	3058
869.929	3165
870.06	3119
870.19	3351
870.32	3272
870.45	3268
870.58	3367
870.71	3447
870.84	3420
870.97	3302
871.1	3264
871.23	3500
871.36	3504
871.489	3359
871.619	3424
871.749	3420
871.879	3492
872.008	3473
872.138	3359
872.267	3336
872.397	3161
872.526	3104
872.656	3009
872.785	3119
872.915	3233
873.044	3336
873.173	3253
873.303	3214
873.432	3218
873.561	3268
873.69	3165
873.819	3131
873.948	3230
874.077	3135
874.206	3036
874.335	3112
874.464	3230
874.593	3355
874.722	3214
874.851	3412
874.979	3336
875.108	3348
875.237	3211
875.365	3218
875.494	3199
875.623	3294
875.751	3074
875.88	3154
876.008	3211
876.136	3226
876.265	3382
876.393	3504
876.521	3435
876.65	3416
876.778	3359
876.906	3291
877.034	3203
877.162	3222
877.29	3192
877.418	3291
877.546	3291
877.674	3237
877.802	3294
877.93	3226
878.058	3131
878.185	3112
878.313	3222
878.441	3203
878.568	3093
878.696	3146
878.824	3268
878.951	3325
879.079	3458
879.206	3603
879.333	3485
879.461	3317
879.588	3378
879.715	3477
879.842	3633
879.97	3378
880.097	3207
880.224	3131
880.351	3199
880.478	3226
880.605	3233
880.732	3192
880.859	3526
880.986	3302
881.112	3351
881.239	3222
881.366	3116
881.493	3051
881.619	3062
881.746	3058
881.872	3127
881.999	3112
882.125	3157
882.252	3256
882.378	3268
882.505	3439
882.631	3272
882.757	3154
882.883	3241
883.01	3226
883.136	3180
883.262	3093
883.388	3135
883.514	3382
883.64	3393
883.766	3332
883.892	3211
884.018	3256
884.143	3409
884.269	3599
884.395	3233
884.52	3176
884.646	3154
884.772	3142
884.897	3123
885.023	3211
885.148	3344
885.274	3412
885.399	3367
885.524	3283
885.65	3268
885.775	3294
885.9	3291
886.025	3420
886.15	3336
886.275	3313
886.4	3226
886.525	3268
886.65	3317
886.775	3256
886.9	3523
887.025	3675
887.149	3416
887.274	3275
887.399	3146
887.523	3199
887.648	3176
887.773	3199
887.897	3416
888.021	3409
888.146	3306
888.27	3447
888.395	3504
888.519	3420
888.643	3454
888.767	3466
888.891	3306
889.015	3226
889.139	3306
889.263	3241
889.387	3389
889.511	3481
889.635	3454
889.759	3332
889.883	3302
890.006	3397
890.13	3511
890.254	3268
890.377	3359
890.501	3222
890.624	3211
890.748	3275
890.871	3192
890.995	3127
891.118	3104
891.241	3241
891.364	3260
891.488	3325
891.611	3226
891.734	3233
891.857	3298
891.98	3253
892.103	3340
892.226	3306
892.349	3203
892.471	3058
892.594	3249
892.717	3291
892.839	3298
892.962	3325
893.085	3351
893.207	3302
893.33	3173
893.452	3230
893.575	3367
893.697	3294
893.819	3458
893.941	3568
894.064	3443
894.186	3279
894.308	3291
894.43	3473
894.552	3519
894.674	3462
894.796	3306
894.918	3310
895.04	3321
895.161	3450
895.283	3428
895.405	3332
895.526	3359
895.648	3450
895.769	3439
895.891	3481
896.012	3496
896.134	3511
896.255	3431
896.376	3386
896.498	3348
896.619	3428
896.74	3389
896.861	3428
896.982	3667
897.103	3854
897.224	3584
897.345	3515
897.466	3447
897.587	3530
897.708	3622
897.828	3557
897.949	3458
898.07	3374
898.19	3401
898.311	3633
898.431	3473
898.552	3534
898.672	3641
898.792	3568
898.913	3526
899.033	3416
899.153	3317
899.273	3230
899.393	3302
899.513	3378
899.633	3344
899.753	3336
899.873	3321
899.993	3378
900.113	3367
900.232	3412
900.352	3351
900.472	3325
900.591	3192
900.711	3321
900.83	3245
900.95	3405
901.069	3538
901.189	3336
901.308	3192
901.427	3138
901.546	3211
901.665	3283
901.784	3336
901.904	3214
902.023	3165
902.141	3024
902.26	3001
902.379	3123
902.498	3074
902.617	3093
902.735	3237
902.854	3233
902.973	3211
903.091	3043
903.21	3070
903.328	3138
903.446	3089
903.565	3077
903.683	3218
903.801	3169
903.919	3237
904.038	3268
904.156	3173
904.274	3287
904.392	3272
904.51	3283
904.627	3313
904.745	3462
904.863	3481
904.981	3283
905.098	3173
905.216	3241
905.334	3249
905.451	3302
905.569	3317
905.686	3462
905.803	3431
905.921	3275
906.038	3428
906.155	3336
906.272	3306
906.389	3359
906.506	3222
906.623	3264
906.74	3283
906.857	3188
906.974	3283
907.091	3458
907.208	3587
907.324	3473
907.441	3378
907.557	3222
907.674	3272
907.79	3226
907.907	3325
908.023	3386
908.139	3378
908.256	3344
908.372	3386
908.488	3367
908.604	3298
908.72	3230
908.836	3287
908.952	3291
909.068	3294
909.184	3500
909.3	3389
909.415	3504
909.531	3469
909.647	3310
909.762	3325
909.878	3272
909.993	3405
910.108	3363
910.224	3332
910.339	3416
910.454	3355
910.57	3302
910.685	3241
910.8	3595
910.915	3553
911.03	3439
911.145	3291
911.259	3268
911.374	3340
911.489	3233
911.604	3237
911.718	3116
911.833	3157
911.947	3055
912.062	3005
912.176	3157
912.291	3264
912.405	3214
912.519	3416
912.633	3424
912.748	3355
912.862	3253
912.976	3146
913.09	3051
913.204	3169
913.318	3180
913.431	3336
913.545	3351
913.659	3397
913.772	3344
913.886	3218
914	3203
914.113	3363
914.226	3416
914.34	3367
914.453	3222
914.566	3450
914.68	3264
914.793	3291
914.906	3169
915.019	3146
915.132	3104
915.245	3173
915.358	3226
915.47	3226
915.583	3233
915.696	3348
915.809	3443
915.921	3454
916.034	3260
916.146	3313
916.259	3226
916.371	3386
916.483	3393
916.595	3287
916.708	3389
916.82	3332
916.932	3332
917.044	3329
917.156	3336
917.268	3241
917.38	3325
917.491	3279
917.603	3378
917.715	3431
917.826	3466
917.938	3428
918.049	3275
918.161	3412
918.272	3561
918.384	3564
918.495	3492
918.606	3317
918.717	3260
918.828	3397
918.939	3447
919.05	3317
919.161	3389
919.272	3154
919.383	3325
919.494	3519
919.604	3694
919.715	3504
919.826	3405
919.936	3447
920.047	3549
920.157	3526
920.267	3736
920.378	3622
920.488	3568
920.598	3793
920.708	3960
920.818	3812
920.928	3865
921.038	4055
921.148	4002
921.258	3682
921.368	3644
921.477	3545
921.587	3545
921.697	3469
921.806	3618
921.916	3526
922.025	3374
922.134	3393
922.244	3313
922.353	3431
922.462	3291
922.571	3222
922.68	3116
922.789	3077
922.898	3131
923.007	3108
923.116	3233
923.224	3176
923.333	3142
923.442	3135
923.55	3097
923.659	3127
923.767	3222
923.876	3104
923.984	3173
924.092	3104
924.201	3184
924.309	3245
924.417	3241
924.525	3184
924.633	3237
924.741	3987
924.849	3051
924.956	3287
925.064	3119
925.172	3017
925.279	3108
925.387	3203
925.494	3199
925.602	3367
925.709	3340
925.816	3230
925.924	3310
926.031	3367
926.138	3325
926.245	3370
926.352	3283
926.459	3393
926.566	3428
926.673	3359
926.779	3256
926.886	3268
926.993	3169
927.099	3138
927.206	3100
927.312	3135
927.419	3237
927.525	3211
927.631	3237
927.737	3161
927.843	3154
927.95	3024
928.056	3157
928.162	3176
928.267	3256
928.373	3755
928.479	3340
928.585	3062
928.69	3226
928.796	3241
928.901	3161
929.007	3036
929.112	3233
929.218	3195
929.323	3123
929.428	3138
929.533	3291
929.638	3093
929.743	3161
929.848	3226
929.953	3199
930.058	3146
930.163	3001
930.267	3039
930.372	3222
930.477	3058
930.581	3344
930.685	3142
930.79	3058
930.894	3077
930.998	3097
931.103	3253
931.207	2986
931.311	2933
931.415	2933
931.519	2792
931.623	2830
