Data from test_V78500241_14.txt Node
Date: Fri Mar 25 16:15:18 CST 2022
User: usil
Spectrometer: V785-0024
Trigger mode: 0
Integration Time (sec): 4.000000E-1
Scans to average: 1
Nonlinearity correction enabled: false
Boxcar width: 0
Storing dark spectrum: false
XAxis mode: Wavelengths
Number of Pixels in Spectrum: 1024
>>>>>Begin Spectral Data<<<<<
801.071	2982
801.214	3001
801.356	2914
801.499	2960
801.641	2963
801.783	2937
801.926	3108
802.068	3043
802.211	3047
802.353	3146
802.496	3017
802.638	3085
802.78	3119
802.923	3154
803.065	3047
803.208	2925
803.35	2963
803.492	2982
803.635	2994
803.777	2823
803.919	2891
804.061	3272
804.204	3001
804.346	2986
804.488	2910
804.63	3032
804.773	2895
804.915	2967
805.057	3116
805.199	2979
805.341	3051
805.483	3081
805.626	3058
805.768	3005
805.91	3135
806.052	3146
806.194	3100
806.336	3283
806.478	3074
806.62	3005
806.762	3024
806.904	3119
807.046	3195
807.188	3074
807.33	2979
807.472	3047
807.614	2956
807.756	3051
807.898	2990
808.04	2925
808.182	3024
808.324	3001
808.465	2941
808.607	2952
808.749	2853
808.891	2899
809.033	3024
809.174	3047
809.316	2948
809.458	2952
809.6	2842
809.741	2861
809.883	2815
810.025	2891
810.166	2899
810.308	2902
810.45	2937
810.591	2823
810.733	2788
810.875	2887
811.016	2811
811.158	2804
811.299	2880
811.441	2967
811.582	2952
811.724	2861
811.865	2864
812.007	2944
812.148	2895
812.29	2883
812.431	2948
812.573	2975
812.714	2994
812.855	3066
812.997	3131
813.138	3199
813.279	3074
813.421	3039
813.562	3013
813.703	2922
813.845	2960
813.986	2830
814.127	2788
814.268	2864
814.41	2906
814.551	2880
814.692	2929
814.833	2830
814.974	2918
815.115	3013
815.256	2861
815.397	2883
815.539	2899
815.68	2811
815.821	2853
815.962	3009
816.103	3005
816.244	2933
816.385	2883
816.526	3051
816.666	2967
816.807	2826
816.948	2948
817.089	2963
817.23	2918
817.371	2800
817.512	2842
817.653	2902
817.793	2872
817.934	2899
818.075	2975
818.216	3062
818.356	3043
818.497	2910
818.638	2788
818.778	2891
818.919	2826
819.06	2788
819.2	2937
819.341	2834
819.481	2815
819.622	2963
819.762	3176
819.903	3070
820.043	2975
820.184	2971
820.324	2929
820.465	3104
820.605	3074
820.746	3058
820.886	2986
821.026	3157
821.167	3195
821.307	3310
821.447	3348
821.588	3279
821.728	3268
821.868	3264
822.008	3131
822.149	3207
822.289	3291
822.429	3135
822.569	3123
822.709	3230
822.849	3112
822.99	3108
823.13	3199
823.27	3283
823.41	3161
823.55	3173
823.69	3233
823.83	3233
823.97	3135
824.11	3001
824.25	3043
824.389	3112
824.529	3154
824.669	3127
824.809	3256
824.949	3298
825.089	3260
825.228	3233
825.368	3047
825.508	3043
825.648	3039
825.787	3077
825.927	3081
826.067	3013
826.206	3009
826.346	3089
826.485	3123
826.625	3180
826.765	3310
826.904	3306
827.044	3093
827.183	2994
827.323	2925
827.462	3028
827.601	2963
827.741	2967
827.88	3001
828.02	2883
828.159	3047
828.298	3036
828.437	3161
828.577	3081
828.716	3329
828.855	3104
828.994	2979
829.134	2937
829.273	2956
829.412	2933
829.551	2918
829.69	2944
829.829	2990
829.968	3169
830.107	3070
830.246	3077
830.385	2956
830.524	2948
830.663	2838
830.802	2777
830.941	2708
831.08	2712
831.219	2800
831.357	2785
831.496	3013
831.635	2792
831.774	2701
831.913	2693
832.051	2598
832.19	2610
832.329	2754
832.467	2541
832.606	2545
832.744	2651
832.883	2606
833.022	2606
833.16	2686
833.299	2750
833.437	2724
833.576	2724
833.714	2804
833.852	2819
833.991	2819
834.129	2899
834.267	2880
834.406	2845
834.544	2899
834.682	2944
834.821	2941
834.959	3097
835.097	2960
835.235	3123
835.373	3085
835.511	3081
835.65	2990
835.788	2998
835.926	2853
836.064	2838
836.202	2887
836.34	3142
836.478	3203
836.615	3127
836.753	3211
836.891	3237
837.029	3188
837.167	3135
837.305	3062
837.443	3108
837.58	3024
837.718	3184
837.856	3058
837.993	3112
838.131	3169
838.269	3188
838.406	3161
838.544	3135
838.681	2975
838.819	2994
838.956	2819
839.094	2891
839.231	2937
839.369	3047
839.506	3454
839.643	3275
839.781	3047
839.918	3032
840.055	3104
840.193	3119
840.33	3112
840.467	3127
840.604	3211
840.742	3488
840.879	3089
841.016	3116
841.153	3173
841.29	3367
841.427	3393
841.564	3310
841.701	3370
841.838	3253
841.975	3199
842.112	3279
842.249	3131
842.385	3058
842.522	3256
842.659	3142
842.796	3131
842.933	3100
843.069	3085
843.206	3089
843.343	3214
843.479	3169
843.616	3169
843.752	2933
843.889	2956
844.025	3150
844.162	2922
844.298	3119
844.435	2998
844.571	2971
844.708	3131
844.844	3245
844.98	3256
845.117	3249
845.253	3085
845.389	3043
845.525	3150
845.661	3146
845.798	3081
845.934	3150
846.07	3104
846.206	3287
846.342	3393
846.478	3306
846.614	3142
846.75	3108
846.886	3074
847.022	3287
847.158	3188
847.294	3260
847.429	3302
847.565	3253
847.701	3507
847.837	3089
847.972	3058
848.108	3195
848.244	3218
848.379	3074
848.515	2971
848.65	2941
848.786	3017
848.921	3047
849.057	3165
849.192	3161
849.328	3100
849.463	3214
849.598	3093
849.734	3089
849.869	3028
850.004	2960
850.14	3028
850.275	2967
850.41	2902
850.545	2948
850.68	2982
850.815	3020
850.95	3020
851.085	3272
851.22	3157
851.355	3066
851.49	3036
851.625	3013
851.76	3070
851.895	2982
852.03	2952
852.165	3085
852.299	3127
852.434	3211
852.569	3184
852.703	3222
852.838	3298
852.973	3374
853.107	3382
853.242	3195
853.376	3135
853.511	3028
853.645	3066
853.78	3272
853.914	3150
854.048	3154
854.183	3127
854.317	3203
854.451	3359
854.585	3173
854.72	3173
854.854	3260
854.988	3062
855.122	3188
855.256	3032
855.39	3180
855.524	3268
855.658	3256
855.792	3241
855.926	3260
856.06	3275
856.194	3306
856.327	3207
856.461	3131
856.595	3119
856.729	3135
856.862	3256
856.996	3169
857.13	3211
857.263	3268
857.397	3332
857.53	3146
857.664	3214
857.797	3321
857.931	3321
858.064	3226
858.197	3310
858.331	3142
858.464	3165
858.597	3085
858.731	3154
858.864	3176
858.997	3104
859.13	3203
859.263	3230
859.396	3249
859.529	3135
859.662	3097
859.795	3108
859.928	3173
860.061	3310
860.194	3321
860.327	3161
860.46	3108
860.592	3294
860.725	3294
860.858	3317
860.99	3150
861.123	3123
861.256	3077
861.388	3184
861.521	3774
861.653	3062
861.786	3009
861.918	3043
862.05	3058
862.183	3169
862.315	3203
862.447	3256
862.58	3146
862.712	2979
862.844	2925
862.976	3058
863.108	3001
863.24	3443
863.372	2887
863.504	3009
863.636	2979
863.768	3070
863.9	3043
864.032	2975
864.164	3013
864.296	3039
864.428	3104
864.559	3135
864.691	3112
864.823	3104
864.954	3085
865.086	3116
865.217	3020
865.349	2994
865.48	3013
865.612	3062
865.743	3203
865.875	3036
866.006	2979
866.137	3024
866.269	3062
866.4	2971
866.531	2967
866.662	2937
866.793	2944
866.924	2906
867.055	3020
867.186	2941
867.317	2925
867.448	2906
867.579	2891
867.71	2902
867.841	2887
867.972	2937
868.103	2952
868.233	2944
868.364	2937
868.495	2967
868.625	3154
868.756	3222
868.886	3013
869.017	3055
869.147	3195
869.278	3207
869.408	3112
869.539	3062
869.669	3169
869.799	3100
869.929	3150
870.06	3165
870.19	3378
870.32	3283
870.45	3367
870.58	3424
870.71	3500
870.84	3515
870.97	3363
871.1	3310
871.23	3496
871.36	3534
871.489	3431
871.619	3397
871.749	3450
871.879	3519
872.008	3534
872.138	3443
872.267	3321
872.397	3165
872.526	3146
872.656	3070
872.785	3135
872.915	3321
873.044	3386
873.173	3275
873.303	3313
873.432	3241
873.561	3302
873.69	3222
873.819	3180
873.948	3256
874.077	3180
874.206	3058
874.335	3142
874.464	3264
874.593	3401
874.722	3310
874.851	3469
874.979	3447
875.108	3370
875.237	3237
875.365	3176
875.494	3226
875.623	3275
875.751	3100
875.88	3176
876.008	3264
876.136	3302
876.265	3439
876.393	3580
876.521	3454
876.65	3488
876.778	3401
876.906	3275
877.034	3249
877.162	3275
877.29	3241
877.418	3351
877.546	3272
877.674	3268
877.802	3264
877.93	3291
878.058	3207
878.185	3131
878.313	3230
878.441	3249
878.568	3123
878.696	3207
878.824	3291
878.951	3332
879.079	3469
879.206	3660
879.333	3477
879.461	3401
879.588	3382
879.715	3511
879.842	3648
879.97	3488
880.097	3222
880.224	3207
880.351	3211
880.478	3264
880.605	3260
880.732	3249
880.859	3549
880.986	3336
881.112	3416
881.239	3214
881.366	3119
881.493	3074
881.619	3074
881.746	3104
881.872	3169
881.999	3184
882.125	3207
882.252	3272
882.378	3344
882.505	3496
882.631	3317
882.757	3199
882.883	3253
883.01	3256
883.136	3203
883.262	3119
883.388	3184
883.514	3420
883.64	3450
883.766	3367
883.892	3275
884.018	3275
884.143	3447
884.269	3584
884.395	3253
884.52	3203
884.646	3222
884.772	3222
884.897	3142
885.023	3241
885.148	3393
885.274	3462
885.399	3428
885.524	3348
885.65	3321
885.775	3367
885.9	3317
886.025	3511
886.15	3435
886.275	3359
886.4	3275
886.525	3374
886.65	3351
886.775	3310
886.9	3538
887.025	3698
887.149	3477
887.274	3283
887.399	3241
887.523	3237
887.648	3237
887.773	3237
887.897	3447
888.021	3462
888.146	3351
888.27	3477
888.395	3584
888.519	3511
888.643	3519
888.767	3504
888.891	3344
889.015	3272
889.139	3348
889.263	3317
889.387	3454
889.511	3523
889.635	3538
889.759	3359
889.883	3348
890.006	3409
890.13	3523
890.254	3363
890.377	3378
890.501	3272
890.624	3260
890.748	3389
890.871	3237
890.995	3165
891.118	3123
891.241	3241
891.364	3279
891.488	3355
891.611	3180
891.734	3272
891.857	3363
891.98	3268
892.103	3397
892.226	3329
892.349	3283
892.471	3154
892.594	3317
892.717	3344
892.839	3336
892.962	3359
893.085	3454
893.207	3336
893.33	3188
893.452	3260
893.575	3393
893.697	3310
893.819	3511
893.941	3591
894.064	3515
894.186	3317
894.308	3348
894.43	3504
894.552	3542
894.674	3542
894.796	3321
894.918	3344
895.04	3351
895.161	3477
895.283	3477
895.405	3355
895.526	3466
895.648	3504
895.769	3485
895.891	3481
896.012	3515
896.134	3511
896.255	3473
896.376	3466
896.498	3439
896.619	3492
896.74	3393
896.861	3469
896.982	3743
897.103	3930
897.224	3641
897.345	3599
897.466	3504
897.587	3591
897.708	3682
897.828	3618
897.949	3526
898.07	3397
898.19	3485
898.311	3686
898.431	3515
898.552	3564
898.672	3637
898.792	3584
898.913	3557
899.033	3466
899.153	3344
899.273	3287
899.393	3336
899.513	3378
899.633	3374
899.753	3405
899.873	3401
899.993	3450
900.113	3393
900.232	3405
900.352	3348
900.472	3336
900.591	3256
900.711	3306
900.83	3298
900.95	3450
901.069	3530
901.189	3420
901.308	3230
901.427	3199
901.546	3237
901.665	3332
901.784	3367
901.904	3279
902.023	3207
902.141	3074
902.26	3047
902.379	3195
902.498	3123
902.617	3116
902.735	3253
902.854	3283
902.973	3230
903.091	3142
903.21	3131
903.328	3203
903.446	3138
903.565	3188
903.683	3260
903.801	3203
903.919	3325
904.038	3363
904.156	3233
904.274	3310
904.392	3291
904.51	3370
904.627	3386
904.745	3485
904.863	3534
904.981	3321
905.098	3260
905.216	3264
905.334	3370
905.451	3378
905.569	3355
905.686	3511
905.803	3515
905.921	3351
906.038	3534
906.155	3431
906.272	3306
906.389	3435
906.506	3310
906.623	3268
906.74	3332
906.857	3264
906.974	3340
907.091	3492
907.208	3603
907.324	3519
907.441	3454
907.557	3283
907.674	3302
907.79	3253
907.907	3325
908.023	3439
908.139	3416
908.256	3405
908.372	3439
908.488	3428
908.604	3310
908.72	3287
908.836	3336
908.952	3313
909.068	3435
909.184	3545
909.3	3447
909.415	3549
909.531	3545
909.647	3348
909.762	3344
909.878	3306
909.993	3428
910.108	3405
910.224	3378
910.339	3450
910.454	3378
910.57	3355
910.685	3283
910.8	3637
910.915	3576
911.03	3504
911.145	3302
911.259	3332
911.374	3367
911.489	3279
911.604	3313
911.718	3154
911.833	3241
911.947	3100
912.062	2994
912.176	3253
912.291	3226
912.405	3253
912.519	3504
912.633	3534
912.748	3397
912.862	3332
912.976	3184
913.09	3104
913.204	3233
913.318	3245
913.431	3416
913.545	3409
913.659	3469
913.772	3405
913.886	3279
914	3253
914.113	3409
914.226	3500
914.34	3435
914.453	3272
914.566	3420
914.68	3298
914.793	3382
914.906	3214
915.019	3150
915.132	3127
915.245	3241
915.358	3218
915.47	3256
915.583	3275
915.696	3382
915.809	3409
915.921	3515
916.034	3332
916.146	3310
916.259	3268
916.371	3412
916.483	3447
916.595	3325
916.708	3378
916.82	3386
916.932	3386
917.044	3393
917.156	3431
917.268	3317
917.38	3374
917.491	3313
917.603	3405
917.715	3530
917.826	3538
917.938	3435
918.049	3306
918.161	3473
918.272	3591
918.384	3610
918.495	3545
918.606	3409
918.717	3355
918.828	3420
918.939	3458
919.05	3355
919.161	3435
919.272	3245
919.383	3329
919.494	3576
919.604	3713
919.715	3526
919.826	3530
919.936	3530
920.047	3610
920.157	3614
920.267	3869
920.378	3694
920.488	3629
920.598	3850
920.708	4010
920.818	3876
920.928	3869
921.038	4109
921.148	4082
921.258	3762
921.368	3690
921.477	3599
921.587	3618
921.697	3507
921.806	3709
921.916	3561
922.025	3439
922.134	3420
922.244	3382
922.353	3469
922.462	3313
922.571	3283
922.68	3116
922.789	3150
922.898	3180
923.007	3142
923.116	3260
923.224	3195
923.333	3222
923.442	3142
923.55	3116
923.659	3176
923.767	3260
923.876	3165
923.984	3344
924.092	3138
924.201	3256
924.309	3241
924.417	3336
924.525	3279
924.633	3283
924.741	4223
924.849	3100
924.956	3313
925.064	3150
925.172	3077
925.279	3127
925.387	3283
925.494	3283
925.602	3378
925.709	3367
925.816	3256
925.924	3344
926.031	3450
926.138	3386
926.245	3409
926.352	3275
926.459	3488
926.566	3523
926.673	3393
926.779	3336
926.886	3302
926.993	3230
927.099	3161
927.206	3131
927.312	3203
927.419	3253
927.525	3287
927.631	3332
927.737	3195
927.843	3157
927.95	3062
928.056	3218
928.162	3214
928.267	3283
928.373	3827
928.479	3359
928.585	3154
928.69	3272
928.796	3306
928.901	3241
929.007	3100
929.112	3272
929.218	3214
929.323	3192
929.428	3226
929.533	3359
929.638	3176
929.743	3211
929.848	3317
929.953	3260
930.058	3184
930.163	3051
930.267	3104
930.372	3214
930.477	3089
930.581	3386
930.685	3226
930.79	3123
930.894	3165
930.998	3180
931.103	3291
931.207	2971
931.311	2998
931.415	2994
931.519	2853
931.623	2857
