Data from test_V78500241_776.txt Node
Date: Fri Mar 25 16:20:34 CST 2022
User: usil
Spectrometer: V785-0024
Trigger mode: 0
Integration Time (sec): 4.000000E-1
Scans to average: 1
Nonlinearity correction enabled: false
Boxcar width: 0
Storing dark spectrum: false
XAxis mode: Wavelengths
Number of Pixels in Spectrum: 1024
>>>>>Begin Spectral Data<<<<<
801.071	2883
801.214	2922
801.356	2906
801.499	2891
801.641	2861
801.783	2948
801.926	3043
802.068	2948
802.211	2967
802.353	2990
802.496	2963
802.638	3017
802.78	3017
802.923	3047
803.065	3020
803.208	2880
803.35	2925
803.492	2918
803.635	2925
803.777	2727
803.919	2826
804.061	3176
804.204	2922
804.346	2902
804.488	2830
804.63	2979
804.773	2857
804.915	2872
805.057	3047
805.199	2902
805.341	2986
805.483	3066
805.626	3013
805.768	2937
805.91	3058
806.052	3135
806.194	3009
806.336	3207
806.478	3017
806.62	2933
806.762	2971
806.904	3017
807.046	3203
807.188	2982
807.33	2906
807.472	2990
807.614	2914
807.756	2937
807.898	2906
808.04	2925
808.182	2963
808.324	2952
808.465	2864
808.607	2864
808.749	2811
808.891	2857
809.033	3009
809.174	2918
809.316	2895
809.458	2883
809.6	2773
809.741	2750
809.883	2754
810.025	2834
810.166	2853
810.308	2826
810.45	2861
810.591	2777
810.733	2754
810.875	2807
811.016	2769
811.158	2766
811.299	2785
811.441	2914
811.582	2899
811.724	2823
811.865	2834
812.007	2956
812.148	2857
812.29	2853
812.431	2853
812.573	2910
812.714	2952
812.855	3047
812.997	3028
813.138	3116
813.279	3001
813.421	2990
813.562	2967
813.703	2880
813.845	2891
813.986	2758
814.127	2746
814.268	2830
814.41	2796
814.551	2826
814.692	2880
814.833	2811
814.974	2864
815.115	2944
815.256	2826
815.397	2800
815.539	2834
815.68	2766
815.821	2815
815.962	2937
816.103	2948
816.244	2891
816.385	2838
816.526	2956
816.666	2864
816.807	2773
816.948	2887
817.089	2891
817.23	2838
817.371	2773
817.512	2762
817.653	2834
817.793	2849
817.934	2914
818.075	2944
818.216	2979
818.356	3032
818.497	2864
818.638	2830
818.778	2838
818.919	2819
819.06	2762
819.2	2868
819.341	2800
819.481	2811
819.622	2872
819.762	3085
819.903	3070
820.043	2929
820.184	2914
820.324	2880
820.465	3017
820.605	3005
820.746	3009
820.886	2925
821.026	3089
821.167	3131
821.307	3272
821.447	3272
821.588	3222
821.728	3192
821.868	3173
822.008	3070
822.149	3154
822.289	3226
822.429	3093
822.569	3070
822.709	3157
822.849	3013
822.99	3043
823.13	3195
823.27	3157
823.41	3081
823.55	3169
823.69	3157
823.83	3169
823.97	3127
824.11	3005
824.25	3024
824.389	3081
824.529	3108
824.669	3062
824.809	3169
824.949	3253
825.089	3241
825.228	3157
825.368	2998
825.508	2937
825.648	2979
825.787	3039
825.927	3024
826.067	2994
826.206	2952
826.346	3001
826.485	3062
826.625	3127
826.765	3275
826.904	3214
827.044	3020
827.183	2944
827.323	2868
827.462	3001
827.601	2906
827.741	2944
827.88	2979
828.02	2853
828.159	2971
828.298	2994
828.437	3097
828.577	3062
828.716	3195
828.855	3070
828.994	2887
829.134	2864
829.273	2906
829.412	2883
829.551	2811
829.69	2902
829.829	2975
829.968	3074
830.107	2967
830.246	3005
830.385	2937
830.524	2876
830.663	2807
830.802	2731
830.941	2610
831.08	2621
831.219	2746
831.357	2781
831.496	2948
831.635	2716
831.774	2663
831.913	2682
832.051	2530
832.19	2560
832.329	2689
832.467	2507
832.606	2469
832.744	2549
832.883	2564
833.022	2602
833.16	2636
833.299	2648
833.437	2701
833.576	2697
833.714	2705
833.852	2720
833.991	2758
834.129	2807
834.267	2830
834.406	2811
834.544	2883
834.682	2861
834.821	2842
834.959	3055
835.097	2906
835.235	3039
835.373	2975
835.511	3001
835.65	2937
835.788	2906
835.926	2823
836.064	2785
836.202	2868
836.34	3089
836.478	3180
836.615	2994
836.753	3138
836.891	3180
837.029	3138
837.167	3085
837.305	3062
837.443	3020
837.58	2952
837.718	3157
837.856	3074
837.993	3051
838.131	3123
838.269	3104
838.406	3070
838.544	3104
838.681	2956
838.819	2922
838.956	2792
839.094	2861
839.231	2895
839.369	3009
839.506	3359
839.643	3233
839.781	3017
839.918	2994
840.055	3047
840.193	3043
840.33	3070
840.467	3074
840.604	3161
840.742	3412
840.879	3047
841.016	3017
841.153	3089
841.29	3317
841.427	3279
841.564	3230
841.701	3294
841.838	3222
841.975	3188
842.112	3218
842.249	3062
842.385	3024
842.522	3245
842.659	3093
842.796	3036
842.933	3089
843.069	3085
843.206	3032
843.343	3161
843.479	3062
843.616	3138
843.752	2842
843.889	2853
844.025	3081
844.162	2868
844.298	3055
844.435	2944
844.571	2922
844.708	3062
844.844	3161
844.98	3253
845.117	3199
845.253	3055
845.389	2998
845.525	3085
845.661	3081
845.798	3020
845.934	3119
846.07	3028
846.206	3184
846.342	3287
846.478	3211
846.614	3119
846.75	3036
846.886	2986
847.022	3272
847.158	3119
847.294	3169
847.429	3272
847.565	3195
847.701	3485
847.837	3032
847.972	2990
848.108	3123
848.244	3108
848.379	2979
848.515	2952
848.65	2899
848.786	2952
848.921	2994
849.057	3081
849.192	3123
849.328	3043
849.463	3119
849.598	3024
849.734	3024
849.869	2944
850.004	2937
850.14	2990
850.275	2914
850.41	2826
850.545	2864
850.68	2929
850.815	2967
850.95	2956
851.085	3142
851.22	3097
851.355	3001
851.49	2960
851.625	3028
851.76	3005
851.895	2891
852.03	2880
852.165	3017
852.299	3100
852.434	3154
852.569	3161
852.703	3176
852.838	3253
852.973	3355
853.107	3310
853.242	3127
853.376	3123
853.511	2967
853.645	3036
853.78	3218
853.914	3097
854.048	3116
854.183	3051
854.317	3138
854.451	3321
854.585	3108
854.72	3070
854.854	3169
854.988	3028
855.122	3093
855.256	2963
855.39	3097
855.524	3226
855.658	3142
855.792	3138
855.926	3226
856.06	3195
856.194	3230
856.327	3157
856.461	3062
856.595	3062
856.729	3081
856.862	3222
856.996	3127
857.13	3169
857.263	3211
857.397	3237
857.53	3077
857.664	3241
857.797	3211
857.931	3226
858.064	3127
858.197	3211
858.331	3070
858.464	3081
858.597	2967
858.731	3100
858.864	3116
858.997	3077
859.13	3176
859.263	3131
859.396	3203
859.529	3074
859.662	3055
859.795	3074
859.928	3169
860.061	3272
860.194	3260
860.327	3131
860.46	3066
860.592	3207
860.725	3264
860.858	3245
860.99	3081
861.123	3058
861.256	3028
861.388	3138
861.521	3907
861.653	3005
861.786	2971
861.918	2986
862.05	3100
862.183	3055
862.315	3146
862.447	3180
862.58	3093
862.712	2948
862.844	2864
862.976	2998
863.108	2998
863.24	3450
863.372	2864
863.504	2956
863.636	2994
863.768	3017
863.9	2960
864.032	2914
864.164	2952
864.296	2990
864.428	3077
864.559	3077
864.691	3043
864.823	3070
864.954	2998
865.086	3009
865.217	2982
865.349	2937
865.48	3001
865.612	3020
865.743	3119
865.875	2937
866.006	2960
866.137	2937
866.269	2922
866.4	2944
866.531	2918
866.662	2891
866.793	2853
866.924	2864
867.055	2941
867.186	2902
867.317	2842
867.448	2823
867.579	2811
867.71	2861
867.841	2823
867.972	2872
868.103	2883
868.233	2918
868.364	2891
868.495	2895
868.625	3062
868.756	3154
868.886	2922
869.017	3013
869.147	3173
869.278	3135
869.408	3043
869.539	3013
869.669	3047
869.799	3039
869.929	3085
870.06	3089
870.19	3287
870.32	3275
870.45	3302
870.58	3351
870.71	3431
870.84	3447
870.97	3291
871.1	3241
871.23	3462
871.36	3435
871.489	3382
871.619	3344
871.749	3435
871.879	3424
872.008	3496
872.138	3325
872.267	3268
872.397	3150
872.526	3085
872.656	3009
872.785	3047
872.915	3245
873.044	3317
873.173	3237
873.303	3253
873.432	3222
873.561	3211
873.69	3157
873.819	3123
873.948	3203
874.077	3089
874.206	3005
874.335	3081
874.464	3192
874.593	3344
874.722	3253
874.851	3378
874.979	3344
875.108	3325
875.237	3157
875.365	3176
875.494	3157
875.623	3241
875.751	3093
875.88	3119
876.008	3169
876.136	3214
876.265	3389
876.393	3473
876.521	3374
876.65	3389
876.778	3294
876.906	3188
877.034	3195
877.162	3226
877.29	3184
877.418	3268
877.546	3260
877.674	3256
877.802	3184
877.93	3245
878.058	3150
878.185	3097
878.313	3211
878.441	3203
878.568	3039
878.696	3161
878.824	3211
878.951	3260
879.079	3462
879.206	3564
879.333	3450
879.461	3306
879.588	3325
879.715	3500
879.842	3584
879.97	3386
880.097	3135
880.224	3146
880.351	3214
880.478	3264
880.605	3192
880.732	3146
880.859	3450
880.986	3344
881.112	3302
881.239	3184
881.366	3066
881.493	3001
881.619	2998
881.746	3081
881.872	3055
881.999	3104
882.125	3138
882.252	3237
882.378	3298
882.505	3412
882.631	3249
882.757	3127
882.883	3226
883.01	3184
883.136	3157
883.262	3097
883.388	3116
883.514	3294
883.64	3344
883.766	3329
883.892	3161
884.018	3249
884.143	3401
884.269	3561
884.395	3199
884.52	3150
884.646	3169
884.772	3085
884.897	3085
885.023	3203
885.148	3348
885.274	3389
885.399	3370
885.524	3241
885.65	3291
885.775	3294
885.9	3310
886.025	3397
886.15	3348
886.275	3253
886.4	3218
886.525	3332
886.65	3230
886.775	3279
886.9	3496
887.025	3606
887.149	3412
887.274	3241
887.399	3146
887.523	3214
887.648	3176
887.773	3176
887.897	3351
888.021	3363
888.146	3291
888.27	3439
888.395	3526
888.519	3454
888.643	3435
888.767	3443
888.891	3272
889.015	3245
889.139	3268
889.263	3260
889.387	3389
889.511	3511
889.635	3428
889.759	3298
889.883	3302
890.006	3386
890.13	3485
890.254	3260
890.377	3359
890.501	3173
890.624	3188
890.748	3291
890.871	3176
890.995	3100
891.118	3055
891.241	3184
891.364	3222
891.488	3298
891.611	3154
891.734	3192
891.857	3245
891.98	3207
892.103	3294
892.226	3272
892.349	3157
892.471	3066
892.594	3230
892.717	3291
892.839	3245
892.962	3298
893.085	3332
893.207	3264
893.33	3119
893.452	3173
893.575	3325
893.697	3211
893.819	3458
893.941	3462
894.064	3412
894.186	3264
894.308	3321
894.43	3439
894.552	3515
894.674	3454
894.796	3268
894.918	3279
895.04	3302
895.161	3458
895.283	3386
895.405	3298
895.526	3336
895.648	3389
895.769	3424
895.891	3431
896.012	3462
896.134	3428
896.255	3397
896.376	3382
896.498	3340
896.619	3435
896.74	3351
896.861	3336
896.982	3663
897.103	3819
897.224	3614
897.345	3481
897.466	3454
897.587	3454
897.708	3584
897.828	3530
897.949	3382
898.07	3321
898.19	3386
898.311	3625
898.431	3424
898.552	3454
898.672	3549
898.792	3591
898.913	3492
899.033	3397
899.153	3291
899.273	3157
899.393	3264
899.513	3310
899.633	3321
899.753	3302
899.873	3313
899.993	3329
900.113	3302
900.232	3325
900.352	3321
900.472	3283
900.591	3173
900.711	3283
900.83	3260
900.95	3405
901.069	3466
901.189	3351
901.308	3150
901.427	3081
901.546	3150
901.665	3310
901.784	3332
901.904	3218
902.023	3131
902.141	3013
902.26	2960
902.379	3112
902.498	3070
902.617	3039
902.735	3195
902.854	3256
902.973	3249
903.091	3028
903.21	3043
903.328	3112
903.446	3089
903.565	3123
903.683	3203
903.801	3123
903.919	3237
904.038	3306
904.156	3188
904.274	3298
904.392	3272
904.51	3249
904.627	3363
904.745	3469
904.863	3500
904.981	3226
905.098	3135
905.216	3226
905.334	3306
905.451	3302
905.569	3310
905.686	3424
905.803	3473
905.921	3275
906.038	3469
906.155	3367
906.272	3298
906.389	3321
906.506	3268
906.623	3264
906.74	3325
906.857	3226
906.974	3336
907.091	3496
907.208	3568
907.324	3473
907.441	3409
907.557	3245
907.674	3253
907.79	3233
907.907	3294
908.023	3409
908.139	3428
908.256	3329
908.372	3405
908.488	3382
908.604	3283
908.72	3253
908.836	3340
908.952	3321
909.068	3355
909.184	3481
909.3	3431
909.415	3549
909.531	3526
909.647	3336
909.762	3344
909.878	3344
909.993	3409
910.108	3374
910.224	3393
910.339	3458
910.454	3332
910.57	3351
910.685	3294
910.8	3603
910.915	3549
911.03	3473
911.145	3317
911.259	3272
911.374	3359
911.489	3275
911.604	3264
911.718	3150
911.833	3226
911.947	3074
912.062	3032
912.176	3199
912.291	3222
912.405	3222
912.519	3450
912.633	3477
912.748	3374
912.862	3332
912.976	3207
913.09	3097
913.204	3222
913.318	3230
913.431	3329
913.545	3363
913.659	3435
913.772	3340
913.886	3256
914	3222
914.113	3397
914.226	3473
914.34	3409
914.453	3230
914.566	3397
914.68	3298
914.793	3397
914.906	3154
915.019	3184
915.132	3119
915.245	3207
915.358	3245
915.47	3294
915.583	3302
915.696	3359
915.809	3450
915.921	3409
916.034	3283
916.146	3329
916.259	3268
916.371	3424
916.483	3386
916.595	3272
916.708	3374
916.82	3348
916.932	3336
917.044	3393
917.156	3378
917.268	3249
917.38	3340
917.491	3344
917.603	3416
917.715	3492
917.826	3511
917.938	3428
918.049	3298
918.161	3473
918.272	3629
918.384	3576
918.495	3580
918.606	3409
918.717	3294
918.828	3412
918.939	3409
919.05	3363
919.161	3393
919.272	3211
919.383	3264
919.494	3515
919.604	3705
919.715	3504
919.826	3393
919.936	3469
920.047	3648
920.157	3553
920.267	3816
920.378	3625
920.488	3603
920.598	3819
920.708	3956
920.818	3846
920.928	3884
921.038	4097
921.148	4040
921.258	3740
921.368	3675
921.477	3625
921.587	3584
921.697	3454
921.806	3675
921.916	3545
922.025	3355
922.134	3363
922.244	3310
922.353	3439
922.462	3298
922.571	3233
922.68	3131
922.789	3081
922.898	3192
923.007	3085
923.116	3272
923.224	3203
923.333	3249
923.442	3150
923.55	3119
923.659	3150
923.767	3245
923.876	3195
923.984	3283
924.092	3108
924.201	3233
924.309	3256
924.417	3283
924.525	3237
924.633	3287
924.741	4253
924.849	3070
924.956	3302
925.064	3116
925.172	3089
925.279	3077
925.387	3222
925.494	3237
925.602	3420
925.709	3329
925.816	3226
925.924	3298
926.031	3397
926.138	3332
926.245	3389
926.352	3260
926.459	3462
926.566	3469
926.673	3329
926.779	3306
926.886	3264
926.993	3184
927.099	3169
927.206	3150
927.312	3150
927.419	3253
927.525	3214
927.631	3329
927.737	3150
927.843	3157
927.95	3055
928.056	3169
928.162	3214
928.267	3306
928.373	3827
928.479	3310
928.585	3112
928.69	3245
928.796	3325
928.901	3207
929.007	3051
929.112	3230
929.218	3188
929.323	3176
929.428	3176
929.533	3370
929.638	3131
929.743	3195
929.848	3298
929.953	3233
930.058	3169
930.163	3009
930.267	3116
930.372	3233
930.477	3097
930.581	3332
930.685	3199
930.79	3077
930.894	3119
930.998	3108
931.103	3321
931.207	2956
931.311	3013
931.415	2933
931.519	2807
931.623	2834
