Data from test_V78500241_1768.txt Node
Date: Fri Mar 25 16:27:27 CST 2022
User: usil
Spectrometer: V785-0024
Trigger mode: 0
Integration Time (sec): 4.000000E-1
Scans to average: 1
Nonlinearity correction enabled: false
Boxcar width: 0
Storing dark spectrum: false
XAxis mode: Wavelengths
Number of Pixels in Spectrum: 1024
>>>>>Begin Spectral Data<<<<<
801.071	2876
801.214	2906
801.356	2842
801.499	2872
801.641	2891
801.783	2925
801.926	3043
802.068	2937
802.211	2982
802.353	3039
802.496	2963
802.638	3001
802.78	3039
802.923	3066
803.065	3005
803.208	2925
803.35	2910
803.492	2933
803.635	2902
803.777	2754
803.919	2819
804.061	3218
804.204	2948
804.346	2845
804.488	2880
804.63	2975
804.773	2868
804.915	2922
805.057	3047
805.199	2918
805.341	2971
805.483	2994
805.626	2990
805.768	2967
805.91	3066
806.052	3104
806.194	3032
806.336	3188
806.478	3039
806.62	2967
806.762	2918
806.904	3036
807.046	3146
807.188	2994
807.33	2902
807.472	2967
807.614	2880
807.756	2990
807.898	2933
808.04	2868
808.182	2986
808.324	2956
808.465	2899
808.607	2853
808.749	2823
808.891	2853
809.033	2948
809.174	2967
809.316	2906
809.458	2880
809.6	2735
809.741	2739
809.883	2785
810.025	2861
810.166	2834
810.308	2823
810.45	2842
810.591	2750
810.733	2746
810.875	2857
811.016	2773
811.158	2743
811.299	2849
811.441	2922
811.582	2857
811.724	2785
811.865	2830
812.007	2883
812.148	2845
812.29	2838
812.431	2914
812.573	2883
812.714	2937
812.855	3024
812.997	3036
813.138	3089
813.279	2975
813.421	2975
813.562	2944
813.703	2864
813.845	2876
813.986	2758
814.127	2750
814.268	2823
814.41	2868
814.551	2785
814.692	2887
814.833	2826
814.974	2876
815.115	2933
815.256	2830
815.397	2800
815.539	2868
815.68	2769
815.821	2788
815.962	2922
816.103	2929
816.244	2902
816.385	2868
816.526	2952
816.666	2895
816.807	2727
816.948	2834
817.089	2880
817.23	2842
817.371	2766
817.512	2781
817.653	2830
817.793	2792
817.934	2876
818.075	2994
818.216	2971
818.356	3028
818.497	2883
818.638	2758
818.778	2823
818.919	2773
819.06	2785
819.2	2861
819.341	2777
819.481	2804
819.622	2906
819.762	3062
819.903	3055
820.043	2975
820.184	2891
820.324	2872
820.465	2986
820.605	2990
820.746	3009
820.886	2952
821.026	3093
821.167	3142
821.307	3188
821.447	3287
821.588	3211
821.728	3199
821.868	3188
822.008	3077
822.149	3146
822.289	3214
822.429	3066
822.569	3062
822.709	3142
822.849	3020
822.99	3100
823.13	3116
823.27	3184
823.41	3085
823.55	3116
823.69	3146
823.83	3214
823.97	3100
824.11	2967
824.25	3001
824.389	3108
824.529	3089
824.669	3013
824.809	3161
824.949	3279
825.089	3222
825.228	3157
825.368	2975
825.508	2979
825.648	2952
825.787	2998
825.927	3017
826.067	2986
826.206	2937
826.346	3028
826.485	3051
826.625	3074
826.765	3256
826.904	3214
827.044	2994
827.183	2929
827.323	2872
827.462	2956
827.601	2906
827.741	2910
827.88	2944
828.02	2819
828.159	2967
828.298	3028
828.437	3100
828.577	3009
828.716	3275
828.855	3093
828.994	2910
829.134	2937
829.273	2899
829.412	2849
829.551	2857
829.69	2902
829.829	2925
829.968	3131
830.107	2994
830.246	3013
830.385	2929
830.524	2887
830.663	2800
830.802	2773
830.941	2655
831.08	2682
831.219	2766
831.357	2724
831.496	2956
831.635	2712
831.774	2648
831.913	2651
832.051	2537
832.19	2571
832.329	2659
832.467	2522
832.606	2457
832.744	2560
832.883	2583
833.022	2583
833.16	2651
833.299	2648
833.437	2724
833.576	2705
833.714	2701
833.852	2697
833.991	2777
834.129	2853
834.267	2811
834.406	2758
834.544	2861
834.682	2845
834.821	2842
834.959	3039
835.097	2861
835.235	3058
835.373	2952
835.511	3032
835.65	2929
835.788	2929
835.926	2826
836.064	2800
836.202	2838
836.34	3077
836.478	3138
836.615	3028
836.753	3116
836.891	3176
837.029	3138
837.167	3081
837.305	3051
837.443	3043
837.58	2956
837.718	3112
837.856	3036
837.993	3005
838.131	3093
838.269	3104
838.406	3058
838.544	3039
838.681	2910
838.819	2887
838.956	2781
839.094	2804
839.231	2880
839.369	3032
839.506	3344
839.643	3184
839.781	3009
839.918	2975
840.055	3043
840.193	3024
840.33	3047
840.467	3093
840.604	3123
840.742	3363
840.879	3020
841.016	3036
841.153	3097
841.29	3291
841.427	3256
841.564	3283
841.701	3253
841.838	3176
841.975	3165
842.112	3199
842.249	3039
842.385	3020
842.522	3222
842.659	3093
842.796	3024
842.933	3077
843.069	3036
843.206	3001
843.343	3157
843.479	3070
843.616	3119
843.752	2853
843.889	2880
844.025	3077
844.162	2868
844.298	3043
844.435	2937
844.571	2891
844.708	3062
844.844	3169
844.98	3268
845.117	3169
845.253	3001
845.389	2986
845.525	3093
845.661	3108
845.798	3036
845.934	3165
846.07	3051
846.206	3241
846.342	3306
846.478	3237
846.614	3116
846.75	3066
846.886	2994
847.022	3245
847.158	3165
847.294	3245
847.429	3268
847.565	3241
847.701	3504
847.837	3085
847.972	3024
848.108	3184
848.244	3119
848.379	3005
848.515	2990
848.65	2982
848.786	3009
848.921	3051
849.057	3165
849.192	3199
849.328	3138
849.463	3161
849.598	3104
849.734	3062
849.869	3013
850.004	2941
850.14	3005
850.275	2941
850.41	2883
850.545	2975
850.68	2937
850.815	2967
850.95	2994
851.085	3203
851.22	3146
851.355	3058
851.49	3009
851.625	3032
851.76	3055
851.895	2994
852.03	2933
852.165	3024
852.299	3154
852.434	3169
852.569	3165
852.703	3230
852.838	3302
852.973	3405
853.107	3336
853.242	3146
853.376	3119
853.511	3013
853.645	3070
853.78	3272
853.914	3195
854.048	3131
854.183	3135
854.317	3192
854.451	3336
854.585	3142
854.72	3123
854.854	3233
854.988	3093
855.122	3150
855.256	3032
855.39	3154
855.524	3279
855.658	3214
855.792	3173
855.926	3249
856.06	3218
856.194	3287
856.327	3192
856.461	3116
856.595	3112
856.729	3108
856.862	3241
856.996	3233
857.13	3230
857.263	3241
857.397	3325
857.53	3131
857.664	3230
857.797	3241
857.931	3287
858.064	3161
858.197	3241
858.331	3154
858.464	3100
858.597	3032
858.731	3203
858.864	3176
858.997	3138
859.13	3146
859.263	3165
859.396	3218
859.529	3142
859.662	3062
859.795	3093
859.928	3135
860.061	3313
860.194	3332
860.327	3165
860.46	3100
860.592	3294
860.725	3245
860.858	3302
860.99	3108
861.123	3097
861.256	3089
861.388	3176
861.521	3911
861.653	3036
861.786	3043
861.918	3043
862.05	3100
862.183	3100
862.315	3173
862.447	3207
862.58	3154
862.712	2990
862.844	2872
862.976	3017
863.108	3043
863.24	3329
863.372	2914
863.504	2990
863.636	2967
863.768	3058
863.9	2990
864.032	2933
864.164	2967
864.296	3062
864.428	3138
864.559	3127
864.691	3108
864.823	3123
864.954	3058
865.086	3123
865.217	3032
865.349	2986
865.48	2982
865.612	2998
865.743	3180
865.875	2994
866.006	2937
866.137	3032
866.269	2960
866.4	2960
866.531	2948
866.662	2922
866.793	2922
866.924	2899
867.055	3001
867.186	2979
867.317	2929
867.448	2891
867.579	2887
867.71	2887
867.841	2857
867.972	2918
868.103	2944
868.233	2929
868.364	2941
868.495	2922
868.625	3142
868.756	3226
868.886	2994
869.017	3043
869.147	3199
869.278	3195
869.408	3043
869.539	3032
869.669	3108
869.799	3093
869.929	3127
870.06	3123
870.19	3336
870.32	3317
870.45	3351
870.58	3412
870.71	3469
870.84	3500
870.97	3325
871.1	3253
871.23	3488
871.36	3492
871.489	3409
871.619	3409
871.749	3416
871.879	3431
872.008	3485
872.138	3393
872.267	3336
872.397	3180
872.526	3142
872.656	3017
872.785	3131
872.915	3291
873.044	3332
873.173	3249
873.303	3283
873.432	3294
873.561	3283
873.69	3131
873.819	3165
873.948	3230
874.077	3146
874.206	3032
874.335	3123
874.464	3241
874.593	3363
874.722	3291
874.851	3397
874.979	3378
875.108	3329
875.237	3207
875.365	3211
875.494	3203
875.623	3268
875.751	3070
875.88	3104
876.008	3203
876.136	3256
876.265	3428
876.393	3549
876.521	3424
876.65	3439
876.778	3344
876.906	3260
877.034	3207
877.162	3264
877.29	3195
877.418	3275
877.546	3264
877.674	3272
877.802	3279
877.93	3253
878.058	3195
878.185	3127
878.313	3249
878.441	3226
878.568	3081
878.696	3157
878.824	3230
878.951	3302
879.079	3462
879.206	3606
879.333	3462
879.461	3374
879.588	3378
879.715	3462
879.842	3641
879.97	3416
880.097	3165
880.224	3180
880.351	3203
880.478	3241
880.605	3245
880.732	3214
880.859	3492
880.986	3355
881.112	3348
881.239	3222
881.366	3097
881.493	3028
881.619	3013
881.746	3123
881.872	3089
881.999	3131
882.125	3150
882.252	3237
882.378	3332
882.505	3454
882.631	3283
882.757	3184
882.883	3256
883.01	3245
883.136	3180
883.262	3116
883.388	3127
883.514	3332
883.64	3409
883.766	3321
883.892	3207
884.018	3275
884.143	3439
884.269	3553
884.395	3245
884.52	3199
884.646	3173
884.772	3142
884.897	3138
885.023	3253
885.148	3344
885.274	3469
885.399	3382
885.524	3283
885.65	3283
885.775	3310
885.9	3298
886.025	3447
886.15	3386
886.275	3313
886.4	3279
886.525	3370
886.65	3306
886.775	3310
886.9	3530
887.025	3663
887.149	3450
887.274	3279
887.399	3222
887.523	3199
887.648	3176
887.773	3218
887.897	3397
888.021	3416
888.146	3351
888.27	3507
888.395	3519
888.519	3454
888.643	3458
888.767	3481
888.891	3332
889.015	3268
889.139	3313
889.263	3287
889.387	3439
889.511	3553
889.635	3424
889.759	3298
889.883	3310
890.006	3374
890.13	3504
890.254	3294
890.377	3370
890.501	3214
890.624	3226
890.748	3294
890.871	3214
890.995	3100
891.118	3058
891.241	3199
891.364	3249
891.488	3306
891.611	3188
891.734	3245
891.857	3310
891.98	3233
892.103	3389
892.226	3287
892.349	3256
892.471	3104
892.594	3287
892.717	3351
892.839	3287
892.962	3302
893.085	3401
893.207	3287
893.33	3180
893.452	3230
893.575	3355
893.697	3279
893.819	3450
893.941	3507
894.064	3443
894.186	3294
894.308	3329
894.43	3412
894.552	3519
894.674	3492
894.796	3268
894.918	3302
895.04	3294
895.161	3443
895.283	3386
895.405	3355
895.526	3355
895.648	3428
895.769	3424
895.891	3477
896.012	3488
896.134	3504
896.255	3443
896.376	3378
896.498	3386
896.619	3431
896.74	3393
896.861	3416
896.982	3652
897.103	3846
897.224	3614
897.345	3545
897.466	3462
897.587	3504
897.708	3622
897.828	3553
897.949	3412
898.07	3370
898.19	3393
898.311	3606
898.431	3454
898.552	3561
898.672	3584
898.792	3568
898.913	3549
899.033	3469
899.153	3367
899.273	3214
899.393	3332
899.513	3321
899.633	3310
899.753	3378
899.873	3302
899.993	3389
900.113	3370
900.232	3431
900.352	3348
900.472	3283
900.591	3230
900.711	3291
900.83	3260
900.95	3409
901.069	3534
901.189	3329
901.308	3218
901.427	3108
901.546	3237
901.665	3298
901.784	3351
901.904	3222
902.023	3138
902.141	3005
902.26	3024
902.379	3119
902.498	3066
902.617	3009
902.735	3230
902.854	3272
902.973	3207
903.091	3058
903.21	3089
903.328	3131
903.446	3089
903.565	3127
903.683	3249
903.801	3135
903.919	3291
904.038	3317
904.156	3199
904.274	3283
904.392	3272
904.51	3260
904.627	3378
904.745	3431
904.863	3534
904.981	3245
905.098	3203
905.216	3260
905.334	3325
905.451	3317
905.569	3313
905.686	3431
905.803	3458
905.921	3298
906.038	3458
906.155	3351
906.272	3279
906.389	3389
906.506	3237
906.623	3260
906.74	3302
906.857	3203
906.974	3253
907.091	3462
907.208	3587
907.324	3473
907.441	3401
907.557	3199
907.674	3230
907.79	3192
907.907	3233
908.023	3359
908.139	3378
908.256	3336
908.372	3386
908.488	3332
908.604	3275
908.72	3214
908.836	3264
908.952	3294
909.068	3317
909.184	3450
909.3	3370
909.415	3488
909.531	3488
909.647	3268
909.762	3332
909.878	3279
909.993	3329
910.108	3332
910.224	3351
910.339	3409
910.454	3351
910.57	3241
910.685	3264
910.8	3549
910.915	3561
911.03	3469
911.145	3283
911.259	3310
911.374	3332
911.489	3230
911.604	3222
911.718	3131
911.833	3157
911.947	3032
912.062	2982
912.176	3207
912.291	3173
912.405	3214
912.519	3447
912.633	3477
912.748	3310
912.862	3317
912.976	3176
913.09	3055
913.204	3169
913.318	3230
913.431	3367
913.545	3340
913.659	3428
913.772	3332
913.886	3218
914	3226
914.113	3397
914.226	3428
914.34	3378
914.453	3237
914.566	3447
914.68	3321
914.793	3283
914.906	3138
915.019	3146
915.132	3104
915.245	3230
915.358	3226
915.47	3245
915.583	3272
915.696	3332
915.809	3466
915.921	3443
916.034	3287
916.146	3253
916.259	3260
916.371	3454
916.483	3386
916.595	3310
916.708	3378
916.82	3363
916.932	3351
917.044	3393
917.156	3386
917.268	3325
917.38	3351
917.491	3363
917.603	3412
917.715	3435
917.826	3530
917.938	3420
918.049	3313
918.161	3466
918.272	3587
918.384	3637
918.495	3572
918.606	3401
918.717	3348
918.828	3443
918.939	3416
919.05	3321
919.161	3397
919.272	3218
919.383	3336
919.494	3545
919.604	3747
919.715	3523
919.826	3466
919.936	3496
920.047	3614
920.157	3614
920.267	3808
920.378	3679
920.488	3618
920.598	3808
920.708	3991
920.818	3850
920.928	3850
921.038	4067
921.148	4040
921.258	3770
921.368	3694
921.477	3629
921.587	3591
921.697	3473
921.806	3663
921.916	3580
922.025	3401
922.134	3412
922.244	3348
922.353	3466
922.462	3336
922.571	3310
922.68	3184
922.789	3184
922.898	3161
923.007	3112
923.116	3230
923.224	3199
923.333	3218
923.442	3169
923.55	3123
923.659	3169
923.767	3298
923.876	3188
923.984	3249
924.092	3127
924.201	3260
924.309	3218
924.417	3268
924.525	3268
924.633	3260
924.741	4074
924.849	3097
924.956	3321
925.064	3127
925.172	3055
925.279	3123
925.387	3226
925.494	3264
925.602	3401
925.709	3351
925.816	3256
925.924	3313
926.031	3401
926.138	3378
926.245	3386
926.352	3279
926.459	3435
926.566	3515
926.673	3348
926.779	3283
926.886	3291
926.993	3211
927.099	3192
927.206	3154
927.312	3135
927.419	3264
927.525	3260
927.631	3313
927.737	3214
927.843	3135
927.95	3066
928.056	3176
928.162	3199
928.267	3291
928.373	3930
928.479	3378
928.585	3131
928.69	3249
928.796	3351
928.901	3226
929.007	3093
929.112	3253
929.218	3207
929.323	3207
929.428	3180
929.533	3329
929.638	3127
929.743	3214
929.848	3336
929.953	3241
930.058	3199
930.163	3062
930.267	3055
930.372	3222
930.477	3085
930.581	3374
930.685	3207
930.79	3104
930.894	3169
930.998	3146
931.103	3355
931.207	2979
931.311	2979
931.415	2960
931.519	2800
931.623	2823
