Data from test_V78500241_18.txt Node
Date: Fri Mar 25 16:15:19 CST 2022
User: usil
Spectrometer: V785-0024
Trigger mode: 0
Integration Time (sec): 4.000000E-1
Scans to average: 1
Nonlinearity correction enabled: false
Boxcar width: 0
Storing dark spectrum: false
XAxis mode: Wavelengths
Number of Pixels in Spectrum: 1024
>>>>>Begin Spectral Data<<<<<
801.071	2952
801.214	2982
801.356	2918
801.499	2963
801.641	2925
801.783	2990
801.926	3089
802.068	2986
802.211	3039
802.353	3074
802.496	2994
802.638	3051
802.78	3081
802.923	3142
803.065	3077
803.208	2956
803.35	2963
803.492	2948
803.635	2971
803.777	2807
803.919	2952
804.061	3249
804.204	2975
804.346	2952
804.488	2849
804.63	3032
804.773	2952
804.915	2967
805.057	3123
805.199	2944
805.341	3017
805.483	3077
805.626	3032
805.768	3013
805.91	3112
806.052	3150
806.194	3074
806.336	3310
806.478	3032
806.62	3009
806.762	3028
806.904	3077
807.046	3203
807.188	3024
807.33	2960
807.472	2998
807.614	2952
807.756	2998
807.898	2963
808.04	2914
808.182	3032
808.324	2979
808.465	2910
808.607	2933
808.749	2845
808.891	2891
809.033	3043
809.174	2994
809.316	2918
809.458	2937
809.6	2819
809.741	2830
809.883	2769
810.025	2895
810.166	2891
810.308	2876
810.45	2891
810.591	2834
810.733	2823
810.875	2902
811.016	2845
811.158	2792
811.299	2883
811.441	2975
811.582	2982
811.724	2906
811.865	2872
812.007	2914
812.148	2948
812.29	2868
812.431	2914
812.573	2967
812.714	2998
812.855	3074
812.997	3116
813.138	3173
813.279	3058
813.421	3043
813.562	3009
813.703	2933
813.845	2902
813.986	2830
814.127	2785
814.268	2853
814.41	2925
814.551	2853
814.692	2918
814.833	2826
814.974	2937
815.115	2990
815.256	2902
815.397	2842
815.539	2925
815.68	2811
815.821	2811
815.962	2982
816.103	2986
816.244	2902
816.385	2925
816.526	3039
816.666	2956
816.807	2777
816.948	2937
817.089	2922
817.23	2891
817.371	2819
817.512	2815
817.653	2857
817.793	2842
817.934	2948
818.075	3024
818.216	2990
818.356	3077
818.497	2910
818.638	2823
818.778	2857
818.919	2849
819.06	2819
819.2	2899
819.341	2876
819.481	2826
819.622	2937
819.762	3138
819.903	3039
820.043	2937
820.184	2963
820.324	2948
820.465	3039
820.605	3036
820.746	3058
820.886	2971
821.026	3100
821.167	3161
821.307	3306
821.447	3332
821.588	3313
821.728	3256
821.868	3226
822.008	3127
822.149	3207
822.289	3245
822.429	3093
822.569	3138
822.709	3218
822.849	3081
822.99	3138
823.13	3184
823.27	3226
823.41	3176
823.55	3169
823.69	3222
823.83	3275
823.97	3173
824.11	3066
824.25	3058
824.389	3097
824.529	3184
824.669	3119
824.809	3260
824.949	3294
825.089	3306
825.228	3272
825.368	3058
825.508	3009
825.648	2986
825.787	3089
825.927	3039
826.067	2994
826.206	3043
826.346	3104
826.485	3154
826.625	3176
826.765	3294
826.904	3268
827.044	3062
827.183	2982
827.323	2948
827.462	3081
827.601	3024
827.741	3020
827.88	3020
828.02	2906
828.159	3085
828.298	3119
828.437	3214
828.577	3112
828.716	3374
828.855	3154
828.994	3005
829.134	2986
829.273	3020
829.412	2990
829.551	2941
829.69	2963
829.829	3066
829.968	3199
830.107	3100
830.246	3131
830.385	2994
830.524	2967
830.663	2910
830.802	2845
830.941	2720
831.08	2716
831.219	2838
831.357	2807
831.496	3013
831.635	2826
831.774	2705
831.913	2720
832.051	2617
832.19	2659
832.329	2788
832.467	2632
832.606	2575
832.744	2651
832.883	2674
833.022	2674
833.16	2769
833.299	2762
833.437	2788
833.576	2804
833.714	2819
833.852	2788
833.991	2826
834.129	2925
834.267	2902
834.406	2872
834.544	2963
834.682	2948
834.821	2952
834.959	3154
835.097	3017
835.235	3199
835.373	3085
835.511	3108
835.65	3001
835.788	3020
835.926	2948
836.064	2853
836.202	2925
836.34	3180
836.478	3264
836.615	3161
836.753	3241
836.891	3264
837.029	3275
837.167	3203
837.305	3154
837.443	3131
837.58	3047
837.718	3245
837.856	3138
837.993	3131
838.131	3214
838.269	3184
838.406	3173
838.544	3165
838.681	3055
838.819	3024
838.956	2883
839.094	2929
839.231	3013
839.369	3123
839.506	3485
839.643	3313
839.781	3116
839.918	3039
840.055	3146
840.193	3142
840.33	3161
840.467	3154
840.604	3222
840.742	3511
840.879	3104
841.016	3138
841.153	3245
841.29	3401
841.427	3374
841.564	3344
841.701	3401
841.838	3279
841.975	3291
842.112	3272
842.249	3184
842.385	3100
842.522	3344
842.659	3188
842.796	3146
842.933	3176
843.069	3150
843.206	3135
843.343	3245
843.479	3218
843.616	3233
843.752	3005
843.889	2963
844.025	3169
844.162	2944
844.298	3157
844.435	3020
844.571	3001
844.708	3211
844.844	3253
844.98	3329
845.117	3287
845.253	3135
845.389	3112
845.525	3165
845.661	3184
845.798	3093
845.934	3249
846.07	3112
846.206	3306
846.342	3389
846.478	3321
846.614	3154
846.75	3154
846.886	3077
847.022	3321
847.158	3237
847.294	3272
847.429	3321
847.565	3275
847.701	3610
847.837	3119
847.972	3085
848.108	3237
848.244	3249
848.379	3116
848.515	2998
848.65	3001
848.786	3036
848.921	3150
849.057	3165
849.192	3218
849.328	3142
849.463	3165
849.598	3154
849.734	3100
849.869	3074
850.004	3013
850.14	3089
850.275	2990
850.41	2918
850.545	2963
850.68	3001
850.815	3005
850.95	3074
851.085	3256
851.22	3203
851.355	3119
851.49	3055
851.625	3074
851.76	3135
851.895	3024
852.03	3001
852.165	3100
852.299	3176
852.434	3275
852.569	3207
852.703	3260
852.838	3355
852.973	3428
853.107	3447
853.242	3245
853.376	3180
853.511	3051
853.645	3112
853.78	3298
853.914	3226
854.048	3199
854.183	3150
854.317	3256
854.451	3397
854.585	3203
854.72	3180
854.854	3294
854.988	3116
855.122	3169
855.256	3097
855.39	3233
855.524	3348
855.658	3230
855.792	3237
855.926	3241
856.06	3317
856.194	3363
856.327	3260
856.461	3146
856.595	3108
856.729	3184
856.862	3283
856.996	3245
857.13	3298
857.263	3294
857.397	3340
857.53	3211
857.664	3298
857.797	3291
857.931	3386
858.064	3233
858.197	3313
858.331	3199
858.464	3169
858.597	3093
858.731	3214
858.864	3230
858.997	3184
859.13	3199
859.263	3260
859.396	3268
859.529	3169
859.662	3138
859.795	3127
859.928	3199
860.061	3378
860.194	3397
860.327	3188
860.46	3195
860.592	3306
860.725	3313
860.858	3317
860.99	3135
861.123	3146
861.256	3123
861.388	3176
861.521	3755
861.653	3070
861.786	3051
861.918	3047
862.05	3104
862.183	3169
862.315	3249
862.447	3317
862.58	3180
862.712	3009
862.844	2944
862.976	3081
863.108	3039
863.24	3488
863.372	2944
863.504	3039
863.636	3058
863.768	3104
863.9	3039
864.032	2979
864.164	3020
864.296	3066
864.428	3184
864.559	3150
864.691	3127
864.823	3108
864.954	3127
865.086	3161
865.217	3062
865.349	3009
865.48	3043
865.612	3089
865.743	3245
865.875	3039
866.006	3017
866.137	3070
866.269	3043
866.4	2979
866.531	2986
866.662	2982
866.793	2979
866.924	2941
867.055	3047
867.186	2982
867.317	2967
867.448	2910
867.579	2914
867.71	2895
867.841	2895
867.972	2963
868.103	2986
868.233	2933
868.364	2956
868.495	2986
868.625	3146
868.756	3222
868.886	3017
869.017	3104
869.147	3283
869.278	3222
869.408	3135
869.539	3119
869.669	3180
869.799	3112
869.929	3226
870.06	3188
870.19	3374
870.32	3378
870.45	3363
870.58	3458
870.71	3492
870.84	3485
870.97	3370
871.1	3340
871.23	3576
871.36	3549
871.489	3439
871.619	3473
871.749	3507
871.879	3507
872.008	3549
872.138	3488
872.267	3359
872.397	3226
872.526	3188
872.656	3055
872.785	3165
872.915	3313
873.044	3378
873.173	3268
873.303	3313
873.432	3340
873.561	3306
873.69	3230
873.819	3199
873.948	3253
874.077	3207
874.206	3100
874.335	3142
874.464	3325
874.593	3420
874.722	3332
874.851	3439
874.979	3420
875.108	3416
875.237	3317
875.365	3211
875.494	3233
875.623	3329
875.751	3165
875.88	3150
876.008	3245
876.136	3321
876.265	3439
876.393	3587
876.521	3500
876.65	3466
876.778	3416
876.906	3321
877.034	3226
877.162	3272
877.29	3237
877.418	3351
877.546	3329
877.674	3310
877.802	3268
877.93	3291
878.058	3230
878.185	3131
878.313	3268
878.441	3306
878.568	3123
878.696	3230
878.824	3306
878.951	3370
879.079	3549
879.206	3701
879.333	3507
879.461	3409
879.588	3416
879.715	3530
879.842	3663
879.97	3439
880.097	3218
880.224	3176
880.351	3283
880.478	3268
880.605	3291
880.732	3268
880.859	3534
880.986	3382
881.112	3443
881.239	3275
881.366	3173
881.493	3097
881.619	3077
881.746	3157
881.872	3192
881.999	3173
882.125	3195
882.252	3321
882.378	3416
882.505	3507
882.631	3370
882.757	3211
882.883	3310
883.01	3294
883.136	3226
883.262	3138
883.388	3199
883.514	3405
883.64	3450
883.766	3393
883.892	3249
884.018	3344
884.143	3473
884.269	3591
884.395	3283
884.52	3226
884.646	3275
884.772	3199
884.897	3218
885.023	3256
885.148	3386
885.274	3496
885.399	3431
885.524	3367
885.65	3325
885.775	3378
885.9	3336
886.025	3519
886.15	3462
886.275	3370
886.4	3348
886.525	3389
886.65	3340
886.775	3344
886.9	3553
887.025	3728
887.149	3500
887.274	3332
887.399	3249
887.523	3272
887.648	3268
887.773	3291
887.897	3439
888.021	3454
888.146	3382
888.27	3481
888.395	3606
888.519	3496
888.643	3523
888.767	3549
888.891	3439
889.015	3325
889.139	3336
889.263	3351
889.387	3507
889.511	3568
889.635	3519
889.759	3382
889.883	3367
890.006	3443
890.13	3568
890.254	3336
890.377	3401
890.501	3283
890.624	3249
890.748	3389
890.871	3241
890.995	3161
891.118	3127
891.241	3245
891.364	3325
891.488	3370
891.611	3237
891.734	3256
891.857	3310
891.98	3279
892.103	3401
892.226	3393
892.349	3256
892.471	3157
892.594	3302
892.717	3355
892.839	3351
892.962	3348
893.085	3450
893.207	3340
893.33	3211
893.452	3298
893.575	3351
893.697	3283
893.819	3549
893.941	3549
894.064	3511
894.186	3321
894.308	3344
894.43	3523
894.552	3618
894.674	3553
894.796	3348
894.918	3351
895.04	3359
895.161	3462
895.283	3454
895.405	3386
895.526	3420
895.648	3515
895.769	3496
895.891	3545
896.012	3542
896.134	3515
896.255	3526
896.376	3424
896.498	3397
896.619	3507
896.74	3431
896.861	3466
896.982	3740
897.103	3972
897.224	3694
897.345	3610
897.466	3485
897.587	3557
897.708	3698
897.828	3629
897.949	3515
898.07	3412
898.19	3504
898.311	3705
898.431	3515
898.552	3526
898.672	3641
898.792	3686
898.913	3599
899.033	3447
899.153	3351
899.273	3260
899.393	3310
899.513	3420
899.633	3428
899.753	3378
899.873	3386
899.993	3439
900.113	3389
900.232	3496
900.352	3412
900.472	3344
900.591	3294
900.711	3325
900.83	3279
900.95	3492
901.069	3591
901.189	3428
901.308	3199
901.427	3165
901.546	3275
901.665	3382
901.784	3401
901.904	3287
902.023	3207
902.141	3081
902.26	3055
902.379	3192
902.498	3146
902.617	3173
902.735	3249
902.854	3317
902.973	3188
903.091	3089
903.21	3169
903.328	3192
903.446	3161
903.565	3165
903.683	3272
903.801	3195
903.919	3302
904.038	3351
904.156	3218
904.274	3336
904.392	3325
904.51	3386
904.627	3428
904.745	3538
904.863	3561
904.981	3325
905.098	3253
905.216	3272
905.334	3336
905.451	3367
905.569	3378
905.686	3485
905.803	3538
905.921	3374
906.038	3511
906.155	3428
906.272	3370
906.389	3397
906.506	3310
906.623	3291
906.74	3336
906.857	3245
906.974	3306
907.091	3462
907.208	3641
907.324	3534
907.441	3462
907.557	3321
907.674	3264
907.79	3245
907.907	3359
908.023	3473
908.139	3466
908.256	3397
908.372	3481
908.488	3370
908.604	3321
908.72	3344
908.836	3321
908.952	3336
909.068	3386
909.184	3523
909.3	3424
909.415	3568
909.531	3515
909.647	3317
909.762	3363
909.878	3310
909.993	3454
910.108	3409
910.224	3397
910.339	3431
910.454	3424
910.57	3351
910.685	3348
910.8	3637
910.915	3599
911.03	3507
911.145	3340
911.259	3310
911.374	3370
911.489	3310
911.604	3287
911.718	3188
911.833	3188
911.947	3089
912.062	3017
912.176	3203
912.291	3233
912.405	3256
912.519	3511
912.633	3530
912.748	3378
912.862	3291
912.976	3207
913.09	3081
913.204	3188
913.318	3291
913.431	3431
913.545	3397
913.659	3469
913.772	3409
913.886	3260
914	3245
914.113	3435
914.226	3477
914.34	3435
914.453	3260
914.566	3481
914.68	3378
914.793	3363
914.906	3233
915.019	3157
915.132	3127
915.245	3272
915.358	3294
915.47	3275
915.583	3302
915.696	3382
915.809	3454
915.921	3504
916.034	3336
916.146	3294
916.259	3294
916.371	3450
916.483	3435
916.595	3367
916.708	3378
916.82	3412
916.932	3378
917.044	3416
917.156	3412
917.268	3306
917.38	3351
917.491	3336
917.603	3424
917.715	3515
917.826	3488
917.938	3473
918.049	3291
918.161	3523
918.272	3667
918.384	3599
918.495	3542
918.606	3393
918.717	3348
918.828	3462
918.939	3469
919.05	3329
919.161	3454
919.272	3230
919.383	3367
919.494	3580
919.604	3717
919.715	3538
919.826	3462
919.936	3526
920.047	3671
920.157	3610
920.267	3808
920.378	3648
920.488	3637
920.598	3831
920.708	4025
920.818	3896
920.928	3888
921.038	4135
921.148	4044
921.258	3778
921.368	3705
921.477	3580
921.587	3641
921.697	3523
921.806	3633
921.916	3614
922.025	3397
922.134	3412
922.244	3393
922.353	3500
922.462	3321
922.571	3279
922.68	3138
922.789	3119
922.898	3188
923.007	3165
923.116	3214
923.224	3241
923.333	3222
923.442	3142
923.55	3135
923.659	3154
923.767	3275
923.876	3173
923.984	3298
924.092	3184
924.201	3241
924.309	3302
924.417	3325
924.525	3253
924.633	3298
924.741	4272
924.849	3119
924.956	3336
925.064	3165
925.172	3123
925.279	3161
925.387	3279
925.494	3241
925.602	3412
925.709	3367
925.816	3291
925.924	3351
926.031	3439
926.138	3386
926.245	3416
926.352	3313
926.459	3462
926.566	3561
926.673	3416
926.779	3329
926.886	3302
926.993	3230
927.099	3207
927.206	3188
927.312	3195
927.419	3275
927.525	3245
927.631	3348
927.737	3188
927.843	3188
927.95	3089
928.056	3199
928.162	3253
928.267	3291
928.373	3793
928.479	3340
928.585	3112
928.69	3260
928.796	3264
928.901	3249
929.007	3112
929.112	3268
929.218	3207
929.323	3211
929.428	3195
929.533	3355
929.638	3157
929.743	3226
929.848	3317
929.953	3214
930.058	3199
930.163	3074
930.267	3108
930.372	3253
930.477	3100
930.581	3401
930.685	3233
930.79	3108
930.894	3180
930.998	3108
931.103	3336
931.207	3020
931.311	2971
931.415	3001
931.519	2842
931.623	2845
