Data from test_V78500241_1006.txt Node
Date: Fri Mar 25 16:22:10 CST 2022
User: usil
Spectrometer: V785-0024
Trigger mode: 0
Integration Time (sec): 4.000000E-1
Scans to average: 1
Nonlinearity correction enabled: false
Boxcar width: 0
Storing dark spectrum: false
XAxis mode: Wavelengths
Number of Pixels in Spectrum: 1024
>>>>>Begin Spectral Data<<<<<
801.071	2906
801.214	2918
801.356	2845
801.499	2868
801.641	2876
801.783	2922
801.926	3024
802.068	2925
802.211	2998
802.353	3009
802.496	2960
802.638	2994
802.78	3005
802.923	3047
803.065	3009
803.208	2895
803.35	2933
803.492	2941
803.635	2925
803.777	2773
803.919	2823
804.061	3188
804.204	2933
804.346	2906
804.488	2815
804.63	2986
804.773	2838
804.915	2902
805.057	3036
805.199	2925
805.341	2952
805.483	3017
805.626	3017
805.768	2960
805.91	3062
806.052	3135
806.194	3028
806.336	3214
806.478	3024
806.62	2929
806.762	2944
806.904	3024
807.046	3192
807.188	2944
807.33	2937
807.472	2982
807.614	2895
807.756	2994
807.898	2941
808.04	2895
808.182	2979
808.324	2956
808.465	2849
808.607	2891
808.749	2800
808.891	2815
809.033	2986
809.174	2979
809.316	2895
809.458	2880
809.6	2762
809.741	2762
809.883	2750
810.025	2861
810.166	2853
810.308	2823
810.45	2857
810.591	2773
810.733	2769
810.875	2857
811.016	2800
811.158	2773
811.299	2811
811.441	2933
811.582	2887
811.724	2845
811.865	2849
812.007	2872
812.148	2902
812.29	2861
812.431	2868
812.573	2941
812.714	2960
812.855	3028
812.997	3062
813.138	3123
813.279	3055
813.421	2967
813.562	2937
813.703	2864
813.845	2857
813.986	2769
814.127	2727
814.268	2785
814.41	2864
814.551	2766
814.692	2857
814.833	2830
814.974	2883
815.115	3001
815.256	2842
815.397	2819
815.539	2872
815.68	2769
815.821	2785
815.962	2937
816.103	2883
816.244	2845
816.385	2842
816.526	2979
816.666	2941
816.807	2750
816.948	2891
817.089	2872
817.23	2853
817.371	2785
817.512	2777
817.653	2838
817.793	2792
817.934	2895
818.075	2971
818.216	3009
818.356	3039
818.497	2880
818.638	2823
818.778	2838
818.919	2807
819.06	2758
819.2	2861
819.341	2811
819.481	2811
819.622	2937
819.762	3123
819.903	3039
820.043	2933
820.184	2910
820.324	2910
820.465	3017
820.605	3005
820.746	3047
820.886	2960
821.026	3116
821.167	3154
821.307	3249
821.447	3287
821.588	3264
821.728	3218
821.868	3157
822.008	3066
822.149	3176
822.289	3237
822.429	3131
822.569	3104
822.709	3211
822.849	3024
822.99	3085
823.13	3157
823.27	3203
823.41	3104
823.55	3135
823.69	3116
823.83	3188
823.97	3112
824.11	3001
824.25	3017
824.389	3047
824.529	3119
824.669	3077
824.809	3192
824.949	3249
825.089	3245
825.228	3157
825.368	2979
825.508	2948
825.648	2975
825.787	3013
825.927	3001
826.067	2998
826.206	2971
826.346	3017
826.485	3051
826.625	3081
826.765	3245
826.904	3214
827.044	3005
827.183	2944
827.323	2864
827.462	2998
827.601	2922
827.741	2914
827.88	2944
828.02	2834
828.159	3020
828.298	3017
828.437	3123
828.577	3055
828.716	3233
828.855	3036
828.994	2922
829.134	2872
829.273	2887
829.412	2857
829.551	2849
829.69	2883
829.829	3020
829.968	3097
830.107	3020
830.246	3028
830.385	2925
830.524	2887
830.663	2807
830.802	2750
830.941	2682
831.08	2636
831.219	2746
831.357	2754
831.496	2937
831.635	2708
831.774	2613
831.913	2655
832.051	2556
832.19	2571
832.329	2659
832.467	2545
832.606	2514
832.744	2568
832.883	2594
833.022	2579
833.16	2655
833.299	2663
833.437	2697
833.576	2670
833.714	2720
833.852	2739
833.991	2758
834.129	2834
834.267	2807
834.406	2766
834.544	2868
834.682	2876
834.821	2834
834.959	3062
835.097	2937
835.235	3043
835.373	2998
835.511	2975
835.65	2922
835.788	2971
835.926	2811
836.064	2807
836.202	2823
836.34	3062
836.478	3119
836.615	3028
836.753	3142
836.891	3203
837.029	3142
837.167	3112
837.305	3032
837.443	3070
837.58	2963
837.718	3112
837.856	3055
837.993	3001
838.131	3146
838.269	3093
838.406	3070
838.544	3108
838.681	2933
838.819	2899
838.956	2826
839.094	2823
839.231	2895
839.369	2994
839.506	3374
839.643	3230
839.781	3013
839.918	2956
840.055	3047
840.193	3047
840.33	3058
840.467	3093
840.604	3142
840.742	3374
840.879	3009
841.016	3036
841.153	3123
841.29	3321
841.427	3275
841.564	3279
841.701	3340
841.838	3154
841.975	3176
842.112	3207
842.249	3081
842.385	3051
842.522	3245
842.659	3104
842.796	3039
842.933	3104
843.069	3024
843.206	3020
843.343	3203
843.479	3093
843.616	3123
843.752	2922
843.889	2823
844.025	3070
844.162	2910
844.298	3062
844.435	2937
844.571	2937
844.708	3036
844.844	3165
844.98	3218
845.117	3192
845.253	3089
845.389	3013
845.525	3051
845.661	3104
845.798	3001
845.934	3127
846.07	3058
846.206	3218
846.342	3294
846.478	3226
846.614	3062
846.75	3043
846.886	3009
847.022	3214
847.158	3116
847.294	3165
847.429	3192
847.565	3218
847.701	3485
847.837	3017
847.972	2994
848.108	3142
848.244	3150
848.379	2956
848.515	2937
848.65	2925
848.786	2994
848.921	2982
849.057	3066
849.192	3157
849.328	3055
849.463	3097
849.598	3066
849.734	3013
849.869	2990
850.004	2941
850.14	2979
850.275	2922
850.41	2842
850.545	2887
850.68	2956
850.815	2925
850.95	2960
851.085	3135
851.22	3104
851.355	2986
851.49	2979
851.625	3039
851.76	3020
851.895	2910
852.03	2899
852.165	3062
852.299	3097
852.434	3138
852.569	3131
852.703	3173
852.838	3218
852.973	3359
853.107	3332
853.242	3116
853.376	3104
853.511	2925
853.645	3043
853.78	3207
853.914	3157
854.048	3104
854.183	3081
854.317	3150
854.451	3294
854.585	3123
854.72	3100
854.854	3199
854.988	3104
855.122	3077
855.256	2979
855.39	3093
855.524	3188
855.658	3195
855.792	3169
855.926	3157
856.06	3180
856.194	3253
856.327	3135
856.461	3039
856.595	3104
856.729	3085
856.862	3214
856.996	3154
857.13	3199
857.263	3211
857.397	3264
857.53	3074
857.664	3173
857.797	3249
857.931	3237
858.064	3142
858.197	3199
858.331	3138
858.464	3062
858.597	2979
858.731	3081
858.864	3112
858.997	3077
859.13	3135
859.263	3146
859.396	3222
859.529	3028
859.662	3043
859.795	3062
859.928	3142
860.061	3275
860.194	3275
860.327	3142
860.46	3055
860.592	3203
860.725	3268
860.858	3233
860.99	3100
861.123	3081
861.256	3043
861.388	3127
861.521	3819
861.653	3039
861.786	2975
861.918	3005
862.05	3074
862.183	3081
862.315	3127
862.447	3203
862.58	3058
862.712	2922
862.844	2861
862.976	2971
863.108	2986
863.24	3447
863.372	2895
863.504	2971
863.636	2902
863.768	3009
863.9	2982
864.032	2952
864.164	2952
864.296	2982
864.428	3112
864.559	3077
864.691	3085
864.823	3074
864.954	3024
865.086	3039
865.217	3009
865.349	2956
865.48	2960
865.612	3005
865.743	3165
865.875	2994
866.006	2929
866.137	2933
866.269	2925
866.4	2876
866.531	2918
866.662	2891
866.793	2880
866.924	2933
867.055	2994
867.186	2887
867.317	2902
867.448	2834
867.579	2838
867.71	2857
867.841	2785
867.972	2872
868.103	2891
868.233	2876
868.364	2883
868.495	2918
868.625	3119
868.756	3119
868.886	2967
869.017	2990
869.147	3173
869.278	3184
869.408	3032
869.539	3009
869.669	3112
869.799	3028
869.929	3146
870.06	3104
870.19	3325
870.32	3249
870.45	3294
870.58	3401
870.71	3443
870.84	3466
870.97	3306
871.1	3184
871.23	3473
871.36	3469
871.489	3340
871.619	3386
871.749	3382
871.879	3393
872.008	3469
872.138	3329
872.267	3275
872.397	3138
872.526	3093
872.656	3028
872.785	3074
872.915	3245
873.044	3291
873.173	3241
873.303	3226
873.432	3241
873.561	3222
873.69	3154
873.819	3135
873.948	3169
874.077	3123
874.206	3047
874.335	3100
874.464	3169
874.593	3351
874.722	3245
874.851	3363
874.979	3298
875.108	3313
875.237	3211
875.365	3108
875.494	3176
875.623	3195
875.751	3070
875.88	3074
876.008	3211
876.136	3188
876.265	3321
876.393	3511
876.521	3412
876.65	3367
876.778	3340
876.906	3241
877.034	3203
877.162	3214
877.29	3184
877.418	3245
877.546	3226
877.674	3241
877.802	3218
877.93	3214
878.058	3127
878.185	3097
878.313	3184
878.441	3195
878.568	3051
878.696	3165
878.824	3226
878.951	3264
879.079	3409
879.206	3606
879.333	3420
879.461	3344
879.588	3359
879.715	3492
879.842	3561
879.97	3340
880.097	3146
880.224	3093
880.351	3150
880.478	3226
880.605	3214
880.732	3169
880.859	3507
880.986	3283
881.112	3332
881.239	3214
881.366	3081
881.493	3055
881.619	3043
881.746	3032
881.872	3074
881.999	3119
882.125	3150
882.252	3245
882.378	3256
882.505	3416
882.631	3283
882.757	3142
882.883	3203
883.01	3226
883.136	3176
883.262	3085
883.388	3150
883.514	3317
883.64	3367
883.766	3298
883.892	3188
884.018	3241
884.143	3435
884.269	3511
884.395	3203
884.52	3176
884.646	3188
884.772	3104
884.897	3108
885.023	3218
885.148	3313
885.274	3409
885.399	3340
885.524	3256
885.65	3256
885.775	3317
885.9	3279
886.025	3397
886.15	3348
886.275	3275
886.4	3199
886.525	3310
886.65	3313
886.775	3287
886.9	3507
887.025	3652
887.149	3397
887.274	3226
887.399	3180
887.523	3176
887.648	3180
887.773	3142
887.897	3363
888.021	3420
888.146	3253
888.27	3397
888.395	3496
888.519	3435
888.643	3428
888.767	3424
888.891	3313
889.015	3268
889.139	3294
889.263	3188
889.387	3409
889.511	3488
889.635	3443
889.759	3306
889.883	3336
890.006	3401
890.13	3481
890.254	3283
890.377	3325
890.501	3165
890.624	3180
890.748	3313
890.871	3184
890.995	3104
891.118	3047
891.241	3180
891.364	3233
891.488	3313
891.611	3150
891.734	3268
891.857	3264
891.98	3237
892.103	3348
892.226	3306
892.349	3237
892.471	3100
892.594	3245
892.717	3272
892.839	3294
892.962	3253
893.085	3340
893.207	3325
893.33	3138
893.452	3188
893.575	3321
893.697	3233
893.819	3439
893.941	3488
894.064	3481
894.186	3207
894.308	3317
894.43	3466
894.552	3496
894.674	3462
894.796	3272
894.918	3283
895.04	3325
895.161	3435
895.283	3370
895.405	3306
895.526	3363
895.648	3386
895.769	3431
895.891	3473
896.012	3435
896.134	3458
896.255	3389
896.376	3367
896.498	3397
896.619	3393
896.74	3370
896.861	3393
896.982	3675
897.103	3819
897.224	3591
897.345	3496
897.466	3389
897.587	3454
897.708	3599
897.828	3545
897.949	3378
898.07	3378
898.19	3401
898.311	3599
898.431	3412
898.552	3557
898.672	3618
898.792	3561
898.913	3488
899.033	3389
899.153	3310
899.273	3230
899.393	3264
899.513	3329
899.633	3340
899.753	3313
899.873	3321
899.993	3367
900.113	3317
900.232	3378
900.352	3351
900.472	3245
900.591	3184
900.711	3249
900.83	3230
900.95	3393
901.069	3466
901.189	3302
901.308	3154
901.427	3135
901.546	3180
901.665	3291
901.784	3298
901.904	3211
902.023	3176
902.141	3020
902.26	2986
902.379	3123
902.498	3085
902.617	3036
902.735	3184
902.854	3218
902.973	3199
903.091	3024
903.21	3058
903.328	3138
903.446	3119
903.565	3108
903.683	3184
903.801	3169
903.919	3249
904.038	3272
904.156	3150
904.274	3291
904.392	3256
904.51	3283
904.627	3340
904.745	3431
904.863	3500
904.981	3302
905.098	3173
905.216	3195
905.334	3279
905.451	3287
905.569	3298
905.686	3454
905.803	3431
905.921	3279
906.038	3443
906.155	3348
906.272	3256
906.389	3317
906.506	3241
906.623	3249
906.74	3241
906.857	3192
906.974	3245
907.091	3435
907.208	3542
907.324	3462
907.441	3397
907.557	3272
907.674	3275
907.79	3199
907.907	3264
908.023	3378
908.139	3367
908.256	3287
908.372	3367
908.488	3336
908.604	3230
908.72	3245
908.836	3283
908.952	3260
909.068	3298
909.184	3458
909.3	3370
909.415	3462
909.531	3439
909.647	3268
909.762	3294
909.878	3268
909.993	3363
910.108	3325
910.224	3344
910.339	3435
910.454	3317
910.57	3294
910.685	3214
910.8	3553
910.915	3504
911.03	3428
911.145	3237
911.259	3283
911.374	3317
911.489	3230
911.604	3245
911.718	3089
911.833	3150
911.947	3062
912.062	2982
912.176	3157
912.291	3207
912.405	3207
912.519	3428
912.633	3466
912.748	3348
912.862	3298
912.976	3211
913.09	3062
913.204	3184
913.318	3222
913.431	3336
913.545	3325
913.659	3416
913.772	3329
913.886	3203
914	3199
914.113	3355
914.226	3397
914.34	3397
914.453	3195
914.566	3370
914.68	3313
914.793	3336
914.906	3157
915.019	3100
915.132	3085
915.245	3165
915.358	3176
915.47	3222
915.583	3253
915.696	3264
915.809	3412
915.921	3389
916.034	3245
916.146	3260
916.259	3211
916.371	3344
916.483	3367
916.595	3291
916.708	3340
916.82	3340
916.932	3313
917.044	3313
917.156	3351
917.268	3275
917.38	3310
917.491	3302
917.603	3386
917.715	3469
917.826	3481
917.938	3382
918.049	3256
918.161	3412
918.272	3584
918.384	3603
918.495	3450
918.606	3378
918.717	3306
918.828	3389
918.939	3431
919.05	3317
919.161	3310
919.272	3157
919.383	3268
919.494	3488
919.604	3728
919.715	3496
919.826	3370
919.936	3481
920.047	3599
920.157	3576
920.267	3740
920.378	3603
920.488	3568
920.598	3774
920.708	3926
920.818	3800
920.928	3880
921.038	4006
921.148	3975
921.258	3694
921.368	3625
921.477	3568
921.587	3538
921.697	3447
921.806	3599
921.916	3515
922.025	3363
922.134	3351
922.244	3313
922.353	3412
922.462	3249
922.571	3230
922.68	3081
922.789	3100
922.898	3127
923.007	3123
923.116	3188
923.224	3169
923.333	3184
923.442	3119
923.55	3104
923.659	3157
923.767	3203
923.876	3112
923.984	3256
924.092	3074
924.201	3199
924.309	3192
924.417	3260
924.525	3211
924.633	3230
924.741	4169
924.849	3055
924.956	3279
925.064	3062
925.172	3043
925.279	3123
925.387	3230
925.494	3195
925.602	3336
925.709	3310
925.816	3184
925.924	3264
926.031	3416
926.138	3332
926.245	3389
926.352	3264
926.459	3416
926.566	3458
926.673	3275
926.779	3294
926.886	3294
926.993	3135
927.099	3123
927.206	3112
927.312	3100
927.419	3199
927.525	3199
927.631	3275
927.737	3138
927.843	3123
927.95	3032
928.056	3070
928.162	3188
928.267	3253
928.373	3880
928.479	3287
928.585	3039
928.69	3199
928.796	3291
928.901	3188
929.007	3051
929.112	3188
929.218	3176
929.323	3146
929.428	3165
929.533	3329
929.638	3104
929.743	3169
929.848	3226
929.953	3199
930.058	3146
930.163	2971
930.267	3066
930.372	3230
930.477	3077
930.581	3351
930.685	3180
930.79	3043
930.894	3116
930.998	3093
931.103	3264
931.207	3009
931.311	2956
931.415	2948
931.519	2796
931.623	2773
