Data from test_V78500241_762.txt Node
Date: Fri Mar 25 16:20:28 CST 2022
User: usil
Spectrometer: V785-0024
Trigger mode: 0
Integration Time (sec): 4.000000E-1
Scans to average: 1
Nonlinearity correction enabled: false
Boxcar width: 0
Storing dark spectrum: false
XAxis mode: Wavelengths
Number of Pixels in Spectrum: 1024
>>>>>Begin Spectral Data<<<<<
801.071	2918
801.214	2963
801.356	2868
801.499	2883
801.641	2899
801.783	2918
801.926	3100
802.068	2960
802.211	3013
802.353	3036
802.496	2967
802.638	3013
802.78	3032
802.923	3036
803.065	3001
803.208	2876
803.35	2887
803.492	2956
803.635	2933
803.777	2785
803.919	2876
804.061	3173
804.204	2975
804.346	2902
804.488	2853
804.63	2960
804.773	2883
804.915	2925
805.057	3062
805.199	2910
805.341	2975
805.483	3036
805.626	3024
805.768	2967
805.91	3070
806.052	3142
806.194	3055
806.336	3218
806.478	3009
806.62	2975
806.762	2975
806.904	3104
807.046	3173
807.188	3017
807.33	2971
807.472	3020
807.614	2914
807.756	3024
807.898	2967
808.04	2937
808.182	2963
808.324	2975
808.465	2902
808.607	2899
808.749	2845
808.891	2887
809.033	2994
809.174	3017
809.316	2918
809.458	2925
809.6	2811
809.741	2788
809.883	2800
810.025	2899
810.166	2883
810.308	2880
810.45	2887
810.591	2811
810.733	2804
810.875	2857
811.016	2792
811.158	2773
811.299	2861
811.441	2929
811.582	2910
811.724	2845
811.865	2902
812.007	2952
812.148	2944
812.29	2899
812.431	2922
812.573	3005
812.714	2998
812.855	3081
812.997	3043
813.138	3161
813.279	3074
813.421	2994
813.562	2960
813.703	2902
813.845	2899
813.986	2781
814.127	2743
814.268	2845
814.41	2857
814.551	2845
814.692	2883
814.833	2819
814.974	2925
815.115	2967
815.256	2868
815.397	2861
815.539	2849
815.68	2796
815.821	2815
815.962	2971
816.103	2963
816.244	2895
816.385	2872
816.526	2986
816.666	2952
816.807	2819
816.948	2929
817.089	2941
817.23	2883
817.371	2815
817.512	2781
817.653	2861
817.793	2849
817.934	2910
818.075	3017
818.216	3055
818.356	3047
818.497	2910
818.638	2845
818.778	2815
818.919	2853
819.06	2773
819.2	2918
819.341	2853
819.481	2819
819.622	2937
819.762	3100
819.903	3085
820.043	2933
820.184	2925
820.324	2971
820.465	3058
820.605	3032
820.746	3047
820.886	2944
821.026	3116
821.167	3192
821.307	3287
821.447	3325
821.588	3233
821.728	3233
821.868	3203
822.008	3112
822.149	3195
822.289	3233
822.429	3070
822.569	3135
822.709	3184
822.849	3051
822.99	3089
823.13	3142
823.27	3230
823.41	3157
823.55	3192
823.69	3192
823.83	3195
823.97	3081
824.11	3005
824.25	3028
824.389	3089
824.529	3180
824.669	3097
824.809	3241
824.949	3272
825.089	3241
825.228	3195
825.368	3032
825.508	2967
825.648	3001
825.787	3043
825.927	3024
826.067	2948
826.206	2986
826.346	3093
826.485	3108
826.625	3142
826.765	3325
826.904	3253
827.044	3028
827.183	2960
827.323	2880
827.462	3028
827.601	2880
827.741	2967
827.88	2986
828.02	2891
828.159	2994
828.298	3047
828.437	3138
828.577	3077
828.716	3287
828.855	3108
828.994	2948
829.134	2895
829.273	2948
829.412	2864
829.551	2849
829.69	2925
829.829	2979
829.968	3146
830.107	3036
830.246	3074
830.385	2918
830.524	2902
830.663	2853
830.802	2769
830.941	2659
831.08	2674
831.219	2792
831.357	2811
831.496	2975
831.635	2731
831.774	2655
831.913	2629
832.051	2587
832.19	2602
832.329	2705
832.467	2549
832.606	2492
832.744	2571
832.883	2610
833.022	2659
833.16	2655
833.299	2682
833.437	2731
833.576	2735
833.714	2746
833.852	2769
833.991	2804
834.129	2857
834.267	2857
834.406	2792
834.544	2933
834.682	2887
834.821	2861
834.959	3055
835.097	2922
835.235	3074
835.373	3005
835.511	3036
835.65	3005
835.788	2963
835.926	2845
836.064	2838
836.202	2849
836.34	3100
836.478	3169
836.615	3047
836.753	3176
836.891	3211
837.029	3226
837.167	3135
837.305	3051
837.443	3032
837.58	2975
837.718	3161
837.856	3062
837.993	2998
838.131	3116
838.269	3165
838.406	3089
838.544	3116
838.681	2956
838.819	2941
838.956	2830
839.094	2872
839.231	2967
839.369	3043
839.506	3378
839.643	3253
839.781	3017
839.918	2986
840.055	3028
840.193	3058
840.33	3070
840.467	3097
840.604	3157
840.742	3431
840.879	3097
841.016	3066
841.153	3119
841.29	3351
841.427	3298
841.564	3260
841.701	3321
841.838	3211
841.975	3138
842.112	3230
842.249	3093
842.385	3051
842.522	3287
842.659	3127
842.796	3104
842.933	3127
843.069	3093
843.206	3055
843.343	3195
843.479	3127
843.616	3184
843.752	2902
843.889	2819
844.025	3081
844.162	2880
844.298	3077
844.435	2990
844.571	2922
844.708	3104
844.844	3218
844.98	3241
845.117	3214
845.253	3039
845.389	2990
845.525	3104
845.661	3150
845.798	3017
845.934	3138
846.07	3028
846.206	3233
846.342	3367
846.478	3245
846.614	3093
846.75	3077
846.886	3020
847.022	3268
847.158	3154
847.294	3161
847.429	3264
847.565	3203
847.701	3477
847.837	3066
847.972	3009
848.108	3154
848.244	3192
848.379	3017
848.515	2952
848.65	2952
848.786	2960
848.921	3001
849.057	3112
849.192	3161
849.328	3093
849.463	3146
849.598	3074
849.734	3024
849.869	2986
850.004	2914
850.14	2979
850.275	2941
850.41	2838
850.545	2887
850.68	2952
850.815	2902
850.95	2963
851.085	3176
851.22	3112
851.355	3051
851.49	2994
851.625	3009
851.76	3017
851.895	2986
852.03	2910
852.165	3017
852.299	3116
852.434	3173
852.569	3146
852.703	3226
852.838	3253
852.973	3310
853.107	3317
853.242	3180
853.376	3085
853.511	3005
853.645	3097
853.78	3253
853.914	3108
854.048	3123
854.183	3116
854.317	3199
854.451	3313
854.585	3154
854.72	3093
854.854	3245
854.988	3051
855.122	3100
855.256	2986
855.39	3123
855.524	3233
855.658	3237
855.792	3199
855.926	3268
856.06	3233
856.194	3256
856.327	3150
856.461	3070
856.595	3097
856.729	3127
856.862	3233
856.996	3173
857.13	3169
857.263	3211
857.397	3321
857.53	3142
857.664	3226
857.797	3291
857.931	3249
858.064	3165
858.197	3211
858.331	3146
858.464	3104
858.597	2982
858.731	3138
858.864	3119
858.997	3097
859.13	3150
859.263	3195
859.396	3199
859.529	3093
859.662	3074
859.795	3047
859.928	3131
860.061	3264
860.194	3291
860.327	3135
860.46	3081
860.592	3272
860.725	3218
860.858	3260
860.99	3081
861.123	3036
861.256	3020
861.388	3157
861.521	3865
861.653	3039
861.786	2952
861.918	3017
862.05	3062
862.183	3100
862.315	3169
862.447	3214
862.58	3093
862.712	2937
862.844	2891
862.976	3058
863.108	2998
863.24	3443
863.372	2887
863.504	2994
863.636	2975
863.768	3013
863.9	2994
864.032	2918
864.164	2937
864.296	3047
864.428	3085
864.559	3093
864.691	3116
864.823	3043
864.954	3032
865.086	3070
865.217	3005
865.349	2971
865.48	2994
865.612	3051
865.743	3192
865.875	2994
866.006	2941
866.137	3009
866.269	2941
866.4	2960
866.531	2918
866.662	2899
866.793	2880
866.924	2910
867.055	2967
867.186	2948
867.317	2853
867.448	2849
867.579	2845
867.71	2876
867.841	2819
867.972	2910
868.103	2876
868.233	2887
868.364	2895
868.495	2895
868.625	3089
868.756	3180
868.886	2982
869.017	3036
869.147	3157
869.278	3157
869.408	3077
869.539	3001
869.669	3085
869.799	3058
869.929	3127
870.06	3108
870.19	3340
870.32	3283
870.45	3302
870.58	3370
870.71	3439
870.84	3420
870.97	3329
871.1	3283
871.23	3542
871.36	3481
871.489	3332
871.619	3397
871.749	3424
871.879	3420
872.008	3515
872.138	3378
872.267	3245
872.397	3150
872.526	3104
872.656	3017
872.785	3108
872.915	3237
873.044	3291
873.173	3241
873.303	3264
873.432	3237
873.561	3203
873.69	3180
873.819	3135
873.948	3192
874.077	3112
874.206	3039
874.335	3097
874.464	3188
874.593	3329
874.722	3279
874.851	3420
874.979	3321
875.108	3340
875.237	3176
875.365	3180
875.494	3173
875.623	3264
875.751	3066
875.88	3161
876.008	3203
876.136	3222
876.265	3393
876.393	3511
876.521	3443
876.65	3374
876.778	3313
876.906	3245
877.034	3188
877.162	3237
877.29	3222
877.418	3283
877.546	3233
877.674	3268
877.802	3241
877.93	3268
878.058	3138
878.185	3089
878.313	3203
878.441	3214
878.568	3081
878.696	3142
878.824	3283
878.951	3287
879.079	3458
879.206	3618
879.333	3447
879.461	3374
879.588	3393
879.715	3488
879.842	3553
879.97	3389
880.097	3173
880.224	3123
880.351	3169
880.478	3188
880.605	3157
880.732	3211
880.859	3485
880.986	3298
881.112	3275
881.239	3192
881.366	3100
881.493	3017
881.619	3005
881.746	3093
881.872	3108
881.999	3100
882.125	3165
882.252	3253
882.378	3275
882.505	3447
882.631	3272
882.757	3131
882.883	3203
883.01	3233
883.136	3138
883.262	3081
883.388	3100
883.514	3332
883.64	3401
883.766	3351
883.892	3173
884.018	3214
884.143	3393
884.269	3538
884.395	3188
884.52	3116
884.646	3161
884.772	3119
884.897	3062
885.023	3199
885.148	3348
885.274	3412
885.399	3348
885.524	3253
885.65	3275
885.775	3321
885.9	3272
886.025	3431
886.15	3359
886.275	3291
886.4	3237
886.525	3310
886.65	3279
886.775	3275
886.9	3473
887.025	3644
887.149	3389
887.274	3241
887.399	3169
887.523	3192
887.648	3157
887.773	3184
887.897	3329
888.021	3401
888.146	3294
888.27	3477
888.395	3530
888.519	3477
888.643	3469
888.767	3473
888.891	3306
889.015	3230
889.139	3302
889.263	3199
889.387	3397
889.511	3485
889.635	3447
889.759	3272
889.883	3287
890.006	3401
890.13	3473
890.254	3283
890.377	3344
890.501	3245
890.624	3165
890.748	3310
890.871	3169
890.995	3097
891.118	3062
891.241	3150
891.364	3272
891.488	3332
891.611	3131
891.734	3245
891.857	3283
891.98	3199
892.103	3317
892.226	3306
892.349	3226
892.471	3100
892.594	3203
892.717	3302
892.839	3260
892.962	3275
893.085	3313
893.207	3310
893.33	3138
893.452	3199
893.575	3367
893.697	3260
893.819	3450
893.941	3473
894.064	3462
894.186	3249
894.308	3275
894.43	3435
894.552	3576
894.674	3428
894.796	3260
894.918	3291
895.04	3264
895.161	3466
895.283	3351
895.405	3306
895.526	3401
895.648	3409
895.769	3412
895.891	3447
896.012	3443
896.134	3477
896.255	3424
896.376	3424
896.498	3378
896.619	3450
896.74	3363
896.861	3424
896.982	3675
897.103	3857
897.224	3561
897.345	3507
897.466	3447
897.587	3485
897.708	3606
897.828	3568
897.949	3447
898.07	3332
898.19	3412
898.311	3610
898.431	3405
898.552	3450
898.672	3603
898.792	3568
898.913	3519
899.033	3431
899.153	3310
899.273	3188
899.393	3298
899.513	3332
899.633	3367
899.753	3332
899.873	3348
899.993	3382
900.113	3336
900.232	3386
900.352	3340
900.472	3294
900.591	3188
900.711	3294
900.83	3268
900.95	3428
901.069	3439
901.189	3340
901.308	3226
901.427	3097
901.546	3184
901.665	3264
901.784	3355
901.904	3233
902.023	3161
902.141	2963
902.26	3009
902.379	3131
902.498	3062
902.617	3047
902.735	3214
902.854	3218
902.973	3199
903.091	3009
903.21	3062
903.328	3150
903.446	3081
903.565	3074
903.683	3199
903.801	3127
903.919	3256
904.038	3272
904.156	3165
904.274	3253
904.392	3222
904.51	3283
904.627	3336
904.745	3428
904.863	3534
904.981	3256
905.098	3142
905.216	3249
905.334	3332
905.451	3272
905.569	3325
905.686	3431
905.803	3428
905.921	3287
906.038	3424
906.155	3329
906.272	3253
906.389	3321
906.506	3203
906.623	3241
906.74	3272
906.857	3214
906.974	3260
907.091	3420
907.208	3568
907.324	3492
907.441	3424
907.557	3214
907.674	3230
907.79	3211
907.907	3294
908.023	3325
908.139	3389
908.256	3351
908.372	3382
908.488	3336
908.604	3256
908.72	3241
908.836	3272
908.952	3268
909.068	3351
909.184	3504
909.3	3397
909.415	3485
909.531	3458
909.647	3294
909.762	3279
909.878	3249
909.993	3348
910.108	3317
910.224	3313
910.339	3431
910.454	3340
910.57	3298
910.685	3230
910.8	3618
910.915	3511
911.03	3424
911.145	3260
911.259	3249
911.374	3306
911.489	3245
911.604	3226
911.718	3154
911.833	3157
911.947	3028
912.062	2990
912.176	3161
912.291	3157
912.405	3230
912.519	3424
912.633	3458
912.748	3329
912.862	3283
912.976	3180
913.09	3070
913.204	3131
913.318	3237
913.431	3306
913.545	3336
913.659	3424
913.772	3283
913.886	3199
914	3218
914.113	3317
914.226	3435
914.34	3367
914.453	3192
914.566	3397
914.68	3275
914.793	3302
914.906	3138
915.019	3123
915.132	3074
915.245	3127
915.358	3195
915.47	3214
915.583	3298
915.696	3272
915.809	3359
915.921	3393
916.034	3256
916.146	3245
916.259	3256
916.371	3416
916.483	3329
916.595	3283
916.708	3336
916.82	3367
916.932	3325
917.044	3329
917.156	3332
917.268	3245
917.38	3291
917.491	3287
917.603	3397
917.715	3439
917.826	3458
917.938	3386
918.049	3256
918.161	3405
918.272	3553
918.384	3561
918.495	3481
918.606	3317
918.717	3287
918.828	3370
918.939	3409
919.05	3317
919.161	3370
919.272	3176
919.383	3283
919.494	3431
919.604	3694
919.715	3488
919.826	3409
919.936	3477
920.047	3515
920.157	3549
920.267	3766
920.378	3637
920.488	3572
920.598	3789
920.708	3937
920.818	3846
920.928	3838
921.038	4048
921.148	3994
921.258	3686
921.368	3629
921.477	3564
921.587	3553
921.697	3469
921.806	3610
921.916	3530
922.025	3348
922.134	3378
922.244	3313
922.353	3454
922.462	3291
922.571	3260
922.68	3112
922.789	3089
922.898	3142
923.007	3108
923.116	3199
923.224	3157
923.333	3195
923.442	3100
923.55	3089
923.659	3150
923.767	3241
923.876	3104
923.984	3237
924.092	3116
924.201	3161
924.309	3173
924.417	3256
924.525	3211
924.633	3230
924.741	4166
924.849	3077
924.956	3268
925.064	3135
925.172	3077
925.279	3100
925.387	3157
925.494	3188
925.602	3336
925.709	3317
925.816	3180
925.924	3302
926.031	3393
926.138	3317
926.245	3359
926.352	3233
926.459	3435
926.566	3454
926.673	3294
926.779	3226
926.886	3245
926.993	3138
927.099	3119
927.206	3146
927.312	3077
927.419	3245
927.525	3230
927.631	3256
927.737	3161
927.843	3142
927.95	3036
928.056	3138
928.162	3203
928.267	3260
928.373	3804
928.479	3310
928.585	3055
928.69	3226
928.796	3294
928.901	3142
929.007	3051
929.112	3222
929.218	3226
929.323	3157
929.428	3142
929.533	3321
929.638	3097
929.743	3176
929.848	3268
929.953	3214
930.058	3180
930.163	3005
930.267	3066
930.372	3233
930.477	3051
930.581	3310
930.685	3165
930.79	3051
930.894	3116
930.998	3104
931.103	3298
931.207	2979
931.311	2956
931.415	2918
931.519	2731
931.623	2811
