Data from test_V78500241_2057.txt Node
Date: Fri Mar 25 16:29:27 CST 2022
User: usil
Spectrometer: V785-0024
Trigger mode: 0
Integration Time (sec): 4.000000E-1
Scans to average: 1
Nonlinearity correction enabled: false
Boxcar width: 0
Storing dark spectrum: false
XAxis mode: Wavelengths
Number of Pixels in Spectrum: 1024
>>>>>Begin Spectral Data<<<<<
801.071	2910
801.214	2937
801.356	2838
801.499	2880
801.641	2872
801.783	2906
801.926	3070
802.068	3009
802.211	2986
802.353	3039
802.496	2979
802.638	3017
802.78	3055
802.923	3039
803.065	2986
803.208	2861
803.35	2933
803.492	2933
803.635	2883
803.777	2750
803.919	2853
804.061	3180
804.204	2925
804.346	2906
804.488	2819
804.63	2990
804.773	2922
804.915	2910
805.057	3074
805.199	2941
805.341	2937
805.483	3017
805.626	2986
805.768	2960
805.91	3043
806.052	3097
806.194	3039
806.336	3214
806.478	3032
806.62	2918
806.762	2956
806.904	3024
807.046	3165
807.188	2941
807.33	2902
807.472	2979
807.614	2883
807.756	2975
807.898	2925
808.04	2872
808.182	2922
808.324	2944
808.465	2834
808.607	2883
808.749	2766
808.891	2834
809.033	2975
809.174	2944
809.316	2891
809.458	2876
809.6	2777
809.741	2724
809.883	2758
810.025	2815
810.166	2830
810.308	2845
810.45	2861
810.591	2804
810.733	2773
810.875	2785
811.016	2766
811.158	2777
811.299	2800
811.441	2918
811.582	2887
811.724	2804
811.865	2800
812.007	2914
812.148	2887
812.29	2857
812.431	2872
812.573	2937
812.714	2979
812.855	3070
812.997	3039
813.138	3123
813.279	2994
813.421	2986
813.562	2933
813.703	2868
813.845	2883
813.986	2777
814.127	2731
814.268	2788
814.41	2830
814.551	2792
814.692	2857
814.833	2807
814.974	2849
815.115	2929
815.256	2823
815.397	2807
815.539	2845
815.68	2746
815.821	2788
815.962	2960
816.103	2902
816.244	2849
816.385	2834
816.526	2967
816.666	2891
816.807	2743
816.948	2883
817.089	2891
817.23	2807
817.371	2766
817.512	2788
817.653	2845
817.793	2785
817.934	2880
818.075	2956
818.216	2956
818.356	3020
818.497	2880
818.638	2773
818.778	2811
818.919	2785
819.06	2701
819.2	2853
819.341	2819
819.481	2773
819.622	2899
819.762	3097
819.903	3028
820.043	2941
820.184	2895
820.324	2861
820.465	2986
820.605	2998
820.746	3043
820.886	2929
821.026	3100
821.167	3161
821.307	3233
821.447	3260
821.588	3245
821.728	3184
821.868	3150
822.008	3108
822.149	3176
822.289	3203
822.429	3097
822.569	3112
822.709	3150
822.849	3032
822.99	3074
823.13	3176
823.27	3169
823.41	3150
823.55	3135
823.69	3157
823.83	3154
823.97	3066
824.11	2975
824.25	2994
824.389	3081
824.529	3081
824.669	3070
824.809	3203
824.949	3253
825.089	3195
825.228	3150
825.368	2998
825.508	2929
825.648	2998
825.787	2971
825.927	3028
826.067	2937
826.206	2956
826.346	3043
826.485	3104
826.625	3089
826.765	3264
826.904	3184
827.044	3009
827.183	2944
827.323	2857
827.462	2986
827.601	2861
827.741	2902
827.88	2971
828.02	2857
828.159	2937
828.298	3017
828.437	3074
828.577	3039
828.716	3245
828.855	3062
828.994	2891
829.134	2845
829.273	2925
829.412	2864
829.551	2864
829.69	2872
829.829	2990
829.968	3127
830.107	3020
830.246	3020
830.385	2929
830.524	2880
830.663	2796
830.802	2731
830.941	2640
831.08	2636
831.219	2777
831.357	2762
831.496	2971
831.635	2712
831.774	2613
831.913	2648
832.051	2518
832.19	2583
832.329	2670
832.467	2533
832.606	2473
832.744	2575
832.883	2568
833.022	2594
833.16	2640
833.299	2659
833.437	2686
833.576	2674
833.714	2708
833.852	2701
833.991	2746
834.129	2815
834.267	2788
834.406	2746
834.544	2845
834.682	2853
834.821	2823
834.959	3070
835.097	2849
835.235	3039
835.373	3017
835.511	2971
835.65	2944
835.788	2956
835.926	2811
836.064	2804
836.202	2823
836.34	3074
836.478	3097
836.615	3058
836.753	3100
836.891	3188
837.029	3161
837.167	3062
837.305	3028
837.443	3051
837.58	2967
837.718	3089
837.856	3055
837.993	2994
838.131	3085
838.269	3081
838.406	3097
838.544	3081
838.681	2883
838.819	2925
838.956	2830
839.094	2857
839.231	2895
839.369	2998
839.506	3367
839.643	3207
839.781	2990
839.918	2941
840.055	3058
840.193	3077
840.33	3093
840.467	3100
840.604	3108
840.742	3397
840.879	3039
841.016	3051
841.153	3116
841.29	3325
841.427	3294
841.564	3272
841.701	3306
841.838	3233
841.975	3195
842.112	3207
842.249	3081
842.385	3047
842.522	3253
842.659	3104
842.796	3070
842.933	3100
843.069	3070
843.206	3051
843.343	3192
843.479	3131
843.616	3176
843.752	2952
843.889	2880
844.025	3066
844.162	2857
844.298	3108
844.435	2967
844.571	2941
844.708	3097
844.844	3245
844.98	3268
845.117	3245
845.253	3081
845.389	3039
845.525	3123
845.661	3119
845.798	3039
845.934	3154
846.07	3066
846.206	3245
846.342	3310
846.478	3241
846.614	3131
846.75	3085
846.886	3055
847.022	3283
847.158	3165
847.294	3218
847.429	3275
847.565	3214
847.701	3534
847.837	3055
847.972	3055
848.108	3165
848.244	3211
848.379	3024
848.515	2960
848.65	2982
848.786	3032
848.921	3055
849.057	3119
849.192	3184
849.328	3081
849.463	3173
849.598	3097
849.734	3055
849.869	2994
850.004	2952
850.14	3005
850.275	2933
850.41	2876
850.545	2914
850.68	2982
850.815	2971
850.95	3005
851.085	3218
851.22	3131
851.355	3062
851.49	2998
851.625	3013
851.76	3085
851.895	2948
852.03	2948
852.165	3058
852.299	3123
852.434	3222
852.569	3192
852.703	3214
852.838	3260
852.973	3374
853.107	3363
853.242	3192
853.376	3100
853.511	3020
853.645	3093
853.78	3279
853.914	3157
854.048	3138
854.183	3108
854.317	3188
854.451	3306
854.585	3180
854.72	3108
854.854	3253
854.988	3081
855.122	3116
855.256	2998
855.39	3138
855.524	3268
855.658	3195
855.792	3161
855.926	3192
856.06	3253
856.194	3313
856.327	3173
856.461	3108
856.595	3119
856.729	3146
856.862	3241
856.996	3176
857.13	3233
857.263	3260
857.397	3287
857.53	3169
857.664	3199
857.797	3298
857.931	3298
858.064	3203
858.197	3222
858.331	3150
858.464	3116
858.597	3055
858.731	3135
858.864	3161
858.997	3123
859.13	3161
859.263	3199
859.396	3218
859.529	3112
859.662	3131
859.795	3070
859.928	3184
860.061	3302
860.194	3310
860.327	3203
860.46	3100
860.592	3256
860.725	3253
860.858	3275
860.99	3123
861.123	3047
861.256	3081
861.388	3184
861.521	3930
861.653	3039
861.786	3020
861.918	2998
862.05	3062
862.183	3093
862.315	3157
862.447	3233
862.58	3116
862.712	2994
862.844	2910
862.976	3028
863.108	3013
863.24	3332
863.372	2891
863.504	2994
863.636	2971
863.768	3032
863.9	3009
864.032	2948
864.164	2998
864.296	3039
864.428	3108
864.559	3131
864.691	3055
864.823	3123
864.954	3062
865.086	3043
865.217	3009
865.349	2982
865.48	3043
865.612	3074
865.743	3199
865.875	3020
866.006	2979
866.137	2998
866.269	2994
866.4	2948
866.531	2979
866.662	2902
866.793	2918
866.924	2918
867.055	3017
867.186	2986
867.317	2902
867.448	2910
867.579	2887
867.71	2880
867.841	2834
867.972	2910
868.103	2975
868.233	2876
868.364	2906
868.495	2910
868.625	3104
868.756	3233
868.886	3024
869.017	3074
869.147	3165
869.278	3192
869.408	3074
869.539	3077
869.669	3135
869.799	3039
869.929	3169
870.06	3146
870.19	3336
870.32	3272
870.45	3313
870.58	3409
870.71	3462
870.84	3469
870.97	3325
871.1	3245
871.23	3530
871.36	3466
871.489	3393
871.619	3447
871.749	3420
871.879	3485
872.008	3496
872.138	3409
872.267	3336
872.397	3131
872.526	3112
872.656	3024
872.785	3108
872.915	3256
873.044	3359
873.173	3233
873.303	3275
873.432	3249
873.561	3291
873.69	3180
873.819	3165
873.948	3211
874.077	3150
874.206	3066
874.335	3123
874.464	3253
874.593	3363
874.722	3272
874.851	3428
874.979	3393
875.108	3386
875.237	3233
875.365	3199
875.494	3188
875.623	3237
875.751	3085
875.88	3165
876.008	3207
876.136	3256
876.265	3435
876.393	3526
876.521	3435
876.65	3450
876.778	3409
876.906	3310
877.034	3237
877.162	3268
877.29	3203
877.418	3272
877.546	3298
877.674	3253
877.802	3237
877.93	3233
878.058	3154
878.185	3108
878.313	3218
878.441	3237
878.568	3127
878.696	3176
878.824	3291
878.951	3298
879.079	3447
879.206	3648
879.333	3488
879.461	3348
879.588	3367
879.715	3526
879.842	3629
879.97	3443
880.097	3218
880.224	3180
880.351	3192
880.478	3233
880.605	3199
880.732	3195
880.859	3545
880.986	3329
881.112	3382
881.239	3241
881.366	3146
881.493	3089
881.619	3024
881.746	3112
881.872	3112
881.999	3142
882.125	3142
882.252	3256
882.378	3310
882.505	3443
882.631	3302
882.757	3184
882.883	3203
883.01	3249
883.136	3184
883.262	3100
883.388	3112
883.514	3351
883.64	3431
883.766	3291
883.892	3180
884.018	3283
884.143	3439
884.269	3584
884.395	3226
884.52	3180
884.646	3176
884.772	3150
884.897	3127
885.023	3173
885.148	3332
885.274	3431
885.399	3363
885.524	3321
885.65	3233
885.775	3359
885.9	3291
886.025	3443
886.15	3405
886.275	3245
886.4	3253
886.525	3310
886.65	3287
886.775	3332
886.9	3504
887.025	3652
887.149	3454
887.274	3222
887.399	3218
887.523	3226
887.648	3195
887.773	3207
887.897	3416
888.021	3405
888.146	3321
888.27	3405
888.395	3538
888.519	3431
888.643	3462
888.767	3454
888.891	3317
889.015	3253
889.139	3325
889.263	3287
889.387	3420
889.511	3504
889.635	3462
889.759	3306
889.883	3279
890.006	3420
890.13	3507
890.254	3313
890.377	3363
890.501	3222
890.624	3157
890.748	3321
890.871	3173
890.995	3131
891.118	3081
891.241	3169
891.364	3249
891.488	3313
891.611	3230
891.734	3279
891.857	3355
891.98	3264
892.103	3344
892.226	3313
892.349	3207
892.471	3150
892.594	3253
892.717	3321
892.839	3260
892.962	3332
893.085	3374
893.207	3298
893.33	3165
893.452	3241
893.575	3321
893.697	3264
893.819	3481
893.941	3526
894.064	3492
894.186	3298
894.308	3313
894.43	3443
894.552	3549
894.674	3492
894.796	3253
894.918	3344
895.04	3325
895.161	3454
895.283	3397
895.405	3310
895.526	3378
895.648	3447
895.769	3428
895.891	3504
896.012	3504
896.134	3496
896.255	3416
896.376	3424
896.498	3336
896.619	3412
896.74	3382
896.861	3412
896.982	3686
897.103	3823
897.224	3568
897.345	3519
897.466	3454
897.587	3507
897.708	3622
897.828	3557
897.949	3485
898.07	3370
898.19	3431
898.311	3648
898.431	3462
898.552	3507
898.672	3603
898.792	3610
898.913	3545
899.033	3397
899.153	3279
899.273	3226
899.393	3272
899.513	3329
899.633	3332
899.753	3363
899.873	3325
899.993	3397
900.113	3374
900.232	3412
900.352	3355
900.472	3313
900.591	3291
900.711	3291
900.83	3249
900.95	3428
901.069	3507
901.189	3363
901.308	3218
901.427	3161
901.546	3184
901.665	3302
901.784	3336
901.904	3256
902.023	3150
902.141	3036
902.26	2990
902.379	3138
902.498	3081
902.617	3017
902.735	3199
902.854	3222
902.973	3218
903.091	3043
903.21	3055
903.328	3150
903.446	3146
903.565	3146
903.683	3237
903.801	3180
903.919	3245
904.038	3298
904.156	3176
904.274	3275
904.392	3275
904.51	3329
904.627	3321
904.745	3447
904.863	3492
904.981	3256
905.098	3184
905.216	3233
905.334	3298
905.451	3306
905.569	3306
905.686	3447
905.803	3454
905.921	3306
906.038	3420
906.155	3344
906.272	3275
906.389	3325
906.506	3241
906.623	3283
906.74	3294
906.857	3233
906.974	3298
907.091	3477
907.208	3580
907.324	3462
907.441	3359
907.557	3195
907.674	3226
907.79	3233
907.907	3279
908.023	3386
908.139	3378
908.256	3332
908.372	3363
908.488	3386
908.604	3260
908.72	3249
908.836	3306
908.952	3249
909.068	3332
909.184	3454
909.3	3393
909.415	3469
909.531	3469
909.647	3294
909.762	3287
909.878	3264
909.993	3336
910.108	3351
910.224	3344
910.339	3416
910.454	3336
910.57	3310
910.685	3226
910.8	3603
910.915	3564
911.03	3443
911.145	3272
911.259	3253
911.374	3336
911.489	3260
911.604	3241
911.718	3119
911.833	3188
911.947	3024
912.062	3013
912.176	3127
912.291	3207
912.405	3218
912.519	3443
912.633	3450
912.748	3329
912.862	3287
912.976	3157
913.09	3039
913.204	3173
913.318	3222
913.431	3351
913.545	3325
913.659	3424
913.772	3374
913.886	3275
914	3184
914.113	3389
914.226	3431
914.34	3416
914.453	3264
914.566	3447
914.68	3325
914.793	3302
914.906	3173
915.019	3127
915.132	3070
915.245	3211
915.358	3268
915.47	3233
915.583	3260
915.696	3355
915.809	3420
915.921	3473
916.034	3294
916.146	3291
916.259	3260
916.371	3397
916.483	3374
916.595	3329
916.708	3336
916.82	3378
916.932	3367
917.044	3420
917.156	3382
917.268	3298
917.38	3329
917.491	3340
917.603	3386
917.715	3515
917.826	3530
917.938	3397
918.049	3310
918.161	3469
918.272	3682
918.384	3595
918.495	3545
918.606	3386
918.717	3310
918.828	3450
918.939	3428
919.05	3313
919.161	3424
919.272	3199
919.383	3355
919.494	3545
919.604	3705
919.715	3511
919.826	3424
919.936	3500
920.047	3606
920.157	3606
920.267	3743
920.378	3671
920.488	3595
920.598	3835
920.708	3975
920.818	3873
920.928	3911
921.038	4067
921.148	4063
921.258	3690
921.368	3671
921.477	3591
921.587	3576
921.697	3481
921.806	3637
921.916	3599
922.025	3397
922.134	3439
922.244	3382
922.353	3416
922.462	3291
922.571	3287
922.68	3138
922.789	3169
922.898	3188
923.007	3123
923.116	3272
923.224	3199
923.333	3218
923.442	3165
923.55	3157
923.659	3192
923.767	3279
923.876	3169
923.984	3298
924.092	3176
924.201	3218
924.309	3226
924.417	3310
924.525	3211
924.633	3279
924.741	4207
924.849	3081
924.956	3325
925.064	3176
925.172	3066
925.279	3161
925.387	3214
925.494	3245
925.602	3412
925.709	3359
925.816	3272
925.924	3313
926.031	3401
926.138	3344
926.245	3412
926.352	3294
926.459	3443
926.566	3500
926.673	3329
926.779	3298
926.886	3294
926.993	3169
927.099	3176
927.206	3150
927.312	3169
927.419	3298
927.525	3245
927.631	3291
927.737	3154
927.843	3195
927.95	3032
928.056	3173
928.162	3233
928.267	3310
928.373	3922
928.479	3313
928.585	3119
928.69	3256
928.796	3317
928.901	3176
929.007	3097
929.112	3218
929.218	3233
929.323	3184
929.428	3142
929.533	3363
929.638	3146
929.743	3180
929.848	3291
929.953	3253
930.058	3184
930.163	3028
930.267	3081
930.372	3192
930.477	3085
930.581	3336
930.685	3211
930.79	3093
930.894	3119
930.998	3135
931.103	3340
931.207	2960
931.311	2952
931.415	2982
931.519	2811
931.623	2830
