Data from test_V78500241_1215.txt Node
Date: Fri Mar 25 16:23:37 CST 2022
User: usil
Spectrometer: V785-0024
Trigger mode: 0
Integration Time (sec): 4.000000E-1
Scans to average: 1
Nonlinearity correction enabled: false
Boxcar width: 0
Storing dark spectrum: false
XAxis mode: Wavelengths
Number of Pixels in Spectrum: 1024
>>>>>Begin Spectral Data<<<<<
801.071	2925
801.214	2925
801.356	2819
801.499	2891
801.641	2842
801.783	2925
801.926	3028
802.068	2975
802.211	2963
802.353	3085
802.496	2975
802.638	3005
802.78	3036
802.923	3077
803.065	2986
803.208	2853
803.35	2906
803.492	2902
803.635	2925
803.777	2773
803.919	2853
804.061	3173
804.204	2948
804.346	2891
804.488	2834
804.63	2960
804.773	2857
804.915	2929
805.057	3036
805.199	2899
805.341	2963
805.483	3062
805.626	2998
805.768	2910
805.91	3055
806.052	3127
806.194	3028
806.336	3226
806.478	3020
806.62	2929
806.762	2982
806.904	3066
807.046	3173
807.188	2963
807.33	2929
807.472	2982
807.614	2899
807.756	3001
807.898	2902
808.04	2902
808.182	2982
808.324	2933
808.465	2895
808.607	2853
808.749	2777
808.891	2849
809.033	2979
809.174	2971
809.316	2876
809.458	2918
809.6	2750
809.741	2773
809.883	2792
810.025	2838
810.166	2838
810.308	2861
810.45	2857
810.591	2762
810.733	2766
810.875	2823
811.016	2773
811.158	2731
811.299	2754
811.441	2887
811.582	2902
811.724	2834
811.865	2815
812.007	2910
812.148	2891
812.29	2838
812.431	2883
812.573	2925
812.714	2952
812.855	3062
812.997	3047
813.138	3119
813.279	2986
813.421	2963
813.562	2990
813.703	2849
813.845	2895
813.986	2773
814.127	2724
814.268	2830
814.41	2830
814.551	2804
814.692	2868
814.833	2800
814.974	2868
815.115	2979
815.256	2849
815.397	2815
815.539	2864
815.68	2743
815.821	2781
815.962	2922
816.103	2929
816.244	2868
816.385	2891
816.526	2971
816.666	2910
816.807	2731
816.948	2910
817.089	2902
817.23	2872
817.371	2785
817.512	2758
817.653	2872
817.793	2826
817.934	2857
818.075	2975
818.216	2998
818.356	3024
818.497	2868
818.638	2781
818.778	2842
818.919	2819
819.06	2758
819.2	2872
819.341	2796
819.481	2746
819.622	2899
819.762	3097
819.903	3039
820.043	2933
820.184	2849
820.324	2906
820.465	2982
820.605	2975
820.746	3039
820.886	2922
821.026	3062
821.167	3211
821.307	3260
821.447	3264
821.588	3233
821.728	3199
821.868	3199
822.008	3066
822.149	3161
822.289	3222
822.429	3028
822.569	3070
822.709	3165
822.849	3020
822.99	3070
823.13	3135
823.27	3218
823.41	3116
823.55	3157
823.69	3135
823.83	3192
823.97	3123
824.11	3013
824.25	2975
824.389	3062
824.529	3089
824.669	3070
824.809	3157
824.949	3199
825.089	3218
825.228	3161
825.368	2979
825.508	2975
825.648	2975
825.787	2998
825.927	3013
826.067	2956
826.206	2941
826.346	3028
826.485	3077
826.625	3119
826.765	3237
826.904	3176
827.044	2925
827.183	2933
827.323	2849
827.462	2986
827.601	2914
827.741	2937
827.88	2925
828.02	2804
828.159	2922
828.298	3036
828.437	3085
828.577	3017
828.716	3245
828.855	3055
828.994	2902
829.134	2849
829.273	2941
829.412	2853
829.551	2826
829.69	2880
829.829	3009
829.968	3112
830.107	3017
830.246	3032
830.385	2895
830.524	2872
830.663	2807
830.802	2746
830.941	2670
831.08	2663
831.219	2743
831.357	2773
831.496	2963
831.635	2716
831.774	2659
831.913	2659
832.051	2537
832.19	2533
832.329	2682
832.467	2549
832.606	2442
832.744	2575
832.883	2571
833.022	2598
833.16	2644
833.299	2693
833.437	2670
833.576	2678
833.714	2716
833.852	2731
833.991	2792
834.129	2838
834.267	2834
834.406	2777
834.544	2842
834.682	2857
834.821	2849
834.959	3058
835.097	2906
835.235	3077
835.373	3005
835.511	3013
835.65	2933
835.788	2944
835.926	2842
836.064	2830
836.202	2830
836.34	3070
836.478	3093
836.615	3043
836.753	3138
836.891	3184
837.029	3112
837.167	3097
837.305	3066
837.443	3062
837.58	2967
837.718	3138
837.856	3116
837.993	3028
838.131	3100
838.269	3097
838.406	3119
838.544	3074
838.681	2956
838.819	2929
838.956	2819
839.094	2857
839.231	2910
839.369	3047
839.506	3355
839.643	3237
839.781	2998
839.918	2941
840.055	3036
840.193	3039
840.33	3081
840.467	3093
840.604	3108
840.742	3416
840.879	3081
841.016	3051
841.153	3089
841.29	3355
841.427	3272
841.564	3260
841.701	3233
841.838	3237
841.975	3157
842.112	3214
842.249	3070
842.385	3020
842.522	3245
842.659	3077
842.796	3020
842.933	3119
843.069	3055
843.206	3047
843.343	3173
843.479	3112
843.616	3131
843.752	2895
843.889	2845
844.025	3123
844.162	2872
844.298	3055
844.435	2948
844.571	2902
844.708	3039
844.844	3161
844.98	3195
845.117	3195
845.253	3032
845.389	2986
845.525	3116
845.661	3093
845.798	3017
845.934	3085
846.07	3085
846.206	3249
846.342	3275
846.478	3207
846.614	3081
846.75	3051
846.886	3001
847.022	3203
847.158	3150
847.294	3195
847.429	3207
847.565	3245
847.701	3458
847.837	3020
847.972	2998
848.108	3142
848.244	3135
848.379	2971
848.515	2922
848.65	2933
848.786	2944
848.921	2944
849.057	3100
849.192	3146
849.328	3047
849.463	3097
849.598	3055
849.734	3028
849.869	2952
850.004	2910
850.14	2944
850.275	2880
850.41	2857
850.545	2895
850.68	2918
850.815	2941
850.95	2952
851.085	3127
851.22	3135
851.355	3036
851.49	2967
851.625	2994
851.76	3017
851.895	2925
852.03	2883
852.165	3001
852.299	3116
852.434	3211
852.569	3135
852.703	3169
852.838	3268
852.973	3325
853.107	3332
853.242	3127
853.376	3100
853.511	2986
853.645	3032
853.78	3214
853.914	3135
854.048	3138
854.183	3062
854.317	3131
854.451	3317
854.585	3157
854.72	3093
854.854	3173
854.988	3013
855.122	3070
855.256	2948
855.39	3119
855.524	3264
855.658	3173
855.792	3154
855.926	3176
856.06	3222
856.194	3275
856.327	3146
856.461	3074
856.595	3081
856.729	3108
856.862	3226
856.996	3119
857.13	3180
857.263	3195
857.397	3260
857.53	3085
857.664	3180
857.797	3283
857.931	3279
858.064	3165
858.197	3203
858.331	3123
858.464	3081
858.597	2990
858.731	3093
858.864	3116
858.997	3089
859.13	3135
859.263	3180
859.396	3188
859.529	3070
859.662	3051
859.795	3001
859.928	3150
860.061	3256
860.194	3268
860.327	3127
860.46	3081
860.592	3222
860.725	3237
860.858	3237
860.99	3108
861.123	3070
861.256	3051
861.388	3135
861.521	3823
861.653	2994
861.786	2998
861.918	2998
862.05	3074
862.183	3100
862.315	3142
862.447	3226
862.58	3100
862.712	2922
862.844	2891
862.976	2986
863.108	3013
863.24	3435
863.372	2868
863.504	2948
863.636	2918
863.768	3013
863.9	2960
864.032	2883
864.164	2941
864.296	3020
864.428	3085
864.559	3112
864.691	3055
864.823	3051
864.954	3032
865.086	3058
865.217	3028
865.349	2925
865.48	2990
865.612	3039
865.743	3131
865.875	2986
866.006	2937
866.137	2982
866.269	2952
866.4	2914
866.531	2925
866.662	2906
866.793	2861
866.924	2891
867.055	2941
867.186	2895
867.317	2857
867.448	2796
867.579	2796
867.71	2842
867.841	2819
867.972	2895
868.103	2914
868.233	2849
868.364	2872
868.495	2925
868.625	3100
868.756	3135
868.886	2975
869.017	3013
869.147	3150
869.278	3165
869.408	3039
869.539	2990
869.669	3085
869.799	3036
869.929	3150
870.06	3108
870.19	3348
870.32	3253
870.45	3313
870.58	3378
870.71	3450
870.84	3424
870.97	3264
871.1	3237
871.23	3469
871.36	3428
871.489	3351
871.619	3386
871.749	3409
871.879	3416
872.008	3447
872.138	3344
872.267	3241
872.397	3154
872.526	3127
872.656	3028
872.785	3116
872.915	3218
873.044	3317
873.173	3222
873.303	3241
873.432	3233
873.561	3256
873.69	3097
873.819	3142
873.948	3203
874.077	3093
874.206	3001
874.335	3028
874.464	3188
874.593	3329
874.722	3226
874.851	3370
874.979	3306
875.108	3294
875.237	3195
875.365	3138
875.494	3123
875.623	3245
875.751	3074
875.88	3062
876.008	3157
876.136	3233
876.265	3389
876.393	3481
876.521	3428
876.65	3332
876.778	3363
876.906	3245
877.034	3142
877.162	3226
877.29	3207
877.418	3230
877.546	3245
877.674	3222
877.802	3222
877.93	3192
878.058	3146
878.185	3100
878.313	3195
878.441	3176
878.568	3039
878.696	3157
878.824	3233
878.951	3291
879.079	3428
879.206	3633
879.333	3412
879.461	3306
879.588	3386
879.715	3485
879.842	3587
879.97	3412
880.097	3161
880.224	3081
880.351	3203
880.478	3233
880.605	3184
880.732	3150
880.859	3492
880.986	3287
881.112	3321
881.239	3203
881.366	3062
881.493	3055
881.619	3024
881.746	3089
881.872	3055
881.999	3097
882.125	3146
882.252	3279
882.378	3268
882.505	3443
882.631	3256
882.757	3176
882.883	3192
883.01	3249
883.136	3169
883.262	3074
883.388	3081
883.514	3340
883.64	3359
883.766	3287
883.892	3138
884.018	3195
884.143	3378
884.269	3564
884.395	3184
884.52	3161
884.646	3169
884.772	3123
884.897	3070
885.023	3249
885.148	3340
885.274	3389
885.399	3348
885.524	3310
885.65	3253
885.775	3291
885.9	3272
886.025	3416
886.15	3344
886.275	3306
886.4	3218
886.525	3340
886.65	3272
886.775	3237
886.9	3477
887.025	3610
887.149	3389
887.274	3249
887.399	3165
887.523	3176
887.648	3150
887.773	3218
887.897	3340
888.021	3397
888.146	3302
888.27	3443
888.395	3519
888.519	3412
888.643	3439
888.767	3458
888.891	3287
889.015	3245
889.139	3268
889.263	3207
889.387	3405
889.511	3515
889.635	3462
889.759	3313
889.883	3310
890.006	3397
890.13	3477
890.254	3275
890.377	3317
890.501	3195
890.624	3188
890.748	3279
890.871	3218
890.995	3108
891.118	3036
891.241	3192
891.364	3222
891.488	3348
891.611	3165
891.734	3226
891.857	3260
891.98	3203
892.103	3332
892.226	3268
892.349	3192
892.471	3165
892.594	3214
892.717	3313
892.839	3233
892.962	3230
893.085	3325
893.207	3294
893.33	3161
893.452	3169
893.575	3321
893.697	3264
893.819	3458
893.941	3511
894.064	3428
894.186	3253
894.308	3272
894.43	3412
894.552	3511
894.674	3458
894.796	3294
894.918	3363
895.04	3253
895.161	3420
895.283	3409
895.405	3325
895.526	3355
895.648	3428
895.769	3401
895.891	3469
896.012	3485
896.134	3466
896.255	3378
896.376	3409
896.498	3351
896.619	3382
896.74	3389
896.861	3363
896.982	3675
897.103	3831
897.224	3591
897.345	3504
897.466	3443
897.587	3519
897.708	3641
897.828	3534
897.949	3428
898.07	3306
898.19	3393
898.311	3622
898.431	3405
898.552	3507
898.672	3614
898.792	3584
898.913	3545
899.033	3454
899.153	3310
899.273	3195
899.393	3298
899.513	3298
899.633	3298
899.753	3332
899.873	3317
899.993	3363
900.113	3344
900.232	3363
900.352	3344
900.472	3253
900.591	3192
900.711	3279
900.83	3237
900.95	3401
901.069	3466
901.189	3344
901.308	3180
901.427	3123
901.546	3184
901.665	3268
901.784	3329
901.904	3207
902.023	3173
902.141	3013
902.26	2979
902.379	3154
902.498	3074
902.617	3047
902.735	3241
902.854	3230
902.973	3214
903.091	3058
903.21	3077
903.328	3119
903.446	3074
903.565	3104
903.683	3214
903.801	3104
903.919	3272
904.038	3291
904.156	3123
904.274	3253
904.392	3256
904.51	3302
904.627	3294
904.745	3454
904.863	3439
904.981	3264
905.098	3176
905.216	3218
905.334	3291
905.451	3272
905.569	3325
905.686	3416
905.803	3447
905.921	3272
906.038	3416
906.155	3386
906.272	3264
906.389	3306
906.506	3241
906.623	3218
906.74	3283
906.857	3192
906.974	3249
907.091	3454
907.208	3530
907.324	3492
907.441	3420
907.557	3192
907.674	3188
907.79	3180
907.907	3272
908.023	3359
908.139	3351
908.256	3370
908.372	3386
908.488	3298
908.604	3253
908.72	3199
908.836	3256
908.952	3249
909.068	3332
909.184	3466
909.3	3389
909.415	3447
909.531	3458
909.647	3275
909.762	3279
909.878	3264
909.993	3332
910.108	3294
910.224	3340
910.339	3386
910.454	3329
910.57	3298
910.685	3207
910.8	3572
910.915	3500
911.03	3428
911.145	3272
911.259	3310
911.374	3317
911.489	3283
911.604	3188
911.718	3108
911.833	3131
911.947	2982
912.062	2944
912.176	3180
912.291	3188
912.405	3184
912.519	3431
912.633	3469
912.748	3355
912.862	3268
912.976	3131
913.09	3051
913.204	3097
913.318	3211
913.431	3313
913.545	3313
913.659	3393
913.772	3321
913.886	3256
914	3207
914.113	3359
914.226	3450
914.34	3367
914.453	3188
914.566	3401
914.68	3294
914.793	3298
914.906	3112
915.019	3074
915.132	3055
915.245	3184
915.358	3211
915.47	3226
915.583	3283
915.696	3291
915.809	3386
915.921	3416
916.034	3237
916.146	3237
916.259	3218
916.371	3359
916.483	3332
916.595	3275
916.708	3344
916.82	3336
916.932	3348
917.044	3348
917.156	3363
917.268	3226
917.38	3321
917.491	3287
917.603	3363
917.715	3412
917.826	3458
917.938	3336
918.049	3253
918.161	3393
918.272	3549
918.384	3557
918.495	3485
918.606	3283
918.717	3283
918.828	3367
918.939	3416
919.05	3310
919.161	3359
919.272	3165
919.383	3294
919.494	3488
919.604	3690
919.715	3450
919.826	3401
919.936	3488
920.047	3572
920.157	3572
920.267	3732
920.378	3618
920.488	3580
920.598	3747
920.708	4006
920.818	3835
920.928	3800
921.038	3972
921.148	3991
921.258	3755
921.368	3660
921.477	3549
921.587	3519
921.697	3473
921.806	3633
921.916	3504
922.025	3348
922.134	3378
922.244	3336
922.353	3420
922.462	3256
922.571	3199
922.68	3097
922.789	3055
922.898	3138
923.007	3119
923.116	3184
923.224	3165
923.333	3184
923.442	3074
923.55	3089
923.659	3150
923.767	3214
923.876	3097
923.984	3226
924.092	3097
924.201	3184
924.309	3222
924.417	3268
924.525	3154
924.633	3245
924.741	4029
924.849	3081
924.956	3272
925.064	3055
925.172	3032
925.279	3081
925.387	3199
925.494	3180
925.602	3397
925.709	3321
925.816	3207
925.924	3253
926.031	3348
926.138	3313
926.245	3332
926.352	3268
926.459	3416
926.566	3481
926.673	3302
926.779	3260
926.886	3230
926.993	3116
927.099	3157
927.206	3104
927.312	3123
927.419	3218
927.525	3188
927.631	3260
927.737	3142
927.843	3127
927.95	3039
928.056	3138
928.162	3131
928.267	3237
928.373	3892
928.479	3306
928.585	3036
928.69	3241
928.796	3256
928.901	3157
929.007	3009
929.112	3211
929.218	3161
929.323	3169
929.428	3146
929.533	3287
929.638	3150
929.743	3157
929.848	3272
929.953	3222
930.058	3146
930.163	2971
930.267	3036
930.372	3226
930.477	2998
930.581	3294
930.685	3184
930.79	3081
930.894	3085
930.998	3100
931.103	3279
931.207	2960
931.311	2906
931.415	2914
931.519	2766
931.623	2777
