Data from test_V78500241_1619.txt Node
Date: Fri Mar 25 16:26:25 CST 2022
User: usil
Spectrometer: V785-0024
Trigger mode: 0
Integration Time (sec): 4.000000E-1
Scans to average: 1
Nonlinearity correction enabled: false
Boxcar width: 0
Storing dark spectrum: false
XAxis mode: Wavelengths
Number of Pixels in Spectrum: 1024
>>>>>Begin Spectral Data<<<<<
801.071	2937
801.214	2967
801.356	2906
801.499	2918
801.641	2899
801.783	2941
801.926	3112
802.068	2979
802.211	2990
802.353	3039
802.496	2979
802.638	2960
802.78	3051
802.923	3058
803.065	3017
803.208	2914
803.35	2918
803.492	2910
803.635	2925
803.777	2796
803.919	2880
804.061	3222
804.204	2925
804.346	2914
804.488	2834
804.63	3001
804.773	2872
804.915	2910
805.057	3077
805.199	2929
805.341	3001
805.483	3005
805.626	3039
805.768	2952
805.91	3051
806.052	3142
806.194	3043
806.336	3222
806.478	3032
806.62	2986
806.762	2998
806.904	3081
807.046	3176
807.188	2971
807.33	2918
807.472	3001
807.614	2887
807.756	2986
807.898	2941
808.04	2842
808.182	2971
808.324	2941
808.465	2910
808.607	2880
808.749	2788
808.891	2834
809.033	2990
809.174	2967
809.316	2918
809.458	2910
809.6	2750
809.741	2766
809.883	2750
810.025	2811
810.166	2823
810.308	2868
810.45	2838
810.591	2800
810.733	2766
810.875	2857
811.016	2796
811.158	2724
811.299	2819
811.441	2937
811.582	2842
811.724	2826
811.865	2807
812.007	2910
812.148	2880
812.29	2849
812.431	2895
812.573	2941
812.714	2952
812.855	3070
812.997	3047
813.138	3142
813.279	3017
813.421	2937
813.562	2941
813.703	2868
813.845	2864
813.986	2739
814.127	2739
814.268	2785
814.41	2815
814.551	2781
814.692	2872
814.833	2819
814.974	2883
815.115	2922
815.256	2830
815.397	2823
815.539	2849
815.68	2750
815.821	2766
815.962	2899
816.103	2944
816.244	2876
816.385	2857
816.526	2971
816.666	2891
816.807	2785
816.948	2883
817.089	2891
817.23	2876
817.371	2766
817.512	2739
817.653	2842
817.793	2826
817.934	2880
818.075	2963
818.216	2960
818.356	3039
818.497	2872
818.638	2773
818.778	2823
818.919	2792
819.06	2785
819.2	2899
819.341	2811
819.481	2815
819.622	2960
819.762	3123
819.903	3024
820.043	2887
820.184	2902
820.324	2899
820.465	3051
820.605	3032
820.746	3055
820.886	2948
821.026	3146
821.167	3214
821.307	3256
821.447	3272
821.588	3237
821.728	3214
821.868	3226
822.008	3127
822.149	3199
822.289	3260
822.429	3077
822.569	3150
822.709	3199
822.849	3024
822.99	3066
823.13	3165
823.27	3249
823.41	3104
823.55	3157
823.69	3218
823.83	3226
823.97	3127
824.11	3024
824.25	3017
824.389	3089
824.529	3154
824.669	3108
824.809	3218
824.949	3253
825.089	3226
825.228	3207
825.368	3024
825.508	3001
825.648	3024
825.787	3024
825.927	3058
826.067	3009
826.206	3032
826.346	3085
826.485	3119
826.625	3150
826.765	3279
826.904	3249
827.044	3043
827.183	2956
827.323	2929
827.462	3058
827.601	2963
827.741	2967
827.88	2998
828.02	2872
828.159	3013
828.298	3039
828.437	3154
828.577	3066
828.716	3279
828.855	3157
828.994	2956
829.134	2937
829.273	2967
829.412	2902
829.551	2902
829.69	2933
829.829	3013
829.968	3184
830.107	3077
830.246	3062
830.385	2963
830.524	2906
830.663	2880
830.802	2788
830.941	2705
831.08	2697
831.219	2807
831.357	2796
831.496	3001
831.635	2766
831.774	2667
831.913	2667
832.051	2610
832.19	2632
832.329	2689
832.467	2575
832.606	2541
832.744	2606
832.883	2632
833.022	2629
833.16	2655
833.299	2731
833.437	2735
833.576	2708
833.714	2785
833.852	2777
833.991	2807
834.129	2845
834.267	2830
834.406	2845
834.544	2922
834.682	2922
834.821	2857
834.959	3108
835.097	2948
835.235	3100
835.373	3017
835.511	3081
835.65	3001
835.788	2956
835.926	2864
836.064	2849
836.202	2834
836.34	3112
836.478	3173
836.615	3104
836.753	3184
836.891	3253
837.029	3203
837.167	3192
837.305	3100
837.443	3112
837.58	2963
837.718	3176
837.856	3142
837.993	3066
838.131	3123
838.269	3188
838.406	3123
838.544	3123
838.681	2982
838.819	2933
838.956	2845
839.094	2861
839.231	2975
839.369	3074
839.506	3424
839.643	3233
839.781	3039
839.918	2941
840.055	3077
840.193	3093
840.33	3100
840.467	3108
840.604	3169
840.742	3393
840.879	3074
841.016	3097
841.153	3131
841.29	3355
841.427	3329
841.564	3321
841.701	3325
841.838	3237
841.975	3192
842.112	3241
842.249	3089
842.385	3062
842.522	3291
842.659	3108
842.796	3089
842.933	3127
843.069	3036
843.206	3085
843.343	3203
843.479	3116
843.616	3176
843.752	2929
843.889	2861
844.025	3138
844.162	2906
844.298	3081
844.435	2994
844.571	2937
844.708	3100
844.844	3195
844.98	3260
845.117	3203
845.253	3066
845.389	3036
845.525	3131
845.661	3131
845.798	3055
845.934	3161
846.07	3100
846.206	3249
846.342	3367
846.478	3245
846.614	3127
846.75	3100
846.886	3074
847.022	3298
847.158	3161
847.294	3256
847.429	3279
847.565	3249
847.701	3492
847.837	3077
847.972	3024
848.108	3192
848.244	3192
848.379	3047
848.515	2960
848.65	2960
848.786	2994
848.921	3058
849.057	3157
849.192	3184
849.328	3123
849.463	3119
849.598	3077
849.734	3058
849.869	2994
850.004	2929
850.14	2960
850.275	2941
850.41	2876
850.545	2906
850.68	2956
850.815	2998
850.95	2975
851.085	3230
851.22	3100
851.355	3039
851.49	2998
851.625	3017
851.76	3028
851.895	2982
852.03	2944
852.165	3085
852.299	3142
852.434	3199
852.569	3142
852.703	3176
852.838	3302
852.973	3317
853.107	3336
853.242	3192
853.376	3100
853.511	2967
853.645	3077
853.78	3233
853.914	3112
854.048	3150
854.183	3104
854.317	3192
854.451	3355
854.585	3138
854.72	3116
854.854	3226
854.988	3066
855.122	3161
855.256	3024
855.39	3112
855.524	3241
855.658	3226
855.792	3165
855.926	3188
856.06	3249
856.194	3283
856.327	3173
856.461	3081
856.595	3074
856.729	3089
856.862	3233
856.996	3161
857.13	3195
857.263	3214
857.397	3325
857.53	3135
857.664	3233
857.797	3283
857.931	3279
858.064	3169
858.197	3283
858.331	3112
858.464	3123
858.597	3001
858.731	3146
858.864	3157
858.997	3077
859.13	3188
859.263	3188
859.396	3253
859.529	3123
859.662	3112
859.795	3085
859.928	3184
860.061	3302
860.194	3325
860.327	3157
860.46	3104
860.592	3245
860.725	3245
860.858	3230
860.99	3157
861.123	3089
861.256	3066
861.388	3169
861.521	3911
861.653	3017
861.786	2982
861.918	3024
862.05	3104
862.183	3123
862.315	3165
862.447	3199
862.58	3123
862.712	2952
862.844	2918
862.976	3020
863.108	3020
863.24	3310
863.372	2918
863.504	2986
863.636	2922
863.768	3074
863.9	2986
864.032	2937
864.164	2963
864.296	3009
864.428	3104
864.559	3116
864.691	3112
864.823	3085
864.954	3047
865.086	3043
865.217	2990
865.349	2994
865.48	3020
865.612	3013
865.743	3169
865.875	3020
866.006	2922
866.137	2990
866.269	2982
866.4	2960
866.531	2960
866.662	2906
866.793	2944
866.924	2918
867.055	2967
867.186	2963
867.317	2922
867.448	2880
867.579	2868
867.71	2849
867.841	2849
867.972	2922
868.103	2899
868.233	2933
868.364	2918
868.495	2914
868.625	3089
868.756	3214
868.886	2971
869.017	3055
869.147	3222
869.278	3188
869.408	3097
869.539	3074
869.669	3093
869.799	3058
869.929	3165
870.06	3157
870.19	3317
870.32	3294
870.45	3317
870.58	3382
870.71	3462
870.84	3485
870.97	3336
871.1	3291
871.23	3515
871.36	3466
871.489	3389
871.619	3431
871.749	3412
871.879	3458
872.008	3488
872.138	3332
872.267	3294
872.397	3165
872.526	3123
872.656	3001
872.785	3112
872.915	3275
873.044	3306
873.173	3241
873.303	3302
873.432	3222
873.561	3237
873.69	3180
873.819	3165
873.948	3245
874.077	3135
874.206	3062
874.335	3062
874.464	3222
874.593	3370
874.722	3241
874.851	3405
874.979	3382
875.108	3351
875.237	3173
875.365	3157
875.494	3207
875.623	3222
875.751	3100
875.88	3138
876.008	3192
876.136	3275
876.265	3370
876.393	3545
876.521	3450
876.65	3397
876.778	3321
876.906	3264
877.034	3218
877.162	3306
877.29	3218
877.418	3264
877.546	3272
877.674	3302
877.802	3218
877.93	3230
878.058	3173
878.185	3123
878.313	3218
878.441	3211
878.568	3097
878.696	3188
878.824	3249
878.951	3310
879.079	3488
879.206	3618
879.333	3454
879.461	3359
879.588	3370
879.715	3466
879.842	3606
879.97	3382
880.097	3222
880.224	3116
880.351	3176
880.478	3203
880.605	3256
880.732	3226
880.859	3500
880.986	3351
881.112	3306
881.239	3207
881.366	3097
881.493	3093
881.619	3043
881.746	3104
881.872	3131
881.999	3131
882.125	3188
882.252	3249
882.378	3306
882.505	3393
882.631	3291
882.757	3146
882.883	3245
883.01	3237
883.136	3176
883.262	3127
883.388	3142
883.514	3298
883.64	3378
883.766	3298
883.892	3230
884.018	3233
884.143	3401
884.269	3557
884.395	3222
884.52	3180
884.646	3218
884.772	3138
884.897	3097
885.023	3211
885.148	3348
885.274	3420
885.399	3420
885.524	3256
885.65	3256
885.775	3332
885.9	3340
886.025	3443
886.15	3355
886.275	3310
886.4	3260
886.525	3321
886.65	3310
886.775	3245
886.9	3515
887.025	3652
887.149	3420
887.274	3275
887.399	3192
887.523	3199
887.648	3173
887.773	3165
887.897	3374
888.021	3370
888.146	3291
888.27	3439
888.395	3515
888.519	3428
888.643	3454
888.767	3443
888.891	3317
889.015	3264
889.139	3325
889.263	3268
889.387	3420
889.511	3534
889.635	3454
889.759	3249
889.883	3287
890.006	3393
890.13	3477
890.254	3310
890.377	3336
890.501	3203
890.624	3188
890.748	3306
890.871	3207
890.995	3123
891.118	3097
891.241	3226
891.364	3230
891.488	3310
891.611	3161
891.734	3218
891.857	3336
891.98	3230
892.103	3329
892.226	3313
892.349	3211
892.471	3123
892.594	3245
892.717	3306
892.839	3256
892.962	3306
893.085	3374
893.207	3294
893.33	3192
893.452	3192
893.575	3370
893.697	3207
893.819	3477
893.941	3526
894.064	3473
894.186	3249
894.308	3275
894.43	3424
894.552	3568
894.674	3481
894.796	3310
894.918	3287
895.04	3268
895.161	3439
895.283	3405
895.405	3332
895.526	3378
895.648	3420
895.769	3397
895.891	3462
896.012	3473
896.134	3439
896.255	3454
896.376	3386
896.498	3351
896.619	3469
896.74	3359
896.861	3416
896.982	3644
897.103	3816
897.224	3561
897.345	3515
897.466	3450
897.587	3526
897.708	3648
897.828	3576
897.949	3424
898.07	3340
898.19	3431
898.311	3580
898.431	3435
898.552	3542
898.672	3603
898.792	3587
898.913	3515
899.033	3443
899.153	3321
899.273	3218
899.393	3283
899.513	3313
899.633	3306
899.753	3355
899.873	3363
899.993	3382
900.113	3310
900.232	3405
900.352	3374
900.472	3302
900.591	3256
900.711	3287
900.83	3199
900.95	3393
901.069	3488
901.189	3367
901.308	3176
901.427	3123
901.546	3184
901.665	3279
901.784	3294
901.904	3203
902.023	3173
902.141	3028
902.26	2994
902.379	3150
902.498	3097
902.617	3039
902.735	3211
902.854	3230
902.973	3214
903.091	3085
903.21	3104
903.328	3138
903.446	3138
903.565	3097
903.683	3222
903.801	3127
903.919	3283
904.038	3306
904.156	3188
904.274	3291
904.392	3237
904.51	3317
904.627	3294
904.745	3481
904.863	3477
904.981	3253
905.098	3131
905.216	3249
905.334	3272
905.451	3329
905.569	3310
905.686	3450
905.803	3458
905.921	3287
906.038	3428
906.155	3351
906.272	3272
906.389	3351
906.506	3241
906.623	3275
906.74	3268
906.857	3218
906.974	3302
907.091	3424
907.208	3568
907.324	3435
907.441	3363
907.557	3237
907.674	3245
907.79	3199
907.907	3275
908.023	3397
908.139	3389
908.256	3344
908.372	3355
908.488	3359
908.604	3275
908.72	3230
908.836	3291
908.952	3298
909.068	3329
909.184	3504
909.3	3393
909.415	3515
909.531	3462
909.647	3253
909.762	3298
909.878	3279
909.993	3355
910.108	3355
910.224	3386
910.339	3409
910.454	3367
910.57	3321
910.685	3260
910.8	3568
910.915	3538
911.03	3450
911.145	3275
911.259	3291
911.374	3359
911.489	3256
911.604	3226
911.718	3146
911.833	3146
911.947	3047
912.062	2994
912.176	3169
912.291	3192
912.405	3211
912.519	3409
912.633	3466
912.748	3363
912.862	3317
912.976	3135
913.09	3100
913.204	3116
913.318	3233
913.431	3336
913.545	3321
913.659	3420
913.772	3359
913.886	3203
914	3180
914.113	3321
914.226	3378
914.34	3370
914.453	3211
914.566	3416
914.68	3279
914.793	3317
914.906	3169
915.019	3089
915.132	3077
915.245	3142
915.358	3203
915.47	3222
915.583	3249
915.696	3310
915.809	3397
915.921	3428
916.034	3260
916.146	3237
916.259	3245
916.371	3363
916.483	3397
916.595	3287
916.708	3302
916.82	3310
916.932	3336
917.044	3355
917.156	3321
917.268	3253
917.38	3332
917.491	3291
917.603	3378
917.715	3462
917.826	3450
917.938	3374
918.049	3260
918.161	3424
918.272	3542
918.384	3603
918.495	3485
918.606	3382
918.717	3272
918.828	3382
918.939	3393
919.05	3336
919.161	3416
919.272	3211
919.383	3329
919.494	3500
919.604	3698
919.715	3481
919.826	3409
919.936	3462
920.047	3572
920.157	3568
920.267	3759
920.378	3633
920.488	3584
920.598	3759
920.708	3926
920.818	3804
920.928	3812
921.038	4025
921.148	3987
921.258	3701
921.368	3595
921.477	3545
921.587	3523
921.697	3450
921.806	3671
921.916	3526
922.025	3351
922.134	3389
922.244	3313
922.353	3412
922.462	3237
922.571	3218
922.68	3112
922.789	3074
922.898	3169
923.007	3116
923.116	3268
923.224	3199
923.333	3199
923.442	3138
923.55	3077
923.659	3146
923.767	3176
923.876	3138
923.984	3264
924.092	3081
924.201	3214
924.309	3233
924.417	3230
924.525	3169
924.633	3253
924.741	4162
924.849	3070
924.956	3241
925.064	3104
925.172	3036
925.279	3089
925.387	3203
925.494	3123
925.602	3370
925.709	3298
925.816	3245
925.924	3291
926.031	3401
926.138	3298
926.245	3336
926.352	3287
926.459	3431
926.566	3447
926.673	3336
926.779	3283
926.886	3226
926.993	3135
927.099	3123
927.206	3150
927.312	3123
927.419	3256
927.525	3218
927.631	3279
927.737	3157
927.843	3100
927.95	3036
928.056	3138
928.162	3161
928.267	3207
928.373	3846
928.479	3294
928.585	3058
928.69	3188
928.796	3226
928.901	3150
929.007	3070
929.112	3218
929.218	3150
929.323	3169
929.428	3150
929.533	3336
929.638	3097
929.743	3161
929.848	3264
929.953	3264
930.058	3165
930.163	2979
930.267	3051
930.372	3199
930.477	3009
930.581	3351
930.685	3176
930.79	3055
930.894	3112
930.998	3077
931.103	3291
931.207	2982
931.311	2933
931.415	2899
931.519	2777
931.623	2845
