Data from test_V78500241_1342.txt Node
Date: Fri Mar 25 16:24:30 CST 2022
User: usil
Spectrometer: V785-0024
Trigger mode: 0
Integration Time (sec): 4.000000E-1
Scans to average: 1
Nonlinearity correction enabled: false
Boxcar width: 0
Storing dark spectrum: false
XAxis mode: Wavelengths
Number of Pixels in Spectrum: 1024
>>>>>Begin Spectral Data<<<<<
801.071	2929
801.214	2941
801.356	2906
801.499	2941
801.641	2880
801.783	2918
801.926	3070
802.068	2982
802.211	3009
802.353	3013
802.496	3001
802.638	3051
802.78	3051
802.923	3108
803.065	3020
803.208	2914
803.35	2906
803.492	2922
803.635	2937
803.777	2750
803.919	2872
804.061	3211
804.204	2960
804.346	2941
804.488	2838
804.63	3020
804.773	2899
804.915	2941
805.057	3081
805.199	2925
805.341	2952
805.483	3039
805.626	3005
805.768	2956
805.91	3093
806.052	3146
806.194	3066
806.336	3260
806.478	3043
806.62	2960
806.762	2986
806.904	3085
807.046	3188
807.188	2963
807.33	2933
807.472	3005
807.614	2925
807.756	3013
807.898	2956
808.04	2906
808.182	2967
808.324	2990
808.465	2880
808.607	2895
808.749	2838
808.891	2826
809.033	2994
809.174	2967
809.316	2937
809.458	2853
809.6	2743
809.741	2815
809.883	2773
810.025	2872
810.166	2876
810.308	2826
810.45	2857
810.591	2842
810.733	2788
810.875	2834
811.016	2781
811.158	2796
811.299	2823
811.441	2948
811.582	2914
811.724	2811
811.865	2842
812.007	2922
812.148	2883
812.29	2849
812.431	2929
812.573	2922
812.714	2963
812.855	3074
812.997	3051
813.138	3157
813.279	3009
813.421	3020
813.562	2960
813.703	2891
813.845	2914
813.986	2777
814.127	2701
814.268	2830
814.41	2830
814.551	2819
814.692	2872
814.833	2838
814.974	2914
815.115	2971
815.256	2842
815.397	2872
815.539	2849
815.68	2788
815.821	2796
815.962	2948
816.103	2922
816.244	2868
816.385	2880
816.526	2956
816.666	2925
816.807	2754
816.948	2906
817.089	2906
817.23	2857
817.371	2777
817.512	2781
817.653	2853
817.793	2823
817.934	2883
818.075	2975
818.216	3017
818.356	3024
818.497	2918
818.638	2807
818.778	2857
818.919	2796
819.06	2773
819.2	2887
819.341	2823
819.481	2792
819.622	2925
819.762	3135
819.903	3055
820.043	2956
820.184	2902
820.324	2899
820.465	3017
820.605	3039
820.746	3017
820.886	2918
821.026	3100
821.167	3211
821.307	3256
821.447	3275
821.588	3222
821.728	3199
821.868	3241
822.008	3081
822.149	3176
822.289	3287
822.429	3135
822.569	3108
822.709	3207
822.849	3058
822.99	3104
823.13	3135
823.27	3192
823.41	3104
823.55	3169
823.69	3176
823.83	3249
823.97	3146
824.11	3028
824.25	2994
824.389	3047
824.529	3104
824.669	3081
824.809	3176
824.949	3245
825.089	3233
825.228	3207
825.368	3020
825.508	2967
825.648	3009
825.787	2994
825.927	3036
826.067	3001
826.206	2941
826.346	3081
826.485	3097
826.625	3146
826.765	3264
826.904	3226
827.044	2975
827.183	2963
827.323	2857
827.462	3005
827.601	2929
827.741	2914
827.88	2971
828.02	2845
828.159	3013
828.298	3047
828.437	3165
828.577	3055
828.716	3237
828.855	3097
828.994	2914
829.134	2922
829.273	2880
829.412	2876
829.551	2857
829.69	2914
829.829	2990
829.968	3127
830.107	3013
830.246	3036
830.385	2902
830.524	2868
830.663	2807
830.802	2720
830.941	2655
831.08	2670
831.219	2754
831.357	2758
831.496	2963
831.635	2727
831.774	2648
831.913	2644
832.051	2552
832.19	2583
832.329	2670
832.467	2530
832.606	2484
832.744	2587
832.883	2564
833.022	2579
833.16	2667
833.299	2705
833.437	2697
833.576	2731
833.714	2720
833.852	2716
833.991	2750
834.129	2849
834.267	2811
834.406	2785
834.544	2864
834.682	2876
834.821	2887
834.959	3055
835.097	2887
835.235	3085
835.373	2990
835.511	2990
835.65	2944
835.788	2944
835.926	2819
836.064	2823
836.202	2853
836.34	3085
836.478	3146
836.615	3055
836.753	3112
836.891	3169
837.029	3169
837.167	3097
837.305	3089
837.443	3043
837.58	2990
837.718	3138
837.856	3112
837.993	3001
838.131	3135
838.269	3123
838.406	3100
838.544	3093
838.681	2925
838.819	2925
838.956	2785
839.094	2834
839.231	2918
839.369	3051
839.506	3378
839.643	3207
839.781	3020
839.918	2960
840.055	3043
840.193	3058
840.33	3074
840.467	3089
840.604	3123
840.742	3416
840.879	3081
841.016	3024
841.153	3135
841.29	3317
841.427	3298
841.564	3256
841.701	3351
841.838	3195
841.975	3169
842.112	3199
842.249	3100
842.385	3028
842.522	3260
842.659	3070
842.796	3070
842.933	3051
843.069	3074
843.206	2998
843.343	3154
843.479	3119
843.616	3138
843.752	2883
843.889	2895
844.025	3062
844.162	2914
844.298	3051
844.435	2948
844.571	2937
844.708	3062
844.844	3199
844.98	3214
845.117	3188
845.253	3058
845.389	3013
845.525	3100
845.661	3093
845.798	3024
845.934	3100
846.07	3047
846.206	3245
846.342	3367
846.478	3218
846.614	3081
846.75	3070
846.886	3055
847.022	3233
847.158	3146
847.294	3180
847.429	3233
847.565	3249
847.701	3447
847.837	3066
847.972	2986
848.108	3176
848.244	3188
848.379	2948
848.515	2918
848.65	2963
848.786	2956
848.921	2963
849.057	3112
849.192	3138
849.328	3058
849.463	3116
849.598	3062
849.734	3039
849.869	2982
850.004	2929
850.14	2982
850.275	2922
850.41	2876
850.545	2895
850.68	2895
850.815	2960
850.95	2967
851.085	3199
851.22	3097
851.355	3051
851.49	2990
851.625	2979
851.76	3028
851.895	2933
852.03	2902
852.165	3017
852.299	3108
852.434	3184
852.569	3161
852.703	3169
852.838	3218
852.973	3332
853.107	3264
853.242	3154
853.376	3119
853.511	2975
853.645	3020
853.78	3264
853.914	3127
854.048	3085
854.183	3062
854.317	3112
854.451	3260
854.585	3161
854.72	3070
854.854	3214
854.988	3062
855.122	3077
855.256	2990
855.39	3100
855.524	3241
855.658	3188
855.792	3146
855.926	3176
856.06	3233
856.194	3249
856.327	3116
856.461	3116
856.595	3055
856.729	3100
856.862	3192
856.996	3138
857.13	3154
857.263	3233
857.397	3283
857.53	3108
857.664	3188
857.797	3233
857.931	3294
858.064	3154
858.197	3253
858.331	3123
858.464	3089
858.597	3013
858.731	3097
858.864	3138
858.997	3081
859.13	3157
859.263	3161
859.396	3233
859.529	3119
859.662	3039
859.795	3066
859.928	3127
860.061	3237
860.194	3283
860.327	3104
860.46	3085
860.592	3256
860.725	3249
860.858	3233
860.99	3081
861.123	3093
861.256	3047
861.388	3161
861.521	3698
861.653	3009
861.786	2956
861.918	3001
862.05	3036
862.183	3116
862.315	3173
862.447	3192
862.58	3112
862.712	2956
862.844	2876
862.976	3051
863.108	3009
863.24	3291
863.372	2891
863.504	2956
863.636	2986
863.768	3039
863.9	2990
864.032	2918
864.164	2952
864.296	2982
864.428	3074
864.559	3070
864.691	3043
864.823	3032
864.954	2990
865.086	3017
865.217	3017
865.349	2971
865.48	3017
865.612	3024
865.743	3135
865.875	2975
866.006	2944
866.137	2990
866.269	2918
866.4	2982
866.531	2906
866.662	2887
866.793	2906
866.924	2891
867.055	2979
867.186	2918
867.317	2876
867.448	2849
867.579	2864
867.71	2834
867.841	2826
867.972	2880
868.103	2902
868.233	2883
868.364	2883
868.495	2902
868.625	3085
868.756	3150
868.886	3032
869.017	2994
869.147	3184
869.278	3169
869.408	3024
869.539	3005
869.669	3089
869.799	3039
869.929	3138
870.06	3081
870.19	3310
870.32	3260
870.45	3291
870.58	3363
870.71	3454
870.84	3450
870.97	3264
871.1	3184
871.23	3488
871.36	3477
871.489	3359
871.619	3416
871.749	3435
871.879	3424
872.008	3473
872.138	3351
872.267	3260
872.397	3138
872.526	3089
872.656	2994
872.785	3108
872.915	3230
873.044	3272
873.173	3188
873.303	3260
873.432	3218
873.561	3214
873.69	3154
873.819	3135
873.948	3180
874.077	3097
874.206	3036
874.335	3066
874.464	3199
874.593	3359
874.722	3211
874.851	3397
874.979	3336
875.108	3329
875.237	3176
875.365	3165
875.494	3157
875.623	3268
875.751	3089
875.88	3108
876.008	3218
876.136	3222
876.265	3329
876.393	3530
876.521	3397
876.65	3405
876.778	3355
876.906	3226
877.034	3241
877.162	3184
877.29	3180
877.418	3211
877.546	3226
877.674	3283
877.802	3237
877.93	3203
878.058	3150
878.185	3066
878.313	3218
878.441	3173
878.568	3058
878.696	3127
878.824	3253
878.951	3291
879.079	3431
879.206	3633
879.333	3473
879.461	3332
879.588	3363
879.715	3530
879.842	3568
879.97	3382
880.097	3138
880.224	3146
880.351	3165
880.478	3214
880.605	3203
880.732	3176
880.859	3481
880.986	3344
881.112	3332
881.239	3188
881.366	3100
881.493	3081
881.619	3001
881.746	3043
881.872	3074
881.999	3119
882.125	3131
882.252	3230
882.378	3291
882.505	3435
882.631	3298
882.757	3123
882.883	3184
883.01	3226
883.136	3165
883.262	3062
883.388	3108
883.514	3329
883.64	3367
883.766	3332
883.892	3188
884.018	3188
884.143	3386
884.269	3515
884.395	3169
884.52	3119
884.646	3123
884.772	3135
884.897	3066
885.023	3199
885.148	3291
885.274	3370
885.399	3363
885.524	3275
885.65	3275
885.775	3332
885.9	3272
886.025	3443
886.15	3401
886.275	3253
886.4	3214
886.525	3325
886.65	3230
886.775	3268
886.9	3515
887.025	3637
887.149	3363
887.274	3283
887.399	3169
887.523	3199
887.648	3157
887.773	3180
887.897	3332
888.021	3412
888.146	3302
888.27	3481
888.395	3511
888.519	3382
888.643	3412
888.767	3450
888.891	3294
889.015	3260
889.139	3291
889.263	3226
889.387	3405
889.511	3557
889.635	3439
889.759	3291
889.883	3298
890.006	3389
890.13	3496
890.254	3279
890.377	3313
890.501	3188
890.624	3192
890.748	3264
890.871	3165
890.995	3116
891.118	3062
891.241	3188
891.364	3180
891.488	3291
891.611	3169
891.734	3199
891.857	3275
891.98	3237
892.103	3325
892.226	3279
892.349	3211
892.471	3138
892.594	3218
892.717	3317
892.839	3264
892.962	3260
893.085	3355
893.207	3302
893.33	3180
893.452	3192
893.575	3344
893.697	3237
893.819	3473
893.941	3473
894.064	3462
894.186	3264
894.308	3272
894.43	3458
894.552	3526
894.674	3466
894.796	3279
894.918	3272
895.04	3291
895.161	3428
895.283	3389
895.405	3275
895.526	3344
895.648	3466
895.769	3420
895.891	3462
896.012	3504
896.134	3462
896.255	3409
896.376	3370
896.498	3351
896.619	3409
896.74	3382
896.861	3405
896.982	3694
897.103	3827
897.224	3603
897.345	3466
897.466	3424
897.587	3492
897.708	3606
897.828	3511
897.949	3458
898.07	3370
898.19	3355
898.311	3587
898.431	3477
898.552	3477
898.672	3572
898.792	3622
898.913	3515
899.033	3409
899.153	3313
899.273	3218
899.393	3310
899.513	3306
899.633	3302
899.753	3317
899.873	3279
899.993	3416
900.113	3287
900.232	3401
900.352	3340
900.472	3249
900.591	3199
900.711	3294
900.83	3222
900.95	3386
901.069	3492
901.189	3359
901.308	3230
901.427	3112
901.546	3207
901.665	3272
901.784	3351
901.904	3214
902.023	3157
902.141	3013
902.26	3005
902.379	3165
902.498	3077
902.617	3043
902.735	3173
902.854	3249
902.973	3184
903.091	3032
903.21	3039
903.328	3108
903.446	3089
903.565	3112
903.683	3222
903.801	3116
903.919	3249
904.038	3272
904.156	3173
904.274	3302
904.392	3260
904.51	3283
904.627	3348
904.745	3428
904.863	3454
904.981	3222
905.098	3150
905.216	3195
905.334	3283
905.451	3287
905.569	3249
905.686	3428
905.803	3401
905.921	3291
906.038	3447
906.155	3302
906.272	3268
906.389	3351
906.506	3222
906.623	3245
906.74	3287
906.857	3180
906.974	3241
907.091	3458
907.208	3542
907.324	3454
907.441	3359
907.557	3260
907.674	3173
907.79	3199
907.907	3283
908.023	3363
908.139	3389
908.256	3313
908.372	3363
908.488	3321
908.604	3237
908.72	3233
908.836	3306
908.952	3313
909.068	3325
909.184	3504
909.3	3409
909.415	3473
909.531	3450
909.647	3268
909.762	3272
909.878	3230
909.993	3359
910.108	3313
910.224	3359
910.339	3363
910.454	3313
910.57	3287
910.685	3222
910.8	3568
910.915	3519
911.03	3374
911.145	3291
911.259	3237
911.374	3287
911.489	3253
911.604	3203
911.718	3119
911.833	3157
911.947	3032
912.062	2948
912.176	3173
912.291	3154
912.405	3199
912.519	3443
912.633	3485
912.748	3306
912.862	3279
912.976	3165
913.09	3047
913.204	3165
913.318	3214
913.431	3313
913.545	3325
913.659	3389
913.772	3313
913.886	3218
914	3188
914.113	3378
914.226	3420
914.34	3332
914.453	3214
914.566	3443
914.68	3272
914.793	3351
914.906	3161
915.019	3112
915.132	3055
915.245	3188
915.358	3211
915.47	3233
915.583	3253
915.696	3298
915.809	3409
915.921	3420
916.034	3249
916.146	3245
916.259	3245
916.371	3367
916.483	3382
916.595	3253
916.708	3351
916.82	3310
916.932	3329
917.044	3313
917.156	3374
917.268	3230
917.38	3306
917.491	3329
917.603	3374
917.715	3409
917.826	3496
917.938	3405
918.049	3253
918.161	3431
918.272	3553
918.384	3568
918.495	3458
918.606	3355
918.717	3294
918.828	3374
918.939	3443
919.05	3310
919.161	3393
919.272	3173
919.383	3260
919.494	3500
919.604	3682
919.715	3469
919.826	3397
919.936	3462
920.047	3599
920.157	3538
920.267	3770
920.378	3568
920.488	3557
920.598	3804
920.708	3956
920.818	3797
920.928	3789
921.038	4051
921.148	3979
921.258	3740
921.368	3606
921.477	3622
921.587	3511
921.697	3439
921.806	3629
921.916	3515
922.025	3386
922.134	3367
922.244	3329
922.353	3458
922.462	3253
922.571	3226
922.68	3119
922.789	3104
922.898	3165
923.007	3119
923.116	3176
923.224	3131
923.333	3195
923.442	3108
923.55	3108
923.659	3138
923.767	3222
923.876	3119
923.984	3233
924.092	3146
924.201	3154
924.309	3230
924.417	3245
924.525	3154
924.633	3233
924.741	4025
924.849	3020
924.956	3241
925.064	3142
925.172	3047
925.279	3138
925.387	3176
925.494	3214
925.602	3310
925.709	3329
925.816	3184
925.924	3268
926.031	3359
926.138	3325
926.245	3351
926.352	3233
926.459	3405
926.566	3462
926.673	3306
926.779	3260
926.886	3264
926.993	3142
927.099	3085
927.206	3112
927.312	3077
927.419	3264
927.525	3199
927.631	3256
927.737	3138
927.843	3085
927.95	3005
928.056	3127
928.162	3146
928.267	3287
928.373	3880
928.479	3329
928.585	3028
928.69	3199
928.796	3230
928.901	3161
929.007	3024
929.112	3173
929.218	3169
929.323	3142
929.428	3131
929.533	3313
929.638	3165
929.743	3150
929.848	3237
929.953	3207
930.058	3165
930.163	2990
930.267	3043
930.372	3207
930.477	3066
930.581	3317
930.685	3195
930.79	3036
930.894	3116
930.998	3097
931.103	3268
931.207	2952
931.311	2914
931.415	2956
931.519	2811
931.623	2773
