Data from test_V78500241_1749.txt Node
Date: Fri Mar 25 16:27:19 CST 2022
User: usil
Spectrometer: V785-0024
Trigger mode: 0
Integration Time (sec): 4.000000E-1
Scans to average: 1
Nonlinearity correction enabled: false
Boxcar width: 0
Storing dark spectrum: false
XAxis mode: Wavelengths
Number of Pixels in Spectrum: 1024
>>>>>Begin Spectral Data<<<<<
801.071	2887
801.214	2925
801.356	2838
801.499	2864
801.641	2857
801.783	2910
801.926	3043
802.068	2941
802.211	2979
802.353	3024
802.496	2952
802.638	2956
802.78	3005
802.923	3043
803.065	3009
803.208	2876
803.35	2937
803.492	2952
803.635	2910
803.777	2731
803.919	2823
804.061	3157
804.204	2925
804.346	2906
804.488	2830
804.63	2975
804.773	2868
804.915	2918
805.057	3051
805.199	2910
805.341	2975
805.483	3005
805.626	2990
805.768	2937
805.91	3074
806.052	3108
806.194	3032
806.336	3195
806.478	3024
806.62	2948
806.762	2971
806.904	3047
807.046	3123
807.188	2967
807.33	2887
807.472	2986
807.614	2899
807.756	2952
807.898	2933
808.04	2883
808.182	3005
808.324	2933
808.465	2868
808.607	2857
808.749	2785
808.891	2868
809.033	2960
809.174	2967
809.316	2857
809.458	2899
809.6	2815
809.741	2739
809.883	2743
810.025	2830
810.166	2842
810.308	2811
810.45	2845
810.591	2766
810.733	2781
810.875	2796
811.016	2746
811.158	2720
811.299	2800
811.441	2910
811.582	2876
811.724	2830
811.865	2807
812.007	2914
812.148	2899
812.29	2838
812.431	2887
812.573	2922
812.714	2971
812.855	3039
812.997	3036
813.138	3119
813.279	3017
813.421	2994
813.562	2941
813.703	2880
813.845	2899
813.986	2788
814.127	2716
814.268	2796
814.41	2830
814.551	2792
814.692	2834
814.833	2823
814.974	2883
815.115	2956
815.256	2807
815.397	2796
815.539	2823
815.68	2769
815.821	2773
815.962	2956
816.103	2944
816.244	2899
816.385	2826
816.526	2933
816.666	2906
816.807	2739
816.948	2895
817.089	2887
817.23	2826
817.371	2796
817.512	2781
817.653	2845
817.793	2811
817.934	2895
818.075	2922
818.216	2979
818.356	3028
818.497	2853
818.638	2762
818.778	2807
818.919	2758
819.06	2720
819.2	2845
819.341	2785
819.481	2785
819.622	2883
819.762	3077
819.903	3013
820.043	2914
820.184	2941
820.324	2876
820.465	2990
820.605	3001
820.746	3020
820.886	2891
821.026	3074
821.167	3135
821.307	3253
821.447	3260
821.588	3199
821.728	3180
821.868	3180
822.008	3043
822.149	3214
822.289	3207
822.429	3074
822.569	3051
822.709	3207
822.849	3009
822.99	3043
823.13	3161
823.27	3161
823.41	3093
823.55	3142
823.69	3146
823.83	3169
823.97	3055
824.11	3017
824.25	3017
824.389	3043
824.529	3097
824.669	3070
824.809	3173
824.949	3253
825.089	3176
825.228	3150
825.368	2979
825.508	2941
825.648	2933
825.787	3047
825.927	3062
826.067	2971
826.206	2929
826.346	3070
826.485	3104
826.625	3135
826.765	3260
826.904	3222
827.044	3017
827.183	2944
827.323	2861
827.462	2975
827.601	2944
827.741	2948
827.88	2944
828.02	2876
828.159	2994
828.298	3070
828.437	3116
828.577	3066
828.716	3245
828.855	3081
828.994	2960
829.134	2925
829.273	2944
829.412	2883
829.551	2876
829.69	2937
829.829	3043
829.968	3169
830.107	3062
830.246	3066
830.385	2952
830.524	2944
830.663	2834
830.802	2785
830.941	2720
831.08	2705
831.219	2773
831.357	2804
831.496	2967
831.635	2769
831.774	2682
831.913	2697
832.051	2545
832.19	2575
832.329	2720
832.467	2564
832.606	2530
832.744	2651
832.883	2625
833.022	2598
833.16	2701
833.299	2716
833.437	2743
833.576	2724
833.714	2735
833.852	2735
833.991	2800
834.129	2842
834.267	2880
834.406	2826
834.544	2918
834.682	2941
834.821	2895
834.959	3077
835.097	2952
835.235	3081
835.373	3058
835.511	3055
835.65	2990
835.788	2986
835.926	2868
836.064	2861
836.202	2861
836.34	3119
836.478	3180
836.615	3085
836.753	3173
836.891	3222
837.029	3195
837.167	3154
837.305	3112
837.443	3077
837.58	3017
837.718	3176
837.856	3104
837.993	3051
838.131	3100
838.269	3138
838.406	3146
838.544	3157
838.681	2982
838.819	2906
838.956	2902
839.094	2868
839.231	2933
839.369	3051
839.506	3401
839.643	3268
839.781	3062
839.918	3039
840.055	3104
840.193	3100
840.33	3097
840.467	3142
840.604	3173
840.742	3409
840.879	3131
841.016	3108
841.153	3157
841.29	3416
841.427	3340
841.564	3294
841.701	3363
841.838	3226
841.975	3199
842.112	3230
842.249	3100
842.385	3062
842.522	3306
842.659	3135
842.796	3081
842.933	3142
843.069	3089
843.206	3074
843.343	3180
843.479	3123
843.616	3150
843.752	2963
843.889	2895
844.025	3108
844.162	2891
844.298	3081
844.435	2963
844.571	2925
844.708	3116
844.844	3218
844.98	3291
845.117	3237
845.253	3039
845.389	3051
845.525	3169
845.661	3138
845.798	3081
845.934	3150
846.07	3097
846.206	3264
846.342	3355
846.478	3233
846.614	3104
846.75	3077
846.886	3039
847.022	3260
847.158	3161
847.294	3165
847.429	3253
847.565	3237
847.701	3481
847.837	3039
847.972	3051
848.108	3207
848.244	3199
848.379	2979
848.515	2998
848.65	2948
848.786	2967
848.921	3047
849.057	3123
849.192	3184
849.328	3100
849.463	3142
849.598	3093
849.734	3070
849.869	2990
850.004	2971
850.14	2975
850.275	2933
850.41	2861
850.545	2895
850.68	2944
850.815	2963
850.95	2994
851.085	3173
851.22	3131
851.355	3062
851.49	3001
851.625	3047
851.76	3047
851.895	2948
852.03	2967
852.165	3036
852.299	3169
852.434	3207
852.569	3154
852.703	3211
852.838	3291
852.973	3382
853.107	3363
853.242	3169
853.376	3116
853.511	3020
853.645	3085
853.78	3272
853.914	3169
854.048	3184
854.183	3146
854.317	3180
854.451	3344
854.585	3119
854.72	3119
854.854	3237
854.988	3104
855.122	3138
855.256	2960
855.39	3123
855.524	3249
855.658	3203
855.792	3188
855.926	3207
856.06	3237
856.194	3275
856.327	3180
856.461	3127
856.595	3104
856.729	3108
856.862	3253
856.996	3184
857.13	3207
857.263	3233
857.397	3306
857.53	3154
857.664	3245
857.797	3264
857.931	3287
858.064	3176
858.197	3268
858.331	3154
858.464	3131
858.597	3055
858.731	3184
858.864	3165
858.997	3123
859.13	3180
859.263	3188
859.396	3195
859.529	3127
859.662	3093
859.795	3081
859.928	3150
860.061	3275
860.194	3291
860.327	3146
860.46	3089
860.592	3260
860.725	3241
860.858	3268
860.99	3146
861.123	3100
861.256	3077
861.388	3146
861.521	3937
861.653	3028
861.786	3039
861.918	3024
862.05	3066
862.183	3112
862.315	3176
862.447	3253
862.58	3146
862.712	2948
862.844	2925
862.976	3062
863.108	3001
863.24	3321
863.372	2887
863.504	2986
863.636	3001
863.768	3047
863.9	3013
864.032	2933
864.164	2963
864.296	3036
864.428	3116
864.559	3135
864.691	3077
864.823	3142
864.954	3077
865.086	3085
865.217	3024
865.349	2971
865.48	3024
865.612	3032
865.743	3169
865.875	2998
866.006	2944
866.137	2963
866.269	2982
866.4	2994
866.531	2937
866.662	2914
866.793	2918
866.924	2925
867.055	3009
867.186	2979
867.317	2899
867.448	2861
867.579	2853
867.71	2895
867.841	2876
867.972	2891
868.103	2944
868.233	2941
868.364	2868
868.495	2902
868.625	3116
868.756	3207
868.886	3013
869.017	3043
869.147	3180
869.278	3188
869.408	3085
869.539	3024
869.669	3108
869.799	3062
869.929	3157
870.06	3135
870.19	3359
870.32	3291
870.45	3336
870.58	3359
870.71	3492
870.84	3439
870.97	3306
871.1	3302
871.23	3492
871.36	3485
871.489	3363
871.619	3450
871.749	3443
871.879	3431
872.008	3519
872.138	3393
872.267	3294
872.397	3165
872.526	3085
872.656	3032
872.785	3097
872.915	3279
873.044	3332
873.173	3226
873.303	3264
873.432	3291
873.561	3275
873.69	3169
873.819	3123
873.948	3203
874.077	3116
874.206	3047
874.335	3108
874.464	3203
874.593	3351
874.722	3260
874.851	3382
874.979	3340
875.108	3374
875.237	3222
875.365	3161
875.494	3142
875.623	3264
875.751	3119
875.88	3112
876.008	3173
876.136	3222
876.265	3355
876.393	3507
876.521	3469
876.65	3409
876.778	3409
876.906	3253
877.034	3169
877.162	3245
877.29	3199
877.418	3253
877.546	3260
877.674	3237
877.802	3230
877.93	3233
878.058	3165
878.185	3131
878.313	3222
878.441	3222
878.568	3051
878.696	3161
878.824	3249
878.951	3336
879.079	3462
879.206	3625
879.333	3473
879.461	3325
879.588	3367
879.715	3515
879.842	3580
879.97	3393
880.097	3188
880.224	3138
880.351	3203
880.478	3249
880.605	3233
880.732	3207
880.859	3492
880.986	3294
881.112	3336
881.239	3214
881.366	3116
881.493	3089
881.619	3047
881.746	3089
881.872	3116
881.999	3119
882.125	3142
882.252	3275
882.378	3386
882.505	3488
882.631	3302
882.757	3138
882.883	3203
883.01	3264
883.136	3165
883.262	3066
883.388	3138
883.514	3306
883.64	3378
883.766	3321
883.892	3188
884.018	3233
884.143	3424
884.269	3526
884.395	3180
884.52	3184
884.646	3180
884.772	3131
884.897	3093
885.023	3211
885.148	3351
885.274	3397
885.399	3351
885.524	3275
885.65	3283
885.775	3321
885.9	3268
886.025	3454
886.15	3393
886.275	3291
886.4	3241
886.525	3329
886.65	3294
886.775	3291
886.9	3519
887.025	3622
887.149	3424
887.274	3241
887.399	3154
887.523	3230
887.648	3233
887.773	3192
887.897	3367
888.021	3409
888.146	3294
888.27	3439
888.395	3587
888.519	3405
888.643	3466
888.767	3492
888.891	3348
889.015	3268
889.139	3298
889.263	3256
889.387	3431
889.511	3519
889.635	3473
889.759	3336
889.883	3321
890.006	3378
890.13	3488
890.254	3279
890.377	3348
890.501	3237
890.624	3241
890.748	3340
890.871	3161
890.995	3123
891.118	3066
891.241	3188
891.364	3268
891.488	3355
891.611	3199
891.734	3237
891.857	3272
891.98	3230
892.103	3374
892.226	3279
892.349	3233
892.471	3116
892.594	3237
892.717	3329
892.839	3260
892.962	3272
893.085	3344
893.207	3313
893.33	3169
893.452	3195
893.575	3351
893.697	3275
893.819	3431
893.941	3519
894.064	3477
894.186	3283
894.308	3287
894.43	3450
894.552	3568
894.674	3504
894.796	3317
894.918	3275
895.04	3298
895.161	3458
895.283	3363
895.405	3313
895.526	3370
895.648	3386
895.769	3428
895.891	3450
896.012	3481
896.134	3469
896.255	3405
896.376	3405
896.498	3348
896.619	3439
896.74	3344
896.861	3393
896.982	3686
897.103	3846
897.224	3564
897.345	3545
897.466	3420
897.587	3500
897.708	3629
897.828	3538
897.949	3469
898.07	3332
898.19	3393
898.311	3633
898.431	3454
898.552	3530
898.672	3595
898.792	3580
898.913	3523
899.033	3420
899.153	3268
899.273	3233
899.393	3264
899.513	3294
899.633	3298
899.753	3359
899.873	3306
899.993	3382
900.113	3313
900.232	3424
900.352	3348
900.472	3291
900.591	3245
900.711	3321
900.83	3283
900.95	3348
901.069	3466
901.189	3344
901.308	3253
901.427	3195
901.546	3230
901.665	3275
901.784	3397
901.904	3233
902.023	3138
902.141	3085
902.26	3024
902.379	3180
902.498	3123
902.617	3112
902.735	3233
902.854	3237
902.973	3184
903.091	3104
903.21	3127
903.328	3142
903.446	3127
903.565	3119
903.683	3249
903.801	3119
903.919	3272
904.038	3302
904.156	3211
904.274	3340
904.392	3283
904.51	3336
904.627	3382
904.745	3519
904.863	3564
904.981	3302
905.098	3199
905.216	3294
905.334	3351
905.451	3355
905.569	3325
905.686	3481
905.803	3492
905.921	3370
906.038	3485
906.155	3409
906.272	3313
906.389	3367
906.506	3264
906.623	3298
906.74	3317
906.857	3214
906.974	3272
907.091	3496
907.208	3618
907.324	3519
907.441	3389
907.557	3302
907.674	3287
907.79	3256
907.907	3313
908.023	3428
908.139	3389
908.256	3397
908.372	3416
908.488	3393
908.604	3321
908.72	3268
908.836	3332
908.952	3348
909.068	3386
909.184	3515
909.3	3462
909.415	3511
909.531	3545
909.647	3332
909.762	3310
909.878	3294
909.993	3397
910.108	3397
910.224	3405
910.339	3428
910.454	3348
910.57	3329
910.685	3298
910.8	3633
910.915	3618
911.03	3481
911.145	3329
911.259	3313
911.374	3351
911.489	3268
911.604	3256
911.718	3169
911.833	3184
911.947	3097
912.062	3032
912.176	3173
912.291	3256
912.405	3256
912.519	3492
912.633	3462
912.748	3389
912.862	3321
912.976	3169
913.09	3093
913.204	3188
913.318	3226
913.431	3340
913.545	3344
913.659	3469
913.772	3363
913.886	3233
914	3256
914.113	3393
914.226	3447
914.34	3374
914.453	3253
914.566	3439
914.68	3313
914.793	3378
914.906	3180
915.019	3157
915.132	3127
915.245	3237
915.358	3260
915.47	3233
915.583	3287
915.696	3348
915.809	3488
915.921	3458
916.034	3313
916.146	3317
916.259	3272
916.371	3428
916.483	3363
916.595	3298
916.708	3370
916.82	3336
916.932	3389
917.044	3382
917.156	3420
917.268	3291
917.38	3355
917.491	3313
917.603	3374
917.715	3473
917.826	3473
917.938	3431
918.049	3332
918.161	3454
918.272	3595
918.384	3595
918.495	3530
918.606	3374
918.717	3291
918.828	3412
918.939	3450
919.05	3348
919.161	3431
919.272	3214
919.383	3336
919.494	3526
919.604	3698
919.715	3507
919.826	3447
919.936	3511
920.047	3591
920.157	3553
920.267	3823
920.378	3622
920.488	3568
920.598	3804
920.708	3987
920.818	3842
920.928	3865
921.038	4010
921.148	4051
921.258	3705
921.368	3633
921.477	3606
921.587	3599
921.697	3496
921.806	3652
921.916	3591
922.025	3393
922.134	3401
922.244	3363
922.353	3431
922.462	3306
922.571	3268
922.68	3176
922.789	3093
922.898	3154
923.007	3138
923.116	3256
923.224	3192
923.333	3214
923.442	3173
923.55	3127
923.659	3150
923.767	3237
923.876	3127
923.984	3241
924.092	3108
924.201	3241
924.309	3245
924.417	3298
924.525	3222
924.633	3241
924.741	4059
924.849	3070
924.956	3275
925.064	3146
925.172	3070
925.279	3108
925.387	3218
925.494	3253
925.602	3351
925.709	3363
925.816	3233
925.924	3279
926.031	3386
926.138	3374
926.245	3424
926.352	3313
926.459	3416
926.566	3496
926.673	3382
926.779	3260
926.886	3268
926.993	3199
927.099	3150
927.206	3119
927.312	3146
927.419	3230
927.525	3272
927.631	3287
927.737	3195
927.843	3161
927.95	3066
928.056	3150
928.162	3211
928.267	3272
928.373	3873
928.479	3317
928.585	3100
928.69	3233
928.796	3294
928.901	3199
929.007	3097
929.112	3249
929.218	3222
929.323	3165
929.428	3188
929.533	3397
929.638	3123
929.743	3207
929.848	3287
929.953	3214
930.058	3207
930.163	3058
930.267	3058
930.372	3226
930.477	3062
930.581	3325
930.685	3211
930.79	3066
930.894	3192
930.998	3127
931.103	3275
931.207	2986
931.311	2960
931.415	2941
931.519	2788
931.623	2811
