Data from test_V78500241_1891.txt Node
Date: Fri Mar 25 16:28:18 CST 2022
User: usil
Spectrometer: V785-0024
Trigger mode: 0
Integration Time (sec): 4.000000E-1
Scans to average: 1
Nonlinearity correction enabled: false
Boxcar width: 0
Storing dark spectrum: false
XAxis mode: Wavelengths
Number of Pixels in Spectrum: 1024
>>>>>Begin Spectral Data<<<<<
801.071	2918
801.214	2906
801.356	2914
801.499	2933
801.641	2906
801.783	2929
801.926	3100
802.068	3017
802.211	3009
802.353	3058
802.496	2994
802.638	3062
802.78	3055
802.923	3074
803.065	3043
803.208	2891
803.35	2933
803.492	2948
803.635	2948
803.777	2746
803.919	2880
804.061	3188
804.204	2990
804.346	2918
804.488	2864
804.63	2971
804.773	2937
804.915	2925
805.057	3077
805.199	2929
805.341	2956
805.483	3024
805.626	3036
805.768	2986
805.91	3077
806.052	3135
806.194	3043
806.336	3249
806.478	3062
806.62	2929
806.762	2990
806.904	3032
807.046	3188
807.188	2963
807.33	2960
807.472	3001
807.614	2944
807.756	2975
807.898	2887
808.04	2883
808.182	2998
808.324	2960
808.465	2849
808.607	2929
808.749	2811
808.891	2849
809.033	2967
809.174	2944
809.316	2891
809.458	2929
809.6	2800
809.741	2819
809.883	2792
810.025	2876
810.166	2887
810.308	2861
810.45	2891
810.591	2785
810.733	2804
810.875	2834
811.016	2815
811.158	2804
811.299	2838
811.441	2925
811.582	2922
811.724	2864
811.865	2857
812.007	2933
812.148	2891
812.29	2842
812.431	2876
812.573	2982
812.714	3017
812.855	3074
812.997	3081
813.138	3154
813.279	3028
813.421	3017
813.562	3005
813.703	2925
813.845	2956
813.986	2807
814.127	2750
814.268	2868
814.41	2861
814.551	2842
814.692	2925
814.833	2830
814.974	2895
815.115	2986
815.256	2845
815.397	2838
815.539	2902
815.68	2823
815.821	2845
815.962	2975
816.103	2967
816.244	2914
816.385	2853
816.526	2998
816.666	2948
816.807	2792
816.948	2872
817.089	2933
817.23	2849
817.371	2826
817.512	2819
817.653	2830
817.793	2842
817.934	2933
818.075	2982
818.216	3001
818.356	3081
818.497	2906
818.638	2781
818.778	2853
818.919	2823
819.06	2762
819.2	2925
819.341	2815
819.481	2834
819.622	2941
819.762	3127
819.903	3055
820.043	2948
820.184	2891
820.324	2902
820.465	3036
820.605	3043
820.746	3043
820.886	2956
821.026	3108
821.167	3199
821.307	3233
821.447	3283
821.588	3249
821.728	3230
821.868	3211
822.008	3074
822.149	3214
822.289	3218
822.429	3119
822.569	3131
822.709	3169
822.849	3020
822.99	3074
823.13	3192
823.27	3268
823.41	3108
823.55	3157
823.69	3146
823.83	3207
823.97	3131
824.11	3032
824.25	3020
824.389	3100
824.529	3161
824.669	3070
824.809	3233
824.949	3283
825.089	3218
825.228	3176
825.368	3013
825.508	3013
825.648	3017
825.787	3058
825.927	3047
826.067	3001
826.206	2941
826.346	3062
826.485	3077
826.625	3127
826.765	3291
826.904	3203
827.044	2994
827.183	2922
827.323	2876
827.462	3036
827.601	2941
827.741	2963
827.88	2986
828.02	2864
828.159	2994
828.298	3055
828.437	3165
828.577	3051
828.716	3279
828.855	3097
828.994	2948
829.134	2952
829.273	2944
829.412	2880
829.551	2883
829.69	2876
829.829	3001
829.968	3146
830.107	3032
830.246	3028
830.385	2944
830.524	2918
830.663	2842
830.802	2773
830.941	2697
831.08	2670
831.219	2754
831.357	2754
831.496	2975
831.635	2743
831.774	2670
831.913	2686
832.051	2579
832.19	2564
832.329	2670
832.467	2564
832.606	2541
832.744	2564
832.883	2560
833.022	2606
833.16	2659
833.299	2712
833.437	2693
833.576	2754
833.714	2739
833.852	2785
833.991	2769
834.129	2861
834.267	2857
834.406	2796
834.544	2902
834.682	2918
834.821	2880
834.959	3070
835.097	2891
835.235	3058
835.373	3028
835.511	3043
835.65	2979
835.788	2963
835.926	2872
836.064	2819
836.202	2876
836.34	3112
836.478	3195
836.615	3032
836.753	3138
836.891	3233
837.029	3138
837.167	3119
837.305	3093
837.443	3043
837.58	2956
837.718	3123
837.856	3070
837.993	3028
838.131	3123
838.269	3157
838.406	3135
838.544	3074
838.681	2933
838.819	2899
838.956	2845
839.094	2842
839.231	2937
839.369	3066
839.506	3401
839.643	3214
839.781	3013
839.918	2990
840.055	3085
840.193	3081
840.33	3066
840.467	3135
840.604	3142
840.742	3420
840.879	3081
841.016	3058
841.153	3108
841.29	3355
841.427	3313
841.564	3283
841.701	3268
841.838	3230
841.975	3199
842.112	3218
842.249	3058
842.385	3024
842.522	3279
842.659	3058
842.796	3058
842.933	3146
843.069	3051
843.206	3039
843.343	3211
843.479	3104
843.616	3150
843.752	2933
843.889	2891
844.025	3089
844.162	2891
844.298	3108
844.435	2971
844.571	2933
844.708	3085
844.844	3249
844.98	3241
845.117	3165
845.253	3039
845.389	3005
845.525	3150
845.661	3100
845.798	3043
845.934	3135
846.07	3036
846.206	3203
846.342	3321
846.478	3275
846.614	3089
846.75	3055
846.886	3058
847.022	3249
847.158	3119
847.294	3214
847.429	3226
847.565	3211
847.701	3488
847.837	3055
847.972	3028
848.108	3176
848.244	3154
848.379	2975
848.515	2971
848.65	2952
848.786	2929
848.921	3051
849.057	3127
849.192	3077
849.328	3085
849.463	3157
849.598	3074
849.734	3043
849.869	2971
850.004	2944
850.14	2975
850.275	2933
850.41	2838
850.545	2918
850.68	2929
850.815	2994
850.95	2963
851.085	3214
851.22	3116
851.355	3051
851.49	2982
851.625	2986
851.76	3062
851.895	2944
852.03	2925
852.165	3055
852.299	3119
852.434	3195
852.569	3150
852.703	3173
852.838	3294
852.973	3370
853.107	3340
853.242	3138
853.376	3131
853.511	2960
853.645	3024
853.78	3230
853.914	3119
854.048	3123
854.183	3123
854.317	3157
854.451	3325
854.585	3142
854.72	3074
854.854	3207
854.988	3062
855.122	3089
855.256	2990
855.39	3131
855.524	3233
855.658	3176
855.792	3173
855.926	3226
856.06	3203
856.194	3275
856.327	3203
856.461	3085
856.595	3104
856.729	3081
856.862	3218
856.996	3180
857.13	3199
857.263	3226
857.397	3302
857.53	3119
857.664	3222
857.797	3233
857.931	3241
858.064	3180
858.197	3211
858.331	3112
858.464	3112
858.597	3017
858.731	3093
858.864	3119
858.997	3100
859.13	3142
859.263	3180
859.396	3184
859.529	3108
859.662	3051
859.795	3062
859.928	3176
860.061	3310
860.194	3321
860.327	3188
860.46	3089
860.592	3260
860.725	3279
860.858	3294
860.99	3127
861.123	3097
861.256	3055
861.388	3192
861.521	3850
861.653	3047
861.786	2994
861.918	3043
862.05	3123
862.183	3108
862.315	3199
862.447	3214
862.58	3154
862.712	2998
862.844	2906
862.976	3051
863.108	3058
863.24	3370
863.372	2918
863.504	3036
863.636	2960
863.768	3108
863.9	3005
864.032	2941
864.164	3013
864.296	3074
864.428	3116
864.559	3176
864.691	3104
864.823	3138
864.954	3093
865.086	3100
865.217	3070
865.349	2994
865.48	3047
865.612	3100
865.743	3192
865.875	3005
866.006	2979
866.137	3017
866.269	2971
866.4	2944
866.531	2956
866.662	2918
866.793	2925
866.924	2918
867.055	3009
867.186	2952
867.317	2944
867.448	2906
867.579	2868
867.71	2880
867.841	2891
867.972	2918
868.103	2960
868.233	2933
868.364	2929
868.495	2925
868.625	3150
868.756	3184
868.886	3009
869.017	3055
869.147	3222
869.278	3184
869.408	3074
869.539	3062
869.669	3154
869.799	3077
869.929	3184
870.06	3150
870.19	3348
870.32	3294
870.45	3344
870.58	3412
870.71	3458
870.84	3473
870.97	3325
871.1	3294
871.23	3534
871.36	3481
871.489	3393
871.619	3428
871.749	3477
871.879	3488
872.008	3515
872.138	3412
872.267	3291
872.397	3161
872.526	3104
872.656	3051
872.785	3161
872.915	3268
873.044	3329
873.173	3241
873.303	3306
873.432	3241
873.561	3268
873.69	3207
873.819	3173
873.948	3237
874.077	3127
874.206	3062
874.335	3074
874.464	3264
874.593	3370
874.722	3317
874.851	3443
874.979	3363
875.108	3367
875.237	3237
875.365	3165
875.494	3211
875.623	3287
875.751	3123
875.88	3157
876.008	3226
876.136	3237
876.265	3439
876.393	3542
876.521	3420
876.65	3435
876.778	3344
876.906	3245
877.034	3207
877.162	3268
877.29	3230
877.418	3256
877.546	3325
877.674	3241
877.802	3275
877.93	3275
878.058	3173
878.185	3207
878.313	3214
878.441	3245
878.568	3089
878.696	3161
878.824	3283
878.951	3325
879.079	3462
879.206	3637
879.333	3443
879.461	3336
879.588	3409
879.715	3523
879.842	3614
879.97	3401
880.097	3199
880.224	3165
880.351	3199
880.478	3272
880.605	3222
880.732	3226
880.859	3553
880.986	3329
881.112	3367
881.239	3230
881.366	3100
881.493	3077
881.619	3051
881.746	3097
881.872	3127
881.999	3127
882.125	3142
882.252	3279
882.378	3332
882.505	3420
882.631	3275
882.757	3173
882.883	3275
883.01	3233
883.136	3161
883.262	3135
883.388	3192
883.514	3325
883.64	3401
883.766	3348
883.892	3207
884.018	3264
884.143	3462
884.269	3572
884.395	3287
884.52	3207
884.646	3211
884.772	3173
884.897	3123
885.023	3237
885.148	3359
885.274	3458
885.399	3412
885.524	3287
885.65	3291
885.775	3367
885.9	3340
886.025	3424
886.15	3393
886.275	3321
886.4	3279
886.525	3351
886.65	3317
886.775	3283
886.9	3481
887.025	3641
887.149	3450
887.274	3275
887.399	3230
887.523	3218
887.648	3211
887.773	3237
887.897	3431
888.021	3428
888.146	3363
888.27	3473
888.395	3580
888.519	3412
888.643	3481
888.767	3485
888.891	3332
889.015	3283
889.139	3348
889.263	3249
889.387	3409
889.511	3507
889.635	3473
889.759	3313
889.883	3298
890.006	3386
890.13	3504
890.254	3291
890.377	3374
890.501	3222
890.624	3230
890.748	3313
890.871	3245
890.995	3108
891.118	3093
891.241	3222
891.364	3222
891.488	3355
891.611	3218
891.734	3233
891.857	3313
891.98	3256
892.103	3348
892.226	3317
892.349	3253
892.471	3154
892.594	3253
892.717	3340
892.839	3310
892.962	3332
893.085	3389
893.207	3374
893.33	3173
893.452	3256
893.575	3367
893.697	3241
893.819	3496
893.941	3523
894.064	3466
894.186	3275
894.308	3275
894.43	3469
894.552	3553
894.674	3523
894.796	3264
894.918	3329
895.04	3302
895.161	3443
895.283	3405
895.405	3386
895.526	3355
895.648	3435
895.769	3481
895.891	3443
896.012	3496
896.134	3500
896.255	3435
896.376	3393
896.498	3374
896.619	3466
896.74	3340
896.861	3424
896.982	3709
897.103	3876
897.224	3603
897.345	3507
897.466	3447
897.587	3557
897.708	3660
897.828	3530
897.949	3477
898.07	3370
898.19	3462
898.311	3637
898.431	3485
898.552	3511
898.672	3603
898.792	3648
898.913	3561
899.033	3443
899.153	3302
899.273	3218
899.393	3291
899.513	3344
899.633	3344
899.753	3355
899.873	3329
899.993	3412
900.113	3321
900.232	3412
900.352	3321
900.472	3313
900.591	3237
900.711	3317
900.83	3260
900.95	3420
901.069	3496
901.189	3370
901.308	3199
901.427	3173
901.546	3207
901.665	3306
901.784	3332
901.904	3211
902.023	3157
902.141	3036
902.26	3036
902.379	3138
902.498	3104
902.617	3074
902.735	3256
902.854	3256
902.973	3233
903.091	3089
903.21	3100
903.328	3104
903.446	3138
903.565	3119
903.683	3241
903.801	3165
903.919	3256
904.038	3310
904.156	3165
904.274	3287
904.392	3245
904.51	3340
904.627	3340
904.745	3466
904.863	3511
904.981	3291
905.098	3233
905.216	3233
905.334	3321
905.451	3302
905.569	3317
905.686	3481
905.803	3454
905.921	3313
906.038	3443
906.155	3382
906.272	3294
906.389	3370
906.506	3249
906.623	3268
906.74	3287
906.857	3222
906.974	3298
907.091	3477
907.208	3557
907.324	3500
907.441	3420
907.557	3241
907.674	3260
907.79	3226
907.907	3313
908.023	3401
908.139	3374
908.256	3355
908.372	3405
908.488	3363
908.604	3272
908.72	3218
908.836	3268
908.952	3321
909.068	3367
909.184	3538
909.3	3420
909.415	3530
909.531	3454
909.647	3264
909.762	3291
909.878	3272
909.993	3386
910.108	3321
910.224	3332
910.339	3466
910.454	3344
910.57	3294
910.685	3249
910.8	3584
910.915	3572
911.03	3466
911.145	3283
911.259	3332
911.374	3329
911.489	3237
911.604	3233
911.718	3123
911.833	3161
911.947	3058
912.062	3009
912.176	3184
912.291	3226
912.405	3264
912.519	3447
912.633	3496
912.748	3351
912.862	3272
912.976	3161
913.09	3089
913.204	3146
913.318	3241
913.431	3367
913.545	3370
913.659	3420
913.772	3291
913.886	3192
914	3214
914.113	3386
914.226	3431
914.34	3397
914.453	3264
914.566	3431
914.68	3363
914.793	3332
914.906	3165
915.019	3127
915.132	3097
915.245	3207
915.358	3211
915.47	3241
915.583	3260
915.696	3298
915.809	3447
915.921	3409
916.034	3253
916.146	3249
916.259	3249
916.371	3389
916.483	3351
916.595	3283
916.708	3348
916.82	3329
916.932	3370
917.044	3359
917.156	3412
917.268	3249
917.38	3367
917.491	3321
917.603	3439
917.715	3447
917.826	3450
917.938	3412
918.049	3287
918.161	3450
918.272	3580
918.384	3576
918.495	3492
918.606	3302
918.717	3256
918.828	3389
918.939	3412
919.05	3344
919.161	3397
919.272	3230
919.383	3279
919.494	3500
919.604	3660
919.715	3507
919.826	3416
919.936	3458
920.047	3545
920.157	3564
920.267	3819
920.378	3629
920.488	3553
920.598	3827
920.708	3956
920.818	3789
920.928	3793
921.038	4025
921.148	4036
921.258	3724
921.368	3644
921.477	3603
921.587	3576
921.697	3454
921.806	3682
921.916	3515
922.025	3351
922.134	3374
922.244	3340
922.353	3450
922.462	3268
922.571	3226
922.68	3135
922.789	3116
922.898	3154
923.007	3104
923.116	3207
923.224	3195
923.333	3218
923.442	3146
923.55	3112
923.659	3146
923.767	3226
923.876	3138
923.984	3226
924.092	3081
924.201	3176
924.309	3230
924.417	3283
924.525	3214
924.633	3233
924.741	4051
924.849	3085
924.956	3283
925.064	3097
925.172	3081
925.279	3127
925.387	3184
925.494	3199
925.602	3386
925.709	3291
925.816	3207
925.924	3306
926.031	3405
926.138	3359
926.245	3416
926.352	3214
926.459	3466
926.566	3511
926.673	3313
926.779	3272
926.886	3245
926.993	3131
927.099	3131
927.206	3127
927.312	3112
927.419	3253
927.525	3230
927.631	3291
927.737	3127
927.843	3150
927.95	3051
928.056	3180
928.162	3230
928.267	3226
928.373	3861
928.479	3306
928.585	3066
928.69	3195
928.796	3237
928.901	3192
929.007	3062
929.112	3176
929.218	3199
929.323	3176
929.428	3157
929.533	3275
929.638	3116
929.743	3165
929.848	3272
929.953	3218
930.058	3211
930.163	3028
930.267	3024
930.372	3211
930.477	3020
930.581	3306
930.685	3161
930.79	3043
930.894	3127
930.998	3097
931.103	3260
931.207	2956
931.311	2941
931.415	2944
931.519	2804
931.623	2807
