Data from test_V78500241_1813.txt Node
Date: Fri Mar 25 16:27:45 CST 2022
User: usil
Spectrometer: V785-0024
Trigger mode: 0
Integration Time (sec): 4.000000E-1
Scans to average: 1
Nonlinearity correction enabled: false
Boxcar width: 0
Storing dark spectrum: false
XAxis mode: Wavelengths
Number of Pixels in Spectrum: 1024
>>>>>Begin Spectral Data<<<<<
801.071	2918
801.214	2998
801.356	2906
801.499	2910
801.641	2883
801.783	2986
801.926	3051
802.068	2998
802.211	3017
802.353	3036
802.496	3013
802.638	2994
802.78	3081
802.923	3108
803.065	2998
803.208	2929
803.35	2910
803.492	2956
803.635	2948
803.777	2781
803.919	2845
804.061	3192
804.204	2952
804.346	2918
804.488	2864
804.63	3017
804.773	2880
804.915	2933
805.057	3089
805.199	2948
805.341	2998
805.483	3051
805.626	3009
805.768	2956
805.91	3100
806.052	3169
806.194	3062
806.336	3275
806.478	3009
806.62	2979
806.762	2979
806.904	3043
807.046	3199
807.188	3013
807.33	2922
807.472	3001
807.614	2910
807.756	2998
807.898	2937
808.04	2906
808.182	3005
808.324	2990
808.465	2880
808.607	2899
808.749	2838
808.891	2857
809.033	3005
809.174	2994
809.316	2895
809.458	2906
809.6	2788
809.741	2804
809.883	2785
810.025	2853
810.166	2861
810.308	2868
810.45	2880
810.591	2750
810.733	2766
810.875	2861
811.016	2773
811.158	2766
811.299	2826
811.441	2971
811.582	2929
811.724	2864
811.865	2838
812.007	2918
812.148	2925
812.29	2842
812.431	2937
812.573	2937
812.714	2967
812.855	3058
812.997	3074
813.138	3131
813.279	3013
813.421	2982
813.562	2948
813.703	2853
813.845	2910
813.986	2758
814.127	2731
814.268	2838
814.41	2800
814.551	2853
814.692	2899
814.833	2826
814.974	2910
815.115	2971
815.256	2838
815.397	2834
815.539	2880
815.68	2766
815.821	2785
815.962	2948
816.103	2948
816.244	2849
816.385	2872
816.526	2963
816.666	2918
816.807	2777
816.948	2895
817.089	2922
817.23	2853
817.371	2777
817.512	2823
817.653	2823
817.793	2807
817.934	2899
818.075	2956
818.216	3028
818.356	3051
818.497	2910
818.638	2815
818.778	2819
818.919	2819
819.06	2785
819.2	2910
819.341	2804
819.481	2823
819.622	2922
819.762	3123
819.903	3062
820.043	2933
820.184	2883
820.324	2906
820.465	3070
820.605	3028
820.746	3039
820.886	2979
821.026	3119
821.167	3180
821.307	3253
821.447	3302
821.588	3264
821.728	3214
821.868	3203
822.008	3093
822.149	3203
822.289	3230
822.429	3089
822.569	3100
822.709	3184
822.849	3051
822.99	3055
823.13	3195
823.27	3218
823.41	3093
823.55	3138
823.69	3150
823.83	3176
823.97	3135
824.11	3017
824.25	3036
824.389	3066
824.529	3081
824.669	3077
824.809	3237
824.949	3268
825.089	3249
825.228	3173
825.368	3013
825.508	2979
825.648	2971
825.787	3043
825.927	3009
826.067	2986
826.206	2948
826.346	3043
826.485	3077
826.625	3131
826.765	3275
826.904	3245
827.044	2994
827.183	2937
827.323	2872
827.462	3013
827.601	2914
827.741	2963
827.88	2979
828.02	2872
828.159	3001
828.298	3066
828.437	3116
828.577	3062
828.716	3283
828.855	3055
828.994	2922
829.134	2891
829.273	2902
829.412	2880
829.551	2941
829.69	2899
829.829	3020
829.968	3116
830.107	3020
830.246	3024
830.385	2902
830.524	2883
830.663	2796
830.802	2773
830.941	2701
831.08	2682
831.219	2762
831.357	2746
831.496	2933
831.635	2754
831.774	2625
831.913	2640
832.051	2545
832.19	2610
832.329	2678
832.467	2545
832.606	2484
832.744	2560
832.883	2632
833.022	2617
833.16	2640
833.299	2670
833.437	2697
833.576	2686
833.714	2731
833.852	2731
833.991	2758
834.129	2834
834.267	2834
834.406	2807
834.544	2887
834.682	2861
834.821	2868
834.959	3074
835.097	2933
835.235	3085
835.373	3009
835.511	3020
835.65	2998
835.788	2941
835.926	2811
836.064	2804
836.202	2853
836.34	3047
836.478	3127
836.615	3089
836.753	3142
836.891	3180
837.029	3173
837.167	3108
837.305	3074
837.443	3043
837.58	2975
837.718	3154
837.856	3074
837.993	3039
838.131	3062
838.269	3108
838.406	3074
838.544	3051
838.681	2963
838.819	2910
838.956	2807
839.094	2845
839.231	2925
839.369	3020
839.506	3409
839.643	3214
839.781	3001
839.918	2963
840.055	3032
840.193	3047
840.33	3093
840.467	3085
840.604	3150
840.742	3405
840.879	3036
841.016	3028
841.153	3119
841.29	3321
841.427	3287
841.564	3264
841.701	3332
841.838	3199
841.975	3157
842.112	3214
842.249	3116
842.385	3009
842.522	3313
842.659	3104
842.796	3051
842.933	3108
843.069	3058
843.206	3043
843.343	3188
843.479	3123
843.616	3104
843.752	2899
843.889	2872
844.025	3104
844.162	2891
844.298	3077
844.435	2941
844.571	2910
844.708	3085
844.844	3214
844.98	3207
845.117	3188
845.253	3051
845.389	3013
845.525	3116
845.661	3097
845.798	3020
845.934	3108
846.07	3028
846.206	3241
846.342	3302
846.478	3237
846.614	3085
846.75	3051
846.886	3020
847.022	3268
847.158	3116
847.294	3207
847.429	3230
847.565	3195
847.701	3496
847.837	3036
847.972	2990
848.108	3154
848.244	3142
848.379	2994
848.515	2948
848.65	2937
848.786	2990
848.921	3017
849.057	3081
849.192	3127
849.328	3089
849.463	3104
849.598	3074
849.734	3058
849.869	2929
850.004	2944
850.14	2986
850.275	2910
850.41	2864
850.545	2906
850.68	2891
850.815	2971
850.95	2963
851.085	3199
851.22	3081
851.355	3039
851.49	2971
851.625	3017
851.76	2986
851.895	2952
852.03	2910
852.165	3055
852.299	3127
852.434	3184
852.569	3146
852.703	3157
852.838	3275
852.973	3348
853.107	3344
853.242	3184
853.376	3097
853.511	2971
853.645	3047
853.78	3256
853.914	3131
854.048	3093
854.183	3116
854.317	3127
854.451	3291
854.585	3119
854.72	3135
854.854	3203
854.988	3058
855.122	3039
855.256	2990
855.39	3112
855.524	3253
855.658	3154
855.792	3142
855.926	3169
856.06	3192
856.194	3256
856.327	3157
856.461	3036
856.595	3074
856.729	3077
856.862	3214
856.996	3119
857.13	3199
857.263	3249
857.397	3264
857.53	3138
857.664	3226
857.797	3253
857.931	3245
858.064	3127
858.197	3249
858.331	3108
858.464	3077
858.597	3013
858.731	3119
858.864	3119
858.997	3089
859.13	3123
859.263	3131
859.396	3203
859.529	3112
859.662	3070
859.795	3047
859.928	3138
860.061	3291
860.194	3256
860.327	3131
860.46	3089
860.592	3226
860.725	3260
860.858	3272
860.99	3093
861.123	3036
861.256	3013
861.388	3135
861.521	3880
861.653	3001
861.786	3017
861.918	2994
862.05	3077
862.183	3047
862.315	3165
862.447	3230
862.58	3077
862.712	2960
862.844	2899
862.976	3024
863.108	3009
863.24	3431
863.372	2887
863.504	2975
863.636	2918
863.768	3032
863.9	2948
864.032	2883
864.164	2922
864.296	3001
864.428	3085
864.559	3138
864.691	3051
864.823	3047
864.954	3047
865.086	3036
865.217	2986
865.349	2914
865.48	2979
865.612	3024
865.743	3112
865.875	2967
866.006	2948
866.137	2967
866.269	2956
866.4	2963
866.531	2887
866.662	2899
866.793	2868
866.924	2891
867.055	2963
867.186	2914
867.317	2876
867.448	2830
867.579	2872
867.71	2849
867.841	2792
867.972	2883
868.103	2906
868.233	2914
868.364	2842
868.495	2899
868.625	3066
868.756	3154
868.886	2998
869.017	3005
869.147	3146
869.278	3188
869.408	3032
869.539	2963
869.669	3070
869.799	3043
869.929	3123
870.06	3169
870.19	3313
870.32	3268
870.45	3287
870.58	3348
870.71	3458
870.84	3485
870.97	3233
871.1	3211
871.23	3477
871.36	3485
871.489	3317
871.619	3389
871.749	3447
871.879	3397
872.008	3485
872.138	3370
872.267	3260
872.397	3138
872.526	3089
872.656	3013
872.785	3093
872.915	3256
873.044	3302
873.173	3249
873.303	3268
873.432	3207
873.561	3195
873.69	3154
873.819	3119
873.948	3199
874.077	3043
874.206	3055
874.335	3074
874.464	3188
874.593	3336
874.722	3233
874.851	3424
874.979	3370
875.108	3310
875.237	3157
875.365	3146
875.494	3150
875.623	3272
875.751	3051
875.88	3123
876.008	3195
876.136	3203
876.265	3386
876.393	3504
876.521	3435
876.65	3405
876.778	3306
876.906	3253
877.034	3222
877.162	3241
877.29	3165
877.418	3237
877.546	3256
877.674	3253
877.802	3245
877.93	3192
878.058	3150
878.185	3108
878.313	3180
878.441	3203
878.568	3062
878.696	3131
878.824	3279
878.951	3291
879.079	3447
879.206	3614
879.333	3431
879.461	3344
879.588	3340
879.715	3458
879.842	3553
879.97	3351
880.097	3165
880.224	3112
880.351	3199
880.478	3203
880.605	3184
880.732	3180
880.859	3477
880.986	3317
881.112	3336
881.239	3161
881.366	3062
881.493	3017
881.619	3028
881.746	3077
881.872	3055
881.999	3108
882.125	3157
882.252	3249
882.378	3313
882.505	3428
882.631	3310
882.757	3157
882.883	3199
883.01	3222
883.136	3195
883.262	3093
883.388	3104
883.514	3306
883.64	3363
883.766	3268
883.892	3173
884.018	3222
884.143	3393
884.269	3496
884.395	3157
884.52	3199
884.646	3157
884.772	3123
884.897	3119
885.023	3184
885.148	3382
885.274	3412
885.399	3367
885.524	3336
885.65	3256
885.775	3302
885.9	3260
886.025	3409
886.15	3386
886.275	3260
886.4	3214
886.525	3313
886.65	3245
886.775	3298
886.9	3496
887.025	3671
887.149	3416
887.274	3237
887.399	3138
887.523	3203
887.648	3207
887.773	3173
887.897	3340
888.021	3420
888.146	3279
888.27	3420
888.395	3519
888.519	3405
888.643	3435
888.767	3416
888.891	3306
889.015	3222
889.139	3272
889.263	3253
889.387	3386
889.511	3462
889.635	3416
889.759	3291
889.883	3268
890.006	3374
890.13	3466
890.254	3264
890.377	3298
890.501	3150
890.624	3184
890.748	3287
890.871	3203
890.995	3104
891.118	3047
891.241	3214
891.364	3241
891.488	3313
891.611	3138
891.734	3195
891.857	3298
891.98	3218
892.103	3363
892.226	3283
892.349	3195
892.471	3104
892.594	3249
892.717	3306
892.839	3283
892.962	3287
893.085	3313
893.207	3287
893.33	3165
893.452	3203
893.575	3336
893.697	3264
893.819	3450
893.941	3526
894.064	3412
894.186	3294
894.308	3241
894.43	3447
894.552	3538
894.674	3412
894.796	3264
894.918	3306
895.04	3313
895.161	3386
895.283	3397
895.405	3306
895.526	3393
895.648	3431
895.769	3393
895.891	3458
896.012	3458
896.134	3458
896.255	3431
896.376	3389
896.498	3367
896.619	3435
896.74	3378
896.861	3397
896.982	3625
897.103	3823
897.224	3572
897.345	3526
897.466	3389
897.587	3488
897.708	3606
897.828	3538
897.949	3431
898.07	3336
898.19	3393
898.311	3606
898.431	3466
898.552	3481
898.672	3572
898.792	3580
898.913	3515
899.033	3416
899.153	3264
899.273	3207
899.393	3260
899.513	3306
899.633	3279
899.753	3306
899.873	3313
899.993	3378
900.113	3344
900.232	3416
900.352	3336
900.472	3272
900.591	3237
900.711	3302
900.83	3230
900.95	3420
901.069	3443
901.189	3359
901.308	3173
901.427	3127
901.546	3169
901.665	3287
901.784	3294
901.904	3169
902.023	3150
902.141	3013
902.26	3051
902.379	3119
902.498	3093
902.617	3070
902.735	3203
902.854	3237
902.973	3169
903.091	2998
903.21	3039
903.328	3165
903.446	3116
903.565	3089
903.683	3195
903.801	3135
903.919	3249
904.038	3294
904.156	3207
904.274	3268
904.392	3214
904.51	3291
904.627	3325
904.745	3428
904.863	3500
904.981	3256
905.098	3173
905.216	3211
905.334	3268
905.451	3325
905.569	3275
905.686	3409
905.803	3443
905.921	3268
906.038	3420
906.155	3351
906.272	3203
906.389	3344
906.506	3214
906.623	3233
906.74	3253
906.857	3180
906.974	3222
907.091	3416
907.208	3584
907.324	3500
907.441	3382
907.557	3226
907.674	3211
907.79	3203
907.907	3275
908.023	3329
908.139	3367
908.256	3313
908.372	3378
908.488	3302
908.604	3207
908.72	3203
908.836	3260
908.952	3294
909.068	3332
909.184	3488
909.3	3374
909.415	3526
909.531	3485
909.647	3268
909.762	3306
909.878	3275
909.993	3351
910.108	3355
910.224	3378
910.339	3386
910.454	3321
910.57	3310
910.685	3249
910.8	3595
910.915	3511
911.03	3412
911.145	3256
911.259	3287
911.374	3306
911.489	3249
911.604	3237
911.718	3119
911.833	3116
911.947	3051
912.062	2986
912.176	3157
912.291	3207
912.405	3188
912.519	3416
912.633	3435
912.748	3310
912.862	3268
912.976	3188
913.09	3039
913.204	3127
913.318	3253
913.431	3340
913.545	3348
913.659	3409
913.772	3321
913.886	3230
914	3214
914.113	3336
914.226	3393
914.34	3374
914.453	3180
914.566	3378
914.68	3306
914.793	3321
914.906	3097
915.019	3100
915.132	3032
915.245	3146
915.358	3214
915.47	3233
915.583	3310
915.696	3329
915.809	3393
915.921	3420
916.034	3218
916.146	3279
916.259	3176
916.371	3397
916.483	3325
916.595	3279
916.708	3317
916.82	3351
916.932	3344
917.044	3325
917.156	3351
917.268	3226
917.38	3332
917.491	3310
917.603	3355
917.715	3435
917.826	3466
917.938	3355
918.049	3272
918.161	3397
918.272	3553
918.384	3561
918.495	3458
918.606	3329
918.717	3310
918.828	3367
918.939	3382
919.05	3336
919.161	3351
919.272	3203
919.383	3302
919.494	3500
919.604	3675
919.715	3473
919.826	3439
919.936	3466
920.047	3553
920.157	3545
920.267	3774
920.378	3618
920.488	3557
920.598	3789
920.708	3956
920.818	3842
920.928	3808
921.038	4010
921.148	3987
921.258	3736
921.368	3595
921.477	3618
921.587	3492
921.697	3435
921.806	3663
921.916	3553
922.025	3336
922.134	3355
922.244	3279
922.353	3397
922.462	3294
922.571	3218
922.68	3100
922.789	3112
922.898	3150
923.007	3116
923.116	3233
923.224	3192
923.333	3214
923.442	3104
923.55	3062
923.659	3135
923.767	3233
923.876	3150
923.984	3249
924.092	3135
924.201	3233
924.309	3199
924.417	3233
924.525	3199
924.633	3253
924.741	3994
924.849	3024
924.956	3291
925.064	3127
925.172	3077
925.279	3150
925.387	3180
925.494	3222
925.602	3344
925.709	3302
925.816	3230
925.924	3268
926.031	3363
926.138	3325
926.245	3359
926.352	3233
926.459	3382
926.566	3466
926.673	3325
926.779	3256
926.886	3279
926.993	3131
927.099	3161
927.206	3127
927.312	3131
927.419	3222
927.525	3214
927.631	3268
927.737	3127
927.843	3131
927.95	3009
928.056	3142
928.162	3176
928.267	3222
928.373	3808
928.479	3245
928.585	3043
928.69	3211
928.796	3287
928.901	3165
929.007	3066
929.112	3192
929.218	3169
929.323	3135
929.428	3173
929.533	3344
929.638	3081
929.743	3146
929.848	3264
929.953	3237
930.058	3138
930.163	3001
930.267	3062
930.372	3176
930.477	3062
930.581	3329
930.685	3180
930.79	3036
930.894	3116
930.998	3104
931.103	3260
931.207	2937
931.311	2963
931.415	2914
931.519	2769
931.623	2830
