Data from test_V78500241_1349.txt Node
Date: Fri Mar 25 16:24:32 CST 2022
User: usil
Spectrometer: V785-0024
Trigger mode: 0
Integration Time (sec): 4.000000E-1
Scans to average: 1
Nonlinearity correction enabled: false
Boxcar width: 0
Storing dark spectrum: false
XAxis mode: Wavelengths
Number of Pixels in Spectrum: 1024
>>>>>Begin Spectral Data<<<<<
801.071	2887
801.214	2937
801.356	2876
801.499	2876
801.641	2868
801.783	2914
801.926	3017
802.068	2956
802.211	2960
802.353	3028
802.496	2956
802.638	2990
802.78	3047
802.923	3074
803.065	2990
803.208	2902
803.35	2933
803.492	2929
803.635	2910
803.777	2754
803.919	2845
804.061	3199
804.204	2960
804.346	2861
804.488	2834
804.63	2986
804.773	2853
804.915	2902
805.057	3116
805.199	2899
805.341	2982
805.483	3047
805.626	3009
805.768	2990
805.91	3066
806.052	3104
806.194	3009
806.336	3275
806.478	3024
806.62	2925
806.762	2975
806.904	3051
807.046	3180
807.188	3009
807.33	2944
807.472	2975
807.614	2906
807.756	2979
807.898	2922
808.04	2864
808.182	2944
808.324	2925
808.465	2880
808.607	2883
808.749	2785
808.891	2834
809.033	2967
809.174	2941
809.316	2899
809.458	2880
809.6	2785
809.741	2758
809.883	2777
810.025	2842
810.166	2853
810.308	2811
810.45	2823
810.591	2762
810.733	2792
810.875	2826
811.016	2788
811.158	2746
811.299	2800
811.441	2906
811.582	2902
811.724	2800
811.865	2796
812.007	2925
812.148	2880
812.29	2876
812.431	2899
812.573	2956
812.714	2963
812.855	3036
812.997	3077
813.138	3138
813.279	3013
813.421	3001
813.562	2971
813.703	2887
813.845	2872
813.986	2754
814.127	2708
814.268	2823
814.41	2830
814.551	2807
814.692	2883
814.833	2796
814.974	2842
815.115	2975
815.256	2838
815.397	2807
815.539	2880
815.68	2762
815.821	2788
815.962	2918
816.103	2944
816.244	2887
816.385	2868
816.526	2975
816.666	2948
816.807	2758
816.948	2868
817.089	2880
817.23	2857
817.371	2781
817.512	2758
817.653	2853
817.793	2826
817.934	2880
818.075	2963
818.216	2975
818.356	2986
818.497	2880
818.638	2777
818.778	2826
818.919	2800
819.06	2777
819.2	2872
819.341	2777
819.481	2788
819.622	2910
819.762	3119
819.903	3058
820.043	2910
820.184	2929
820.324	2880
820.465	3024
820.605	3032
820.746	2994
820.886	2910
821.026	3138
821.167	3131
821.307	3279
821.447	3287
821.588	3230
821.728	3199
821.868	3176
822.008	3085
822.149	3180
822.289	3211
822.429	3108
822.569	3047
822.709	3184
822.849	3013
822.99	3058
823.13	3161
823.27	3146
823.41	3081
823.55	3108
823.69	3150
823.83	3176
823.97	3116
824.11	2990
824.25	2982
824.389	3074
824.529	3112
824.669	3074
824.809	3188
824.949	3253
825.089	3180
825.228	3146
825.368	2986
825.508	2922
825.648	2975
825.787	3017
825.927	3028
826.067	2944
826.206	2971
826.346	3005
826.485	3055
826.625	3097
826.765	3237
826.904	3245
827.044	2998
827.183	2914
827.323	2826
827.462	2979
827.601	2929
827.741	2914
827.88	2941
828.02	2849
828.159	2990
828.298	3036
828.437	3119
828.577	3032
828.716	3233
828.855	3055
828.994	2925
829.134	2902
829.273	2895
829.412	2853
829.551	2826
829.69	2880
829.829	2986
829.968	3135
830.107	3009
830.246	3039
830.385	2880
830.524	2887
830.663	2845
830.802	2689
830.941	2651
831.08	2667
831.219	2743
831.357	2758
831.496	2963
831.635	2708
831.774	2621
831.913	2621
832.051	2579
832.19	2552
832.329	2697
832.467	2503
832.606	2476
832.744	2549
832.883	2613
833.022	2575
833.16	2659
833.299	2705
833.437	2682
833.576	2682
833.714	2708
833.852	2750
833.991	2731
834.129	2834
834.267	2819
834.406	2785
834.544	2849
834.682	2906
834.821	2861
834.959	3081
835.097	2906
835.235	3047
835.373	3001
835.511	3020
835.65	2929
835.788	2929
835.926	2830
836.064	2800
836.202	2830
836.34	3051
836.478	3165
836.615	2998
836.753	3112
836.891	3176
837.029	3154
837.167	3089
837.305	3055
837.443	3039
837.58	2910
837.718	3135
837.856	3047
837.993	2994
838.131	3108
838.269	3089
838.406	3085
838.544	3074
838.681	2925
838.819	2906
838.956	2807
839.094	2815
839.231	2922
839.369	2998
839.506	3367
839.643	3184
839.781	2998
839.918	2971
840.055	2998
840.193	3036
840.33	3058
840.467	3097
840.604	3104
840.742	3405
840.879	3066
841.016	3058
841.153	3108
841.29	3329
841.427	3264
841.564	3260
841.701	3294
841.838	3226
841.975	3192
842.112	3218
842.249	3070
842.385	3047
842.522	3214
842.659	3070
842.796	3074
842.933	3104
843.069	3062
843.206	3055
843.343	3218
843.479	3116
843.616	3119
843.752	2899
843.889	2857
844.025	3100
844.162	2880
844.298	3085
844.435	2963
844.571	2910
844.708	3066
844.844	3207
844.98	3207
845.117	3146
845.253	3013
845.389	3020
845.525	3127
845.661	3116
845.798	3032
845.934	3100
846.07	3070
846.206	3173
846.342	3272
846.478	3249
846.614	3058
846.75	3058
846.886	3020
847.022	3203
847.158	3093
847.294	3188
847.429	3233
847.565	3184
847.701	3450
847.837	2990
847.972	2982
848.108	3108
848.244	3184
848.379	2994
848.515	2918
848.65	2960
848.786	2941
848.921	2982
849.057	3104
849.192	3112
849.328	3062
849.463	3108
849.598	3077
849.734	3043
849.869	2975
850.004	2925
850.14	2979
850.275	2902
850.41	2845
850.545	2861
850.68	2922
850.815	3001
850.95	2933
851.085	3169
851.22	3104
851.355	3005
851.49	2990
851.625	3024
851.76	3001
851.895	2933
852.03	2902
852.165	3024
852.299	3097
852.434	3169
852.569	3131
852.703	3154
852.838	3268
852.973	3374
853.107	3332
853.242	3135
853.376	3070
853.511	2967
853.645	3062
853.78	3222
853.914	3081
854.048	3085
854.183	3051
854.317	3123
854.451	3249
854.585	3112
854.72	3112
854.854	3207
854.988	3074
855.122	3093
855.256	3001
855.39	3123
855.524	3264
855.658	3176
855.792	3138
855.926	3192
856.06	3207
856.194	3245
856.327	3150
856.461	3089
856.595	3062
856.729	3108
856.862	3245
856.996	3150
857.13	3184
857.263	3222
857.397	3275
857.53	3123
857.664	3199
857.797	3226
857.931	3233
858.064	3135
858.197	3199
858.331	3135
858.464	3081
858.597	3009
858.731	3085
858.864	3097
858.997	3058
859.13	3150
859.263	3161
859.396	3157
859.529	3081
859.662	3070
859.795	3066
859.928	3112
860.061	3237
860.194	3287
860.327	3119
860.46	3089
860.592	3214
860.725	3245
860.858	3241
860.99	3077
861.123	3055
861.256	3039
861.388	3142
861.521	3663
861.653	2998
861.786	2956
861.918	2990
862.05	3077
862.183	3081
862.315	3146
862.447	3180
862.58	3070
862.712	2937
862.844	2842
862.976	3036
863.108	2967
863.24	3291
863.372	2845
863.504	2967
863.636	2941
863.768	3017
863.9	2990
864.032	2929
864.164	2925
864.296	2994
864.428	3085
864.559	3119
864.691	3058
864.823	3066
864.954	3020
865.086	3005
865.217	2990
865.349	2925
865.48	2971
865.612	3017
865.743	3142
865.875	2956
866.006	2922
866.137	3009
866.269	2952
866.4	2922
866.531	2922
866.662	2853
866.793	2891
866.924	2861
867.055	2941
867.186	2948
867.317	2864
867.448	2861
867.579	2857
867.71	2864
867.841	2834
867.972	2887
868.103	2895
868.233	2861
868.364	2834
868.495	2895
868.625	3085
868.756	3180
868.886	2986
869.017	2990
869.147	3150
869.278	3146
869.408	3032
869.539	3024
869.669	3085
869.799	3017
869.929	3116
870.06	3097
870.19	3317
870.32	3264
870.45	3291
870.58	3374
870.71	3447
870.84	3409
870.97	3256
871.1	3195
871.23	3462
871.36	3507
871.489	3363
871.619	3370
871.749	3412
871.879	3454
872.008	3511
872.138	3325
872.267	3237
872.397	3119
872.526	3089
872.656	3024
872.785	3051
872.915	3253
873.044	3321
873.173	3230
873.303	3237
873.432	3218
873.561	3233
873.69	3142
873.819	3161
873.948	3188
874.077	3108
874.206	3009
874.335	3085
874.464	3188
874.593	3363
874.722	3233
874.851	3389
874.979	3317
875.108	3329
875.237	3199
875.365	3154
875.494	3165
875.623	3245
875.751	3066
875.88	3131
876.008	3135
876.136	3195
876.265	3370
876.393	3458
876.521	3409
876.65	3374
876.778	3363
876.906	3275
877.034	3199
877.162	3184
877.29	3180
877.418	3230
877.546	3275
877.674	3233
877.802	3241
877.93	3207
878.058	3146
878.185	3074
878.313	3207
878.441	3123
878.568	3081
878.696	3116
878.824	3226
878.951	3317
879.079	3435
879.206	3576
879.333	3454
879.461	3336
879.588	3355
879.715	3507
879.842	3587
879.97	3405
880.097	3131
880.224	3135
880.351	3176
880.478	3207
880.605	3203
880.732	3150
880.859	3477
880.986	3256
881.112	3325
881.239	3214
881.366	3074
881.493	3017
881.619	2967
881.746	3070
881.872	3081
881.999	3089
882.125	3127
882.252	3222
882.378	3256
882.505	3447
882.631	3268
882.757	3146
882.883	3226
883.01	3241
883.136	3180
883.262	3077
883.388	3108
883.514	3298
883.64	3382
883.766	3313
883.892	3195
884.018	3222
884.143	3389
884.269	3530
884.395	3195
884.52	3142
884.646	3173
884.772	3131
884.897	3104
885.023	3173
885.148	3332
885.274	3409
885.399	3332
885.524	3275
885.65	3241
885.775	3344
885.9	3298
886.025	3409
886.15	3405
886.275	3256
886.4	3230
886.525	3253
886.65	3253
886.775	3287
886.9	3481
887.025	3667
887.149	3431
887.274	3222
887.399	3157
887.523	3203
887.648	3180
887.773	3176
887.897	3374
888.021	3363
888.146	3275
888.27	3424
888.395	3538
888.519	3469
888.643	3458
888.767	3462
888.891	3294
889.015	3237
889.139	3264
889.263	3230
889.387	3424
889.511	3507
889.635	3428
889.759	3302
889.883	3287
890.006	3374
890.13	3492
890.254	3321
890.377	3294
890.501	3218
890.624	3195
890.748	3283
890.871	3173
890.995	3097
891.118	3062
891.241	3138
891.364	3218
891.488	3306
891.611	3176
891.734	3230
891.857	3298
891.98	3241
892.103	3340
892.226	3268
892.349	3218
892.471	3097
892.594	3237
892.717	3294
892.839	3253
892.962	3256
893.085	3313
893.207	3275
893.33	3131
893.452	3203
893.575	3321
893.697	3237
893.819	3458
893.941	3511
894.064	3435
894.186	3272
894.308	3253
894.43	3420
894.552	3523
894.674	3473
894.796	3279
894.918	3283
895.04	3294
895.161	3447
895.283	3355
895.405	3317
895.526	3348
895.648	3458
895.769	3386
895.891	3466
896.012	3488
896.134	3435
896.255	3363
896.376	3348
896.498	3351
896.619	3466
896.74	3393
896.861	3401
896.982	3637
897.103	3865
897.224	3568
897.345	3557
897.466	3401
897.587	3485
897.708	3591
897.828	3538
897.949	3420
898.07	3317
898.19	3397
898.311	3622
898.431	3424
898.552	3534
898.672	3568
898.792	3572
898.913	3496
899.033	3424
899.153	3283
899.273	3188
899.393	3294
899.513	3302
899.633	3298
899.753	3291
899.873	3313
899.993	3348
900.113	3344
900.232	3412
900.352	3332
900.472	3260
900.591	3207
900.711	3283
900.83	3237
900.95	3393
901.069	3523
901.189	3340
901.308	3131
901.427	3127
901.546	3169
901.665	3287
901.784	3332
901.904	3188
902.023	3154
902.141	3013
902.26	3024
902.379	3131
902.498	3047
902.617	3039
902.735	3233
902.854	3237
902.973	3188
903.091	3051
903.21	3062
903.328	3119
903.446	3089
903.565	3093
903.683	3211
903.801	3112
903.919	3260
904.038	3291
904.156	3157
904.274	3294
904.392	3260
904.51	3264
904.627	3332
904.745	3416
904.863	3511
904.981	3260
905.098	3184
905.216	3241
905.334	3275
905.451	3306
905.569	3291
905.686	3469
905.803	3431
905.921	3253
906.038	3378
906.155	3363
906.272	3283
906.389	3336
906.506	3214
906.623	3226
906.74	3253
906.857	3169
906.974	3260
907.091	3428
907.208	3549
907.324	3450
907.441	3363
907.557	3226
907.674	3226
907.79	3226
907.907	3294
908.023	3382
908.139	3378
908.256	3351
908.372	3355
908.488	3325
908.604	3268
908.72	3218
908.836	3306
908.952	3291
909.068	3348
909.184	3469
909.3	3401
909.415	3477
909.531	3428
909.647	3230
909.762	3264
909.878	3287
909.993	3363
910.108	3382
910.224	3363
910.339	3370
910.454	3332
910.57	3272
910.685	3260
910.8	3614
910.915	3530
911.03	3424
911.145	3245
911.259	3264
911.374	3302
911.489	3264
911.604	3188
911.718	3093
911.833	3154
911.947	3028
912.062	2971
912.176	3154
912.291	3195
912.405	3184
912.519	3424
912.633	3454
912.748	3348
912.862	3272
912.976	3203
913.09	3066
913.204	3131
913.318	3180
913.431	3367
913.545	3359
913.659	3393
913.772	3313
913.886	3237
914	3176
914.113	3355
914.226	3409
914.34	3355
914.453	3218
914.566	3428
914.68	3291
914.793	3355
914.906	3195
915.019	3112
915.132	3058
915.245	3157
915.358	3195
915.47	3253
915.583	3256
915.696	3294
915.809	3435
915.921	3447
916.034	3268
916.146	3253
916.259	3207
916.371	3359
916.483	3370
916.595	3249
916.708	3340
916.82	3310
916.932	3336
917.044	3332
917.156	3370
917.268	3298
917.38	3283
917.491	3272
917.603	3340
917.715	3466
917.826	3488
917.938	3382
918.049	3291
918.161	3420
918.272	3568
918.384	3568
918.495	3485
918.606	3336
918.717	3302
918.828	3367
918.939	3409
919.05	3310
919.161	3359
919.272	3146
919.383	3245
919.494	3507
919.604	3633
919.715	3545
919.826	3428
919.936	3439
920.047	3557
920.157	3561
920.267	3774
920.378	3595
920.488	3587
920.598	3774
920.708	3968
920.818	3823
920.928	3789
921.038	3991
921.148	3979
921.258	3713
921.368	3637
921.477	3564
921.587	3515
921.697	3447
921.806	3614
921.916	3496
922.025	3355
922.134	3416
922.244	3294
922.353	3431
922.462	3275
922.571	3199
922.68	3116
922.789	3070
922.898	3138
923.007	3119
923.116	3180
923.224	3165
923.333	3188
923.442	3116
923.55	3089
923.659	3123
923.767	3207
923.876	3100
923.984	3253
924.092	3093
924.201	3157
924.309	3184
924.417	3222
924.525	3150
924.633	3207
924.741	3998
924.849	3077
924.956	3253
925.064	3093
925.172	3013
925.279	3138
925.387	3184
925.494	3195
925.602	3359
925.709	3317
925.816	3169
925.924	3298
926.031	3378
926.138	3325
926.245	3310
926.352	3214
926.459	3412
926.566	3477
926.673	3344
926.779	3256
926.886	3253
926.993	3138
927.099	3161
927.206	3066
927.312	3081
927.419	3195
927.525	3199
927.631	3264
927.737	3123
927.843	3112
927.95	3032
928.056	3119
928.162	3203
928.267	3211
928.373	3816
928.479	3306
928.585	3028
928.69	3188
928.796	3260
928.901	3173
929.007	3032
929.112	3192
929.218	3203
929.323	3142
929.428	3165
929.533	3351
929.638	3135
929.743	3157
929.848	3260
929.953	3199
930.058	3104
930.163	2994
930.267	3013
930.372	3173
930.477	3032
930.581	3321
930.685	3169
930.79	3047
930.894	3157
930.998	3093
931.103	3275
931.207	2918
931.311	2880
931.415	2914
931.519	2754
931.623	2811
