Data from test_V78500241_502.txt Node
Date: Fri Mar 25 16:18:40 CST 2022
User: usil
Spectrometer: V785-0024
Trigger mode: 0
Integration Time (sec): 4.000000E-1
Scans to average: 1
Nonlinearity correction enabled: false
Boxcar width: 0
Storing dark spectrum: false
XAxis mode: Wavelengths
Number of Pixels in Spectrum: 1024
>>>>>Begin Spectral Data<<<<<
801.071	2918
801.214	2925
801.356	2887
801.499	2880
801.641	2849
801.783	2906
801.926	3036
802.068	2963
802.211	3001
802.353	2994
802.496	2948
802.638	2971
802.78	3017
802.923	3070
803.065	3020
803.208	2864
803.35	2933
803.492	2952
803.635	2910
803.777	2716
803.919	2838
804.061	3218
804.204	2975
804.346	2891
804.488	2834
804.63	2982
804.773	2842
804.915	2887
805.057	3077
805.199	2922
805.341	2975
805.483	3047
805.626	3020
805.768	2967
805.91	3123
806.052	3138
806.194	3005
806.336	3207
806.478	3009
806.62	2941
806.762	2998
806.904	3013
807.046	3150
807.188	2998
807.33	2910
807.472	2975
807.614	2891
807.756	2956
807.898	2937
808.04	2849
808.182	3005
808.324	2960
808.465	2872
808.607	2872
808.749	2788
808.891	2849
809.033	2960
809.174	2944
809.316	2880
809.458	2857
809.6	2781
809.741	2777
809.883	2724
810.025	2845
810.166	2876
810.308	2830
810.45	2857
810.591	2785
810.733	2746
810.875	2823
811.016	2762
811.158	2743
811.299	2845
811.441	2937
811.582	2914
811.724	2826
811.865	2857
812.007	2880
812.148	2883
812.29	2857
812.431	2853
812.573	2933
812.714	2963
812.855	3005
812.997	3013
813.138	3100
813.279	3020
813.421	2982
813.562	2952
813.703	2906
813.845	2914
813.986	2724
814.127	2708
814.268	2819
814.41	2853
814.551	2804
814.692	2838
814.833	2807
814.974	2849
815.115	2963
815.256	2826
815.397	2781
815.539	2872
815.68	2796
815.821	2823
815.962	2914
816.103	2925
816.244	2868
816.385	2891
816.526	2975
816.666	2891
816.807	2754
816.948	2899
817.089	2929
817.23	2834
817.371	2758
817.512	2811
817.653	2830
817.793	2826
817.934	2887
818.075	2922
818.216	2975
818.356	3039
818.497	2868
818.638	2777
818.778	2796
818.919	2781
819.06	2743
819.2	2864
819.341	2838
819.481	2766
819.622	2944
819.762	3081
819.903	3066
820.043	2933
820.184	2895
820.324	2902
820.465	2994
820.605	3043
820.746	3009
820.886	2929
821.026	3085
821.167	3169
821.307	3226
821.447	3283
821.588	3233
821.728	3199
821.868	3176
822.008	3070
822.149	3165
822.289	3237
822.429	3051
822.569	3085
822.709	3176
822.849	3032
822.99	3085
823.13	3161
823.27	3195
823.41	3093
823.55	3108
823.69	3112
823.83	3161
823.97	3093
824.11	2990
824.25	2967
824.389	3055
824.529	3108
824.669	3074
824.809	3207
824.949	3233
825.089	3188
825.228	3146
825.368	3032
825.508	2944
825.648	2948
825.787	2986
825.927	3028
826.067	2979
826.206	2925
826.346	3020
826.485	3089
826.625	3104
826.765	3260
826.904	3211
827.044	2986
827.183	2941
827.323	2845
827.462	2990
827.601	2929
827.741	2941
827.88	2975
828.02	2819
828.159	3009
828.298	3055
828.437	3100
828.577	3013
828.716	3237
828.855	3081
828.994	2914
829.134	2868
829.273	2948
829.412	2868
829.551	2861
829.69	2891
829.829	2956
829.968	3131
830.107	3039
830.246	3036
830.385	2891
830.524	2861
830.663	2815
830.802	2716
830.941	2621
831.08	2613
831.219	2762
831.357	2735
831.496	2967
831.635	2697
831.774	2636
831.913	2670
832.051	2579
832.19	2598
832.329	2659
832.467	2530
832.606	2457
832.744	2583
832.883	2541
833.022	2598
833.16	2667
833.299	2670
833.437	2659
833.576	2693
833.714	2716
833.852	2712
833.991	2762
834.129	2845
834.267	2849
834.406	2792
834.544	2838
834.682	2861
834.821	2868
834.959	3062
835.097	2864
835.235	3089
835.373	2994
835.511	3005
835.65	2963
835.788	2967
835.926	2792
836.064	2800
836.202	2853
836.34	3085
836.478	3108
836.615	3032
836.753	3127
836.891	3157
837.029	3173
837.167	3112
837.305	3066
837.443	3077
837.58	2929
837.718	3157
837.856	3020
837.993	3032
838.131	3135
838.269	3077
838.406	3066
838.544	3089
838.681	2941
838.819	2906
838.956	2811
839.094	2823
839.231	2895
839.369	3032
839.506	3344
839.643	3195
839.781	2994
839.918	2986
840.055	3013
840.193	3024
840.33	3085
840.467	3062
840.604	3154
840.742	3389
840.879	3055
841.016	3039
841.153	3100
841.29	3313
841.427	3291
841.564	3268
841.701	3313
841.838	3226
841.975	3142
842.112	3203
842.249	3077
842.385	3005
842.522	3237
842.659	3077
842.796	3047
842.933	3081
843.069	3055
843.206	3039
843.343	3188
843.479	3108
843.616	3112
843.752	2895
843.889	2895
844.025	3104
844.162	2861
844.298	3074
844.435	2941
844.571	2895
844.708	3062
844.844	3173
844.98	3203
845.117	3188
845.253	3074
845.389	2979
845.525	3112
845.661	3100
845.798	3001
845.934	3100
846.07	3051
846.206	3230
846.342	3325
846.478	3222
846.614	3097
846.75	3043
846.886	3024
847.022	3226
847.158	3112
847.294	3157
847.429	3256
847.565	3214
847.701	3473
847.837	3028
847.972	3001
848.108	3161
848.244	3123
848.379	2952
848.515	2929
848.65	2960
848.786	2937
848.921	2979
849.057	3085
849.192	3142
849.328	3077
849.463	3119
849.598	3081
849.734	3028
849.869	2975
850.004	2925
850.14	2975
850.275	2910
850.41	2815
850.545	2880
850.68	2933
850.815	2933
850.95	2948
851.085	3195
851.22	3127
851.355	3024
851.49	2952
851.625	2986
851.76	3013
851.895	2948
852.03	2857
852.165	3047
852.299	3093
852.434	3195
852.569	3108
852.703	3161
852.838	3241
852.973	3332
853.107	3310
853.242	3161
853.376	3089
853.511	2960
853.645	3047
853.78	3237
853.914	3081
854.048	3112
854.183	3058
854.317	3119
854.451	3298
854.585	3161
854.72	3047
854.854	3203
854.988	3024
855.122	3085
855.256	3017
855.39	3112
855.524	3203
855.658	3192
855.792	3154
855.926	3218
856.06	3211
856.194	3256
856.327	3119
856.461	3043
856.595	3089
856.729	3089
856.862	3195
856.996	3169
857.13	3138
857.263	3230
857.397	3283
857.53	3085
857.664	3195
857.797	3199
857.931	3287
858.064	3150
858.197	3226
858.331	3104
858.464	3066
858.597	2963
858.731	3123
858.864	3108
858.997	3039
859.13	3138
859.263	3138
859.396	3203
859.529	3093
859.662	3077
859.795	3058
859.928	3119
860.061	3245
860.194	3272
860.327	3135
860.46	3100
860.592	3195
860.725	3233
860.858	3207
860.99	3081
861.123	3032
861.256	3055
861.388	3131
861.521	3831
861.653	2994
861.786	3005
861.918	2975
862.05	3081
862.183	3077
862.315	3142
862.447	3154
862.58	3077
862.712	2963
862.844	2842
862.976	3009
863.108	2979
863.24	3412
863.372	2887
863.504	2956
863.636	2941
863.768	3013
863.9	2952
864.032	2880
864.164	2982
864.296	3017
864.428	3100
864.559	3074
864.691	3066
864.823	3066
864.954	3032
865.086	3013
865.217	2967
865.349	2967
865.48	2990
865.612	3005
865.743	3138
865.875	2975
866.006	2925
866.137	2979
866.269	2971
866.4	2914
866.531	2899
866.662	2902
866.793	2891
866.924	2895
867.055	2975
867.186	2910
867.317	2887
867.448	2842
867.579	2800
867.71	2773
867.841	2811
867.972	2895
868.103	2880
868.233	2861
868.364	2861
868.495	2910
868.625	3066
868.756	3157
868.886	2956
869.017	3036
869.147	3173
869.278	3146
869.408	2998
869.539	3020
869.669	3066
869.799	3024
869.929	3157
870.06	3077
870.19	3340
870.32	3268
870.45	3294
870.58	3382
870.71	3458
870.84	3443
870.97	3249
871.1	3226
871.23	3462
871.36	3439
871.489	3325
871.619	3393
871.749	3389
871.879	3416
872.008	3477
872.138	3367
872.267	3287
872.397	3146
872.526	3070
872.656	3039
872.785	3127
872.915	3226
873.044	3253
873.173	3214
873.303	3253
873.432	3237
873.561	3283
873.69	3180
873.819	3127
873.948	3188
874.077	3074
874.206	3047
874.335	3058
874.464	3214
874.593	3378
874.722	3241
874.851	3397
874.979	3336
875.108	3325
875.237	3203
875.365	3150
875.494	3146
875.623	3241
875.751	3070
875.88	3097
876.008	3237
876.136	3237
876.265	3348
876.393	3511
876.521	3340
876.65	3336
876.778	3340
876.906	3241
877.034	3188
877.162	3260
877.29	3180
877.418	3233
877.546	3268
877.674	3203
877.802	3222
877.93	3211
878.058	3150
878.185	3085
878.313	3161
878.441	3184
878.568	3047
878.696	3169
878.824	3253
878.951	3348
879.079	3424
879.206	3580
879.333	3428
879.461	3306
879.588	3310
879.715	3428
879.842	3603
879.97	3340
880.097	3127
880.224	3135
880.351	3184
880.478	3165
880.605	3199
880.732	3165
880.859	3466
880.986	3313
881.112	3283
881.239	3192
881.366	3077
881.493	3032
881.619	3032
881.746	3070
881.872	3047
881.999	3116
882.125	3127
882.252	3214
882.378	3268
882.505	3389
882.631	3253
882.757	3184
882.883	3157
883.01	3203
883.136	3161
883.262	3138
883.388	3097
883.514	3249
883.64	3355
883.766	3283
883.892	3161
884.018	3237
884.143	3363
884.269	3511
884.395	3226
884.52	3157
884.646	3192
884.772	3077
884.897	3116
885.023	3192
885.148	3310
885.274	3374
885.399	3340
885.524	3283
885.65	3249
885.775	3298
885.9	3279
886.025	3412
886.15	3382
886.275	3272
886.4	3218
886.525	3321
886.65	3230
886.775	3260
886.9	3500
887.025	3652
887.149	3389
887.274	3253
887.399	3123
887.523	3176
887.648	3157
887.773	3135
887.897	3321
888.021	3378
888.146	3306
888.27	3428
888.395	3511
888.519	3420
888.643	3447
888.767	3466
888.891	3313
889.015	3237
889.139	3253
889.263	3222
889.387	3443
889.511	3488
889.635	3454
889.759	3275
889.883	3268
890.006	3367
890.13	3481
890.254	3256
890.377	3340
890.501	3180
890.624	3176
890.748	3291
890.871	3165
890.995	3074
891.118	3039
891.241	3169
891.364	3195
891.488	3279
891.611	3165
891.734	3192
891.857	3256
891.98	3199
892.103	3313
892.226	3233
892.349	3230
892.471	3116
892.594	3253
892.717	3283
892.839	3245
892.962	3249
893.085	3351
893.207	3298
893.33	3146
893.452	3169
893.575	3306
893.697	3249
893.819	3443
893.941	3511
894.064	3473
894.186	3253
894.308	3253
894.43	3454
894.552	3542
894.674	3458
894.796	3249
894.918	3344
895.04	3287
895.161	3431
895.283	3401
895.405	3294
895.526	3351
895.648	3405
895.769	3412
895.891	3428
896.012	3488
896.134	3488
896.255	3416
896.376	3397
896.498	3389
896.619	3454
896.74	3393
896.861	3435
896.982	3694
897.103	3854
897.224	3629
897.345	3557
897.466	3469
897.587	3523
897.708	3629
897.828	3568
897.949	3447
898.07	3382
898.19	3409
898.311	3629
898.431	3477
898.552	3519
898.672	3656
898.792	3633
898.913	3606
899.033	3416
899.153	3340
899.273	3291
899.393	3325
899.513	3348
899.633	3363
899.753	3351
899.873	3351
899.993	3420
900.113	3351
900.232	3428
900.352	3374
900.472	3329
900.591	3226
900.711	3344
900.83	3264
900.95	3409
901.069	3576
901.189	3420
901.308	3237
901.427	3173
901.546	3199
901.665	3329
901.784	3397
901.904	3237
902.023	3157
902.141	3039
902.26	3066
902.379	3154
902.498	3104
902.617	3081
902.735	3237
902.854	3272
902.973	3214
903.091	3081
903.21	3123
903.328	3192
903.446	3165
903.565	3100
903.683	3260
903.801	3154
903.919	3268
904.038	3340
904.156	3192
904.274	3321
904.392	3272
904.51	3302
904.627	3397
904.745	3469
904.863	3561
904.981	3279
905.098	3199
905.216	3268
905.334	3367
905.451	3344
905.569	3317
905.686	3492
905.803	3469
905.921	3306
906.038	3458
906.155	3382
906.272	3294
906.389	3382
906.506	3264
906.623	3287
906.74	3272
906.857	3237
906.974	3317
907.091	3496
907.208	3564
907.324	3534
907.441	3435
907.557	3268
907.674	3264
907.79	3214
907.907	3291
908.023	3412
908.139	3409
908.256	3370
908.372	3351
908.488	3420
908.604	3283
908.72	3249
908.836	3310
908.952	3310
909.068	3348
909.184	3549
909.3	3428
909.415	3534
909.531	3466
909.647	3306
909.762	3370
909.878	3306
909.993	3348
910.108	3355
910.224	3355
910.339	3412
910.454	3363
910.57	3332
910.685	3287
910.8	3633
910.915	3580
911.03	3458
911.145	3294
911.259	3332
911.374	3355
911.489	3279
911.604	3237
911.718	3138
911.833	3173
911.947	3051
912.062	3017
912.176	3173
912.291	3211
912.405	3230
912.519	3435
912.633	3469
912.748	3344
912.862	3268
912.976	3199
913.09	3077
913.204	3169
913.318	3226
913.431	3336
913.545	3355
913.659	3416
913.772	3344
913.886	3218
914	3245
914.113	3363
914.226	3435
914.34	3416
914.453	3211
914.566	3450
914.68	3298
914.793	3374
914.906	3165
915.019	3093
915.132	3077
915.245	3203
915.358	3241
915.47	3241
915.583	3275
915.696	3351
915.809	3439
915.921	3469
916.034	3264
916.146	3317
916.259	3260
916.371	3443
916.483	3420
916.595	3321
916.708	3344
916.82	3382
916.932	3389
917.044	3382
917.156	3386
917.268	3245
917.38	3317
917.491	3340
917.603	3405
917.715	3447
917.826	3519
917.938	3409
918.049	3302
918.161	3458
918.272	3606
918.384	3603
918.495	3530
918.606	3336
918.717	3302
918.828	3401
918.939	3409
919.05	3329
919.161	3378
919.272	3207
919.383	3306
919.494	3538
919.604	3762
919.715	3511
919.826	3466
919.936	3507
920.047	3637
920.157	3557
920.267	3819
920.378	3606
920.488	3603
920.598	3778
920.708	4021
920.818	3838
920.928	3846
921.038	4078
921.148	3972
921.258	3720
921.368	3686
921.477	3580
921.587	3568
921.697	3462
921.806	3656
921.916	3538
922.025	3420
922.134	3389
922.244	3329
922.353	3454
922.462	3344
922.571	3222
922.68	3135
922.789	3066
922.898	3154
923.007	3142
923.116	3207
923.224	3195
923.333	3226
923.442	3161
923.55	3066
923.659	3180
923.767	3230
923.876	3169
923.984	3279
924.092	3127
924.201	3218
924.309	3222
924.417	3313
924.525	3211
924.633	3249
924.741	4002
924.849	3089
924.956	3283
925.064	3116
925.172	3138
925.279	3093
925.387	3233
925.494	3226
925.602	3405
925.709	3340
925.816	3184
925.924	3291
926.031	3340
926.138	3359
926.245	3386
926.352	3260
926.459	3424
926.566	3462
926.673	3336
926.779	3241
926.886	3207
926.993	3211
927.099	3127
927.206	3127
927.312	3135
927.419	3283
927.525	3241
927.631	3306
927.737	3176
927.843	3161
927.95	3036
928.056	3176
928.162	3188
928.267	3287
928.373	3835
928.479	3389
928.585	3119
928.69	3237
928.796	3321
928.901	3226
929.007	3055
929.112	3233
929.218	3226
929.323	3150
929.428	3157
929.533	3310
929.638	3161
929.743	3176
929.848	3264
929.953	3226
930.058	3146
930.163	3009
930.267	3036
930.372	3245
930.477	3081
930.581	3359
930.685	3211
930.79	3085
930.894	3119
930.998	3097
931.103	3291
931.207	2990
931.311	2990
931.415	2944
931.519	2815
931.623	2815
