Data from test_V78500241_1372.txt Node
Date: Fri Mar 25 16:24:42 CST 2022
User: usil
Spectrometer: V785-0024
Trigger mode: 0
Integration Time (sec): 4.000000E-1
Scans to average: 1
Nonlinearity correction enabled: false
Boxcar width: 0
Storing dark spectrum: false
XAxis mode: Wavelengths
Number of Pixels in Spectrum: 1024
>>>>>Begin Spectral Data<<<<<
801.071	2853
801.214	2952
801.356	2914
801.499	2845
801.641	2842
801.783	2914
801.926	3036
802.068	2960
802.211	3036
802.353	3024
802.496	2967
802.638	2982
802.78	3013
802.923	3070
803.065	2998
803.208	2876
803.35	2902
803.492	2910
803.635	2948
803.777	2762
803.919	2834
804.061	3211
804.204	2975
804.346	2883
804.488	2861
804.63	2986
804.773	2864
804.915	2910
805.057	3108
805.199	2937
805.341	2906
805.483	3017
805.626	2990
805.768	2948
805.91	3058
806.052	3131
806.194	3081
806.336	3230
806.478	2994
806.62	2944
806.762	2944
806.904	3058
807.046	3146
807.188	3005
807.33	2929
807.472	2979
807.614	2910
807.756	2990
807.898	2929
808.04	2918
808.182	2979
808.324	2952
808.465	2883
808.607	2891
808.749	2815
808.891	2834
809.033	2998
809.174	2944
809.316	2925
809.458	2876
809.6	2769
809.741	2773
809.883	2750
810.025	2868
810.166	2845
810.308	2819
810.45	2845
810.591	2804
810.733	2788
810.875	2823
811.016	2773
811.158	2758
811.299	2811
811.441	2895
811.582	2925
811.724	2861
811.865	2807
812.007	2914
812.148	2876
812.29	2899
812.431	2864
812.573	2925
812.714	2960
812.855	3051
812.997	3036
813.138	3116
813.279	3028
813.421	2979
813.562	2941
813.703	2876
813.845	2876
813.986	2754
814.127	2716
814.268	2788
814.41	2864
814.551	2804
814.692	2891
814.833	2804
814.974	2895
815.115	2960
815.256	2804
815.397	2785
815.539	2864
815.68	2750
815.821	2777
815.962	2956
816.103	2937
816.244	2876
816.385	2830
816.526	2971
816.666	2929
816.807	2735
816.948	2895
817.089	2941
817.23	2872
817.371	2800
817.512	2823
817.653	2823
817.793	2853
817.934	2925
818.075	2967
818.216	2986
818.356	3009
818.497	2857
818.638	2807
818.778	2781
818.919	2800
819.06	2754
819.2	2868
819.341	2800
819.481	2800
819.622	2956
819.762	3081
819.903	3036
820.043	2906
820.184	2891
820.324	2883
820.465	3001
820.605	3028
820.746	3051
820.886	2944
821.026	3089
821.167	3157
821.307	3222
821.447	3218
821.588	3222
821.728	3199
821.868	3207
822.008	3058
822.149	3176
822.289	3207
822.429	3081
822.569	3062
822.709	3188
822.849	3005
822.99	3081
823.13	3146
823.27	3173
823.41	3108
823.55	3150
823.69	3165
823.83	3173
823.97	3081
824.11	3009
824.25	2990
824.389	3055
824.529	3066
824.669	3028
824.809	3233
824.949	3272
825.089	3203
825.228	3135
825.368	2994
825.508	2952
825.648	2971
825.787	3043
825.927	3032
826.067	2952
826.206	2971
826.346	3047
826.485	3081
826.625	3089
826.765	3264
826.904	3214
827.044	2982
827.183	2948
827.323	2876
827.462	2990
827.601	2883
827.741	2952
827.88	2902
828.02	2845
828.159	2971
828.298	3036
828.437	3089
828.577	3036
828.716	3237
828.855	3074
828.994	2906
829.134	2918
829.273	2937
829.412	2849
829.551	2861
829.69	2872
829.829	2990
829.968	3123
830.107	2986
830.246	2971
830.385	2922
830.524	2883
830.663	2834
830.802	2720
830.941	2682
831.08	2636
831.219	2762
831.357	2785
831.496	2960
831.635	2674
831.774	2640
831.913	2629
832.051	2552
832.19	2575
832.329	2651
832.467	2518
832.606	2457
832.744	2587
832.883	2575
833.022	2590
833.16	2610
833.299	2686
833.437	2697
833.576	2697
833.714	2686
833.852	2678
833.991	2735
834.129	2838
834.267	2823
834.406	2762
834.544	2857
834.682	2902
834.821	2880
834.959	3070
835.097	2895
835.235	3058
835.373	2971
835.511	3009
835.65	2941
835.788	2925
835.926	2800
836.064	2815
836.202	2845
836.34	3066
836.478	3154
836.615	3024
836.753	3119
836.891	3184
837.029	3169
837.167	3108
837.305	3024
837.443	3062
837.58	2971
837.718	3100
837.856	3074
837.993	3036
838.131	3131
838.269	3100
838.406	3123
838.544	3100
838.681	2906
838.819	2941
838.956	2815
839.094	2823
839.231	2899
839.369	3001
839.506	3355
839.643	3233
839.781	2975
839.918	2979
840.055	3024
840.193	3028
840.33	3108
840.467	3100
840.604	3154
840.742	3439
840.879	3043
841.016	3028
841.153	3089
841.29	3340
841.427	3272
841.564	3287
841.701	3329
841.838	3188
841.975	3188
842.112	3203
842.249	3039
842.385	3024
842.522	3253
842.659	3089
842.796	3051
842.933	3127
843.069	3062
843.206	3028
843.343	3192
843.479	3074
843.616	3093
843.752	2902
843.889	2861
844.025	3051
844.162	2872
844.298	3051
844.435	2956
844.571	2910
844.708	3032
844.844	3199
844.98	3230
845.117	3195
845.253	3085
845.389	2967
845.525	3104
845.661	3089
845.798	3039
845.934	3104
846.07	3070
846.206	3195
846.342	3294
846.478	3192
846.614	3104
846.75	3036
846.886	3024
847.022	3211
847.158	3089
847.294	3211
847.429	3207
847.565	3230
847.701	3466
847.837	3013
847.972	2944
848.108	3142
848.244	3100
848.379	3001
848.515	2952
848.65	2910
848.786	2975
848.921	3024
849.057	3104
849.192	3142
849.328	3039
849.463	3116
849.598	3017
849.734	3039
849.869	2960
850.004	2933
850.14	2971
850.275	2899
850.41	2796
850.545	2872
850.68	2902
850.815	2971
850.95	2982
851.085	3142
851.22	3074
851.355	3028
851.49	2952
851.625	2998
851.76	3047
851.895	2914
852.03	2880
852.165	3009
852.299	3097
852.434	3173
852.569	3127
852.703	3169
852.838	3279
852.973	3351
853.107	3325
853.242	3161
853.376	3081
853.511	2975
853.645	3047
853.78	3199
853.914	3104
854.048	3104
854.183	3074
854.317	3135
854.451	3256
854.585	3116
854.72	3081
854.854	3195
854.988	3009
855.122	3108
855.256	2925
855.39	3127
855.524	3230
855.658	3157
855.792	3127
855.926	3176
856.06	3287
856.194	3283
856.327	3188
856.461	3081
856.595	3081
856.729	3112
856.862	3169
856.996	3116
857.13	3195
857.263	3226
857.397	3199
857.53	3089
857.664	3214
857.797	3214
857.931	3241
858.064	3154
858.197	3211
858.331	3112
858.464	3074
858.597	2979
858.731	3100
858.864	3112
858.997	3131
859.13	3123
859.263	3161
859.396	3173
859.529	3058
859.662	3093
859.795	3028
859.928	3123
860.061	3272
860.194	3241
860.327	3116
860.46	3074
860.592	3226
860.725	3237
860.858	3241
860.99	3089
861.123	3043
861.256	3043
861.388	3127
861.521	3740
861.653	3024
861.786	2933
861.918	3017
862.05	3070
862.183	3112
862.315	3112
862.447	3203
862.58	3085
862.712	2941
862.844	2868
862.976	3001
863.108	3005
863.24	3283
863.372	2895
863.504	2937
863.636	2975
863.768	3055
863.9	2956
864.032	2918
864.164	2922
864.296	3001
864.428	3097
864.559	3100
864.691	3062
864.823	3074
864.954	3013
865.086	3051
865.217	2986
865.349	2948
865.48	2982
865.612	3028
865.743	3199
865.875	2952
866.006	2941
866.137	2979
866.269	2971
866.4	2925
866.531	2941
866.662	2868
866.793	2876
866.924	2925
867.055	2982
867.186	2929
867.317	2880
867.448	2834
867.579	2815
867.71	2826
867.841	2834
867.972	2948
868.103	2902
868.233	2868
868.364	2864
868.495	2906
868.625	3051
868.756	3188
868.886	2956
869.017	3013
869.147	3184
869.278	3142
869.408	3066
869.539	2960
869.669	3100
869.799	3020
869.929	3154
870.06	3100
870.19	3306
870.32	3268
870.45	3298
870.58	3367
870.71	3424
870.84	3416
870.97	3275
871.1	3241
871.23	3473
871.36	3424
871.489	3325
871.619	3382
871.749	3382
871.879	3409
872.008	3496
872.138	3382
872.267	3260
872.397	3127
872.526	3104
872.656	3020
872.785	3138
872.915	3207
873.044	3332
873.173	3249
873.303	3241
873.432	3245
873.561	3199
873.69	3142
873.819	3180
873.948	3173
874.077	3135
874.206	3013
874.335	3077
874.464	3218
874.593	3317
874.722	3237
874.851	3382
874.979	3329
875.108	3294
875.237	3157
875.365	3180
875.494	3135
875.623	3264
875.751	3047
875.88	3104
876.008	3199
876.136	3199
876.265	3359
876.393	3500
876.521	3367
876.65	3405
876.778	3355
876.906	3233
877.034	3203
877.162	3237
877.29	3157
877.418	3226
877.546	3230
877.674	3230
877.802	3241
877.93	3218
878.058	3127
878.185	3119
878.313	3214
878.441	3233
878.568	3047
878.696	3131
878.824	3233
878.951	3283
879.079	3435
879.206	3641
879.333	3458
879.461	3298
879.588	3348
879.715	3450
879.842	3557
879.97	3378
880.097	3165
880.224	3154
880.351	3161
880.478	3199
880.605	3195
880.732	3161
880.859	3500
880.986	3310
881.112	3302
881.239	3230
881.366	3085
881.493	3036
881.619	3028
881.746	3047
881.872	3093
881.999	3085
882.125	3150
882.252	3272
882.378	3272
882.505	3412
882.631	3256
882.757	3138
882.883	3176
883.01	3249
883.136	3161
883.262	3085
883.388	3127
883.514	3313
883.64	3363
883.766	3310
883.892	3161
884.018	3214
884.143	3397
884.269	3496
884.395	3192
884.52	3157
884.646	3138
884.772	3135
884.897	3138
885.023	3226
885.148	3325
885.274	3382
885.399	3336
885.524	3291
885.65	3298
885.775	3325
885.9	3272
886.025	3412
886.15	3378
886.275	3310
886.4	3203
886.525	3279
886.65	3268
886.775	3298
886.9	3481
887.025	3637
887.149	3424
887.274	3237
887.399	3165
887.523	3218
887.648	3165
887.773	3222
887.897	3386
888.021	3393
888.146	3325
888.27	3393
888.395	3526
888.519	3439
888.643	3431
888.767	3439
888.891	3355
889.015	3275
889.139	3283
889.263	3226
889.387	3374
889.511	3485
889.635	3466
889.759	3260
889.883	3325
890.006	3367
890.13	3443
890.254	3249
890.377	3313
890.501	3218
890.624	3169
890.748	3272
890.871	3169
890.995	3089
891.118	3070
891.241	3176
891.364	3241
891.488	3340
891.611	3180
891.734	3207
891.857	3260
891.98	3233
892.103	3306
892.226	3275
892.349	3211
892.471	3131
892.594	3245
892.717	3291
892.839	3249
892.962	3283
893.085	3382
893.207	3306
893.33	3146
893.452	3192
893.575	3321
893.697	3241
893.819	3450
893.941	3454
894.064	3420
894.186	3237
894.308	3260
894.43	3412
894.552	3568
894.674	3466
894.796	3272
894.918	3329
895.04	3268
895.161	3386
895.283	3386
895.405	3294
895.526	3393
895.648	3416
895.769	3428
895.891	3458
896.012	3424
896.134	3488
896.255	3428
896.376	3416
896.498	3359
896.619	3447
896.74	3351
896.861	3386
896.982	3663
897.103	3808
897.224	3591
897.345	3507
897.466	3447
897.587	3477
897.708	3633
897.828	3530
897.949	3454
898.07	3306
898.19	3393
898.311	3584
898.431	3424
898.552	3530
898.672	3625
898.792	3572
898.913	3492
899.033	3420
899.153	3275
899.273	3199
899.393	3275
899.513	3344
899.633	3317
899.753	3332
899.873	3363
899.993	3340
900.113	3287
900.232	3382
900.352	3363
900.472	3268
900.591	3184
900.711	3325
900.83	3222
900.95	3424
901.069	3507
901.189	3359
901.308	3161
901.427	3138
901.546	3192
901.665	3272
901.784	3348
901.904	3207
902.023	3150
902.141	3036
902.26	2967
902.379	3119
902.498	3119
902.617	3036
902.735	3188
902.854	3226
902.973	3195
903.091	3036
903.21	3070
903.328	3135
903.446	3119
903.565	3077
903.683	3207
903.801	3104
903.919	3275
904.038	3291
904.156	3135
904.274	3275
904.392	3253
904.51	3325
904.627	3329
904.745	3454
904.863	3477
904.981	3233
905.098	3154
905.216	3233
905.334	3272
905.451	3332
905.569	3275
905.686	3420
905.803	3397
905.921	3302
906.038	3401
906.155	3351
906.272	3256
906.389	3325
906.506	3245
906.623	3260
906.74	3279
906.857	3165
906.974	3256
907.091	3485
907.208	3542
907.324	3469
907.441	3378
907.557	3188
907.674	3154
907.79	3195
907.907	3287
908.023	3355
908.139	3386
908.256	3306
908.372	3340
908.488	3397
908.604	3256
908.72	3233
908.836	3260
908.952	3275
909.068	3344
909.184	3473
909.3	3363
909.415	3549
909.531	3439
909.647	3272
909.762	3298
909.878	3275
909.993	3363
910.108	3306
910.224	3291
910.339	3431
910.454	3325
910.57	3287
910.685	3214
910.8	3595
910.915	3488
911.03	3409
911.145	3264
911.259	3249
911.374	3340
911.489	3226
911.604	3222
911.718	3131
911.833	3154
911.947	3005
912.062	2956
912.176	3138
912.291	3188
912.405	3195
912.519	3435
912.633	3462
912.748	3340
912.862	3245
912.976	3165
913.09	3058
913.204	3142
913.318	3203
913.431	3340
913.545	3332
913.659	3409
913.772	3294
913.886	3207
914	3203
914.113	3340
914.226	3435
914.34	3359
914.453	3233
914.566	3405
914.68	3264
914.793	3313
914.906	3131
915.019	3097
915.132	3077
915.245	3176
915.358	3199
915.47	3180
915.583	3245
915.696	3260
915.809	3367
915.921	3401
916.034	3302
916.146	3241
916.259	3230
916.371	3393
916.483	3382
916.595	3268
916.708	3344
916.82	3363
916.932	3329
917.044	3332
917.156	3332
917.268	3233
917.38	3264
917.491	3317
917.603	3332
917.715	3397
917.826	3462
917.938	3370
918.049	3287
918.161	3401
918.272	3561
918.384	3561
918.495	3488
918.606	3367
918.717	3256
918.828	3367
918.939	3401
919.05	3294
919.161	3355
919.272	3203
919.383	3294
919.494	3511
919.604	3679
919.715	3492
919.826	3393
919.936	3469
920.047	3622
920.157	3523
920.267	3759
920.378	3610
920.488	3599
920.598	3793
920.708	3979
920.818	3808
920.928	3865
921.038	3972
921.148	3994
921.258	3724
921.368	3663
921.477	3564
921.587	3561
921.697	3458
921.806	3603
921.916	3523
922.025	3355
922.134	3359
922.244	3344
922.353	3397
922.462	3279
922.571	3207
922.68	3119
922.789	3089
922.898	3150
923.007	3081
923.116	3203
923.224	3195
923.333	3169
923.442	3100
923.55	3085
923.659	3195
923.767	3207
923.876	3131
923.984	3203
924.092	3074
924.201	3203
924.309	3226
924.417	3241
924.525	3199
924.633	3253
924.741	4025
924.849	3047
924.956	3264
925.064	3093
925.172	3074
925.279	3085
925.387	3154
925.494	3245
925.602	3329
925.709	3325
925.816	3214
925.924	3253
926.031	3405
926.138	3329
926.245	3340
926.352	3256
926.459	3405
926.566	3469
926.673	3310
926.779	3214
926.886	3222
926.993	3165
927.099	3123
927.206	3150
927.312	3077
927.419	3230
927.525	3245
927.631	3226
927.737	3097
927.843	3135
927.95	3055
928.056	3093
928.162	3184
928.267	3279
928.373	3869
928.479	3313
928.585	3070
928.69	3222
928.796	3272
928.901	3150
929.007	3028
929.112	3184
929.218	3218
929.323	3154
929.428	3135
929.533	3294
929.638	3100
929.743	3165
929.848	3253
929.953	3203
930.058	3127
930.163	3009
930.267	3085
930.372	3211
930.477	3058
930.581	3272
930.685	3192
930.79	3009
930.894	3146
930.998	3100
931.103	3260
931.207	2963
931.311	2937
931.415	2929
931.519	2769
931.623	2769
