Data from test_V78500241_159.txt Node
Date: Fri Mar 25 16:16:18 CST 2022
User: usil
Spectrometer: V785-0024
Trigger mode: 0
Integration Time (sec): 4.000000E-1
Scans to average: 1
Nonlinearity correction enabled: false
Boxcar width: 0
Storing dark spectrum: false
XAxis mode: Wavelengths
Number of Pixels in Spectrum: 1024
>>>>>Begin Spectral Data<<<<<
801.071	2990
801.214	2952
801.356	2899
801.499	2963
801.641	2922
801.783	2967
801.926	3077
802.068	3020
802.211	3047
802.353	3055
802.496	3032
802.638	3070
802.78	3085
802.923	3131
803.065	3028
803.208	2902
803.35	2948
803.492	2960
803.635	2975
803.777	2788
803.919	2887
804.061	3272
804.204	2990
804.346	2941
804.488	2864
804.63	3043
804.773	2906
804.915	2941
805.057	3142
805.199	2986
805.341	3028
805.483	3081
805.626	3020
805.768	3047
805.91	3108
806.052	3150
806.194	3043
806.336	3310
806.478	3051
806.62	2975
806.762	2990
806.904	3123
807.046	3207
807.188	2990
807.33	3017
807.472	3009
807.614	2937
807.756	2986
807.898	2952
808.04	2922
808.182	3024
808.324	2990
808.465	2914
808.607	2918
808.749	2826
808.891	2845
809.033	2967
809.174	3024
809.316	2948
809.458	2902
809.6	2800
809.741	2804
809.883	2826
810.025	2872
810.166	2876
810.308	2830
810.45	2895
810.591	2807
810.733	2766
810.875	2899
811.016	2815
811.158	2823
811.299	2830
811.441	2971
811.582	2914
811.724	2845
811.865	2849
812.007	2944
812.148	2933
812.29	2876
812.431	2899
812.573	2937
812.714	2979
812.855	3089
812.997	3116
813.138	3116
813.279	3036
813.421	3013
813.562	2982
813.703	2925
813.845	2914
813.986	2819
814.127	2769
814.268	2849
814.41	2834
814.551	2834
814.692	2914
814.833	2815
814.974	2929
815.115	2990
815.256	2853
815.397	2883
815.539	2868
815.68	2819
815.821	2830
815.962	2941
816.103	2956
816.244	2895
816.385	2876
816.526	2956
816.666	2929
816.807	2773
816.948	2891
817.089	2944
817.23	2887
817.371	2834
817.512	2804
817.653	2899
817.793	2857
817.934	2895
818.075	2979
818.216	3058
818.356	3020
818.497	2906
818.638	2826
818.778	2883
818.919	2819
819.06	2777
819.2	2925
819.341	2811
819.481	2857
819.622	2941
819.762	3116
819.903	3062
820.043	2979
820.184	2925
820.324	2937
820.465	3070
820.605	3032
820.746	3013
820.886	2960
821.026	3116
821.167	3203
821.307	3283
821.447	3344
821.588	3294
821.728	3214
821.868	3218
822.008	3062
822.149	3203
822.289	3245
822.429	3089
822.569	3112
822.709	3230
822.849	3051
822.99	3074
823.13	3176
823.27	3233
823.41	3127
823.55	3233
823.69	3184
823.83	3214
823.97	3146
824.11	3013
824.25	3020
824.389	3074
824.529	3135
824.669	3119
824.809	3165
824.949	3268
825.089	3230
825.228	3165
825.368	3024
825.508	2963
825.648	3005
825.787	3047
825.927	3047
826.067	3051
826.206	2994
826.346	3062
826.485	3112
826.625	3119
826.765	3275
826.904	3226
827.044	3070
827.183	2941
827.323	2910
827.462	3001
827.601	2948
827.741	2941
827.88	2963
828.02	2883
828.159	3005
828.298	3062
828.437	3192
828.577	3058
828.716	3256
828.855	3108
828.994	2929
829.134	2887
829.273	2948
829.412	2914
829.551	2899
829.69	2922
829.829	3005
829.968	3157
830.107	3074
830.246	3062
830.385	2925
830.524	2910
830.663	2815
830.802	2773
830.941	2705
831.08	2689
831.219	2773
831.357	2792
831.496	2948
831.635	2705
831.774	2659
831.913	2697
832.051	2545
832.19	2621
832.329	2708
832.467	2560
832.606	2499
832.744	2590
832.883	2617
833.022	2598
833.16	2663
833.299	2716
833.437	2739
833.576	2708
833.714	2746
833.852	2773
833.991	2739
834.129	2857
834.267	2853
834.406	2819
834.544	2872
834.682	2914
834.821	2910
834.959	3062
835.097	2925
835.235	3104
835.373	3028
835.511	3070
835.65	3001
835.788	2982
835.926	2830
836.064	2845
836.202	2883
836.34	3104
836.478	3108
836.615	3104
836.753	3135
836.891	3249
837.029	3176
837.167	3112
837.305	3058
837.443	3077
837.58	2944
837.718	3180
837.856	3093
837.993	3066
838.131	3165
838.269	3161
838.406	3123
838.544	3119
838.681	2960
838.819	2952
838.956	2811
839.094	2857
839.231	2952
839.369	3047
839.506	3382
839.643	3222
839.781	3024
839.918	2975
840.055	3100
840.193	3077
840.33	3131
840.467	3100
840.604	3165
840.742	3424
840.879	3077
841.016	3051
841.153	3142
841.29	3351
841.427	3329
841.564	3287
841.701	3329
841.838	3275
841.975	3176
842.112	3230
842.249	3089
842.385	3039
842.522	3310
842.659	3070
842.796	3070
842.933	3138
843.069	3100
843.206	3074
843.343	3211
843.479	3173
843.616	3154
843.752	2929
843.889	2880
844.025	3100
844.162	2891
844.298	3047
844.435	2948
844.571	2929
844.708	3104
844.844	3192
844.98	3253
845.117	3214
845.253	3074
845.389	3051
845.525	3142
845.661	3123
845.798	3028
845.934	3150
846.07	3051
846.206	3260
846.342	3344
846.478	3268
846.614	3123
846.75	3062
846.886	3039
847.022	3287
847.158	3154
847.294	3233
847.429	3310
847.565	3226
847.701	3500
847.837	3051
847.972	3028
848.108	3195
848.244	3150
848.379	3005
848.515	2967
848.65	2994
848.786	3001
848.921	2998
849.057	3146
849.192	3165
849.328	3097
849.463	3119
849.598	3051
849.734	3070
849.869	2948
850.004	2948
850.14	2975
850.275	2918
850.41	2842
850.545	2872
850.68	2963
850.815	2963
850.95	2952
851.085	3249
851.22	3116
851.355	3077
851.49	3020
851.625	3024
851.76	3051
851.895	2952
852.03	2925
852.165	3055
852.299	3104
852.434	3199
852.569	3142
852.703	3157
852.838	3294
852.973	3374
853.107	3359
853.242	3169
853.376	3119
853.511	3009
853.645	3055
853.78	3222
853.914	3112
854.048	3062
854.183	3100
854.317	3154
854.451	3336
854.585	3161
854.72	3077
854.854	3226
854.988	3066
855.122	3074
855.256	2990
855.39	3138
855.524	3291
855.658	3203
855.792	3173
855.926	3188
856.06	3211
856.194	3291
856.327	3192
856.461	3112
856.595	3077
856.729	3116
856.862	3264
856.996	3165
857.13	3214
857.263	3249
857.397	3298
857.53	3150
857.664	3222
857.797	3275
857.931	3264
858.064	3154
858.197	3260
858.331	3142
858.464	3119
858.597	3020
858.731	3112
858.864	3150
858.997	3116
859.13	3180
859.263	3207
859.396	3203
859.529	3119
859.662	3077
859.795	3100
859.928	3192
860.061	3302
860.194	3325
860.327	3135
860.46	3104
860.592	3230
860.725	3310
860.858	3283
860.99	3135
861.123	3062
861.256	3036
861.388	3154
861.521	3755
861.653	3032
861.786	2994
861.918	3020
862.05	3066
862.183	3104
862.315	3184
862.447	3230
862.58	3116
862.712	2944
862.844	2868
862.976	3043
863.108	3036
863.24	3302
863.372	2883
863.504	2986
863.636	2975
863.768	3036
863.9	3001
864.032	2941
864.164	2956
864.296	3032
864.428	3070
864.559	3131
864.691	3097
864.823	3097
864.954	3070
865.086	3062
865.217	3005
865.349	2941
865.48	3024
865.612	3017
865.743	3161
865.875	2979
866.006	2975
866.137	2982
866.269	2990
866.4	2925
866.531	2948
866.662	2910
866.793	2922
866.924	2914
867.055	2944
867.186	2918
867.317	2891
867.448	2887
867.579	2857
867.71	2880
867.841	2864
867.972	2910
868.103	2891
868.233	2883
868.364	2891
868.495	2937
868.625	3112
868.756	3199
868.886	2986
869.017	3055
869.147	3199
869.278	3233
869.408	3066
869.539	3074
869.669	3119
869.799	3058
869.929	3161
870.06	3123
870.19	3332
870.32	3291
870.45	3325
870.58	3374
870.71	3469
870.84	3507
870.97	3313
871.1	3264
871.23	3504
871.36	3496
871.489	3336
871.619	3473
871.749	3435
871.879	3450
872.008	3523
872.138	3389
872.267	3283
872.397	3138
872.526	3097
872.656	3005
872.785	3104
872.915	3241
873.044	3389
873.173	3245
873.303	3268
873.432	3264
873.561	3291
873.69	3161
873.819	3138
873.948	3260
874.077	3074
874.206	3085
874.335	3100
874.464	3218
874.593	3367
874.722	3222
874.851	3386
874.979	3340
875.108	3363
875.237	3180
875.365	3222
875.494	3226
875.623	3275
875.751	3100
875.88	3108
876.008	3214
876.136	3253
876.265	3393
876.393	3496
876.521	3405
876.65	3416
876.778	3355
876.906	3256
877.034	3218
877.162	3325
877.29	3203
877.418	3241
877.546	3260
877.674	3268
877.802	3298
877.93	3253
878.058	3169
878.185	3112
878.313	3226
878.441	3218
878.568	3081
878.696	3169
878.824	3253
878.951	3306
879.079	3496
879.206	3667
879.333	3416
879.461	3367
879.588	3370
879.715	3523
879.842	3591
879.97	3389
880.097	3180
880.224	3146
880.351	3176
880.478	3188
880.605	3218
880.732	3211
880.859	3511
880.986	3317
881.112	3336
881.239	3226
881.366	3119
881.493	3055
881.619	3017
881.746	3093
881.872	3104
881.999	3097
882.125	3146
882.252	3275
882.378	3275
882.505	3466
882.631	3294
882.757	3176
882.883	3211
883.01	3249
883.136	3142
883.262	3116
883.388	3154
883.514	3336
883.64	3378
883.766	3321
883.892	3195
884.018	3230
884.143	3450
884.269	3591
884.395	3279
884.52	3192
884.646	3142
884.772	3131
884.897	3142
885.023	3214
885.148	3363
885.274	3450
885.399	3382
885.524	3310
885.65	3283
885.775	3348
885.9	3291
886.025	3477
886.15	3374
886.275	3310
886.4	3226
886.525	3302
886.65	3310
886.775	3329
886.9	3534
887.025	3622
887.149	3447
887.274	3268
887.399	3192
887.523	3184
887.648	3237
887.773	3207
887.897	3389
888.021	3447
888.146	3291
888.27	3496
888.395	3584
888.519	3431
888.643	3466
888.767	3473
888.891	3348
889.015	3211
889.139	3310
889.263	3226
889.387	3405
889.511	3515
889.635	3469
889.759	3306
889.883	3275
890.006	3405
890.13	3477
890.254	3245
890.377	3348
890.501	3233
890.624	3176
890.748	3317
890.871	3226
890.995	3123
891.118	3070
891.241	3233
891.364	3272
891.488	3325
891.611	3176
891.734	3207
891.857	3275
891.98	3245
892.103	3348
892.226	3340
892.349	3264
892.471	3097
892.594	3279
892.717	3294
892.839	3287
892.962	3298
893.085	3397
893.207	3310
893.33	3165
893.452	3241
893.575	3374
893.697	3253
893.819	3458
893.941	3538
894.064	3435
894.186	3256
894.308	3287
894.43	3473
894.552	3545
894.674	3485
894.796	3260
894.918	3359
895.04	3306
895.161	3401
895.283	3405
895.405	3336
895.526	3386
895.648	3431
895.769	3443
895.891	3473
896.012	3477
896.134	3469
896.255	3428
896.376	3386
896.498	3348
896.619	3466
896.74	3363
896.861	3428
896.982	3709
897.103	3857
897.224	3629
897.345	3530
897.466	3443
897.587	3488
897.708	3633
897.828	3526
897.949	3454
898.07	3370
898.19	3420
898.311	3622
898.431	3466
898.552	3519
898.672	3584
898.792	3580
898.913	3580
899.033	3416
899.153	3336
899.273	3211
899.393	3268
899.513	3351
899.633	3363
899.753	3367
899.873	3344
899.993	3412
900.113	3336
900.232	3409
900.352	3397
900.472	3306
900.591	3195
900.711	3294
900.83	3283
900.95	3435
901.069	3526
901.189	3363
901.308	3195
901.427	3142
901.546	3184
901.665	3317
901.784	3370
901.904	3211
902.023	3154
902.141	3013
902.26	2990
902.379	3123
902.498	3081
902.617	3058
902.735	3222
902.854	3291
902.973	3195
903.091	3051
903.21	3085
903.328	3123
903.446	3135
903.565	3108
903.683	3214
903.801	3131
903.919	3260
904.038	3310
904.156	3184
904.274	3294
904.392	3241
904.51	3313
904.627	3348
904.745	3481
904.863	3515
904.981	3283
905.098	3203
905.216	3245
905.334	3340
905.451	3325
905.569	3306
905.686	3431
905.803	3454
905.921	3317
906.038	3443
906.155	3374
906.272	3298
906.389	3332
906.506	3249
906.623	3264
906.74	3283
906.857	3222
906.974	3279
907.091	3466
907.208	3530
907.324	3515
907.441	3382
907.557	3233
907.674	3222
907.79	3245
907.907	3344
908.023	3386
908.139	3466
908.256	3351
908.372	3374
908.488	3374
908.604	3279
908.72	3275
908.836	3329
908.952	3298
909.068	3351
909.184	3504
909.3	3428
909.415	3500
909.531	3492
909.647	3313
909.762	3298
909.878	3272
909.993	3386
910.108	3355
910.224	3359
910.339	3447
910.454	3351
910.57	3325
910.685	3253
910.8	3641
910.915	3591
911.03	3466
911.145	3317
911.259	3302
911.374	3340
911.489	3287
911.604	3241
911.718	3157
911.833	3161
911.947	3062
912.062	3013
912.176	3169
912.291	3237
912.405	3230
912.519	3454
912.633	3515
912.748	3382
912.862	3287
912.976	3176
913.09	3074
913.204	3165
913.318	3241
913.431	3340
913.545	3332
913.659	3428
913.772	3348
913.886	3222
914	3249
914.113	3378
914.226	3428
914.34	3386
914.453	3256
914.566	3443
914.68	3317
914.793	3306
914.906	3146
915.019	3112
915.132	3100
915.245	3173
915.358	3241
915.47	3245
915.583	3310
915.696	3332
915.809	3443
915.921	3431
916.034	3306
916.146	3291
916.259	3226
916.371	3370
916.483	3389
916.595	3260
916.708	3344
916.82	3348
916.932	3389
917.044	3401
917.156	3374
917.268	3268
917.38	3340
917.491	3275
917.603	3367
917.715	3469
917.826	3515
917.938	3386
918.049	3313
918.161	3458
918.272	3618
918.384	3564
918.495	3492
918.606	3386
918.717	3317
918.828	3454
918.939	3389
919.05	3313
919.161	3344
919.272	3214
919.383	3298
919.494	3523
919.604	3698
919.715	3538
919.826	3405
919.936	3473
920.047	3576
920.157	3595
920.267	3785
920.378	3618
920.488	3618
920.598	3797
920.708	3998
920.818	3869
920.928	3846
921.038	4025
921.148	4036
921.258	3736
921.368	3690
921.477	3633
921.587	3549
921.697	3477
921.806	3625
921.916	3557
922.025	3370
922.134	3370
922.244	3370
922.353	3454
922.462	3260
922.571	3256
922.68	3112
922.789	3127
922.898	3146
923.007	3119
923.116	3203
923.224	3188
923.333	3233
923.442	3112
923.55	3108
923.659	3123
923.767	3253
923.876	3157
923.984	3306
924.092	3138
924.201	3233
924.309	3279
924.417	3222
924.525	3184
924.633	3245
924.741	4207
924.849	3051
924.956	3317
925.064	3062
925.172	3039
925.279	3119
925.387	3222
925.494	3211
925.602	3405
925.709	3332
925.816	3233
925.924	3275
926.031	3386
926.138	3351
926.245	3359
926.352	3260
926.459	3431
926.566	3511
926.673	3348
926.779	3268
926.886	3272
926.993	3199
927.099	3211
927.206	3123
927.312	3127
927.419	3241
927.525	3233
927.631	3329
927.737	3203
927.843	3169
927.95	3043
928.056	3157
928.162	3199
928.267	3283
928.373	3865
928.479	3367
928.585	3112
928.69	3256
928.796	3329
928.901	3173
929.007	3062
929.112	3233
929.218	3180
929.323	3169
929.428	3192
929.533	3363
929.638	3093
929.743	3203
929.848	3268
929.953	3237
930.058	3203
930.163	3028
930.267	3043
930.372	3237
930.477	3039
930.581	3359
930.685	3176
930.79	3077
930.894	3131
930.998	3123
931.103	3294
931.207	2956
931.311	2960
931.415	2979
931.519	2788
931.623	2849
