Data from test_V78500241_1357.txt Node
Date: Fri Mar 25 16:24:36 CST 2022
User: usil
Spectrometer: V785-0024
Trigger mode: 0
Integration Time (sec): 4.000000E-1
Scans to average: 1
Nonlinearity correction enabled: false
Boxcar width: 0
Storing dark spectrum: false
XAxis mode: Wavelengths
Number of Pixels in Spectrum: 1024
>>>>>Begin Spectral Data<<<<<
801.071	2933
801.214	2925
801.356	2845
801.499	2883
801.641	2864
801.783	2948
801.926	3047
802.068	2963
802.211	3020
802.353	3013
802.496	2918
802.638	3009
802.78	3020
802.923	3077
803.065	2982
803.208	2849
803.35	2922
803.492	2864
803.635	2910
803.777	2750
803.919	2849
804.061	3176
804.204	2922
804.346	2891
804.488	2823
804.63	2971
804.773	2849
804.915	2899
805.057	3062
805.199	2887
805.341	2956
805.483	3024
805.626	2948
805.768	2944
805.91	3066
806.052	3100
806.194	3051
806.336	3226
806.478	3017
806.62	2956
806.762	2948
806.904	3036
807.046	3146
807.188	2990
807.33	2868
807.472	2971
807.614	2880
807.756	2967
807.898	2937
808.04	2872
808.182	2956
808.324	2956
808.465	2876
808.607	2902
808.749	2792
808.891	2868
809.033	2941
809.174	2971
809.316	2895
809.458	2872
809.6	2758
809.741	2777
809.883	2785
810.025	2845
810.166	2834
810.308	2845
810.45	2838
810.591	2777
810.733	2758
810.875	2823
811.016	2777
811.158	2750
811.299	2800
811.441	2960
811.582	2868
811.724	2804
811.865	2826
812.007	2902
812.148	2899
812.29	2838
812.431	2872
812.573	2910
812.714	2963
812.855	3039
812.997	3058
813.138	3135
813.279	3009
813.421	2963
813.562	2956
813.703	2872
813.845	2899
813.986	2804
814.127	2724
814.268	2830
814.41	2842
814.551	2804
814.692	2857
814.833	2815
814.974	2872
815.115	2944
815.256	2792
815.397	2838
815.539	2861
815.68	2785
815.821	2823
815.962	2956
816.103	2914
816.244	2895
816.385	2868
816.526	2960
816.666	2895
816.807	2739
816.948	2887
817.089	2895
817.23	2842
817.371	2766
817.512	2781
817.653	2857
817.793	2826
817.934	2872
818.075	2994
818.216	2967
818.356	3058
818.497	2838
818.638	2743
818.778	2788
818.919	2785
819.06	2727
819.2	2872
819.341	2769
819.481	2769
819.622	2910
819.762	3085
819.903	3013
820.043	2910
820.184	2941
820.324	2891
820.465	3009
820.605	3013
820.746	3058
820.886	2933
821.026	3093
821.167	3157
821.307	3218
821.447	3275
821.588	3245
821.728	3211
821.868	3192
822.008	3055
822.149	3173
822.289	3233
822.429	3119
822.569	3055
822.709	3211
822.849	3005
822.99	3066
823.13	3173
823.27	3184
823.41	3119
823.55	3173
823.69	3157
823.83	3188
823.97	3097
824.11	3001
824.25	3024
824.389	3051
824.529	3097
824.669	3077
824.809	3211
824.949	3233
825.089	3199
825.228	3165
825.368	3005
825.508	2956
825.648	2922
825.787	3017
825.927	3005
826.067	2963
826.206	2971
826.346	3051
826.485	3074
826.625	3116
826.765	3256
826.904	3230
827.044	2956
827.183	2956
827.323	2853
827.462	2994
827.601	2918
827.741	2922
827.88	2963
828.02	2830
828.159	2963
828.298	3032
828.437	3131
828.577	3009
828.716	3218
828.855	3081
828.994	2925
829.134	2891
829.273	2899
829.412	2853
829.551	2876
829.69	2895
829.829	2975
829.968	3123
830.107	3051
830.246	3039
830.385	2883
830.524	2883
830.663	2823
830.802	2724
830.941	2621
831.08	2651
831.219	2743
831.357	2746
831.496	2960
831.635	2735
831.774	2663
831.913	2659
832.051	2522
832.19	2587
832.329	2640
832.467	2537
832.606	2480
832.744	2537
832.883	2552
833.022	2587
833.16	2655
833.299	2663
833.437	2678
833.576	2716
833.714	2701
833.852	2727
833.991	2739
834.129	2853
834.267	2815
834.406	2766
834.544	2849
834.682	2872
834.821	2815
834.959	3058
835.097	2849
835.235	3051
835.373	3005
835.511	2994
835.65	2994
835.788	2967
835.926	2830
836.064	2781
836.202	2842
836.34	3097
836.478	3112
836.615	3058
836.753	3119
836.891	3176
837.029	3169
837.167	3119
837.305	3093
837.443	3036
837.58	2967
837.718	3119
837.856	3020
837.993	3005
838.131	3119
838.269	3074
838.406	3112
838.544	3085
838.681	2902
838.819	2925
838.956	2826
839.094	2842
839.231	2906
839.369	3001
839.506	3363
839.643	3195
839.781	3013
839.918	2990
840.055	3047
840.193	3066
840.33	3005
840.467	3093
840.604	3119
840.742	3389
840.879	3032
841.016	3039
841.153	3100
841.29	3348
841.427	3291
841.564	3317
841.701	3298
841.838	3218
841.975	3146
842.112	3184
842.249	3081
842.385	3032
842.522	3233
842.659	3127
842.796	3051
842.933	3097
843.069	3032
843.206	3047
843.343	3161
843.479	3070
843.616	3165
843.752	2883
843.889	2853
844.025	3074
844.162	2876
844.298	3074
844.435	2944
844.571	2887
844.708	3062
844.844	3169
844.98	3195
845.117	3192
845.253	3047
845.389	3017
845.525	3116
845.661	3062
845.798	2960
845.934	3093
846.07	3058
846.206	3188
846.342	3336
846.478	3214
846.614	3070
846.75	3047
846.886	3017
847.022	3195
847.158	3146
847.294	3180
847.429	3241
847.565	3173
847.701	3511
847.837	3043
847.972	3017
848.108	3135
848.244	3116
848.379	2986
848.515	2937
848.65	2944
848.786	2975
848.921	3024
849.057	3116
849.192	3146
849.328	3085
849.463	3085
849.598	3051
849.734	3005
849.869	2971
850.004	2910
850.14	2956
850.275	2864
850.41	2815
850.545	2872
850.68	2895
850.815	2963
850.95	2982
851.085	3188
851.22	3036
851.355	3032
851.49	2979
851.625	2963
851.76	2986
851.895	2941
852.03	2910
852.165	3020
852.299	3119
852.434	3211
852.569	3123
852.703	3157
852.838	3260
852.973	3313
853.107	3336
853.242	3119
853.376	3093
853.511	2941
853.645	3017
853.78	3241
853.914	3119
854.048	3112
854.183	3112
854.317	3116
854.451	3291
854.585	3116
854.72	3081
854.854	3195
854.988	3001
855.122	3074
855.256	2971
855.39	3097
855.524	3275
855.658	3150
855.792	3119
855.926	3138
856.06	3230
856.194	3272
856.327	3146
856.461	3047
856.595	3043
856.729	3062
856.862	3226
856.996	3146
857.13	3180
857.263	3249
857.397	3245
857.53	3123
857.664	3150
857.797	3211
857.931	3245
858.064	3188
858.197	3195
858.331	3146
858.464	3093
858.597	3005
858.731	3104
858.864	3104
858.997	3089
859.13	3146
859.263	3173
859.396	3142
859.529	3070
859.662	3089
859.795	3055
859.928	3146
860.061	3264
860.194	3283
860.327	3100
860.46	3085
860.592	3241
860.725	3233
860.858	3199
860.99	3093
861.123	3093
861.256	3047
861.388	3123
861.521	3667
861.653	3001
861.786	2963
861.918	2971
862.05	3047
862.183	3100
862.315	3188
862.447	3264
862.58	3093
862.712	2967
862.844	2868
862.976	3062
863.108	3005
863.24	3298
863.372	2883
863.504	2960
863.636	2933
863.768	3039
863.9	2979
864.032	2899
864.164	2933
864.296	3017
864.428	3089
864.559	3112
864.691	3074
864.823	3089
864.954	3036
865.086	3017
865.217	3005
865.349	2918
865.48	2971
865.612	3017
865.743	3173
865.875	2975
866.006	2960
866.137	2967
866.269	2937
866.4	2933
866.531	2914
866.662	2891
866.793	2887
866.924	2902
867.055	2975
867.186	2914
867.317	2861
867.448	2826
867.579	2804
867.71	2830
867.841	2796
867.972	2868
868.103	2902
868.233	2891
868.364	2872
868.495	2925
868.625	3066
868.756	3131
868.886	2960
869.017	3032
869.147	3173
869.278	3150
869.408	3001
869.539	3066
869.669	3112
869.799	3032
869.929	3142
870.06	3097
870.19	3283
870.32	3291
870.45	3294
870.58	3348
870.71	3450
870.84	3412
870.97	3317
871.1	3226
871.23	3420
871.36	3469
871.489	3348
871.619	3393
871.749	3393
871.879	3431
872.008	3481
872.138	3348
872.267	3268
872.397	3176
872.526	3074
872.656	3032
872.785	3093
872.915	3260
873.044	3325
873.173	3207
873.303	3256
873.432	3245
873.561	3218
873.69	3169
873.819	3135
873.948	3176
874.077	3138
874.206	3039
874.335	3127
874.464	3188
874.593	3325
874.722	3260
874.851	3367
874.979	3348
875.108	3302
875.237	3214
875.365	3203
875.494	3165
875.623	3268
875.751	3066
875.88	3085
876.008	3188
876.136	3203
876.265	3367
876.393	3462
876.521	3367
876.65	3367
876.778	3310
876.906	3237
877.034	3161
877.162	3207
877.29	3176
877.418	3241
877.546	3218
877.674	3237
877.802	3275
877.93	3195
878.058	3161
878.185	3089
878.313	3157
878.441	3199
878.568	3066
878.696	3157
878.824	3268
878.951	3272
879.079	3409
879.206	3584
879.333	3447
879.461	3344
879.588	3382
879.715	3462
879.842	3584
879.97	3355
880.097	3146
880.224	3108
880.351	3226
880.478	3192
880.605	3230
880.732	3176
880.859	3500
880.986	3298
881.112	3283
881.239	3180
881.366	3058
881.493	3001
881.619	2982
881.746	3074
881.872	3093
881.999	3093
882.125	3195
882.252	3268
882.378	3264
882.505	3420
882.631	3241
882.757	3154
882.883	3222
883.01	3211
883.136	3169
883.262	3081
883.388	3123
883.514	3336
883.64	3370
883.766	3321
883.892	3173
884.018	3203
884.143	3416
884.269	3545
884.395	3184
884.52	3146
884.646	3180
884.772	3142
884.897	3089
885.023	3241
885.148	3317
885.274	3416
885.399	3378
885.524	3264
885.65	3268
885.775	3321
885.9	3275
886.025	3458
886.15	3329
886.275	3272
886.4	3226
886.525	3321
886.65	3260
886.775	3268
886.9	3545
887.025	3606
887.149	3405
887.274	3230
887.399	3195
887.523	3211
887.648	3173
887.773	3207
887.897	3325
888.021	3374
888.146	3283
888.27	3420
888.395	3515
888.519	3397
888.643	3405
888.767	3469
888.891	3313
889.015	3226
889.139	3279
889.263	3218
889.387	3412
889.511	3466
889.635	3416
889.759	3279
889.883	3313
890.006	3374
890.13	3500
890.254	3253
890.377	3325
890.501	3176
890.624	3207
890.748	3317
890.871	3176
890.995	3085
891.118	3070
891.241	3161
891.364	3218
891.488	3313
891.611	3199
891.734	3211
891.857	3313
891.98	3218
892.103	3329
892.226	3256
892.349	3176
892.471	3093
892.594	3214
892.717	3294
892.839	3264
892.962	3310
893.085	3348
893.207	3291
893.33	3142
893.452	3184
893.575	3344
893.697	3253
893.819	3473
893.941	3473
894.064	3431
894.186	3245
894.308	3256
894.43	3389
894.552	3542
894.674	3447
894.796	3268
894.918	3329
895.04	3287
895.161	3397
895.283	3393
895.405	3253
895.526	3336
895.648	3428
895.769	3450
895.891	3466
896.012	3481
896.134	3439
896.255	3412
896.376	3370
896.498	3363
896.619	3405
896.74	3363
896.861	3409
896.982	3644
897.103	3861
897.224	3625
897.345	3488
897.466	3435
897.587	3477
897.708	3576
897.828	3572
897.949	3424
898.07	3306
898.19	3405
898.311	3595
898.431	3523
898.552	3481
898.672	3584
898.792	3561
898.913	3530
899.033	3424
899.153	3272
899.273	3192
899.393	3237
899.513	3321
899.633	3306
899.753	3306
899.873	3325
899.993	3370
900.113	3321
900.232	3336
900.352	3310
900.472	3294
900.591	3157
900.711	3291
900.83	3253
900.95	3409
901.069	3450
901.189	3348
901.308	3161
901.427	3131
901.546	3195
901.665	3275
901.784	3344
901.904	3192
902.023	3142
902.141	3043
902.26	3013
902.379	3119
902.498	3089
902.617	3058
902.735	3184
902.854	3230
902.973	3180
903.091	3093
903.21	3028
903.328	3131
903.446	3146
903.565	3138
903.683	3211
903.801	3116
903.919	3283
904.038	3287
904.156	3176
904.274	3268
904.392	3222
904.51	3317
904.627	3313
904.745	3428
904.863	3504
904.981	3237
905.098	3211
905.216	3233
905.334	3256
905.451	3298
905.569	3325
905.686	3416
905.803	3416
905.921	3313
906.038	3416
906.155	3405
906.272	3294
906.389	3313
906.506	3211
906.623	3287
906.74	3313
906.857	3203
906.974	3222
907.091	3435
907.208	3599
907.324	3466
907.441	3370
907.557	3195
907.674	3222
907.79	3226
907.907	3268
908.023	3367
908.139	3348
908.256	3313
908.372	3351
908.488	3359
908.604	3294
908.72	3260
908.836	3298
908.952	3253
909.068	3313
909.184	3492
909.3	3412
909.415	3515
909.531	3450
909.647	3302
909.762	3302
909.878	3245
909.993	3386
910.108	3329
910.224	3374
910.339	3443
910.454	3351
910.57	3283
910.685	3199
910.8	3599
910.915	3549
911.03	3405
911.145	3260
911.259	3260
911.374	3306
911.489	3256
911.604	3218
911.718	3108
911.833	3169
911.947	3039
912.062	2967
912.176	3150
912.291	3176
912.405	3222
912.519	3481
912.633	3466
912.748	3329
912.862	3294
912.976	3146
913.09	3070
913.204	3085
913.318	3207
913.431	3302
913.545	3287
913.659	3397
913.772	3321
913.886	3241
914	3245
914.113	3359
914.226	3386
914.34	3370
914.453	3218
914.566	3431
914.68	3313
914.793	3336
914.906	3157
915.019	3100
915.132	3100
915.245	3157
915.358	3195
915.47	3199
915.583	3256
915.696	3268
915.809	3458
915.921	3393
916.034	3256
916.146	3256
916.259	3222
916.371	3393
916.483	3370
916.595	3249
916.708	3317
916.82	3329
916.932	3329
917.044	3332
917.156	3340
917.268	3275
917.38	3310
917.491	3294
917.603	3389
917.715	3485
917.826	3477
917.938	3359
918.049	3275
918.161	3458
918.272	3606
918.384	3572
918.495	3504
918.606	3310
918.717	3310
918.828	3363
918.939	3389
919.05	3268
919.161	3374
919.272	3188
919.383	3268
919.494	3526
919.604	3690
919.715	3473
919.826	3416
919.936	3435
920.047	3542
920.157	3564
920.267	3743
920.378	3629
920.488	3595
920.598	3774
920.708	3983
920.818	3804
920.928	3827
921.038	4006
921.148	3972
921.258	3671
921.368	3641
921.477	3572
921.587	3542
921.697	3443
921.806	3614
921.916	3511
922.025	3336
922.134	3386
922.244	3272
922.353	3409
922.462	3283
922.571	3207
922.68	3100
922.789	3119
922.898	3131
923.007	3077
923.116	3203
923.224	3230
923.333	3184
923.442	3093
923.55	3097
923.659	3142
923.767	3230
923.876	3093
923.984	3264
924.092	3108
924.201	3203
924.309	3211
924.417	3253
924.525	3142
924.633	3192
924.741	4002
924.849	3028
924.956	3249
925.064	3097
925.172	3043
925.279	3100
925.387	3180
925.494	3222
925.602	3340
925.709	3359
925.816	3211
925.924	3287
926.031	3420
926.138	3321
926.245	3332
926.352	3260
926.459	3428
926.566	3523
926.673	3363
926.779	3256
926.886	3233
926.993	3127
927.099	3135
927.206	3097
927.312	3112
927.419	3260
927.525	3207
927.631	3275
927.737	3146
927.843	3093
927.95	3043
928.056	3142
928.162	3142
928.267	3249
928.373	3842
928.479	3294
928.585	3043
928.69	3188
928.796	3241
928.901	3169
929.007	3066
929.112	3199
929.218	3173
929.323	3142
929.428	3131
929.533	3287
929.638	3116
929.743	3173
929.848	3230
929.953	3214
930.058	3154
930.163	3017
930.267	3047
930.372	3161
930.477	3055
930.581	3313
930.685	3169
930.79	3058
930.894	3093
930.998	3070
931.103	3294
931.207	2963
931.311	2956
931.415	2941
931.519	2762
931.623	2804
