Data from test_V78500241_1998.txt Node
Date: Fri Mar 25 16:29:02 CST 2022
User: usil
Spectrometer: V785-0024
Trigger mode: 0
Integration Time (sec): 4.000000E-1
Scans to average: 1
Nonlinearity correction enabled: false
Boxcar width: 0
Storing dark spectrum: false
XAxis mode: Wavelengths
Number of Pixels in Spectrum: 1024
>>>>>Begin Spectral Data<<<<<
801.071	2960
801.214	2975
801.356	2902
801.499	2933
801.641	2880
801.783	2960
801.926	3070
802.068	2990
802.211	3028
802.353	3032
802.496	2994
802.638	3028
802.78	3062
802.923	3070
803.065	3017
803.208	2922
803.35	2941
803.492	2975
803.635	2948
803.777	2815
803.919	2899
804.061	3188
804.204	2941
804.346	2891
804.488	2845
804.63	3001
804.773	2876
804.915	2906
805.057	3119
805.199	2948
805.341	2971
805.483	3062
805.626	3013
805.768	2975
805.91	3100
806.052	3127
806.194	3005
806.336	3233
806.478	3058
806.62	2990
806.762	2979
806.904	3051
807.046	3184
807.188	3009
807.33	2937
807.472	3024
807.614	2883
807.756	3005
807.898	2914
808.04	2952
808.182	3005
808.324	2975
808.465	2914
808.607	2895
808.749	2807
808.891	2868
809.033	2956
809.174	3043
809.316	2891
809.458	2899
809.6	2823
809.741	2819
809.883	2807
810.025	2902
810.166	2864
810.308	2868
810.45	2887
810.591	2861
810.733	2766
810.875	2887
811.016	2777
811.158	2800
811.299	2823
811.441	2956
811.582	2941
811.724	2842
811.865	2849
812.007	2937
812.148	2872
812.29	2861
812.431	2918
812.573	2971
812.714	3009
812.855	3081
812.997	3077
813.138	3165
813.279	3036
813.421	3013
813.562	2990
813.703	2899
813.845	2895
813.986	2788
814.127	2720
814.268	2811
814.41	2838
814.551	2819
814.692	2906
814.833	2864
814.974	2922
815.115	3005
815.256	2826
815.397	2845
815.539	2872
815.68	2792
815.821	2796
815.962	2941
816.103	2902
816.244	2899
816.385	2937
816.526	2948
816.666	2948
816.807	2781
816.948	2902
817.089	2944
817.23	2899
817.371	2807
817.512	2815
817.653	2849
817.793	2838
817.934	2910
818.075	2952
818.216	2994
818.356	3028
818.497	2922
818.638	2834
818.778	2845
818.919	2811
819.06	2785
819.2	2880
819.341	2834
819.481	2804
819.622	2937
819.762	3119
819.903	3077
820.043	2960
820.184	2914
820.324	2899
820.465	3058
820.605	3039
820.746	3020
820.886	2956
821.026	3131
821.167	3203
821.307	3287
821.447	3275
821.588	3291
821.728	3192
821.868	3199
822.008	3100
822.149	3195
822.289	3253
822.429	3070
822.569	3138
822.709	3203
822.849	3036
822.99	3077
823.13	3157
823.27	3195
823.41	3108
823.55	3169
823.69	3146
823.83	3176
823.97	3085
824.11	3001
824.25	3009
824.389	3062
824.529	3123
824.669	3089
824.809	3230
824.949	3287
825.089	3218
825.228	3199
825.368	3013
825.508	2944
825.648	3009
825.787	3058
825.927	3020
826.067	3017
826.206	2948
826.346	3036
826.485	3081
826.625	3116
826.765	3272
826.904	3245
827.044	2998
827.183	2941
827.323	2895
827.462	3005
827.601	2971
827.741	2941
827.88	2979
828.02	2868
828.159	2990
828.298	3047
828.437	3119
828.577	3032
828.716	3237
828.855	3085
828.994	2906
829.134	2914
829.273	2944
829.412	2918
829.551	2883
829.69	2914
829.829	2982
829.968	3154
830.107	3058
830.246	3017
830.385	2937
830.524	2891
830.663	2842
830.802	2720
830.941	2678
831.08	2667
831.219	2739
831.357	2743
831.496	2944
831.635	2788
831.774	2686
831.913	2670
832.051	2560
832.19	2590
832.329	2716
832.467	2545
832.606	2507
832.744	2602
832.883	2598
833.022	2606
833.16	2670
833.299	2712
833.437	2731
833.576	2716
833.714	2758
833.852	2788
833.991	2758
834.129	2845
834.267	2815
834.406	2819
834.544	2887
834.682	2849
834.821	2891
834.959	3085
835.097	2914
835.235	3047
835.373	3013
835.511	3024
835.65	2975
835.788	2975
835.926	2849
836.064	2811
836.202	2830
836.34	3097
836.478	3123
836.615	3047
836.753	3150
836.891	3226
837.029	3211
837.167	3081
837.305	3066
837.443	3043
837.58	2998
837.718	3154
837.856	3089
837.993	3070
838.131	3104
838.269	3104
838.406	3108
838.544	3100
838.681	2937
838.819	2914
838.956	2815
839.094	2838
839.231	2922
839.369	3013
839.506	3386
839.643	3233
839.781	3055
839.918	2963
840.055	3051
840.193	3043
840.33	3093
840.467	3097
840.604	3135
840.742	3424
840.879	3066
841.016	3058
841.153	3165
841.29	3367
841.427	3313
841.564	3245
841.701	3291
841.838	3222
841.975	3192
842.112	3256
842.249	3123
842.385	3047
842.522	3249
842.659	3100
842.796	3077
842.933	3108
843.069	3047
843.206	3077
843.343	3184
843.479	3138
843.616	3188
843.752	2899
843.889	2864
844.025	3077
844.162	2864
844.298	3104
844.435	2906
844.571	2944
844.708	3108
844.844	3184
844.98	3279
845.117	3192
845.253	3058
845.389	3001
845.525	3112
845.661	3097
845.798	2986
845.934	3150
846.07	3055
846.206	3253
846.342	3325
846.478	3245
846.614	3085
846.75	3055
846.886	3066
847.022	3272
847.158	3157
847.294	3184
847.429	3214
847.565	3230
847.701	3492
847.837	3005
847.972	2967
848.108	3161
848.244	3146
848.379	2975
848.515	2941
848.65	2979
848.786	2971
848.921	2979
849.057	3108
849.192	3127
849.328	3039
849.463	3093
849.598	3047
849.734	3047
849.869	2994
850.004	2948
850.14	2967
850.275	2880
850.41	2819
850.545	2891
850.68	2906
850.815	2967
850.95	3013
851.085	3192
851.22	3085
851.355	3058
851.49	2975
851.625	2998
851.76	3005
851.895	2944
852.03	2868
852.165	3009
852.299	3070
852.434	3211
852.569	3123
852.703	3207
852.838	3233
852.973	3344
853.107	3336
853.242	3154
853.376	3112
853.511	2971
853.645	3036
853.78	3256
853.914	3119
854.048	3135
854.183	3097
854.317	3138
854.451	3302
854.585	3123
854.72	3123
854.854	3222
854.988	3051
855.122	3100
855.256	3020
855.39	3165
855.524	3264
855.658	3199
855.792	3150
855.926	3211
856.06	3241
856.194	3294
856.327	3176
856.461	3081
856.595	3070
856.729	3127
856.862	3214
856.996	3188
857.13	3253
857.263	3264
857.397	3275
857.53	3131
857.664	3233
857.797	3275
857.931	3298
858.064	3180
858.197	3264
858.331	3150
858.464	3142
858.597	3013
858.731	3131
858.864	3173
858.997	3138
859.13	3184
859.263	3218
859.396	3222
859.529	3112
859.662	3123
859.795	3070
859.928	3169
860.061	3340
860.194	3317
860.327	3161
860.46	3142
860.592	3310
860.725	3313
860.858	3329
860.99	3123
861.123	3127
861.256	3104
861.388	3169
861.521	3857
861.653	3070
861.786	3013
861.918	3032
862.05	3116
862.183	3131
862.315	3165
862.447	3218
862.58	3100
862.712	2986
862.844	2918
862.976	3051
863.108	3081
863.24	3454
863.372	2929
863.504	3009
863.636	2998
863.768	3070
863.9	3017
864.032	2952
864.164	2990
864.296	3055
864.428	3127
864.559	3161
864.691	3104
864.823	3074
864.954	3085
865.086	3055
865.217	3017
865.349	3017
865.48	3058
865.612	3024
865.743	3165
865.875	3009
866.006	2986
866.137	3001
866.269	2967
866.4	2979
866.531	2937
866.662	2933
866.793	2941
866.924	2918
867.055	2998
867.186	2971
867.317	2910
867.448	2853
867.579	2899
867.71	2914
867.841	2883
867.972	2933
868.103	2929
868.233	2941
868.364	2902
868.495	2925
868.625	3123
868.756	3218
868.886	3024
869.017	3017
869.147	3226
869.278	3165
869.408	3081
869.539	3085
869.669	3138
869.799	3077
869.929	3165
870.06	3131
870.19	3344
870.32	3329
870.45	3321
870.58	3401
870.71	3488
870.84	3507
870.97	3393
871.1	3317
871.23	3530
871.36	3496
871.489	3336
871.619	3431
871.749	3447
871.879	3462
872.008	3519
872.138	3389
872.267	3317
872.397	3169
872.526	3119
872.656	3028
872.785	3112
872.915	3283
873.044	3332
873.173	3260
873.303	3294
873.432	3260
873.561	3283
873.69	3211
873.819	3173
873.948	3230
874.077	3176
874.206	3043
874.335	3112
874.464	3245
874.593	3389
874.722	3260
874.851	3370
874.979	3405
875.108	3374
875.237	3226
875.365	3176
875.494	3195
875.623	3287
875.751	3093
875.88	3138
876.008	3226
876.136	3279
876.265	3386
876.393	3553
876.521	3466
876.65	3374
876.778	3378
876.906	3260
877.034	3241
877.162	3249
877.29	3203
877.418	3253
877.546	3268
877.674	3298
877.802	3283
877.93	3253
878.058	3176
878.185	3135
878.313	3195
878.441	3241
878.568	3112
878.696	3173
878.824	3264
878.951	3306
879.079	3473
879.206	3656
879.333	3488
879.461	3332
879.588	3348
879.715	3507
879.842	3606
879.97	3424
880.097	3157
880.224	3142
880.351	3260
880.478	3222
880.605	3226
880.732	3230
880.859	3538
880.986	3336
881.112	3393
881.239	3203
881.366	3089
881.493	3058
881.619	3024
881.746	3108
881.872	3104
881.999	3138
882.125	3192
882.252	3268
882.378	3306
882.505	3458
882.631	3298
882.757	3165
882.883	3245
883.01	3294
883.136	3180
883.262	3097
883.388	3188
883.514	3363
883.64	3389
883.766	3359
883.892	3199
884.018	3272
884.143	3416
884.269	3587
884.395	3249
884.52	3154
884.646	3173
884.772	3154
884.897	3150
885.023	3199
885.148	3382
885.274	3424
885.399	3401
885.524	3348
885.65	3310
885.775	3325
885.9	3306
886.025	3450
886.15	3382
886.275	3363
886.4	3233
886.525	3325
886.65	3298
886.775	3275
886.9	3519
887.025	3671
887.149	3450
887.274	3298
887.399	3192
887.523	3233
887.648	3218
887.773	3241
887.897	3405
888.021	3431
888.146	3325
888.27	3485
888.395	3553
888.519	3462
888.643	3447
888.767	3469
888.891	3336
889.015	3291
889.139	3310
889.263	3310
889.387	3431
889.511	3545
889.635	3420
889.759	3310
889.883	3321
890.006	3386
890.13	3561
890.254	3264
890.377	3344
890.501	3222
890.624	3199
890.748	3355
890.871	3192
890.995	3142
891.118	3093
891.241	3188
891.364	3222
891.488	3340
891.611	3169
891.734	3253
891.857	3310
891.98	3291
892.103	3321
892.226	3313
892.349	3256
892.471	3112
892.594	3253
892.717	3294
892.839	3279
892.962	3313
893.085	3378
893.207	3313
893.33	3150
893.452	3199
893.575	3355
893.697	3302
893.819	3485
893.941	3515
894.064	3435
894.186	3287
894.308	3264
894.43	3450
894.552	3568
894.674	3504
894.796	3310
894.918	3355
895.04	3291
895.161	3473
895.283	3447
895.405	3382
895.526	3428
895.648	3412
895.769	3450
895.891	3473
896.012	3485
896.134	3473
896.255	3420
896.376	3409
896.498	3405
896.619	3447
896.74	3393
896.861	3435
896.982	3686
897.103	3842
897.224	3572
897.345	3492
897.466	3454
897.587	3500
897.708	3637
897.828	3557
897.949	3450
898.07	3336
898.19	3439
898.311	3614
898.431	3496
898.552	3561
898.672	3606
898.792	3587
898.913	3534
899.033	3428
899.153	3332
899.273	3264
899.393	3264
899.513	3321
899.633	3359
899.753	3370
899.873	3317
899.993	3397
900.113	3367
900.232	3401
900.352	3405
900.472	3291
900.591	3226
900.711	3317
900.83	3260
900.95	3412
901.069	3523
901.189	3397
901.308	3180
901.427	3176
901.546	3241
901.665	3329
901.784	3363
901.904	3245
902.023	3188
902.141	3024
902.26	3013
902.379	3157
902.498	3123
902.617	3097
902.735	3230
902.854	3184
902.973	3230
903.091	3074
903.21	3100
903.328	3157
903.446	3104
903.565	3100
903.683	3256
903.801	3135
903.919	3272
904.038	3283
904.156	3192
904.274	3298
904.392	3264
904.51	3317
904.627	3374
904.745	3458
904.863	3477
904.981	3237
905.098	3165
905.216	3253
905.334	3279
905.451	3329
905.569	3355
905.686	3454
905.803	3496
905.921	3291
906.038	3439
906.155	3378
906.272	3283
906.389	3359
906.506	3214
906.623	3249
906.74	3268
906.857	3222
906.974	3237
907.091	3462
907.208	3595
907.324	3462
907.441	3420
907.557	3207
907.674	3230
907.79	3230
907.907	3298
908.023	3412
908.139	3386
908.256	3306
908.372	3386
908.488	3370
908.604	3287
908.72	3211
908.836	3294
908.952	3272
909.068	3359
909.184	3481
909.3	3409
909.415	3519
909.531	3511
909.647	3302
909.762	3363
909.878	3268
909.993	3348
910.108	3348
910.224	3351
910.339	3435
910.454	3367
910.57	3306
910.685	3249
910.8	3580
910.915	3504
911.03	3458
911.145	3313
911.259	3302
911.374	3344
911.489	3275
911.604	3272
911.718	3180
911.833	3150
911.947	3058
912.062	3047
912.176	3188
912.291	3233
912.405	3211
912.519	3443
912.633	3469
912.748	3313
912.862	3275
912.976	3161
913.09	3131
913.204	3184
913.318	3241
913.431	3317
913.545	3367
913.659	3439
913.772	3317
913.886	3230
914	3253
914.113	3393
914.226	3416
914.34	3382
914.453	3207
914.566	3420
914.68	3260
914.793	3310
914.906	3169
915.019	3157
915.132	3043
915.245	3161
915.358	3203
915.47	3188
915.583	3260
915.696	3283
915.809	3397
915.921	3405
916.034	3279
916.146	3268
916.259	3233
916.371	3386
916.483	3428
916.595	3260
916.708	3351
916.82	3351
916.932	3325
917.044	3348
917.156	3359
917.268	3241
917.38	3294
917.491	3370
917.603	3374
917.715	3485
917.826	3458
917.938	3412
918.049	3291
918.161	3473
918.272	3580
918.384	3603
918.495	3507
918.606	3355
918.717	3245
918.828	3374
918.939	3428
919.05	3325
919.161	3351
919.272	3180
919.383	3260
919.494	3523
919.604	3656
919.715	3481
919.826	3416
919.936	3462
920.047	3572
920.157	3564
920.267	3793
920.378	3641
920.488	3576
920.598	3808
920.708	3998
920.818	3842
920.928	3854
921.038	4029
921.148	4017
921.258	3713
921.368	3641
921.477	3587
921.587	3542
921.697	3485
921.806	3614
921.916	3542
922.025	3363
922.134	3351
922.244	3329
922.353	3450
922.462	3272
922.571	3237
922.68	3119
922.789	3058
922.898	3165
923.007	3157
923.116	3203
923.224	3161
923.333	3203
923.442	3119
923.55	3119
923.659	3146
923.767	3230
923.876	3127
923.984	3218
924.092	3093
924.201	3203
924.309	3218
924.417	3203
924.525	3207
924.633	3214
924.741	4219
924.849	3077
924.956	3287
925.064	3097
925.172	3039
925.279	3138
925.387	3176
925.494	3203
925.602	3348
925.709	3355
925.816	3161
925.924	3283
926.031	3367
926.138	3302
926.245	3382
926.352	3211
926.459	3435
926.566	3454
926.673	3317
926.779	3245
926.886	3249
926.993	3146
927.099	3138
927.206	3142
927.312	3123
927.419	3264
927.525	3226
927.631	3275
927.737	3169
927.843	3173
927.95	3043
928.056	3176
928.162	3203
928.267	3325
928.373	3846
928.479	3329
928.585	3070
928.69	3154
928.796	3283
928.901	3207
929.007	3055
929.112	3230
929.218	3165
929.323	3150
929.428	3176
929.533	3340
929.638	3127
929.743	3203
929.848	3302
929.953	3222
930.058	3165
930.163	2986
930.267	3062
930.372	3173
930.477	3043
930.581	3321
930.685	3188
930.79	3070
930.894	3123
930.998	3070
931.103	3264
931.207	2960
931.311	2944
931.415	2956
931.519	2800
931.623	2815
