Data from test_V78500241_1933.txt Node
Date: Fri Mar 25 16:28:35 CST 2022
User: usil
Spectrometer: V785-0024
Trigger mode: 0
Integration Time (sec): 4.000000E-1
Scans to average: 1
Nonlinearity correction enabled: false
Boxcar width: 0
Storing dark spectrum: false
XAxis mode: Wavelengths
Number of Pixels in Spectrum: 1024
>>>>>Begin Spectral Data<<<<<
801.071	2883
801.214	2929
801.356	2876
801.499	2918
801.641	2880
801.783	2902
801.926	3055
802.068	2963
802.211	2982
802.353	3043
802.496	2967
802.638	3024
802.78	3043
802.923	3043
803.065	3001
803.208	2902
803.35	2925
803.492	2922
803.635	2933
803.777	2766
803.919	2895
804.061	3188
804.204	2952
804.346	2883
804.488	2845
804.63	2986
804.773	2880
804.915	2906
805.057	3104
805.199	2929
805.341	2944
805.483	3028
805.626	2967
805.768	2975
805.91	3081
806.052	3116
806.194	2998
806.336	3188
806.478	3013
806.62	2948
806.762	2963
806.904	3100
807.046	3169
807.188	3009
807.33	2922
807.472	2982
807.614	2899
807.756	2979
807.898	2944
808.04	2861
808.182	2971
808.324	2937
808.465	2872
808.607	2876
808.749	2792
808.891	2849
809.033	2971
809.174	2956
809.316	2899
809.458	2876
809.6	2773
809.741	2754
809.883	2777
810.025	2811
810.166	2864
810.308	2838
810.45	2838
810.591	2743
810.733	2750
810.875	2834
811.016	2750
811.158	2754
811.299	2826
811.441	2899
811.582	2929
811.724	2849
811.865	2830
812.007	2899
812.148	2876
812.29	2861
812.431	2910
812.573	2918
812.714	2975
812.855	3062
812.997	3070
813.138	3116
813.279	3005
813.421	2982
813.562	2952
813.703	2902
813.845	2887
813.986	2773
814.127	2727
814.268	2792
814.41	2845
814.551	2815
814.692	2853
814.833	2857
814.974	2914
815.115	2941
815.256	2849
815.397	2815
815.539	2864
815.68	2796
815.821	2781
815.962	2918
816.103	2899
816.244	2880
816.385	2834
816.526	2994
816.666	2899
816.807	2727
816.948	2880
817.089	2906
817.23	2849
817.371	2773
817.512	2777
817.653	2857
817.793	2807
817.934	2864
818.075	2906
818.216	2979
818.356	3036
818.497	2868
818.638	2823
818.778	2807
818.919	2769
819.06	2758
819.2	2883
819.341	2804
819.481	2815
819.622	2948
819.762	3074
819.903	3047
820.043	2910
820.184	2883
820.324	2899
820.465	3020
820.605	3028
820.746	3024
820.886	2948
821.026	3108
821.167	3154
821.307	3245
821.447	3245
821.588	3226
821.728	3214
821.868	3161
822.008	3081
822.149	3173
822.289	3226
822.429	3104
822.569	3093
822.709	3195
822.849	3024
822.99	3047
823.13	3165
823.27	3173
823.41	3077
823.55	3131
823.69	3142
823.83	3203
823.97	3077
824.11	3001
824.25	2963
824.389	3039
824.529	3097
824.669	3055
824.809	3241
824.949	3203
825.089	3180
825.228	3131
825.368	3001
825.508	2982
825.648	2956
825.787	3005
825.927	3024
826.067	2963
826.206	2956
826.346	3009
826.485	3058
826.625	3085
826.765	3230
826.904	3203
827.044	2979
827.183	2902
827.323	2845
827.462	2982
827.601	2895
827.741	2910
827.88	2937
828.02	2834
828.159	2944
828.298	3032
828.437	3127
828.577	3009
828.716	3211
828.855	3074
828.994	2922
829.134	2853
829.273	2925
829.412	2868
829.551	2838
829.69	2922
829.829	2963
829.968	3104
830.107	3001
830.246	3028
830.385	2933
830.524	2883
830.663	2815
830.802	2720
830.941	2667
831.08	2613
831.219	2746
831.357	2712
831.496	2918
831.635	2716
831.774	2621
831.913	2651
832.051	2545
832.19	2568
832.329	2682
832.467	2533
832.606	2488
832.744	2575
832.883	2583
833.022	2594
833.16	2674
833.299	2701
833.437	2697
833.576	2636
833.714	2705
833.852	2705
833.991	2750
834.129	2804
834.267	2811
834.406	2819
834.544	2842
834.682	2853
834.821	2842
834.959	3051
835.097	2895
835.235	3043
835.373	3009
835.511	3039
835.65	2906
835.788	2925
835.926	2792
836.064	2788
836.202	2853
836.34	3097
836.478	3146
836.615	3005
836.753	3112
836.891	3199
837.029	3157
837.167	3077
837.305	3066
837.443	3024
837.58	2967
837.718	3119
837.856	3047
837.993	3005
838.131	3104
838.269	3093
838.406	3047
838.544	3070
838.681	2883
838.819	2895
838.956	2811
839.094	2819
839.231	2880
839.369	2998
839.506	3370
839.643	3180
839.781	2998
839.918	2967
840.055	3058
840.193	3009
840.33	3051
840.467	3104
840.604	3150
840.742	3389
840.879	3043
841.016	3036
841.153	3093
841.29	3268
841.427	3283
841.564	3272
841.701	3283
841.838	3161
841.975	3131
842.112	3226
842.249	3100
842.385	3047
842.522	3260
842.659	3055
842.796	3032
842.933	3077
843.069	3062
843.206	3043
843.343	3199
843.479	3089
843.616	3142
843.752	2891
843.889	2857
844.025	3055
844.162	2849
844.298	3074
844.435	2941
844.571	2906
844.708	3070
844.844	3184
844.98	3199
845.117	3176
845.253	3032
845.389	3005
845.525	3066
845.661	3108
845.798	2990
845.934	3116
846.07	3070
846.206	3180
846.342	3272
846.478	3218
846.614	3055
846.75	3036
846.886	3013
847.022	3253
847.158	3180
847.294	3192
847.429	3279
847.565	3203
847.701	3443
847.837	3032
847.972	2982
848.108	3173
848.244	3138
848.379	3017
848.515	2944
848.65	2910
848.786	2929
848.921	3005
849.057	3097
849.192	3173
849.328	3062
849.463	3085
849.598	3062
849.734	3005
849.869	2979
850.004	2910
850.14	2933
850.275	2910
850.41	2811
850.545	2842
850.68	2952
850.815	2956
850.95	2975
851.085	3184
851.22	3100
851.355	3032
851.49	2994
851.625	2986
851.76	2998
851.895	2902
852.03	2887
852.165	3028
852.299	3108
852.434	3188
852.569	3146
852.703	3161
852.838	3256
852.973	3348
853.107	3317
853.242	3150
853.376	3123
853.511	2967
853.645	3055
853.78	3226
853.914	3131
854.048	3100
854.183	3058
854.317	3154
854.451	3275
854.585	3127
854.72	3085
854.854	3180
854.988	3074
855.122	3047
855.256	2944
855.39	3097
855.524	3241
855.658	3157
855.792	3146
855.926	3184
856.06	3207
856.194	3279
856.327	3146
856.461	3081
856.595	3062
856.729	3093
856.862	3188
856.996	3161
857.13	3184
857.263	3199
857.397	3283
857.53	3055
857.664	3165
857.797	3214
857.931	3249
858.064	3154
858.197	3184
858.331	3108
858.464	3058
858.597	2967
858.731	3085
858.864	3119
858.997	3062
859.13	3146
859.263	3127
859.396	3150
859.529	3089
859.662	3047
859.795	3020
859.928	3116
860.061	3260
860.194	3268
860.327	3104
860.46	3097
860.592	3230
860.725	3241
860.858	3184
860.99	3093
861.123	3070
861.256	3020
861.388	3157
861.521	3892
861.653	2986
861.786	2990
861.918	2971
862.05	3013
862.183	3089
862.315	3131
862.447	3184
862.58	3066
862.712	2906
862.844	2864
862.976	3009
863.108	2967
863.24	3340
863.372	2880
863.504	2925
863.636	2937
863.768	3028
863.9	2986
864.032	2922
864.164	2906
864.296	3001
864.428	3097
864.559	3058
864.691	3020
864.823	3043
864.954	3013
865.086	3020
865.217	3005
865.349	2952
865.48	3017
865.612	3001
865.743	3135
865.875	2986
866.006	2960
866.137	2998
866.269	2952
866.4	2963
866.531	2910
866.662	2910
866.793	2910
866.924	2899
867.055	2971
867.186	2956
867.317	2899
867.448	2872
867.579	2872
867.71	2872
867.841	2838
867.972	2891
868.103	2941
868.233	2872
868.364	2948
868.495	2914
868.625	3116
868.756	3161
868.886	3013
869.017	3039
869.147	3157
869.278	3195
869.408	3070
869.539	3039
869.669	3108
869.799	3131
869.929	3161
870.06	3165
870.19	3359
870.32	3367
870.45	3294
870.58	3386
870.71	3492
870.84	3492
870.97	3317
871.1	3294
871.23	3545
871.36	3515
871.489	3389
871.619	3435
871.749	3405
871.879	3511
872.008	3542
872.138	3397
872.267	3310
872.397	3180
872.526	3123
872.656	3047
872.785	3165
872.915	3294
873.044	3397
873.173	3245
873.303	3272
873.432	3287
873.561	3272
873.69	3214
873.819	3165
873.948	3241
874.077	3154
874.206	3066
874.335	3104
874.464	3195
874.593	3405
874.722	3291
874.851	3435
874.979	3336
875.108	3367
875.237	3256
875.365	3173
875.494	3192
875.623	3317
875.751	3108
875.88	3169
876.008	3218
876.136	3256
876.265	3401
876.393	3534
876.521	3428
876.65	3431
876.778	3363
876.906	3268
877.034	3268
877.162	3245
877.29	3184
877.418	3272
877.546	3264
877.674	3237
877.802	3245
877.93	3222
878.058	3214
878.185	3112
878.313	3245
878.441	3237
878.568	3123
878.696	3180
878.824	3260
878.951	3340
879.079	3504
879.206	3641
879.333	3435
879.461	3393
879.588	3389
879.715	3492
879.842	3629
879.97	3389
880.097	3222
880.224	3154
880.351	3260
880.478	3264
880.605	3192
880.732	3226
880.859	3496
880.986	3355
881.112	3329
881.239	3272
881.366	3154
881.493	3062
881.619	3070
881.746	3066
881.872	3135
881.999	3123
882.125	3203
882.252	3294
882.378	3321
882.505	3485
882.631	3291
882.757	3233
882.883	3218
883.01	3264
883.136	3165
883.262	3150
883.388	3165
883.514	3336
883.64	3382
883.766	3336
883.892	3214
884.018	3283
884.143	3435
884.269	3622
884.395	3233
884.52	3142
884.646	3203
884.772	3161
884.897	3131
885.023	3264
885.148	3355
885.274	3416
885.399	3397
885.524	3313
885.65	3287
885.775	3344
885.9	3294
886.025	3428
886.15	3401
886.275	3283
886.4	3298
886.525	3340
886.65	3260
886.775	3283
886.9	3530
887.025	3652
887.149	3428
887.274	3272
887.399	3195
887.523	3199
887.648	3211
887.773	3226
887.897	3397
888.021	3443
888.146	3332
888.27	3462
888.395	3553
888.519	3488
888.643	3458
888.767	3511
888.891	3348
889.015	3283
889.139	3332
889.263	3294
889.387	3435
889.511	3557
889.635	3526
889.759	3329
889.883	3310
890.006	3382
890.13	3526
890.254	3321
890.377	3367
890.501	3233
890.624	3199
890.748	3329
890.871	3192
890.995	3119
891.118	3119
891.241	3260
891.364	3230
891.488	3351
891.611	3195
891.734	3268
891.857	3291
891.98	3249
892.103	3355
892.226	3302
892.349	3260
892.471	3173
892.594	3275
892.717	3302
892.839	3291
892.962	3294
893.085	3397
893.207	3310
893.33	3199
893.452	3245
893.575	3355
893.697	3268
893.819	3477
893.941	3496
894.064	3488
894.186	3336
894.308	3340
894.43	3424
894.552	3545
894.674	3496
894.796	3302
894.918	3344
895.04	3336
895.161	3481
895.283	3378
895.405	3340
895.526	3378
895.648	3477
895.769	3447
895.891	3492
896.012	3530
896.134	3481
896.255	3428
896.376	3424
896.498	3370
896.619	3439
896.74	3389
896.861	3481
896.982	3667
897.103	3846
897.224	3622
897.345	3519
897.466	3481
897.587	3553
897.708	3679
897.828	3568
897.949	3477
898.07	3389
898.19	3447
898.311	3644
898.431	3473
898.552	3538
898.672	3622
898.792	3603
898.913	3534
899.033	3454
899.153	3302
899.273	3233
899.393	3302
899.513	3325
899.633	3317
899.753	3321
899.873	3359
899.993	3397
900.113	3344
900.232	3412
900.352	3409
900.472	3291
900.591	3237
900.711	3336
900.83	3298
900.95	3477
901.069	3507
901.189	3424
901.308	3211
901.427	3173
901.546	3245
901.665	3306
901.784	3340
901.904	3230
902.023	3127
902.141	3055
902.26	3039
902.379	3184
902.498	3085
902.617	3100
902.735	3233
902.854	3260
902.973	3211
903.091	3039
903.21	3146
903.328	3131
903.446	3154
903.565	3154
903.683	3176
903.801	3135
903.919	3272
904.038	3306
904.156	3199
904.274	3317
904.392	3283
904.51	3306
904.627	3329
904.745	3469
904.863	3538
904.981	3332
905.098	3203
905.216	3275
905.334	3348
905.451	3359
905.569	3313
905.686	3424
905.803	3454
905.921	3291
906.038	3443
906.155	3397
906.272	3313
906.389	3355
906.506	3272
906.623	3287
906.74	3313
906.857	3195
906.974	3294
907.091	3481
907.208	3587
907.324	3485
907.441	3397
907.557	3245
907.674	3275
907.79	3233
907.907	3294
908.023	3389
908.139	3420
908.256	3367
908.372	3420
908.488	3348
908.604	3272
908.72	3291
908.836	3332
908.952	3313
909.068	3401
909.184	3481
909.3	3416
909.415	3492
909.531	3511
909.647	3294
909.762	3317
909.878	3260
909.993	3378
910.108	3363
910.224	3363
910.339	3439
910.454	3374
910.57	3351
910.685	3249
910.8	3618
910.915	3523
911.03	3454
911.145	3310
911.259	3275
911.374	3363
911.489	3272
911.604	3230
911.718	3135
911.833	3195
911.947	3047
912.062	3017
912.176	3184
912.291	3230
912.405	3230
912.519	3462
912.633	3500
912.748	3340
912.862	3325
912.976	3188
913.09	3062
913.204	3173
913.318	3256
913.431	3340
913.545	3329
913.659	3389
913.772	3359
913.886	3226
914	3192
914.113	3386
914.226	3397
914.34	3412
914.453	3272
914.566	3428
914.68	3302
914.793	3344
914.906	3154
915.019	3150
915.132	3104
915.245	3214
915.358	3214
915.47	3245
915.583	3279
915.696	3336
915.809	3405
915.921	3416
916.034	3226
916.146	3272
916.259	3272
916.371	3428
916.483	3351
916.595	3279
916.708	3367
916.82	3363
916.932	3359
917.044	3386
917.156	3359
917.268	3268
917.38	3298
917.491	3321
917.603	3382
917.715	3435
917.826	3507
917.938	3397
918.049	3264
918.161	3416
918.272	3599
918.384	3606
918.495	3526
918.606	3351
918.717	3272
918.828	3393
918.939	3443
919.05	3272
919.161	3378
919.272	3169
919.383	3279
919.494	3534
919.604	3736
919.715	3492
919.826	3428
919.936	3473
920.047	3591
920.157	3633
920.267	3785
920.378	3652
920.488	3564
920.598	3800
920.708	3960
920.818	3854
920.928	3842
921.038	4025
921.148	3994
921.258	3724
921.368	3625
921.477	3603
921.587	3542
921.697	3481
921.806	3633
921.916	3538
922.025	3393
922.134	3405
922.244	3302
922.353	3443
922.462	3283
922.571	3253
922.68	3138
922.789	3104
922.898	3138
923.007	3131
923.116	3222
923.224	3195
923.333	3173
923.442	3097
923.55	3146
923.659	3157
923.767	3245
923.876	3127
923.984	3230
924.092	3116
924.201	3188
924.309	3226
924.417	3291
924.525	3218
924.633	3264
924.741	4188
924.849	3089
924.956	3272
925.064	3108
925.172	3066
925.279	3100
925.387	3214
925.494	3226
925.602	3386
925.709	3351
925.816	3222
925.924	3268
926.031	3397
926.138	3329
926.245	3397
926.352	3245
926.459	3420
926.566	3477
926.673	3317
926.779	3249
926.886	3233
926.993	3161
927.099	3146
927.206	3104
927.312	3112
927.419	3241
927.525	3207
927.631	3306
927.737	3157
927.843	3119
927.95	3055
928.056	3131
928.162	3195
928.267	3294
928.373	3850
928.479	3298
928.585	3066
928.69	3241
928.796	3287
928.901	3184
929.007	3062
929.112	3199
929.218	3199
929.323	3195
929.428	3184
929.533	3302
929.638	3104
929.743	3188
929.848	3260
929.953	3203
930.058	3150
930.163	3051
930.267	3055
930.372	3203
930.477	3024
930.581	3325
930.685	3188
930.79	3077
930.894	3146
930.998	3127
931.103	3287
931.207	2990
931.311	2963
931.415	2906
931.519	2769
931.623	2800
