Data from test_V78500241_658.txt Node
Date: Fri Mar 25 16:19:45 CST 2022
User: usil
Spectrometer: V785-0024
Trigger mode: 0
Integration Time (sec): 4.000000E-1
Scans to average: 1
Nonlinearity correction enabled: false
Boxcar width: 0
Storing dark spectrum: false
XAxis mode: Wavelengths
Number of Pixels in Spectrum: 1024
>>>>>Begin Spectral Data<<<<<
801.071	2948
801.214	2929
801.356	2864
801.499	2910
801.641	2842
801.783	2937
801.926	3032
802.068	2963
802.211	3009
802.353	3032
802.496	2960
802.638	2967
802.78	3066
802.923	3077
803.065	3005
803.208	2853
803.35	2910
803.492	2906
803.635	2891
803.777	2766
803.919	2842
804.061	3233
804.204	2948
804.346	2910
804.488	2857
804.63	2986
804.773	2914
804.915	2922
805.057	3077
805.199	2914
805.341	2963
805.483	3024
805.626	2982
805.768	2971
805.91	3062
806.052	3135
806.194	3055
806.336	3230
806.478	2998
806.62	2944
806.762	2986
806.904	3032
807.046	3146
807.188	2937
807.33	2910
807.472	2990
807.614	2891
807.756	3009
807.898	2941
808.04	2899
808.182	2952
808.324	2963
808.465	2876
808.607	2864
808.749	2754
808.891	2857
809.033	2967
809.174	2979
809.316	2872
809.458	2887
809.6	2750
809.741	2788
809.883	2773
810.025	2826
810.166	2868
810.308	2868
810.45	2826
810.591	2762
810.733	2769
810.875	2834
811.016	2754
811.158	2743
811.299	2845
811.441	2952
811.582	2876
811.724	2823
811.865	2823
812.007	2864
812.148	2883
812.29	2853
812.431	2914
812.573	2933
812.714	2944
812.855	3043
812.997	3051
813.138	3127
813.279	2998
813.421	3001
813.562	2941
813.703	2872
813.845	2906
813.986	2819
814.127	2724
814.268	2819
814.41	2815
814.551	2788
814.692	2880
814.833	2834
814.974	2849
815.115	2948
815.256	2823
815.397	2826
815.539	2838
815.68	2773
815.821	2788
815.962	2941
816.103	2937
816.244	2883
816.385	2883
816.526	2982
816.666	2899
816.807	2750
816.948	2868
817.089	2941
817.23	2842
817.371	2788
817.512	2796
817.653	2853
817.793	2838
817.934	2849
818.075	2956
818.216	2960
818.356	3005
818.497	2861
818.638	2762
818.778	2807
818.919	2800
819.06	2796
819.2	2876
819.341	2781
819.481	2781
819.622	2982
819.762	3077
819.903	3032
820.043	2891
820.184	2891
820.324	2872
820.465	3032
820.605	3028
820.746	2979
820.886	2937
821.026	3089
821.167	3161
821.307	3222
821.447	3256
821.588	3245
821.728	3230
821.868	3176
822.008	3047
822.149	3188
822.289	3222
822.429	3081
822.569	3036
822.709	3173
822.849	3036
822.99	3058
823.13	3161
823.27	3226
823.41	3066
823.55	3123
823.69	3116
823.83	3195
823.97	3116
824.11	2982
824.25	2979
824.389	3047
824.529	3074
824.669	3051
824.809	3192
824.949	3260
825.089	3237
825.228	3108
825.368	3013
825.508	2925
825.648	2941
825.787	2986
825.927	3017
826.067	2982
826.206	2963
826.346	3020
826.485	3051
826.625	3119
826.765	3291
826.904	3188
827.044	2998
827.183	2929
827.323	2872
827.462	2967
827.601	2933
827.741	2952
827.88	2929
828.02	2842
828.159	2967
828.298	3017
828.437	3100
828.577	3032
828.716	3241
828.855	3047
828.994	2925
829.134	2864
829.273	2937
829.412	2842
829.551	2857
829.69	2899
829.829	2982
829.968	3127
830.107	2982
830.246	3066
830.385	2922
830.524	2899
830.663	2815
830.802	2743
830.941	2648
831.08	2674
831.219	2724
831.357	2766
831.496	2967
831.635	2701
831.774	2632
831.913	2670
832.051	2564
832.19	2568
832.329	2693
832.467	2537
832.606	2476
832.744	2571
832.883	2568
833.022	2579
833.16	2617
833.299	2689
833.437	2648
833.576	2686
833.714	2724
833.852	2758
833.991	2743
834.129	2830
834.267	2800
834.406	2804
834.544	2864
834.682	2864
834.821	2872
834.959	3062
835.097	2906
835.235	3039
835.373	2960
835.511	3028
835.65	2925
835.788	2948
835.926	2834
836.064	2800
836.202	2838
836.34	3077
836.478	3146
836.615	3009
836.753	3123
836.891	3176
837.029	3169
837.167	3085
837.305	3066
837.443	3020
837.58	2967
837.718	3127
837.856	3058
837.993	3055
838.131	3116
838.269	3066
838.406	3123
838.544	3077
838.681	2952
838.819	2944
838.956	2819
839.094	2826
839.231	2914
839.369	3013
839.506	3382
839.643	3237
839.781	2986
839.918	2925
840.055	3032
840.193	3077
840.33	3074
840.467	3047
840.604	3154
840.742	3378
840.879	3066
841.016	3070
841.153	3123
841.29	3306
841.427	3268
841.564	3272
841.701	3283
841.838	3203
841.975	3180
842.112	3203
842.249	3066
842.385	3066
842.522	3260
842.659	3085
842.796	3047
842.933	3093
843.069	3017
843.206	3020
843.343	3150
843.479	3085
843.616	3108
843.752	2906
843.889	2853
844.025	3116
844.162	2902
844.298	3081
844.435	2952
844.571	2902
844.708	3089
844.844	3161
844.98	3241
845.117	3188
845.253	3028
845.389	2979
845.525	3097
845.661	3123
845.798	3017
845.934	3131
846.07	3062
846.206	3233
846.342	3332
846.478	3192
846.614	3074
846.75	3047
846.886	3017
847.022	3253
847.158	3173
847.294	3165
847.429	3218
847.565	3214
847.701	3473
847.837	3001
847.972	2994
848.108	3135
848.244	3169
848.379	2967
848.515	2948
848.65	2902
848.786	2922
848.921	2963
849.057	3070
849.192	3138
849.328	3097
849.463	3108
849.598	3062
849.734	3024
849.869	2986
850.004	2941
850.14	2967
850.275	2918
850.41	2861
850.545	2845
850.68	2914
850.815	2979
850.95	2967
851.085	3154
851.22	3093
851.355	3024
851.49	2975
851.625	3017
851.76	3028
851.895	2937
852.03	2902
852.165	2998
852.299	3131
852.434	3150
852.569	3135
852.703	3173
852.838	3233
852.973	3317
853.107	3321
853.242	3138
853.376	3085
853.511	2963
853.645	3062
853.78	3249
853.914	3089
854.048	3089
854.183	3074
854.317	3135
854.451	3298
854.585	3108
854.72	3074
854.854	3211
854.988	3051
855.122	3123
855.256	2990
855.39	3081
855.524	3233
855.658	3192
855.792	3135
855.926	3184
856.06	3214
856.194	3230
856.327	3135
856.461	3089
856.595	3097
856.729	3062
856.862	3211
856.996	3176
857.13	3237
857.263	3188
857.397	3264
857.53	3077
857.664	3169
857.797	3218
857.931	3226
858.064	3169
858.197	3207
858.331	3100
858.464	3047
858.597	3024
858.731	3100
858.864	3123
858.997	3058
859.13	3138
859.263	3138
859.396	3169
859.529	3108
859.662	3108
859.795	3066
859.928	3135
860.061	3264
860.194	3214
860.327	3161
860.46	3070
860.592	3233
860.725	3237
860.858	3253
860.99	3081
861.123	3020
861.256	3055
861.388	3154
861.521	3812
861.653	3020
861.786	2986
861.918	2982
862.05	3039
862.183	3100
862.315	3138
862.447	3169
862.58	3081
862.712	2944
862.844	2861
862.976	3001
863.108	3001
863.24	3393
863.372	2872
863.504	2944
863.636	2960
863.768	3005
863.9	2975
864.032	2933
864.164	2956
864.296	3024
864.428	3051
864.559	3070
864.691	3074
864.823	3043
864.954	3028
865.086	3051
865.217	2967
865.349	2963
865.48	2994
865.612	3020
865.743	3142
865.875	2967
866.006	2925
866.137	3001
866.269	2944
866.4	2941
866.531	2918
866.662	2861
866.793	2876
866.924	2872
867.055	2933
867.186	2918
867.317	2876
867.448	2830
867.579	2842
867.71	2823
867.841	2823
867.972	2906
868.103	2922
868.233	2861
868.364	2861
868.495	2891
868.625	3074
868.756	3138
868.886	2963
869.017	2971
869.147	3157
869.278	3131
869.408	3020
869.539	2982
869.669	3131
869.799	3055
869.929	3142
870.06	3131
870.19	3332
870.32	3268
870.45	3272
870.58	3382
870.71	3386
870.84	3454
870.97	3306
871.1	3222
871.23	3473
871.36	3469
871.489	3329
871.619	3386
871.749	3431
871.879	3435
872.008	3458
872.138	3340
872.267	3283
872.397	3131
872.526	3104
872.656	2967
872.785	3097
872.915	3199
873.044	3313
873.173	3195
873.303	3241
873.432	3233
873.561	3199
873.69	3116
873.819	3112
873.948	3165
874.077	3077
874.206	3047
874.335	3062
874.464	3180
874.593	3336
874.722	3188
874.851	3367
874.979	3325
875.108	3279
875.237	3211
875.365	3157
875.494	3138
875.623	3241
875.751	3116
875.88	3135
876.008	3165
876.136	3211
876.265	3329
876.393	3507
876.521	3416
876.65	3378
876.778	3302
876.906	3233
877.034	3165
877.162	3237
877.29	3146
877.418	3241
877.546	3237
877.674	3245
877.802	3176
877.93	3188
878.058	3127
878.185	3089
878.313	3226
878.441	3199
878.568	3039
878.696	3146
878.824	3230
878.951	3321
879.079	3401
879.206	3606
879.333	3412
879.461	3336
879.588	3332
879.715	3488
879.842	3580
879.97	3397
880.097	3150
880.224	3138
880.351	3199
880.478	3161
880.605	3199
880.732	3199
880.859	3500
880.986	3294
881.112	3294
881.239	3207
881.366	3100
881.493	3032
881.619	2982
881.746	3077
881.872	3085
881.999	3108
882.125	3146
882.252	3211
882.378	3279
882.505	3435
882.631	3291
882.757	3135
882.883	3226
883.01	3214
883.136	3203
883.262	3089
883.388	3104
883.514	3336
883.64	3378
883.766	3340
883.892	3173
884.018	3237
884.143	3431
884.269	3576
884.395	3169
884.52	3123
884.646	3146
884.772	3097
884.897	3081
885.023	3192
885.148	3325
885.274	3435
885.399	3351
885.524	3260
885.65	3272
885.775	3310
885.9	3283
886.025	3435
886.15	3336
886.275	3291
886.4	3188
886.525	3306
886.65	3279
886.775	3253
886.9	3492
887.025	3618
887.149	3389
887.274	3237
887.399	3180
887.523	3211
887.648	3180
887.773	3176
887.897	3344
888.021	3397
888.146	3287
888.27	3454
888.395	3511
888.519	3443
888.643	3405
888.767	3447
888.891	3321
889.015	3222
889.139	3264
889.263	3241
889.387	3367
889.511	3530
889.635	3431
889.759	3275
889.883	3306
890.006	3367
890.13	3424
890.254	3256
890.377	3363
890.501	3188
890.624	3199
890.748	3226
890.871	3142
890.995	3047
891.118	3058
891.241	3203
891.364	3207
891.488	3310
891.611	3146
891.734	3226
891.857	3268
891.98	3230
892.103	3302
892.226	3272
892.349	3188
892.471	3100
892.594	3233
892.717	3264
892.839	3230
892.962	3310
893.085	3332
893.207	3272
893.33	3135
893.452	3165
893.575	3340
893.697	3245
893.819	3450
893.941	3526
894.064	3431
894.186	3272
894.308	3245
894.43	3420
894.552	3511
894.674	3454
894.796	3283
894.918	3306
895.04	3279
895.161	3405
895.283	3397
895.405	3275
895.526	3348
895.648	3416
895.769	3447
895.891	3454
896.012	3466
896.134	3447
896.255	3447
896.376	3386
896.498	3386
896.619	3409
896.74	3367
896.861	3447
896.982	3705
897.103	3880
897.224	3610
897.345	3530
897.466	3443
897.587	3534
897.708	3629
897.828	3576
897.949	3458
898.07	3374
898.19	3439
898.311	3641
898.431	3492
898.552	3530
898.672	3644
898.792	3572
898.913	3576
899.033	3447
899.153	3310
899.273	3264
899.393	3344
899.513	3367
899.633	3382
899.753	3374
899.873	3336
899.993	3397
900.113	3370
900.232	3412
900.352	3389
900.472	3294
900.591	3268
900.711	3359
900.83	3302
900.95	3454
901.069	3553
901.189	3382
901.308	3169
901.427	3150
901.546	3211
901.665	3367
901.784	3393
901.904	3237
902.023	3203
902.141	3066
902.26	3001
902.379	3199
902.498	3100
902.617	3123
902.735	3245
902.854	3268
902.973	3260
903.091	3093
903.21	3077
903.328	3214
903.446	3146
903.565	3150
903.683	3272
903.801	3150
903.919	3317
904.038	3355
904.156	3211
904.274	3321
904.392	3325
904.51	3321
904.627	3355
904.745	3469
904.863	3507
904.981	3313
905.098	3230
905.216	3291
905.334	3317
905.451	3321
905.569	3332
905.686	3500
905.803	3447
905.921	3313
906.038	3462
906.155	3428
906.272	3302
906.389	3351
906.506	3279
906.623	3287
906.74	3298
906.857	3207
906.974	3272
907.091	3500
907.208	3572
907.324	3515
907.441	3389
907.557	3294
907.674	3291
907.79	3233
907.907	3310
908.023	3409
908.139	3435
908.256	3378
908.372	3424
908.488	3401
908.604	3272
908.72	3287
908.836	3294
908.952	3313
909.068	3382
909.184	3526
909.3	3431
909.415	3511
909.531	3504
909.647	3272
909.762	3321
909.878	3279
909.993	3359
910.108	3416
910.224	3355
910.339	3435
910.454	3332
910.57	3332
910.685	3287
910.8	3625
910.915	3534
911.03	3435
911.145	3245
911.259	3260
911.374	3306
911.489	3283
911.604	3218
911.718	3131
911.833	3207
911.947	3043
912.062	2986
912.176	3199
912.291	3214
912.405	3199
912.519	3458
912.633	3462
912.748	3370
912.862	3313
912.976	3195
913.09	3089
913.204	3180
913.318	3249
913.431	3393
913.545	3344
913.659	3466
913.772	3389
913.886	3241
914	3230
914.113	3374
914.226	3431
914.34	3382
914.453	3203
914.566	3462
914.68	3340
914.793	3336
914.906	3211
915.019	3116
915.132	3085
915.245	3222
915.358	3195
915.47	3253
915.583	3294
915.696	3317
915.809	3431
915.921	3496
916.034	3275
916.146	3294
916.259	3237
916.371	3405
916.483	3378
916.595	3306
916.708	3389
916.82	3363
916.932	3412
917.044	3397
917.156	3409
917.268	3272
917.38	3294
917.491	3317
917.603	3416
917.715	3450
917.826	3507
917.938	3382
918.049	3306
918.161	3469
918.272	3545
918.384	3641
918.495	3507
918.606	3317
918.717	3291
918.828	3386
918.939	3477
919.05	3329
919.161	3420
919.272	3226
919.383	3298
919.494	3504
919.604	3690
919.715	3492
919.826	3450
919.936	3469
920.047	3618
920.157	3523
920.267	3797
920.378	3633
920.488	3591
920.598	3781
920.708	3956
920.818	3838
920.928	3854
921.038	4055
921.148	4013
921.258	3774
921.368	3652
921.477	3595
921.587	3557
921.697	3485
921.806	3648
921.916	3572
922.025	3351
922.134	3420
922.244	3313
922.353	3447
922.462	3287
922.571	3233
922.68	3097
922.789	3104
922.898	3165
923.007	3127
923.116	3237
923.224	3237
923.333	3207
923.442	3146
923.55	3085
923.659	3169
923.767	3253
923.876	3192
923.984	3268
924.092	3135
924.201	3245
924.309	3264
924.417	3287
924.525	3184
924.633	3253
924.741	4017
924.849	3062
924.956	3283
925.064	3116
925.172	3066
925.279	3123
925.387	3214
925.494	3218
925.602	3386
925.709	3363
925.816	3192
925.924	3298
926.031	3378
926.138	3359
926.245	3420
926.352	3241
926.459	3469
926.566	3473
926.673	3344
926.779	3268
926.886	3302
926.993	3165
927.099	3157
927.206	3119
927.312	3100
927.419	3253
927.525	3241
927.631	3279
927.737	3154
927.843	3108
927.95	3032
928.056	3108
928.162	3226
928.267	3241
928.373	3850
928.479	3344
928.585	3104
928.69	3241
928.796	3325
928.901	3180
929.007	3077
929.112	3211
929.218	3214
929.323	3192
929.428	3169
929.533	3340
929.638	3154
929.743	3173
929.848	3264
929.953	3253
930.058	3146
930.163	3032
930.267	3081
930.372	3230
930.477	3055
930.581	3325
930.685	3230
930.79	3146
930.894	3119
930.998	3123
931.103	3340
931.207	3005
931.311	2956
931.415	2944
931.519	2804
931.623	2826
