Data from test_V78500241_268.txt Node
Date: Fri Mar 25 16:17:03 CST 2022
User: usil
Spectrometer: V785-0024
Trigger mode: 0
Integration Time (sec): 4.000000E-1
Scans to average: 1
Nonlinearity correction enabled: false
Boxcar width: 0
Storing dark spectrum: false
XAxis mode: Wavelengths
Number of Pixels in Spectrum: 1024
>>>>>Begin Spectral Data<<<<<
801.071	2906
801.214	2929
801.356	2868
801.499	2887
801.641	2853
801.783	2914
801.926	3085
802.068	2967
802.211	2971
802.353	3039
802.496	2979
802.638	3020
802.78	3001
802.923	3047
803.065	3013
803.208	2880
803.35	2948
803.492	2933
803.635	2941
803.777	2720
803.919	2861
804.061	3184
804.204	2914
804.346	2918
804.488	2853
804.63	2979
804.773	2861
804.915	2906
805.057	3070
805.199	2906
805.341	2956
805.483	3017
805.626	2998
805.768	2952
805.91	3089
806.052	3108
806.194	3047
806.336	3218
806.478	2979
806.62	2982
806.762	2986
806.904	3039
807.046	3135
807.188	2990
807.33	2880
807.472	2963
807.614	2914
807.756	3001
807.898	2899
808.04	2864
808.182	2956
808.324	2967
808.465	2857
808.607	2872
808.749	2807
808.891	2853
809.033	3001
809.174	2948
809.316	2864
809.458	2880
809.6	2781
809.741	2781
809.883	2796
810.025	2838
810.166	2826
810.308	2864
810.45	2830
810.591	2792
810.733	2758
810.875	2796
811.016	2788
811.158	2727
811.299	2853
811.441	2933
811.582	2883
811.724	2834
811.865	2838
812.007	2918
812.148	2891
812.29	2834
812.431	2883
812.573	2925
812.714	2967
812.855	3051
812.997	3066
813.138	3104
813.279	3032
813.421	2971
813.562	2952
813.703	2864
813.845	2876
813.986	2773
814.127	2754
814.268	2830
814.41	2819
814.551	2861
814.692	2887
814.833	2781
814.974	2914
815.115	2971
815.256	2823
815.397	2800
815.539	2853
815.68	2766
815.821	2754
815.962	2933
816.103	2925
816.244	2864
816.385	2849
816.526	2975
816.666	2941
816.807	2746
816.948	2899
817.089	2883
817.23	2861
817.371	2815
817.512	2838
817.653	2864
817.793	2781
817.934	2842
818.075	2963
818.216	2971
818.356	3001
818.497	2872
818.638	2796
818.778	2804
818.919	2815
819.06	2727
819.2	2868
819.341	2796
819.481	2819
819.622	2956
819.762	3062
819.903	3039
820.043	2906
820.184	2922
820.324	2922
820.465	3017
820.605	2994
820.746	3051
820.886	2922
821.026	3104
821.167	3214
821.307	3233
821.447	3264
821.588	3264
821.728	3203
821.868	3138
822.008	3081
822.149	3207
822.289	3275
822.429	3077
822.569	3070
822.709	3211
822.849	3013
822.99	3097
823.13	3135
823.27	3211
823.41	3077
823.55	3138
823.69	3135
823.83	3180
823.97	3077
824.11	3001
824.25	2979
824.389	3043
824.529	3116
824.669	3097
824.809	3176
824.949	3249
825.089	3176
825.228	3154
825.368	3020
825.508	2910
825.648	2918
825.787	2998
825.927	3005
826.067	2975
826.206	2922
826.346	3039
826.485	3058
826.625	3081
826.765	3275
826.904	3195
827.044	3001
827.183	2914
827.323	2849
827.462	2975
827.601	2902
827.741	2925
827.88	2937
828.02	2872
828.159	2979
828.298	3001
828.437	3093
828.577	3036
828.716	3241
828.855	3081
828.994	2906
829.134	2895
829.273	2902
829.412	2887
829.551	2845
829.69	2853
829.829	2971
829.968	3112
830.107	3001
830.246	3009
830.385	2902
830.524	2883
830.663	2815
830.802	2716
830.941	2686
831.08	2670
831.219	2739
831.357	2773
831.496	2963
831.635	2766
831.774	2632
831.913	2655
832.051	2530
832.19	2568
832.329	2705
832.467	2522
832.606	2503
832.744	2575
832.883	2560
833.022	2568
833.16	2636
833.299	2674
833.437	2682
833.576	2708
833.714	2720
833.852	2727
833.991	2746
834.129	2842
834.267	2796
834.406	2777
834.544	2876
834.682	2876
834.821	2849
834.959	3024
835.097	2910
835.235	3055
835.373	2975
835.511	3017
835.65	2944
835.788	2990
835.926	2861
836.064	2811
836.202	2853
836.34	3074
836.478	3161
836.615	3047
836.753	3165
836.891	3180
837.029	3157
837.167	3097
837.305	3085
837.443	3058
837.58	2925
837.718	3142
837.856	3043
837.993	3051
838.131	3127
838.269	3089
838.406	3108
838.544	3077
838.681	2918
838.819	2918
838.956	2788
839.094	2842
839.231	2891
839.369	3024
839.506	3374
839.643	3176
839.781	2963
839.918	2956
840.055	3047
840.193	3020
840.33	3070
840.467	3100
840.604	3165
840.742	3363
840.879	3058
841.016	3055
841.153	3074
841.29	3367
841.427	3268
841.564	3256
841.701	3291
841.838	3207
841.975	3176
842.112	3176
842.249	3104
842.385	3028
842.522	3283
842.659	3070
842.796	3066
842.933	3043
843.069	3005
843.206	2994
843.343	3157
843.479	3097
843.616	3169
843.752	2906
843.889	2883
844.025	3070
844.162	2861
844.298	3074
844.435	2899
844.571	2906
844.708	3062
844.844	3203
844.98	3218
845.117	3180
845.253	3077
845.389	2971
845.525	3085
845.661	3100
845.798	2979
845.934	3127
846.07	3028
846.206	3211
846.342	3268
846.478	3233
846.614	3077
846.75	3051
846.886	3009
847.022	3176
847.158	3104
847.294	3211
847.429	3241
847.565	3195
847.701	3462
847.837	3013
847.972	3001
848.108	3165
848.244	3131
848.379	2952
848.515	2929
848.65	2922
848.786	2994
848.921	2990
849.057	3112
849.192	3131
849.328	3081
849.463	3135
849.598	3070
849.734	3062
849.869	2990
850.004	2925
850.14	2994
850.275	2929
850.41	2853
850.545	2918
850.68	2925
850.815	3005
850.95	2986
851.085	3195
851.22	3150
851.355	3070
851.49	2998
851.625	3017
851.76	3028
851.895	2982
852.03	2975
852.165	3055
852.299	3154
852.434	3214
852.569	3173
852.703	3222
852.838	3264
852.973	3367
853.107	3370
853.242	3184
853.376	3150
853.511	3005
853.645	3085
853.78	3253
853.914	3184
854.048	3173
854.183	3081
854.317	3211
854.451	3329
854.585	3154
854.72	3108
854.854	3256
854.988	3066
855.122	3093
855.256	3032
855.39	3176
855.524	3294
855.658	3249
855.792	3207
855.926	3241
856.06	3260
856.194	3306
856.327	3192
856.461	3138
856.595	3108
856.729	3127
856.862	3256
856.996	3188
857.13	3233
857.263	3291
857.397	3287
857.53	3173
857.664	3226
857.797	3306
857.931	3298
858.064	3188
858.197	3245
858.331	3180
858.464	3157
858.597	3009
858.731	3127
858.864	3154
858.997	3150
859.13	3199
859.263	3241
859.396	3256
859.529	3127
859.662	3104
859.795	3104
859.928	3230
860.061	3306
860.194	3382
860.327	3150
860.46	3112
860.592	3294
860.725	3294
860.858	3321
860.99	3154
861.123	3089
861.256	3089
861.388	3180
861.521	3880
861.653	3047
861.786	3009
861.918	3051
862.05	3123
862.183	3150
862.315	3169
862.447	3218
862.58	3142
862.712	2956
862.844	2883
862.976	3055
863.108	3043
863.24	3367
863.372	2937
863.504	2986
863.636	2944
863.768	3039
863.9	2990
864.032	2960
864.164	2971
864.296	3055
864.428	3100
864.559	3150
864.691	3062
864.823	3104
864.954	3085
865.086	3104
865.217	3020
865.349	3001
865.48	2971
865.612	3043
865.743	3165
865.875	2998
866.006	2963
866.137	3001
866.269	2944
866.4	2967
866.531	2960
866.662	2975
866.793	2880
866.924	2941
867.055	3024
867.186	2963
867.317	2956
867.448	2853
867.579	2891
867.71	2922
867.841	2842
867.972	2952
868.103	2933
868.233	2933
868.364	2891
868.495	2948
868.625	3123
868.756	3195
868.886	2994
869.017	3070
869.147	3211
869.278	3169
869.408	3081
869.539	3055
869.669	3138
869.799	3039
869.929	3135
870.06	3097
870.19	3348
870.32	3302
870.45	3351
870.58	3397
870.71	3526
870.84	3447
870.97	3336
871.1	3272
871.23	3515
871.36	3488
871.489	3389
871.619	3374
871.749	3458
871.879	3458
872.008	3492
872.138	3378
872.267	3260
872.397	3211
872.526	3116
872.656	3051
872.785	3135
872.915	3298
873.044	3355
873.173	3272
873.303	3249
873.432	3260
873.561	3298
873.69	3199
873.819	3203
873.948	3226
874.077	3116
874.206	3097
874.335	3108
874.464	3245
874.593	3374
874.722	3294
874.851	3435
874.979	3382
875.108	3374
875.237	3253
875.365	3218
875.494	3237
875.623	3306
875.751	3127
875.88	3135
876.008	3214
876.136	3287
876.265	3401
876.393	3545
876.521	3473
876.65	3469
876.778	3348
876.906	3298
877.034	3245
877.162	3272
877.29	3207
877.418	3298
877.546	3264
877.674	3272
877.802	3291
877.93	3264
878.058	3188
878.185	3142
878.313	3218
878.441	3245
878.568	3112
878.696	3135
878.824	3287
878.951	3329
879.079	3466
879.206	3591
879.333	3504
879.461	3367
879.588	3424
879.715	3504
879.842	3603
879.97	3405
880.097	3184
880.224	3142
880.351	3218
880.478	3279
880.605	3226
880.732	3203
880.859	3568
880.986	3329
881.112	3359
881.239	3272
881.366	3085
881.493	3066
881.619	3032
881.746	3097
881.872	3135
881.999	3123
882.125	3161
882.252	3256
882.378	3340
882.505	3431
882.631	3344
882.757	3169
882.883	3294
883.01	3287
883.136	3192
883.262	3127
883.388	3157
883.514	3340
883.64	3435
883.766	3340
883.892	3237
884.018	3253
884.143	3439
884.269	3610
884.395	3253
884.52	3184
884.646	3237
884.772	3169
884.897	3116
885.023	3218
885.148	3367
885.274	3443
885.399	3389
885.524	3355
885.65	3291
885.775	3359
885.9	3325
886.025	3462
886.15	3386
886.275	3340
886.4	3233
886.525	3344
886.65	3313
886.775	3283
886.9	3549
887.025	3682
887.149	3389
887.274	3313
887.399	3211
887.523	3218
887.648	3207
887.773	3211
887.897	3416
888.021	3458
888.146	3340
888.27	3443
888.395	3580
888.519	3515
888.643	3443
888.767	3488
888.891	3344
889.015	3287
889.139	3325
889.263	3283
889.387	3454
889.511	3526
889.635	3500
889.759	3325
889.883	3332
890.006	3389
890.13	3523
890.254	3306
890.377	3310
890.501	3195
890.624	3218
890.748	3317
890.871	3230
890.995	3135
891.118	3093
891.241	3192
891.364	3233
891.488	3336
891.611	3203
891.734	3287
891.857	3272
891.98	3230
892.103	3370
892.226	3283
892.349	3256
892.471	3165
892.594	3294
892.717	3313
892.839	3287
892.962	3298
893.085	3363
893.207	3344
893.33	3180
893.452	3218
893.575	3386
893.697	3260
893.819	3473
893.941	3526
894.064	3496
894.186	3291
894.308	3317
894.43	3435
894.552	3553
894.674	3492
894.796	3329
894.918	3348
895.04	3294
895.161	3473
895.283	3443
895.405	3329
895.526	3393
895.648	3477
895.769	3458
895.891	3511
896.012	3481
896.134	3462
896.255	3439
896.376	3409
896.498	3428
896.619	3439
896.74	3401
896.861	3416
896.982	3705
897.103	3850
897.224	3614
897.345	3553
897.466	3500
897.587	3549
897.708	3637
897.828	3553
897.949	3507
898.07	3363
898.19	3409
898.311	3625
898.431	3462
898.552	3587
898.672	3625
898.792	3599
898.913	3530
899.033	3435
899.153	3313
899.273	3253
899.393	3317
899.513	3367
899.633	3336
899.753	3382
899.873	3340
899.993	3412
900.113	3306
900.232	3443
900.352	3367
900.472	3298
900.591	3222
900.711	3317
900.83	3207
900.95	3420
901.069	3526
901.189	3401
901.308	3226
901.427	3154
901.546	3222
901.665	3294
901.784	3370
901.904	3283
902.023	3138
902.141	3032
902.26	3032
902.379	3226
902.498	3104
902.617	3100
902.735	3237
902.854	3275
902.973	3237
903.091	3051
903.21	3066
903.328	3157
903.446	3127
903.565	3089
903.683	3226
903.801	3131
903.919	3275
904.038	3332
904.156	3173
904.274	3317
904.392	3279
904.51	3302
904.627	3351
904.745	3420
904.863	3530
904.981	3275
905.098	3211
905.216	3207
905.334	3298
905.451	3321
905.569	3325
905.686	3450
905.803	3485
905.921	3306
906.038	3466
906.155	3378
906.272	3317
906.389	3340
906.506	3283
906.623	3298
906.74	3253
906.857	3222
906.974	3264
907.091	3450
907.208	3568
907.324	3485
907.441	3431
907.557	3245
907.674	3275
907.79	3275
907.907	3302
908.023	3424
908.139	3382
908.256	3291
908.372	3405
908.488	3401
908.604	3283
908.72	3211
908.836	3344
908.952	3287
909.068	3367
909.184	3492
909.3	3435
909.415	3526
909.531	3439
909.647	3310
909.762	3325
909.878	3275
909.993	3378
910.108	3348
910.224	3332
910.339	3378
910.454	3336
910.57	3351
910.685	3272
910.8	3606
910.915	3595
911.03	3477
911.145	3264
911.259	3283
911.374	3336
911.489	3294
911.604	3226
911.718	3138
911.833	3173
911.947	3077
912.062	3001
912.176	3188
912.291	3226
912.405	3237
912.519	3458
912.633	3492
912.748	3355
912.862	3264
912.976	3226
913.09	3066
913.204	3131
913.318	3253
913.431	3351
913.545	3351
913.659	3409
913.772	3351
913.886	3199
914	3211
914.113	3382
914.226	3389
914.34	3401
914.453	3230
914.566	3401
914.68	3321
914.793	3340
914.906	3176
915.019	3112
915.132	3062
915.245	3195
915.358	3222
915.47	3241
915.583	3294
915.696	3298
915.809	3439
915.921	3469
916.034	3298
916.146	3249
916.259	3275
916.371	3386
916.483	3416
916.595	3313
916.708	3321
916.82	3317
916.932	3359
917.044	3344
917.156	3374
917.268	3275
917.38	3329
917.491	3302
917.603	3412
917.715	3485
917.826	3485
917.938	3374
918.049	3317
918.161	3431
918.272	3595
918.384	3595
918.495	3526
918.606	3351
918.717	3313
918.828	3401
918.939	3469
919.05	3332
919.161	3389
919.272	3230
919.383	3317
919.494	3500
919.604	3740
919.715	3542
919.826	3431
919.936	3496
920.047	3599
920.157	3610
920.267	3781
920.378	3644
920.488	3618
920.598	3846
920.708	3956
920.818	3854
920.928	3903
921.038	4097
921.148	4017
921.258	3747
921.368	3713
921.477	3625
921.587	3595
921.697	3523
921.806	3675
921.916	3614
922.025	3409
922.134	3420
922.244	3359
922.353	3450
922.462	3348
922.571	3264
922.68	3176
922.789	3116
922.898	3150
923.007	3138
923.116	3230
923.224	3218
923.333	3230
923.442	3123
923.55	3199
923.659	3233
923.767	3283
923.876	3176
923.984	3306
924.092	3161
924.201	3226
924.309	3306
924.417	3287
924.525	3233
924.633	3298
924.741	4169
924.849	3085
924.956	3310
925.064	3146
925.172	3116
925.279	3142
925.387	3287
925.494	3245
925.602	3409
925.709	3378
925.816	3233
925.924	3359
926.031	3435
926.138	3367
926.245	3393
926.352	3340
926.459	3504
926.566	3523
926.673	3378
926.779	3325
926.886	3268
926.993	3180
927.099	3195
927.206	3142
927.312	3180
927.419	3275
927.525	3245
927.631	3348
927.737	3207
927.843	3199
927.95	3077
928.056	3207
928.162	3207
928.267	3329
928.373	3915
928.479	3355
928.585	3123
928.69	3268
928.796	3313
928.901	3176
929.007	3116
929.112	3218
929.218	3264
929.323	3218
929.428	3211
929.533	3363
929.638	3150
929.743	3207
929.848	3344
929.953	3233
930.058	3184
930.163	3058
930.267	3070
930.372	3214
930.477	3108
930.581	3351
930.685	3268
930.79	3116
930.894	3161
930.998	3100
931.103	3302
931.207	2952
931.311	3005
931.415	2990
931.519	2815
931.623	2815
