Data from test_V78500241_1989.txt Node
Date: Fri Mar 25 16:28:58 CST 2022
User: usil
Spectrometer: V785-0024
Trigger mode: 0
Integration Time (sec): 4.000000E-1
Scans to average: 1
Nonlinearity correction enabled: false
Boxcar width: 0
Storing dark spectrum: false
XAxis mode: Wavelengths
Number of Pixels in Spectrum: 1024
>>>>>Begin Spectral Data<<<<<
801.071	2902
801.214	2956
801.356	2883
801.499	2895
801.641	2864
801.783	2918
801.926	3074
802.068	2967
802.211	3001
802.353	3020
802.496	3009
802.638	2998
802.78	3070
802.923	3085
803.065	2982
803.208	2906
803.35	2891
803.492	2956
803.635	2906
803.777	2792
803.919	2872
804.061	3188
804.204	2956
804.346	2895
804.488	2826
804.63	2960
804.773	2887
804.915	2880
805.057	3093
805.199	2922
805.341	2971
805.483	3070
805.626	3009
805.768	2982
805.91	3123
806.052	3131
806.194	3024
806.336	3218
806.478	3017
806.62	2994
806.762	2963
806.904	3055
807.046	3142
807.188	2979
807.33	2914
807.472	2998
807.614	2929
807.756	2998
807.898	2956
808.04	2922
808.182	2982
808.324	2971
808.465	2872
808.607	2864
808.749	2804
808.891	2811
809.033	2956
809.174	2941
809.316	2895
809.458	2895
809.6	2785
809.741	2739
809.883	2758
810.025	2857
810.166	2853
810.308	2830
810.45	2868
810.591	2750
810.733	2762
810.875	2861
811.016	2781
811.158	2758
811.299	2826
811.441	2941
811.582	2929
811.724	2845
811.865	2823
812.007	2914
812.148	2861
812.29	2857
812.431	2864
812.573	2918
812.714	2948
812.855	3032
812.997	3047
813.138	3119
813.279	3020
813.421	2990
813.562	2963
813.703	2861
813.845	2872
813.986	2754
814.127	2720
814.268	2785
814.41	2876
814.551	2819
814.692	2857
814.833	2830
814.974	2902
815.115	2933
815.256	2826
815.397	2842
815.539	2864
815.68	2777
815.821	2773
815.962	2902
816.103	2922
816.244	2838
816.385	2842
816.526	2944
816.666	2933
816.807	2743
816.948	2872
817.089	2887
817.23	2861
817.371	2838
817.512	2804
817.653	2834
817.793	2819
817.934	2910
818.075	2967
818.216	2956
818.356	3013
818.497	2861
818.638	2792
818.778	2842
818.919	2781
819.06	2750
819.2	2864
819.341	2834
819.481	2811
819.622	2895
819.762	3135
819.903	3055
820.043	2925
820.184	2922
820.324	2902
820.465	3005
820.605	2998
820.746	2979
820.886	2899
821.026	3104
821.167	3157
821.307	3302
821.447	3294
821.588	3192
821.728	3192
821.868	3192
822.008	3081
822.149	3207
822.289	3199
822.429	3081
822.569	3074
822.709	3154
822.849	2990
822.99	3028
823.13	3138
823.27	3188
823.41	3089
823.55	3173
823.69	3108
823.83	3214
823.97	3066
824.11	2994
824.25	2994
824.389	3093
824.529	3066
824.669	3013
824.809	3161
824.949	3253
825.089	3195
825.228	3188
825.368	3001
825.508	2910
825.648	2944
825.787	2998
825.927	3028
826.067	2937
826.206	2929
826.346	3028
826.485	3058
826.625	3123
826.765	3275
826.904	3203
827.044	2975
827.183	2937
827.323	2807
827.462	2960
827.601	2895
827.741	2937
827.88	2929
828.02	2880
828.159	2994
828.298	3013
828.437	3135
828.577	3074
828.716	3233
828.855	3077
828.994	2895
829.134	2880
829.273	2910
829.412	2826
829.551	2876
829.69	2891
829.829	2986
829.968	3146
830.107	2998
830.246	2986
830.385	2937
830.524	2864
830.663	2815
830.802	2708
830.941	2667
831.08	2667
831.219	2754
831.357	2750
831.496	2967
831.635	2746
831.774	2640
831.913	2636
832.051	2571
832.19	2602
832.329	2674
832.467	2533
832.606	2499
832.744	2598
832.883	2583
833.022	2594
833.16	2625
833.299	2689
833.437	2686
833.576	2678
833.714	2712
833.852	2746
833.991	2750
834.129	2804
834.267	2842
834.406	2804
834.544	2876
834.682	2883
834.821	2861
834.959	3047
835.097	2910
835.235	3036
835.373	3013
835.511	2998
835.65	2944
835.788	2941
835.926	2838
836.064	2785
836.202	2853
836.34	3085
836.478	3138
836.615	3009
836.753	3093
836.891	3173
837.029	3138
837.167	3100
837.305	3017
837.443	3009
837.58	2948
837.718	3161
837.856	3028
837.993	3024
838.131	3116
838.269	3108
838.406	3077
838.544	3081
838.681	2956
838.819	2922
838.956	2823
839.094	2796
839.231	2918
839.369	3020
839.506	3351
839.643	3241
839.781	3028
839.918	2925
840.055	3024
840.193	3074
840.33	3066
840.467	3119
840.604	3146
840.742	3386
840.879	3062
841.016	3032
841.153	3119
841.29	3317
841.427	3260
841.564	3241
841.701	3275
841.838	3218
841.975	3157
842.112	3199
842.249	3097
842.385	3020
842.522	3260
842.659	3074
842.796	3020
842.933	3055
843.069	3058
843.206	3089
843.343	3184
843.479	3093
843.616	3131
843.752	2906
843.889	2853
844.025	3062
844.162	2880
844.298	3066
844.435	2960
844.571	2906
844.708	3066
844.844	3169
844.98	3253
845.117	3199
845.253	3047
845.389	2982
845.525	3116
845.661	3097
845.798	3005
845.934	3104
846.07	3070
846.206	3199
846.342	3279
846.478	3211
846.614	3097
846.75	3032
846.886	3020
847.022	3245
847.158	3093
847.294	3180
847.429	3260
847.565	3207
847.701	3477
847.837	3024
847.972	2990
848.108	3180
848.244	3135
848.379	3020
848.515	2933
848.65	2925
848.786	2941
848.921	3001
849.057	3123
849.192	3131
849.328	3066
849.463	3112
849.598	3070
849.734	3028
849.869	2944
850.004	2937
850.14	2963
850.275	2887
850.41	2823
850.545	2880
850.68	2933
850.815	2952
850.95	2948
851.085	3176
851.22	3077
851.355	3039
851.49	2963
851.625	2971
851.76	3032
851.895	2937
852.03	2891
852.165	3028
852.299	3104
852.434	3169
852.569	3123
852.703	3157
852.838	3226
852.973	3317
853.107	3321
853.242	3127
853.376	3051
853.511	2952
853.645	3013
853.78	3230
853.914	3116
854.048	3108
854.183	3062
854.317	3116
854.451	3275
854.585	3081
854.72	3108
854.854	3176
854.988	3024
855.122	3066
855.256	2971
855.39	3116
855.524	3249
855.658	3150
855.792	3146
855.926	3207
856.06	3245
856.194	3264
856.327	3173
856.461	3066
856.595	3089
856.729	3043
856.862	3165
856.996	3138
857.13	3211
857.263	3214
857.397	3249
857.53	3127
857.664	3165
857.797	3214
857.931	3253
858.064	3184
858.197	3211
858.331	3116
858.464	3081
858.597	3013
858.731	3100
858.864	3108
858.997	3051
859.13	3108
859.263	3131
859.396	3184
859.529	3055
859.662	3089
859.795	3024
859.928	3123
860.061	3237
860.194	3302
860.327	3119
860.46	3081
860.592	3249
860.725	3230
860.858	3199
860.99	3089
861.123	3051
861.256	3028
861.388	3142
861.521	3861
861.653	3047
861.786	2956
861.918	2960
862.05	3043
862.183	3047
862.315	3127
862.447	3195
862.58	3066
862.712	2944
862.844	2872
862.976	3017
863.108	2998
863.24	3416
863.372	2838
863.504	2956
863.636	2933
863.768	2986
863.9	2948
864.032	2906
864.164	2960
864.296	2967
864.428	3070
864.559	3085
864.691	3043
864.823	3058
864.954	3055
865.086	3032
865.217	2963
865.349	2933
865.48	2967
865.612	2998
865.743	3150
865.875	2941
866.006	2937
866.137	2960
866.269	2975
866.4	2910
866.531	2906
866.662	2864
866.793	2887
866.924	2910
867.055	2994
867.186	2925
867.317	2876
867.448	2857
867.579	2845
867.71	2838
867.841	2796
867.972	2910
868.103	2861
868.233	2891
868.364	2906
868.495	2918
868.625	3077
868.756	3138
868.886	3005
869.017	3028
869.147	3123
869.278	3123
869.408	3020
869.539	2990
869.669	3108
869.799	3043
869.929	3131
870.06	3081
870.19	3317
870.32	3268
870.45	3268
870.58	3340
870.71	3485
870.84	3389
870.97	3291
871.1	3230
871.23	3469
871.36	3485
871.489	3355
871.619	3397
871.749	3424
871.879	3431
872.008	3485
872.138	3370
872.267	3253
872.397	3127
872.526	3097
872.656	2982
872.785	3104
872.915	3256
873.044	3355
873.173	3230
873.303	3253
873.432	3203
873.561	3226
873.69	3176
873.819	3135
873.948	3176
874.077	3100
874.206	3028
874.335	3085
874.464	3176
874.593	3344
874.722	3218
874.851	3386
874.979	3370
875.108	3340
875.237	3188
875.365	3142
875.494	3146
875.623	3241
875.751	3062
875.88	3116
876.008	3150
876.136	3184
876.265	3389
876.393	3496
876.521	3416
876.65	3382
876.778	3291
876.906	3272
877.034	3207
877.162	3226
877.29	3154
877.418	3241
877.546	3241
877.674	3214
877.802	3256
877.93	3211
878.058	3157
878.185	3077
878.313	3203
878.441	3211
878.568	3051
878.696	3161
878.824	3218
878.951	3298
879.079	3435
879.206	3625
879.333	3443
879.461	3321
879.588	3355
879.715	3454
879.842	3591
879.97	3397
880.097	3165
880.224	3097
880.351	3214
880.478	3233
880.605	3226
880.732	3195
880.859	3511
880.986	3294
881.112	3359
881.239	3256
881.366	3104
881.493	2990
881.619	3009
881.746	3077
881.872	3089
881.999	3066
882.125	3150
882.252	3241
882.378	3291
882.505	3405
882.631	3256
882.757	3131
882.883	3207
883.01	3218
883.136	3176
883.262	3116
883.388	3097
883.514	3344
883.64	3336
883.766	3283
883.892	3199
884.018	3253
884.143	3397
884.269	3542
884.395	3188
884.52	3161
884.646	3157
884.772	3123
884.897	3066
885.023	3176
885.148	3340
885.274	3386
885.399	3329
885.524	3264
885.65	3230
885.775	3321
885.9	3249
886.025	3420
886.15	3359
886.275	3279
886.4	3253
886.525	3294
886.65	3249
886.775	3272
886.9	3500
887.025	3610
887.149	3424
887.274	3249
887.399	3195
887.523	3176
887.648	3199
887.773	3230
887.897	3351
888.021	3405
888.146	3287
888.27	3416
888.395	3488
888.519	3401
888.643	3458
888.767	3462
888.891	3294
889.015	3195
889.139	3260
889.263	3222
889.387	3397
889.511	3504
889.635	3428
889.759	3283
889.883	3298
890.006	3370
890.13	3492
890.254	3264
890.377	3325
890.501	3207
890.624	3157
890.748	3256
890.871	3173
890.995	3100
891.118	3062
891.241	3188
891.364	3195
891.488	3264
891.611	3142
891.734	3222
891.857	3302
891.98	3245
892.103	3336
892.226	3268
892.349	3222
892.471	3093
892.594	3264
892.717	3283
892.839	3268
892.962	3256
893.085	3317
893.207	3310
893.33	3161
893.452	3188
893.575	3310
893.697	3241
893.819	3443
893.941	3485
894.064	3424
894.186	3268
894.308	3272
894.43	3439
894.552	3500
894.674	3515
894.796	3253
894.918	3370
895.04	3264
895.161	3439
895.283	3401
895.405	3306
895.526	3389
895.648	3405
895.769	3389
895.891	3492
896.012	3462
896.134	3450
896.255	3412
896.376	3359
896.498	3370
896.619	3420
896.74	3378
896.861	3374
896.982	3652
897.103	3838
897.224	3542
897.345	3526
897.466	3409
897.587	3500
897.708	3622
897.828	3553
897.949	3431
898.07	3351
898.19	3401
898.311	3587
898.431	3458
898.552	3511
898.672	3618
898.792	3599
898.913	3526
899.033	3454
899.153	3241
899.273	3218
899.393	3249
899.513	3298
899.633	3302
899.753	3313
899.873	3332
899.993	3389
900.113	3310
900.232	3374
900.352	3420
900.472	3310
900.591	3169
900.711	3291
900.83	3230
900.95	3416
901.069	3504
901.189	3325
901.308	3173
901.427	3108
901.546	3184
901.665	3260
901.784	3351
901.904	3207
902.023	3150
902.141	2975
902.26	3032
902.379	3112
902.498	3055
902.617	3066
902.735	3192
902.854	3233
902.973	3218
903.091	3058
903.21	3077
903.328	3138
903.446	3070
903.565	3112
903.683	3192
903.801	3150
903.919	3237
904.038	3272
904.156	3203
904.274	3268
904.392	3214
904.51	3245
904.627	3317
904.745	3435
904.863	3500
904.981	3279
905.098	3127
905.216	3256
905.334	3302
905.451	3329
905.569	3298
905.686	3378
905.803	3477
905.921	3253
906.038	3431
906.155	3367
906.272	3294
906.389	3317
906.506	3226
906.623	3237
906.74	3268
906.857	3169
906.974	3253
907.091	3435
907.208	3523
907.324	3405
907.441	3363
907.557	3218
907.674	3230
907.79	3180
907.907	3272
908.023	3359
908.139	3412
908.256	3355
908.372	3344
908.488	3310
908.604	3264
908.72	3241
908.836	3298
908.952	3256
909.068	3332
909.184	3469
909.3	3382
909.415	3530
909.531	3473
909.647	3287
909.762	3256
909.878	3321
909.993	3382
910.108	3325
910.224	3332
910.339	3382
910.454	3317
910.57	3294
910.685	3260
910.8	3606
910.915	3530
911.03	3454
911.145	3256
911.259	3237
911.374	3351
911.489	3241
911.604	3230
911.718	3131
911.833	3173
911.947	3032
912.062	3009
912.176	3135
912.291	3211
912.405	3176
912.519	3412
912.633	3416
912.748	3302
912.862	3256
912.976	3142
913.09	3070
913.204	3161
913.318	3195
913.431	3325
913.545	3321
913.659	3416
913.772	3359
913.886	3241
914	3214
914.113	3336
914.226	3435
914.34	3355
914.453	3214
914.566	3348
914.68	3298
914.793	3325
914.906	3138
915.019	3100
915.132	3081
915.245	3184
915.358	3230
915.47	3211
915.583	3279
915.696	3321
915.809	3424
915.921	3428
916.034	3260
916.146	3268
916.259	3241
916.371	3389
916.483	3363
916.595	3302
916.708	3344
916.82	3332
916.932	3344
917.044	3313
917.156	3355
917.268	3287
917.38	3329
917.491	3275
917.603	3363
917.715	3435
917.826	3447
917.938	3374
918.049	3249
918.161	3473
918.272	3614
918.384	3580
918.495	3492
918.606	3321
918.717	3272
918.828	3374
918.939	3397
919.05	3325
919.161	3332
919.272	3184
919.383	3298
919.494	3477
919.604	3701
919.715	3473
919.826	3439
919.936	3481
920.047	3584
920.157	3549
920.267	3785
920.378	3656
920.488	3561
920.598	3785
920.708	3949
920.818	3800
920.928	3857
921.038	3964
921.148	4010
921.258	3709
921.368	3641
921.477	3576
921.587	3572
921.697	3435
921.806	3603
921.916	3477
922.025	3340
922.134	3363
922.244	3279
922.353	3386
922.462	3249
922.571	3214
922.68	3116
922.789	3077
922.898	3127
923.007	3077
923.116	3192
923.224	3142
923.333	3176
923.442	3055
923.55	3119
923.659	3142
923.767	3203
923.876	3131
923.984	3226
924.092	3108
924.201	3214
924.309	3207
924.417	3211
924.525	3161
924.633	3211
924.741	4192
924.849	3013
924.956	3233
925.064	3108
925.172	3013
925.279	3081
925.387	3211
925.494	3192
925.602	3344
925.709	3325
925.816	3173
925.924	3298
926.031	3355
926.138	3310
926.245	3325
926.352	3249
926.459	3416
926.566	3473
926.673	3340
926.779	3253
926.886	3222
926.993	3123
927.099	3127
927.206	3138
927.312	3100
927.419	3230
927.525	3207
927.631	3230
927.737	3154
927.843	3119
927.95	3028
928.056	3085
928.162	3207
928.267	3218
928.373	3842
928.479	3310
928.585	3032
928.69	3222
928.796	3233
928.901	3150
929.007	3017
929.112	3199
929.218	3165
929.323	3157
929.428	3116
929.533	3310
929.638	3100
929.743	3192
929.848	3245
929.953	3199
930.058	3165
930.163	2963
930.267	3062
930.372	3195
930.477	3039
930.581	3317
930.685	3169
930.79	3024
930.894	3097
930.998	3119
931.103	3268
931.207	2948
931.311	2944
931.415	2963
931.519	2785
931.623	2792
