Data from test_V78500241_894.txt Node
Date: Fri Mar 25 16:21:23 CST 2022
User: usil
Spectrometer: V785-0024
Trigger mode: 0
Integration Time (sec): 4.000000E-1
Scans to average: 1
Nonlinearity correction enabled: false
Boxcar width: 0
Storing dark spectrum: false
XAxis mode: Wavelengths
Number of Pixels in Spectrum: 1024
>>>>>Begin Spectral Data<<<<<
801.071	2925
801.214	2952
801.356	2857
801.499	2880
801.641	2922
801.783	2933
801.926	3062
802.068	2986
802.211	2971
802.353	3039
802.496	2971
802.638	3017
802.78	3028
802.923	3077
803.065	3028
803.208	2925
803.35	2906
803.492	2922
803.635	2960
803.777	2811
803.919	2895
804.061	3184
804.204	2902
804.346	2929
804.488	2826
804.63	2967
804.773	2887
804.915	2914
805.057	3100
805.199	2929
805.341	3036
805.483	3039
805.626	2998
805.768	2975
805.91	3104
806.052	3077
806.194	3051
806.336	3214
806.478	2994
806.62	2956
806.762	2963
806.904	3097
807.046	3173
807.188	2998
807.33	2922
807.472	3005
807.614	2891
807.756	2986
807.898	2891
808.04	2899
808.182	2967
808.324	2918
808.465	2944
808.607	2872
808.749	2804
808.891	2830
809.033	2986
809.174	2922
809.316	2883
809.458	2872
809.6	2758
809.741	2785
809.883	2754
810.025	2880
810.166	2891
810.308	2842
810.45	2872
810.591	2785
810.733	2754
810.875	2830
811.016	2815
811.158	2762
811.299	2800
811.441	2910
811.582	2910
811.724	2834
811.865	2838
812.007	2895
812.148	2849
812.29	2826
812.431	2883
812.573	2914
812.714	2986
812.855	3055
812.997	3051
813.138	3108
813.279	2994
813.421	2956
813.562	2944
813.703	2845
813.845	2880
813.986	2807
814.127	2743
814.268	2838
814.41	2811
814.551	2819
814.692	2872
814.833	2804
814.974	2906
815.115	2971
815.256	2845
815.397	2807
815.539	2887
815.68	2762
815.821	2766
815.962	2952
816.103	2929
816.244	2861
816.385	2876
816.526	2933
816.666	2868
816.807	2750
816.948	2857
817.089	2918
817.23	2842
817.371	2788
817.512	2758
817.653	2826
817.793	2796
817.934	2887
818.075	2990
818.216	2979
818.356	3001
818.497	2899
818.638	2792
818.778	2838
818.919	2785
819.06	2758
819.2	2845
819.341	2769
819.481	2823
819.622	2918
819.762	3093
819.903	3047
820.043	2906
820.184	2910
820.324	2902
820.465	3020
820.605	3020
820.746	3001
820.886	2941
821.026	3104
821.167	3203
821.307	3287
821.447	3279
821.588	3226
821.728	3222
821.868	3211
822.008	3066
822.149	3157
822.289	3241
822.429	3104
822.569	3127
822.709	3230
822.849	3070
822.99	3070
823.13	3146
823.27	3222
823.41	3116
823.55	3173
823.69	3176
823.83	3226
823.97	3131
824.11	3017
824.25	3013
824.389	3085
824.529	3161
824.669	3097
824.809	3222
824.949	3310
825.089	3222
825.228	3169
825.368	3024
825.508	2998
825.648	2994
825.787	3055
825.927	3032
826.067	3020
826.206	3005
826.346	3062
826.485	3085
826.625	3150
826.765	3298
826.904	3264
827.044	3036
827.183	2948
827.323	2910
827.462	3032
827.601	2971
827.741	2998
827.88	3001
828.02	2899
828.159	3017
828.298	3058
828.437	3154
828.577	3081
828.716	3272
828.855	3135
828.994	3001
829.134	2918
829.273	2952
829.412	2925
829.551	2861
829.69	2933
829.829	2990
829.968	3169
830.107	3024
830.246	3104
830.385	2963
830.524	2906
830.663	2864
830.802	2762
830.941	2693
831.08	2644
831.219	2785
831.357	2815
831.496	2979
831.635	2781
831.774	2705
831.913	2678
832.051	2610
832.19	2625
832.329	2716
832.467	2549
832.606	2518
832.744	2610
832.883	2583
833.022	2629
833.16	2708
833.299	2739
833.437	2697
833.576	2754
833.714	2762
833.852	2746
833.991	2788
834.129	2872
834.267	2861
834.406	2800
834.544	2853
834.682	2899
834.821	2861
834.959	3104
835.097	2952
835.235	3116
835.373	2982
835.511	3043
835.65	2982
835.788	3013
835.926	2864
836.064	2868
836.202	2880
836.34	3123
836.478	3192
836.615	3077
836.753	3127
836.891	3264
837.029	3207
837.167	3150
837.305	3116
837.443	3097
837.58	2994
837.718	3150
837.856	3108
837.993	3058
838.131	3184
838.269	3157
838.406	3127
838.544	3116
838.681	2998
838.819	2937
838.956	2845
839.094	2834
839.231	2963
839.369	3036
839.506	3401
839.643	3264
839.781	3055
839.918	3005
840.055	3089
840.193	3077
840.33	3104
840.467	3165
840.604	3203
840.742	3416
840.879	3108
841.016	3081
841.153	3169
841.29	3336
841.427	3317
841.564	3313
841.701	3325
841.838	3253
841.975	3199
842.112	3272
842.249	3154
842.385	3070
842.522	3291
842.659	3089
842.796	3085
842.933	3142
843.069	3058
843.206	3039
843.343	3211
843.479	3146
843.616	3169
843.752	2929
843.889	2887
844.025	3146
844.162	2929
844.298	3108
844.435	2967
844.571	2929
844.708	3100
844.844	3226
844.98	3272
845.117	3222
845.253	3085
845.389	3036
845.525	3150
845.661	3138
845.798	3070
845.934	3123
846.07	3062
846.206	3256
846.342	3332
846.478	3249
846.614	3119
846.75	3085
846.886	3089
847.022	3302
847.158	3131
847.294	3222
847.429	3275
847.565	3241
847.701	3523
847.837	3058
847.972	3009
848.108	3169
848.244	3161
848.379	2994
848.515	2963
848.65	2975
848.786	2994
848.921	3047
849.057	3142
849.192	3154
849.328	3070
849.463	3135
849.598	3116
849.734	3081
849.869	2994
850.004	2910
850.14	2952
850.275	2952
850.41	2899
850.545	2941
850.68	2918
850.815	2975
850.95	3009
851.085	3222
851.22	3123
851.355	3085
851.49	3005
851.625	3013
851.76	3009
851.895	2956
852.03	2922
852.165	3047
852.299	3119
852.434	3203
852.569	3157
852.703	3180
852.838	3249
852.973	3344
853.107	3374
853.242	3184
853.376	3127
853.511	2979
853.645	3066
853.78	3245
853.914	3169
854.048	3150
854.183	3123
854.317	3180
854.451	3298
854.585	3146
854.72	3108
854.854	3222
854.988	3028
855.122	3077
855.256	2990
855.39	3108
855.524	3253
855.658	3184
855.792	3176
855.926	3203
856.06	3256
856.194	3344
856.327	3188
856.461	3051
856.595	3116
856.729	3150
856.862	3272
856.996	3188
857.13	3207
857.263	3230
857.397	3321
857.53	3146
857.664	3237
857.797	3279
857.931	3260
858.064	3199
858.197	3264
858.331	3146
858.464	3097
858.597	3047
858.731	3142
858.864	3165
858.997	3116
859.13	3211
859.263	3173
859.396	3249
859.529	3131
859.662	3093
859.795	3081
859.928	3165
860.061	3321
860.194	3272
860.327	3146
860.46	3104
860.592	3264
860.725	3317
860.858	3260
860.99	3146
861.123	3116
861.256	3077
861.388	3180
861.521	3873
861.653	3028
861.786	3024
861.918	3017
862.05	3093
862.183	3100
862.315	3169
862.447	3222
862.58	3112
862.712	2952
862.844	2868
862.976	3055
863.108	3020
863.24	3344
863.372	2925
863.504	3005
863.636	2982
863.768	3028
863.9	3009
864.032	2902
864.164	2956
864.296	2990
864.428	3077
864.559	3146
864.691	3093
864.823	3066
864.954	3032
865.086	3058
865.217	3001
865.349	2941
865.48	2990
865.612	3062
865.743	3195
865.875	3017
866.006	2986
866.137	2982
866.269	2952
866.4	2941
866.531	2941
866.662	2887
866.793	2910
866.924	2941
867.055	2982
867.186	2941
867.317	2937
867.448	2868
867.579	2864
867.71	2853
867.841	2815
867.972	2925
868.103	2944
868.233	2910
868.364	2876
868.495	2891
868.625	3119
868.756	3173
868.886	3032
869.017	3043
869.147	3211
869.278	3203
869.408	3058
869.539	3074
869.669	3135
869.799	3047
869.929	3138
870.06	3131
870.19	3386
870.32	3294
870.45	3332
870.58	3397
870.71	3447
870.84	3435
870.97	3332
871.1	3268
871.23	3523
871.36	3458
871.489	3302
871.619	3397
871.749	3439
871.879	3466
872.008	3507
872.138	3355
872.267	3321
872.397	3184
872.526	3176
872.656	3036
872.785	3108
872.915	3283
873.044	3359
873.173	3241
873.303	3237
873.432	3310
873.561	3260
873.69	3165
873.819	3154
873.948	3180
874.077	3135
874.206	3074
874.335	3077
874.464	3226
874.593	3389
874.722	3287
874.851	3397
874.979	3374
875.108	3275
875.237	3173
875.365	3184
875.494	3199
875.623	3230
875.751	3081
875.88	3100
876.008	3199
876.136	3233
876.265	3317
876.393	3504
876.521	3409
876.65	3424
876.778	3374
876.906	3249
877.034	3203
877.162	3214
877.29	3199
877.418	3245
877.546	3245
877.674	3283
877.802	3222
877.93	3253
878.058	3161
878.185	3157
878.313	3233
878.441	3214
878.568	3089
878.696	3184
878.824	3272
878.951	3348
879.079	3447
879.206	3625
879.333	3428
879.461	3348
879.588	3389
879.715	3454
879.842	3629
879.97	3393
880.097	3173
880.224	3089
880.351	3211
880.478	3256
880.605	3199
880.732	3154
880.859	3462
880.986	3298
881.112	3310
881.239	3192
881.366	3100
881.493	3070
881.619	3039
881.746	3131
881.872	3104
881.999	3112
882.125	3173
882.252	3283
882.378	3291
882.505	3492
882.631	3310
882.757	3195
882.883	3207
883.01	3203
883.136	3199
883.262	3131
883.388	3119
883.514	3287
883.64	3348
883.766	3317
883.892	3188
884.018	3287
884.143	3443
884.269	3553
884.395	3195
884.52	3188
884.646	3184
884.772	3142
884.897	3131
885.023	3203
885.148	3340
885.274	3439
885.399	3416
885.524	3279
885.65	3249
885.775	3313
885.9	3313
886.025	3447
886.15	3386
886.275	3298
886.4	3256
886.525	3279
886.65	3283
886.775	3287
886.9	3504
887.025	3679
887.149	3412
887.274	3310
887.399	3214
887.523	3260
887.648	3199
887.773	3233
887.897	3389
888.021	3405
888.146	3336
888.27	3435
888.395	3549
888.519	3401
888.643	3420
888.767	3488
888.891	3336
889.015	3283
889.139	3306
889.263	3287
889.387	3416
889.511	3561
889.635	3447
889.759	3302
889.883	3306
890.006	3370
890.13	3492
890.254	3283
890.377	3386
890.501	3169
890.624	3169
890.748	3336
890.871	3184
890.995	3127
891.118	3081
891.241	3188
891.364	3253
891.488	3329
891.611	3176
891.734	3264
891.857	3283
891.98	3256
892.103	3378
892.226	3241
892.349	3203
892.471	3085
892.594	3264
892.717	3283
892.839	3332
892.962	3355
893.085	3389
893.207	3302
893.33	3127
893.452	3214
893.575	3348
893.697	3233
893.819	3488
893.941	3519
894.064	3450
894.186	3279
894.308	3291
894.43	3458
894.552	3549
894.674	3500
894.796	3283
894.918	3321
895.04	3298
895.161	3458
895.283	3370
895.405	3298
895.526	3389
895.648	3443
895.769	3435
895.891	3481
896.012	3439
896.134	3439
896.255	3420
896.376	3336
896.498	3393
896.619	3424
896.74	3367
896.861	3401
896.982	3705
897.103	3850
897.224	3599
897.345	3504
897.466	3462
897.587	3534
897.708	3625
897.828	3553
897.949	3401
898.07	3355
898.19	3435
898.311	3614
898.431	3469
898.552	3526
898.672	3622
898.792	3572
898.913	3534
899.033	3428
899.153	3310
899.273	3237
899.393	3260
899.513	3310
899.633	3325
899.753	3355
899.873	3313
899.993	3378
900.113	3355
900.232	3412
900.352	3401
900.472	3275
900.591	3214
900.711	3298
900.83	3241
900.95	3443
901.069	3523
901.189	3325
901.308	3195
901.427	3157
901.546	3188
901.665	3253
901.784	3348
901.904	3230
902.023	3131
902.141	3028
902.26	2998
902.379	3157
902.498	3085
902.617	3020
902.735	3199
902.854	3230
902.973	3161
903.091	3032
903.21	3100
903.328	3127
903.446	3108
903.565	3135
903.683	3207
903.801	3161
903.919	3279
904.038	3275
904.156	3165
904.274	3268
904.392	3264
904.51	3294
904.627	3363
904.745	3469
904.863	3481
904.981	3233
905.098	3214
905.216	3294
905.334	3313
905.451	3298
905.569	3336
905.686	3431
905.803	3435
905.921	3294
906.038	3412
906.155	3363
906.272	3275
906.389	3351
906.506	3233
906.623	3275
906.74	3226
906.857	3150
906.974	3249
907.091	3466
907.208	3557
907.324	3469
907.441	3363
907.557	3245
907.674	3237
907.79	3222
907.907	3260
908.023	3382
908.139	3359
908.256	3298
908.372	3382
908.488	3382
908.604	3253
908.72	3222
908.836	3321
908.952	3302
909.068	3272
909.184	3469
909.3	3386
909.415	3519
909.531	3488
909.647	3279
909.762	3275
909.878	3291
909.993	3321
910.108	3336
910.224	3294
910.339	3424
910.454	3336
910.57	3317
910.685	3291
910.8	3591
910.915	3511
911.03	3439
911.145	3287
911.259	3283
911.374	3321
911.489	3268
911.604	3230
911.718	3142
911.833	3188
911.947	3074
912.062	2982
912.176	3157
912.291	3192
912.405	3214
912.519	3416
912.633	3458
912.748	3336
912.862	3275
912.976	3222
913.09	3077
913.204	3154
913.318	3199
913.431	3332
913.545	3355
913.659	3412
913.772	3313
913.886	3256
914	3211
914.113	3386
914.226	3466
914.34	3367
914.453	3218
914.566	3420
914.68	3287
914.793	3306
914.906	3138
915.019	3123
915.132	3043
915.245	3195
915.358	3161
915.47	3203
915.583	3275
915.696	3272
915.809	3443
915.921	3412
916.034	3233
916.146	3249
916.259	3199
916.371	3416
916.483	3355
916.595	3302
916.708	3298
916.82	3310
916.932	3351
917.044	3336
917.156	3370
917.268	3230
917.38	3306
917.491	3302
917.603	3370
917.715	3447
917.826	3485
917.938	3382
918.049	3291
918.161	3393
918.272	3542
918.384	3572
918.495	3447
918.606	3310
918.717	3253
918.828	3386
918.939	3424
919.05	3287
919.161	3389
919.272	3180
919.383	3253
919.494	3481
919.604	3694
919.715	3477
919.826	3405
919.936	3458
920.047	3606
920.157	3542
920.267	3797
920.378	3572
920.488	3530
920.598	3789
920.708	3987
920.818	3823
920.928	3842
921.038	4021
921.148	4006
921.258	3709
921.368	3667
921.477	3576
921.587	3523
921.697	3447
921.806	3614
921.916	3523
922.025	3340
922.134	3397
922.244	3321
922.353	3462
922.462	3287
922.571	3249
922.68	3085
922.789	3051
922.898	3161
923.007	3108
923.116	3241
923.224	3195
923.333	3180
923.442	3077
923.55	3074
923.659	3138
923.767	3260
923.876	3138
923.984	3226
924.092	3093
924.201	3207
924.309	3226
924.417	3226
924.525	3222
924.633	3226
924.741	4154
924.849	3077
924.956	3291
925.064	3116
925.172	3066
925.279	3123
925.387	3249
925.494	3214
925.602	3363
925.709	3370
925.816	3188
925.924	3272
926.031	3431
926.138	3313
926.245	3355
926.352	3226
926.459	3435
926.566	3466
926.673	3321
926.779	3275
926.886	3260
926.993	3119
927.099	3135
927.206	3104
927.312	3127
927.419	3230
927.525	3207
927.631	3310
927.737	3123
927.843	3169
927.95	3043
928.056	3142
928.162	3138
928.267	3233
928.373	3850
928.479	3294
928.585	3043
928.69	3218
928.796	3294
928.901	3154
929.007	3024
929.112	3199
929.218	3154
929.323	3131
929.428	3097
929.533	3313
929.638	3116
929.743	3188
929.848	3245
929.953	3211
930.058	3154
930.163	2979
930.267	3077
930.372	3195
930.477	3039
930.581	3329
930.685	3180
930.79	3028
930.894	3127
930.998	3097
931.103	3302
931.207	2956
931.311	2952
931.415	2887
931.519	2792
931.623	2815
