Data from test_V78500241_578.txt Node
Date: Fri Mar 25 16:19:12 CST 2022
User: usil
Spectrometer: V785-0024
Trigger mode: 0
Integration Time (sec): 4.000000E-1
Scans to average: 1
Nonlinearity correction enabled: false
Boxcar width: 0
Storing dark spectrum: false
XAxis mode: Wavelengths
Number of Pixels in Spectrum: 1024
>>>>>Begin Spectral Data<<<<<
801.071	2914
801.214	2948
801.356	2868
801.499	2857
801.641	2857
801.783	2914
801.926	3047
802.068	2937
802.211	2998
802.353	3032
802.496	2948
802.638	3051
802.78	3001
802.923	3108
803.065	2982
803.208	2906
803.35	2895
803.492	2914
803.635	2902
803.777	2750
803.919	2857
804.061	3176
804.204	2975
804.346	2891
804.488	2845
804.63	2990
804.773	2838
804.915	2864
805.057	3028
805.199	2910
805.341	2952
805.483	3055
805.626	2994
805.768	2918
805.91	3051
806.052	3100
806.194	3020
806.336	3230
806.478	2990
806.62	2948
806.762	2967
806.904	3013
807.046	3119
807.188	2967
807.33	2910
807.472	2956
807.614	2876
807.756	2994
807.898	2918
808.04	2880
808.182	2937
808.324	2941
808.465	2861
808.607	2891
808.749	2785
808.891	2842
809.033	2994
809.174	2967
809.316	2880
809.458	2918
809.6	2754
809.741	2769
809.883	2785
810.025	2830
810.166	2872
810.308	2834
810.45	2823
810.591	2746
810.733	2773
810.875	2834
811.016	2769
811.158	2746
811.299	2785
811.441	2929
811.582	2872
811.724	2842
811.865	2845
812.007	2933
812.148	2872
812.29	2857
812.431	2868
812.573	2914
812.714	2971
812.855	3001
812.997	3032
813.138	3093
813.279	2990
813.421	2998
813.562	2956
813.703	2861
813.845	2902
813.986	2769
814.127	2720
814.268	2804
814.41	2804
814.551	2781
814.692	2868
814.833	2811
814.974	2887
815.115	2914
815.256	2849
815.397	2804
815.539	2868
815.68	2804
815.821	2788
815.962	2883
816.103	2891
816.244	2883
816.385	2857
816.526	2971
816.666	2914
816.807	2720
816.948	2872
817.089	2891
817.23	2876
817.371	2781
817.512	2788
817.653	2815
817.793	2811
817.934	2876
818.075	2902
818.216	2979
818.356	3013
818.497	2883
818.638	2781
818.778	2834
818.919	2785
819.06	2750
819.2	2899
819.341	2811
819.481	2792
819.622	2887
819.762	3074
819.903	3009
820.043	2941
820.184	2861
820.324	2868
820.465	3001
820.605	2982
820.746	3009
820.886	2891
821.026	3093
821.167	3131
821.307	3264
821.447	3237
821.588	3226
821.728	3199
821.868	3150
822.008	3077
822.149	3192
822.289	3203
822.429	3085
822.569	3028
822.709	3165
822.849	3005
822.99	3074
823.13	3142
823.27	3207
823.41	3116
823.55	3138
823.69	3127
823.83	3180
823.97	3055
824.11	2963
824.25	3005
824.389	3077
824.529	3100
824.669	3055
824.809	3184
824.949	3233
825.089	3222
825.228	3169
825.368	2986
825.508	2937
825.648	2956
825.787	3024
825.927	3001
826.067	2933
826.206	2944
826.346	3051
826.485	3051
826.625	3123
826.765	3241
826.904	3211
827.044	2952
827.183	2922
827.323	2838
827.462	2975
827.601	2883
827.741	2933
827.88	2944
828.02	2857
828.159	2975
828.298	3077
828.437	3116
828.577	2998
828.716	3241
828.855	3066
828.994	2948
829.134	2910
829.273	2937
829.412	2834
829.551	2861
829.69	2853
829.829	2963
829.968	3127
830.107	3009
830.246	2990
830.385	2922
830.524	2872
830.663	2845
830.802	2720
830.941	2667
831.08	2632
831.219	2712
831.357	2754
831.496	2925
831.635	2689
831.774	2636
831.913	2617
832.051	2526
832.19	2560
832.329	2705
832.467	2518
832.606	2450
832.744	2579
832.883	2594
833.022	2579
833.16	2651
833.299	2663
833.437	2682
833.576	2701
833.714	2708
833.852	2724
833.991	2735
834.129	2796
834.267	2826
834.406	2792
834.544	2811
834.682	2880
834.821	2842
834.959	3036
835.097	2883
835.235	3024
835.373	2971
835.511	2975
835.65	2960
835.788	2929
835.926	2830
836.064	2800
836.202	2815
836.34	3097
836.478	3146
836.615	3028
836.753	3123
836.891	3176
837.029	3142
837.167	3104
837.305	3051
837.443	3013
837.58	2948
837.718	3108
837.856	3043
837.993	2990
838.131	3135
838.269	3104
838.406	3074
838.544	3051
838.681	2906
838.819	2914
838.956	2815
839.094	2815
839.231	2887
839.369	2994
839.506	3401
839.643	3180
839.781	2990
839.918	2918
840.055	3047
840.193	2982
840.33	3074
840.467	3062
840.604	3108
840.742	3386
840.879	3032
841.016	2998
841.153	3131
841.29	3317
841.427	3321
841.564	3211
841.701	3264
841.838	3207
841.975	3169
842.112	3203
842.249	3047
842.385	2998
842.522	3268
842.659	3047
842.796	3055
842.933	3089
843.069	3024
843.206	3028
843.343	3184
843.479	3070
843.616	3142
843.752	2872
843.889	2834
844.025	3119
844.162	2849
844.298	3066
844.435	2910
844.571	2937
844.708	3058
844.844	3154
844.98	3279
845.117	3176
845.253	3047
845.389	3001
845.525	3116
845.661	3127
845.798	3017
845.934	3146
846.07	3100
846.206	3245
846.342	3325
846.478	3275
846.614	3112
846.75	3070
846.886	3009
847.022	3268
847.158	3135
847.294	3218
847.429	3264
847.565	3279
847.701	3469
847.837	3043
847.972	2982
848.108	3127
848.244	3154
848.379	3005
848.515	2975
848.65	2979
848.786	3001
848.921	3058
849.057	3085
849.192	3184
849.328	3097
849.463	3138
849.598	3108
849.734	3104
849.869	2975
850.004	2960
850.14	3001
850.275	2956
850.41	2880
850.545	2952
850.68	2971
850.815	2975
850.95	2990
851.085	3203
851.22	3119
851.355	3074
851.49	3009
851.625	3047
851.76	3039
851.895	2979
852.03	2979
852.165	3062
852.299	3173
852.434	3214
852.569	3199
852.703	3222
852.838	3306
852.973	3382
853.107	3344
853.242	3192
853.376	3127
853.511	3024
853.645	3055
853.78	3268
853.914	3169
854.048	3116
854.183	3127
854.317	3199
854.451	3329
854.585	3184
854.72	3077
854.854	3237
854.988	3089
855.122	3104
855.256	3005
855.39	3123
855.524	3321
855.658	3214
855.792	3180
855.926	3260
856.06	3222
856.194	3306
856.327	3211
856.461	3135
856.595	3127
856.729	3135
856.862	3260
856.996	3176
857.13	3233
857.263	3260
857.397	3294
857.53	3131
857.664	3222
857.797	3283
857.931	3302
858.064	3173
858.197	3237
858.331	3176
858.464	3119
858.597	3032
858.731	3138
858.864	3146
858.997	3097
859.13	3169
859.263	3207
859.396	3211
859.529	3116
859.662	3058
859.795	3100
859.928	3150
860.061	3344
860.194	3370
860.327	3138
860.46	3157
860.592	3226
860.725	3310
860.858	3249
860.99	3131
861.123	3089
861.256	3104
861.388	3131
861.521	3747
861.653	3039
861.786	2998
861.918	3020
862.05	3108
862.183	3116
862.315	3123
862.447	3211
862.58	3112
862.712	2956
862.844	2922
862.976	3028
863.108	3024
863.24	3481
863.372	2918
863.504	2994
863.636	3017
863.768	3070
863.9	3001
864.032	2979
864.164	2948
864.296	3081
864.428	3081
864.559	3138
864.691	3119
864.823	3100
864.954	3028
865.086	3074
865.217	3043
865.349	2986
865.48	3039
865.612	3036
865.743	3154
865.875	2994
866.006	2963
866.137	3036
866.269	2979
866.4	2960
866.531	2948
866.662	2918
866.793	2933
866.924	2895
867.055	2982
867.186	2971
867.317	2895
867.448	2845
867.579	2899
867.71	2864
867.841	2914
867.972	2918
868.103	2944
868.233	2963
868.364	2910
868.495	2952
868.625	3077
868.756	3192
868.886	2963
869.017	3055
869.147	3192
869.278	3226
869.408	3066
869.539	3062
869.669	3135
869.799	3013
869.929	3135
870.06	3127
870.19	3363
870.32	3313
870.45	3313
870.58	3397
870.71	3526
870.84	3500
870.97	3329
871.1	3272
871.23	3507
871.36	3488
871.489	3355
871.619	3409
871.749	3454
871.879	3454
872.008	3485
872.138	3397
872.267	3272
872.397	3214
872.526	3123
872.656	3043
872.785	3138
872.915	3253
873.044	3313
873.173	3226
873.303	3306
873.432	3264
873.561	3275
873.69	3211
873.819	3180
873.948	3184
874.077	3157
874.206	3039
874.335	3104
874.464	3203
874.593	3386
874.722	3264
874.851	3374
874.979	3370
875.108	3344
875.237	3226
875.365	3203
875.494	3180
875.623	3275
875.751	3089
875.88	3108
876.008	3233
876.136	3268
876.265	3443
876.393	3587
876.521	3454
876.65	3412
876.778	3351
876.906	3260
877.034	3245
877.162	3249
877.29	3192
877.418	3283
877.546	3264
877.674	3233
877.802	3256
877.93	3256
878.058	3192
878.185	3135
878.313	3195
878.441	3241
878.568	3119
878.696	3180
878.824	3321
878.951	3332
879.079	3443
879.206	3599
879.333	3439
879.461	3370
879.588	3386
879.715	3549
879.842	3629
879.97	3351
880.097	3146
880.224	3173
880.351	3211
880.478	3283
880.605	3230
880.732	3199
880.859	3523
880.986	3332
881.112	3363
881.239	3249
881.366	3119
881.493	3036
881.619	3093
881.746	3070
881.872	3085
881.999	3077
882.125	3146
882.252	3287
882.378	3287
882.505	3481
882.631	3310
882.757	3146
882.883	3233
883.01	3237
883.136	3169
883.262	3112
883.388	3150
883.514	3393
883.64	3393
883.766	3329
883.892	3233
884.018	3245
884.143	3424
884.269	3572
884.395	3218
884.52	3207
884.646	3214
884.772	3135
884.897	3142
885.023	3226
885.148	3374
885.274	3431
885.399	3416
885.524	3268
885.65	3287
885.775	3336
885.9	3275
886.025	3420
886.15	3412
886.275	3355
886.4	3230
886.525	3329
886.65	3298
886.775	3302
886.9	3500
887.025	3705
887.149	3458
887.274	3272
887.399	3222
887.523	3230
887.648	3226
887.773	3203
887.897	3363
888.021	3439
888.146	3325
888.27	3496
888.395	3538
888.519	3466
888.643	3439
888.767	3462
888.891	3317
889.015	3260
889.139	3298
889.263	3237
889.387	3450
889.511	3507
889.635	3477
889.759	3313
889.883	3332
890.006	3393
890.13	3519
890.254	3291
890.377	3378
890.501	3195
890.624	3154
890.748	3348
890.871	3195
890.995	3127
891.118	3081
891.241	3233
891.364	3283
891.488	3317
891.611	3184
891.734	3245
891.857	3298
891.98	3272
892.103	3359
892.226	3298
892.349	3306
892.471	3169
892.594	3249
892.717	3359
892.839	3275
892.962	3294
893.085	3363
893.207	3298
893.33	3146
893.452	3230
893.575	3348
893.697	3302
893.819	3473
893.941	3504
894.064	3477
894.186	3291
894.308	3268
894.43	3477
894.552	3542
894.674	3496
894.796	3279
894.918	3336
895.04	3287
895.161	3409
895.283	3405
895.405	3329
895.526	3409
895.648	3435
895.769	3405
895.891	3469
896.012	3492
896.134	3492
896.255	3447
896.376	3389
896.498	3397
896.619	3435
896.74	3340
896.861	3416
896.982	3694
897.103	3873
897.224	3614
897.345	3507
897.466	3458
897.587	3496
897.708	3618
897.828	3568
897.949	3458
898.07	3359
898.19	3450
898.311	3644
898.431	3473
898.552	3523
898.672	3625
898.792	3637
898.913	3542
899.033	3428
899.153	3294
899.273	3256
899.393	3253
899.513	3348
899.633	3329
899.753	3367
899.873	3336
899.993	3378
900.113	3386
900.232	3420
900.352	3359
900.472	3272
900.591	3184
900.711	3325
900.83	3253
900.95	3431
901.069	3523
901.189	3344
901.308	3192
901.427	3146
901.546	3207
901.665	3298
901.784	3393
901.904	3249
902.023	3161
902.141	3028
902.26	3013
902.379	3108
902.498	3062
902.617	3066
902.735	3214
902.854	3253
902.973	3211
903.091	3077
903.21	3043
903.328	3173
903.446	3108
903.565	3085
903.683	3176
903.801	3127
903.919	3230
904.038	3298
904.156	3184
904.274	3317
904.392	3272
904.51	3325
904.627	3340
904.745	3416
904.863	3496
904.981	3272
905.098	3192
905.216	3237
905.334	3340
905.451	3317
905.569	3302
905.686	3458
905.803	3447
905.921	3313
906.038	3443
906.155	3409
906.272	3287
906.389	3313
906.506	3211
906.623	3287
906.74	3298
906.857	3203
906.974	3287
907.091	3477
907.208	3538
907.324	3466
907.441	3378
907.557	3226
907.674	3256
907.79	3241
907.907	3313
908.023	3359
908.139	3409
908.256	3397
908.372	3351
908.488	3321
908.604	3260
908.72	3226
908.836	3329
908.952	3291
909.068	3344
909.184	3504
909.3	3409
909.415	3542
909.531	3473
909.647	3279
909.762	3294
909.878	3256
909.993	3386
910.108	3325
910.224	3351
910.339	3431
910.454	3370
910.57	3355
910.685	3279
910.8	3606
910.915	3488
911.03	3462
911.145	3310
911.259	3291
911.374	3302
911.489	3249
911.604	3256
911.718	3154
911.833	3161
911.947	3039
912.062	3013
912.176	3173
912.291	3195
912.405	3195
912.519	3420
912.633	3462
912.748	3321
912.862	3291
912.976	3150
913.09	3077
913.204	3176
913.318	3173
913.431	3344
913.545	3359
913.659	3439
913.772	3325
913.886	3214
914	3256
914.113	3378
914.226	3428
914.34	3393
914.453	3237
914.566	3409
914.68	3306
914.793	3313
914.906	3131
915.019	3093
915.132	3081
915.245	3203
915.358	3230
915.47	3211
915.583	3279
915.696	3317
915.809	3416
915.921	3454
916.034	3249
916.146	3275
916.259	3226
916.371	3424
916.483	3412
916.595	3310
916.708	3355
916.82	3401
916.932	3370
917.044	3382
917.156	3386
917.268	3355
917.38	3344
917.491	3317
917.603	3454
917.715	3485
917.826	3492
917.938	3454
918.049	3313
918.161	3488
918.272	3633
918.384	3648
918.495	3523
918.606	3382
918.717	3306
918.828	3412
918.939	3450
919.05	3344
919.161	3431
919.272	3233
919.383	3340
919.494	3530
919.604	3705
919.715	3568
919.826	3450
919.936	3523
920.047	3606
920.157	3614
920.267	3831
920.378	3633
920.488	3644
920.598	3823
920.708	4006
920.818	3903
920.928	3884
921.038	4063
921.148	4025
921.258	3751
921.368	3633
921.477	3610
921.587	3584
921.697	3481
921.806	3652
921.916	3580
922.025	3409
922.134	3386
922.244	3325
922.353	3481
922.462	3344
922.571	3233
922.68	3157
922.789	3127
922.898	3192
923.007	3157
923.116	3241
923.224	3264
923.333	3256
923.442	3154
923.55	3131
923.659	3157
923.767	3226
923.876	3184
923.984	3329
924.092	3138
924.201	3237
924.309	3237
924.417	3264
924.525	3226
924.633	3298
924.741	4078
924.849	3066
924.956	3279
925.064	3154
925.172	3093
925.279	3161
925.387	3214
925.494	3203
925.602	3359
925.709	3340
925.816	3207
925.924	3321
926.031	3424
926.138	3370
926.245	3393
926.352	3287
926.459	3416
926.566	3469
926.673	3370
926.779	3264
926.886	3249
926.993	3214
927.099	3173
927.206	3157
927.312	3173
927.419	3283
927.525	3279
927.631	3336
927.737	3192
927.843	3188
927.95	3077
928.056	3184
928.162	3233
928.267	3283
928.373	3838
928.479	3359
928.585	3116
928.69	3279
928.796	3287
928.901	3222
929.007	3081
929.112	3245
929.218	3195
929.323	3165
929.428	3188
929.533	3329
929.638	3173
929.743	3218
929.848	3306
929.953	3275
930.058	3195
930.163	3047
930.267	3085
930.372	3230
930.477	3032
930.581	3355
930.685	3226
930.79	3093
930.894	3146
930.998	3135
931.103	3336
931.207	3009
931.311	2975
931.415	2963
931.519	2807
931.623	2823
