Data from test_V78500241_1195.txt Node
Date: Fri Mar 25 16:23:28 CST 2022
User: usil
Spectrometer: V785-0024
Trigger mode: 0
Integration Time (sec): 4.000000E-1
Scans to average: 1
Nonlinearity correction enabled: false
Boxcar width: 0
Storing dark spectrum: false
XAxis mode: Wavelengths
Number of Pixels in Spectrum: 1024
>>>>>Begin Spectral Data<<<<<
801.071	2899
801.214	2918
801.356	2845
801.499	2883
801.641	2872
801.783	2925
801.926	3036
802.068	2963
802.211	2994
802.353	3039
802.496	2975
802.638	3001
802.78	3047
802.923	3047
803.065	3001
803.208	2891
803.35	2922
803.492	2941
803.635	2906
803.777	2754
803.919	2849
804.061	3180
804.204	2956
804.346	2914
804.488	2853
804.63	2982
804.773	2887
804.915	2929
805.057	3043
805.199	2914
805.341	2979
805.483	3039
805.626	2979
805.768	2956
805.91	3055
806.052	3112
806.194	3043
806.336	3199
806.478	3020
806.62	2948
806.762	2967
806.904	3032
807.046	3135
807.188	2975
807.33	2902
807.472	2986
807.614	2902
807.756	2986
807.898	2922
808.04	2887
808.182	2925
808.324	2914
808.465	2876
808.607	2899
808.749	2796
808.891	2807
809.033	2971
809.174	2948
809.316	2880
809.458	2887
809.6	2766
809.741	2769
809.883	2727
810.025	2864
810.166	2876
810.308	2838
810.45	2819
810.591	2769
810.733	2773
810.875	2830
811.016	2746
811.158	2758
811.299	2834
811.441	2887
811.582	2902
811.724	2800
811.865	2800
812.007	2872
812.148	2880
812.29	2845
812.431	2891
812.573	2902
812.714	2948
812.855	3043
812.997	3043
813.138	3089
813.279	2986
813.421	2979
813.562	2922
813.703	2910
813.845	2857
813.986	2800
814.127	2708
814.268	2815
814.41	2823
814.551	2804
814.692	2838
814.833	2804
814.974	2910
815.115	2914
815.256	2876
815.397	2830
815.539	2857
815.68	2781
815.821	2785
815.962	2937
816.103	2933
816.244	2872
816.385	2880
816.526	2975
816.666	2902
816.807	2766
816.948	2891
817.089	2899
817.23	2864
817.371	2796
817.512	2773
817.653	2853
817.793	2815
817.934	2864
818.075	2952
818.216	2986
818.356	3009
818.497	2891
818.638	2796
818.778	2826
818.919	2796
819.06	2743
819.2	2868
819.341	2785
819.481	2754
819.622	2887
819.762	3051
819.903	3009
820.043	2914
820.184	2895
820.324	2899
820.465	3013
820.605	3005
820.746	3028
820.886	2944
821.026	3100
821.167	3108
821.307	3222
821.447	3283
821.588	3279
821.728	3180
821.868	3146
822.008	3047
822.149	3154
822.289	3222
822.429	3085
822.569	3081
822.709	3165
822.849	3017
822.99	3085
823.13	3188
823.27	3214
823.41	3070
823.55	3146
823.69	3150
823.83	3180
823.97	3123
824.11	3001
824.25	2979
824.389	3081
824.529	3089
824.669	3077
824.809	3176
824.949	3218
825.089	3146
825.228	3150
825.368	3058
825.508	2929
825.648	2967
825.787	2979
825.927	2994
826.067	2967
826.206	2971
826.346	3093
826.485	3070
826.625	3112
826.765	3249
826.904	3192
827.044	2956
827.183	2902
827.323	2849
827.462	2986
827.601	2922
827.741	2910
827.88	2944
828.02	2842
828.159	2963
828.298	3036
828.437	3062
828.577	3066
828.716	3253
828.855	3032
828.994	2910
829.134	2861
829.273	2910
829.412	2872
829.551	2880
829.69	2902
829.829	2990
829.968	3138
830.107	3013
830.246	3013
830.385	2861
830.524	2891
830.663	2807
830.802	2735
830.941	2648
831.08	2659
831.219	2754
831.357	2754
831.496	2910
831.635	2697
831.774	2610
831.913	2629
832.051	2549
832.19	2568
832.329	2708
832.467	2518
832.606	2469
832.744	2590
832.883	2556
833.022	2602
833.16	2636
833.299	2670
833.437	2693
833.576	2708
833.714	2724
833.852	2735
833.991	2739
834.129	2819
834.267	2811
834.406	2796
834.544	2857
834.682	2853
834.821	2845
834.959	3047
835.097	2868
835.235	3036
835.373	2971
835.511	3024
835.65	2986
835.788	2944
835.926	2804
836.064	2781
836.202	2811
836.34	3051
836.478	3150
836.615	3055
836.753	3123
836.891	3150
837.029	3157
837.167	3093
837.305	3051
837.443	3020
837.58	2948
837.718	3093
837.856	3077
837.993	3070
838.131	3123
838.269	3070
838.406	3100
838.544	3043
838.681	2944
838.819	2914
838.956	2811
839.094	2819
839.231	2868
839.369	3017
839.506	3389
839.643	3222
839.781	3009
839.918	2910
840.055	3017
840.193	3043
840.33	3051
840.467	3074
840.604	3123
840.742	3389
840.879	3028
841.016	3058
841.153	3123
841.29	3348
841.427	3260
841.564	3283
841.701	3275
841.838	3184
841.975	3142
842.112	3211
842.249	3089
842.385	3013
842.522	3264
842.659	3077
842.796	3017
842.933	3093
843.069	3051
843.206	3062
843.343	3142
843.479	3077
843.616	3119
843.752	2887
843.889	2868
844.025	3066
844.162	2864
844.298	3066
844.435	2922
844.571	2902
844.708	3081
844.844	3184
844.98	3207
845.117	3157
845.253	3074
845.389	3009
845.525	3089
845.661	3100
845.798	2990
845.934	3142
846.07	3062
846.206	3176
846.342	3298
846.478	3222
846.614	3104
846.75	3020
846.886	2998
847.022	3237
847.158	3104
847.294	3211
847.429	3218
847.565	3222
847.701	3466
847.837	2979
847.972	2998
848.108	3169
848.244	3150
848.379	2986
848.515	2891
848.65	2952
848.786	2975
848.921	3005
849.057	3085
849.192	3154
849.328	3047
849.463	3097
849.598	3062
849.734	3020
849.869	2956
850.004	2944
850.14	2948
850.275	2887
850.41	2849
850.545	2838
850.68	2910
850.815	2937
850.95	2948
851.085	3176
851.22	3074
851.355	3043
851.49	2960
851.625	2975
851.76	3039
851.895	2883
852.03	2883
852.165	2994
852.299	3062
852.434	3169
852.569	3150
852.703	3169
852.838	3241
852.973	3332
853.107	3302
853.242	3138
853.376	3070
853.511	2967
853.645	3070
853.78	3237
853.914	3116
854.048	3112
854.183	3077
854.317	3146
854.451	3294
854.585	3131
854.72	3116
854.854	3211
854.988	3032
855.122	3074
855.256	2960
855.39	3112
855.524	3207
855.658	3169
855.792	3131
855.926	3192
856.06	3222
856.194	3214
856.327	3116
856.461	3074
856.595	3116
856.729	3104
856.862	3192
856.996	3146
857.13	3214
857.263	3241
857.397	3233
857.53	3142
857.664	3165
857.797	3203
857.931	3211
858.064	3192
858.197	3214
858.331	3089
858.464	3066
858.597	3001
858.731	3104
858.864	3112
858.997	3089
859.13	3146
859.263	3199
859.396	3214
859.529	3100
859.662	3055
859.795	3020
859.928	3180
860.061	3249
860.194	3272
860.327	3104
860.46	3112
860.592	3253
860.725	3230
860.858	3241
860.99	3150
861.123	3047
861.256	3032
861.388	3097
861.521	3705
861.653	3001
861.786	2971
861.918	2979
862.05	3051
862.183	3081
862.315	3131
862.447	3157
862.58	3077
862.712	2948
862.844	2861
862.976	3028
863.108	3005
863.24	3317
863.372	2845
863.504	2944
863.636	2933
863.768	3024
863.9	2982
864.032	2910
864.164	2960
864.296	3013
864.428	3051
864.559	3112
864.691	3039
864.823	3089
864.954	3028
865.086	3024
865.217	2979
865.349	2906
865.48	2975
865.612	3017
865.743	3142
865.875	2963
866.006	2944
866.137	2967
866.269	2933
866.4	2918
866.531	2925
866.662	2872
866.793	2872
866.924	2819
867.055	2967
867.186	2929
867.317	2845
867.448	2811
867.579	2861
867.71	2838
867.841	2811
867.972	2914
868.103	2880
868.233	2883
868.364	2880
868.495	2880
868.625	3074
868.756	3157
868.886	2990
869.017	3020
869.147	3161
869.278	3173
869.408	3024
869.539	3020
869.669	3112
869.799	3009
869.929	3116
870.06	3112
870.19	3340
870.32	3268
870.45	3294
870.58	3374
870.71	3420
870.84	3439
870.97	3287
871.1	3253
871.23	3488
871.36	3458
871.489	3363
871.619	3412
871.749	3401
871.879	3420
872.008	3488
872.138	3332
872.267	3230
872.397	3146
872.526	3135
872.656	3009
872.785	3100
872.915	3245
873.044	3294
873.173	3230
873.303	3256
873.432	3230
873.561	3214
873.69	3127
873.819	3116
873.948	3173
874.077	3108
874.206	3081
874.335	3070
874.464	3214
874.593	3321
874.722	3226
874.851	3386
874.979	3325
875.108	3302
875.237	3211
875.365	3146
875.494	3222
875.623	3275
875.751	3039
875.88	3093
876.008	3218
876.136	3222
876.265	3313
876.393	3454
876.521	3405
876.65	3378
876.778	3359
876.906	3272
877.034	3173
877.162	3207
877.29	3135
877.418	3230
877.546	3218
877.674	3268
877.802	3199
877.93	3249
878.058	3142
878.185	3104
878.313	3195
878.441	3211
878.568	3028
878.696	3165
878.824	3264
878.951	3264
879.079	3416
879.206	3564
879.333	3439
879.461	3344
879.588	3329
879.715	3481
879.842	3564
879.97	3351
880.097	3138
880.224	3089
880.351	3199
880.478	3230
880.605	3184
880.732	3165
880.859	3485
880.986	3287
881.112	3370
881.239	3150
881.366	3055
881.493	2979
881.619	3028
881.746	3081
881.872	3058
881.999	3100
882.125	3097
882.252	3233
882.378	3272
882.505	3428
882.631	3291
882.757	3157
882.883	3192
883.01	3214
883.136	3161
883.262	3074
883.388	3127
883.514	3321
883.64	3367
883.766	3275
883.892	3176
884.018	3226
884.143	3409
884.269	3496
884.395	3188
884.52	3150
884.646	3161
884.772	3119
884.897	3055
885.023	3195
885.148	3287
885.274	3424
885.399	3363
885.524	3256
885.65	3260
885.775	3294
885.9	3264
886.025	3409
886.15	3348
886.275	3249
886.4	3233
886.525	3283
886.65	3249
886.775	3249
886.9	3488
887.025	3625
887.149	3374
887.274	3184
887.399	3123
887.523	3192
887.648	3176
887.773	3176
887.897	3313
888.021	3378
888.146	3298
888.27	3389
888.395	3538
888.519	3428
888.643	3443
888.767	3466
888.891	3291
889.015	3260
889.139	3275
889.263	3218
889.387	3401
889.511	3523
889.635	3428
889.759	3272
889.883	3291
890.006	3367
890.13	3485
890.254	3279
890.377	3363
890.501	3218
890.624	3131
890.748	3298
890.871	3135
890.995	3077
891.118	3039
891.241	3165
891.364	3237
891.488	3325
891.611	3150
891.734	3233
891.857	3275
891.98	3226
892.103	3329
892.226	3249
892.349	3211
892.471	3119
892.594	3214
892.717	3287
892.839	3279
892.962	3264
893.085	3363
893.207	3291
893.33	3131
893.452	3192
893.575	3325
893.697	3207
893.819	3447
893.941	3488
894.064	3382
894.186	3237
894.308	3287
894.43	3370
894.552	3511
894.674	3458
894.796	3264
894.918	3260
895.04	3253
895.161	3401
895.283	3370
895.405	3306
895.526	3329
895.648	3389
895.769	3443
895.891	3466
896.012	3454
896.134	3469
896.255	3382
896.376	3374
896.498	3336
896.619	3412
896.74	3363
896.861	3424
896.982	3713
897.103	3808
897.224	3603
897.345	3485
897.466	3386
897.587	3462
897.708	3606
897.828	3515
897.949	3405
898.07	3332
898.19	3401
898.311	3587
898.431	3450
898.552	3507
898.672	3572
898.792	3572
898.913	3507
899.033	3389
899.153	3264
899.273	3199
899.393	3275
899.513	3279
899.633	3272
899.753	3332
899.873	3287
899.993	3370
900.113	3340
900.232	3367
900.352	3351
900.472	3298
900.591	3188
900.711	3256
900.83	3207
900.95	3386
901.069	3477
901.189	3317
901.308	3184
901.427	3131
901.546	3150
901.665	3264
901.784	3355
901.904	3188
902.023	3131
902.141	3009
902.26	2971
902.379	3150
902.498	3097
902.617	3051
902.735	3138
902.854	3207
902.973	3207
903.091	3043
903.21	3058
903.328	3142
903.446	3077
903.565	3093
903.683	3184
903.801	3135
903.919	3218
904.038	3272
904.156	3146
904.274	3264
904.392	3253
904.51	3291
904.627	3317
904.745	3416
904.863	3477
904.981	3214
905.098	3138
905.216	3218
905.334	3268
905.451	3275
905.569	3268
905.686	3424
905.803	3397
905.921	3294
906.038	3405
906.155	3355
906.272	3233
906.389	3310
906.506	3188
906.623	3241
906.74	3272
906.857	3142
906.974	3237
907.091	3435
907.208	3599
907.324	3477
907.441	3367
907.557	3188
907.674	3264
907.79	3150
907.907	3214
908.023	3370
908.139	3336
908.256	3294
908.372	3348
908.488	3332
908.604	3226
908.72	3233
908.836	3264
908.952	3264
909.068	3291
909.184	3481
909.3	3397
909.415	3473
909.531	3431
909.647	3241
909.762	3264
909.878	3233
909.993	3344
910.108	3332
910.224	3329
910.339	3420
910.454	3329
910.57	3291
910.685	3199
910.8	3625
910.915	3511
911.03	3458
911.145	3275
911.259	3275
911.374	3291
911.489	3260
911.604	3253
911.718	3112
911.833	3135
911.947	3043
912.062	2998
912.176	3192
912.291	3180
912.405	3253
912.519	3458
912.633	3492
912.748	3359
912.862	3260
912.976	3211
913.09	3100
913.204	3180
913.318	3241
913.431	3355
913.545	3363
913.659	3447
913.772	3332
913.886	3249
914	3211
914.113	3374
914.226	3454
914.34	3367
914.453	3199
914.566	3435
914.68	3298
914.793	3317
914.906	3169
915.019	3165
915.132	3116
915.245	3173
915.358	3233
915.47	3245
915.583	3321
915.696	3336
915.809	3469
915.921	3454
916.034	3249
916.146	3325
916.259	3253
916.371	3424
916.483	3424
916.595	3325
916.708	3393
916.82	3386
916.932	3382
917.044	3416
917.156	3389
917.268	3306
917.38	3294
917.491	3332
917.603	3401
917.715	3443
917.826	3549
917.938	3386
918.049	3325
918.161	3466
918.272	3618
918.384	3576
918.495	3507
918.606	3393
918.717	3325
918.828	3397
918.939	3431
919.05	3325
919.161	3420
919.272	3211
919.383	3336
919.494	3519
919.604	3751
919.715	3523
919.826	3409
919.936	3538
920.047	3648
920.157	3564
920.267	3816
920.378	3599
920.488	3637
920.598	3789
920.708	3964
920.818	3838
920.928	3823
921.038	4063
921.148	4017
921.258	3724
921.368	3648
921.477	3603
921.587	3549
921.697	3526
921.806	3648
921.916	3580
922.025	3370
922.134	3374
922.244	3336
922.353	3473
922.462	3302
922.571	3214
922.68	3127
922.789	3100
922.898	3169
923.007	3085
923.116	3241
923.224	3211
923.333	3207
923.442	3123
923.55	3081
923.659	3150
923.767	3249
923.876	3157
923.984	3253
924.092	3142
924.201	3214
924.309	3245
924.417	3283
924.525	3214
924.633	3264
924.741	4059
924.849	3062
924.956	3302
925.064	3138
925.172	3074
925.279	3100
925.387	3230
925.494	3256
925.602	3374
925.709	3317
925.816	3195
925.924	3310
926.031	3420
926.138	3329
926.245	3348
926.352	3241
926.459	3443
926.566	3492
926.673	3336
926.779	3241
926.886	3272
926.993	3188
927.099	3157
927.206	3119
927.312	3135
927.419	3245
927.525	3199
927.631	3264
927.737	3165
927.843	3146
927.95	3055
928.056	3157
928.162	3169
928.267	3268
928.373	3941
928.479	3302
928.585	3077
928.69	3211
928.796	3279
928.901	3211
929.007	3100
929.112	3230
929.218	3203
929.323	3176
929.428	3161
929.533	3332
929.638	3165
929.743	3180
929.848	3287
929.953	3249
930.058	3173
930.163	3001
930.267	3089
930.372	3249
930.477	3055
930.581	3348
930.685	3233
930.79	3077
930.894	3161
930.998	3119
931.103	3302
931.207	2979
931.311	2967
931.415	2956
931.519	2800
931.623	2849
