Data from test_V78500241_1748.txt Node
Date: Fri Mar 25 16:27:18 CST 2022
User: usil
Spectrometer: V785-0024
Trigger mode: 0
Integration Time (sec): 4.000000E-1
Scans to average: 1
Nonlinearity correction enabled: false
Boxcar width: 0
Storing dark spectrum: false
XAxis mode: Wavelengths
Number of Pixels in Spectrum: 1024
>>>>>Begin Spectral Data<<<<<
801.071	2941
801.214	2971
801.356	2899
801.499	2891
801.641	2918
801.783	2956
801.926	3066
802.068	2982
802.211	2982
802.353	3051
802.496	2982
802.638	3032
802.78	3043
802.923	3085
803.065	3028
803.208	2914
803.35	2941
803.492	2944
803.635	2956
803.777	2781
803.919	2872
804.061	3241
804.204	2937
804.346	2880
804.488	2880
804.63	2982
804.773	2872
804.915	2933
805.057	3085
805.199	2910
805.341	2979
805.483	3066
805.626	3001
805.768	2956
805.91	3108
806.052	3131
806.194	3024
806.336	3260
806.478	3070
806.62	2948
806.762	2982
806.904	3089
807.046	3165
807.188	2979
807.33	2914
807.472	2994
807.614	2887
807.756	3001
807.898	2941
808.04	2914
808.182	2944
808.324	2952
808.465	2929
808.607	2910
808.749	2823
808.891	2876
809.033	2971
809.174	3013
809.316	2910
809.458	2918
809.6	2781
809.741	2804
809.883	2788
810.025	2864
810.166	2876
810.308	2845
810.45	2864
810.591	2796
810.733	2781
810.875	2864
811.016	2796
811.158	2758
811.299	2838
811.441	2899
811.582	2906
811.724	2872
811.865	2868
812.007	2918
812.148	2887
812.29	2861
812.431	2883
812.573	2933
812.714	2979
812.855	3043
812.997	3051
813.138	3119
813.279	3039
813.421	3009
813.562	2952
813.703	2891
813.845	2899
813.986	2800
814.127	2720
814.268	2868
814.41	2857
814.551	2800
814.692	2872
814.833	2811
814.974	2880
815.115	2941
815.256	2823
815.397	2834
815.539	2872
815.68	2766
815.821	2838
815.962	2948
816.103	2937
816.244	2872
816.385	2902
816.526	3005
816.666	2899
816.807	2758
816.948	2857
817.089	2929
817.23	2872
817.371	2800
817.512	2800
817.653	2845
817.793	2830
817.934	2880
818.075	2975
818.216	2960
818.356	3024
818.497	2872
818.638	2781
818.778	2845
818.919	2796
819.06	2766
819.2	2868
819.341	2800
819.481	2845
819.622	2941
819.762	3108
819.903	3039
820.043	2891
820.184	2880
820.324	2902
820.465	3036
820.605	3043
820.746	3066
820.886	2963
821.026	3127
821.167	3154
821.307	3268
821.447	3310
821.588	3233
821.728	3195
821.868	3249
822.008	3100
822.149	3203
822.289	3268
822.429	3100
822.569	3108
822.709	3165
822.849	3032
822.99	3074
823.13	3157
823.27	3218
823.41	3085
823.55	3131
823.69	3176
823.83	3195
823.97	3108
824.11	3009
824.25	2986
824.389	3062
824.529	3108
824.669	3108
824.809	3226
824.949	3283
825.089	3226
825.228	3142
825.368	3013
825.508	2960
825.648	2998
825.787	3024
825.927	3020
826.067	2971
826.206	3009
826.346	3051
826.485	3081
826.625	3131
826.765	3256
826.904	3275
827.044	3020
827.183	2937
827.323	2853
827.462	3020
827.601	2922
827.741	2906
827.88	2941
828.02	2853
828.159	2998
828.298	3070
828.437	3135
828.577	3089
828.716	3291
828.855	3089
828.994	2929
829.134	2902
829.273	2933
829.412	2891
829.551	2876
829.69	2887
829.829	2967
829.968	3097
830.107	3028
830.246	3043
830.385	2944
830.524	2918
830.663	2849
830.802	2724
830.941	2648
831.08	2678
831.219	2758
831.357	2769
831.496	2922
831.635	2708
831.774	2644
831.913	2663
832.051	2514
832.19	2602
832.329	2708
832.467	2530
832.606	2484
832.744	2617
832.883	2606
833.022	2602
833.16	2659
833.299	2678
833.437	2712
833.576	2716
833.714	2735
833.852	2746
833.991	2788
834.129	2823
834.267	2845
834.406	2819
834.544	2906
834.682	2876
834.821	2895
834.959	3047
835.097	2872
835.235	3062
835.373	3001
835.511	2982
835.65	2979
835.788	2994
835.926	2826
836.064	2788
836.202	2853
836.34	3104
836.478	3173
836.615	3108
836.753	3135
836.891	3199
837.029	3165
837.167	3127
837.305	3066
837.443	3047
837.58	2937
837.718	3154
837.856	3070
837.993	2998
838.131	3131
838.269	3119
838.406	3074
838.544	3062
838.681	2929
838.819	2925
838.956	2815
839.094	2811
839.231	2883
839.369	3058
839.506	3382
839.643	3233
839.781	3009
839.918	2994
840.055	3032
840.193	3074
840.33	3036
840.467	3097
840.604	3150
840.742	3405
840.879	3077
841.016	3070
841.153	3119
841.29	3325
841.427	3264
841.564	3306
841.701	3359
841.838	3222
841.975	3142
842.112	3192
842.249	3089
842.385	3047
842.522	3256
842.659	3100
842.796	3089
842.933	3119
843.069	3043
843.206	3017
843.343	3203
843.479	3089
843.616	3127
843.752	2914
843.889	2872
844.025	3062
844.162	2883
844.298	3093
844.435	2937
844.571	2914
844.708	3089
844.844	3211
844.98	3203
845.117	3207
845.253	3043
845.389	3001
845.525	3070
845.661	3112
845.798	3020
845.934	3142
846.07	3051
846.206	3222
846.342	3325
846.478	3230
846.614	3070
846.75	3051
846.886	2990
847.022	3249
847.158	3138
847.294	3184
847.429	3260
847.565	3237
847.701	3477
847.837	3036
847.972	3039
848.108	3165
848.244	3157
848.379	3001
848.515	2967
848.65	2948
848.786	2975
848.921	3013
849.057	3077
849.192	3150
849.328	3085
849.463	3131
849.598	3077
849.734	3032
849.869	3001
850.004	2876
850.14	3001
850.275	2941
850.41	2853
850.545	2876
850.68	2933
850.815	2971
850.95	2982
851.085	3203
851.22	3112
851.355	3043
851.49	2925
851.625	3013
851.76	3005
851.895	2948
852.03	2876
852.165	3017
852.299	3104
852.434	3184
852.569	3123
852.703	3142
852.838	3237
852.973	3351
853.107	3344
853.242	3116
853.376	3081
853.511	2990
853.645	3043
853.78	3245
853.914	3142
854.048	3116
854.183	3131
854.317	3150
854.451	3317
854.585	3135
854.72	3077
854.854	3214
854.988	3036
855.122	3100
855.256	2963
855.39	3142
855.524	3237
855.658	3211
855.792	3161
855.926	3203
856.06	3218
856.194	3272
856.327	3131
856.461	3077
856.595	3085
856.729	3142
856.862	3199
856.996	3180
857.13	3192
857.263	3226
857.397	3264
857.53	3146
857.664	3180
857.797	3214
857.931	3233
858.064	3161
858.197	3184
858.331	3097
858.464	3104
858.597	2986
858.731	3093
858.864	3142
858.997	3081
859.13	3131
859.263	3154
859.396	3245
859.529	3093
859.662	3104
859.795	3051
859.928	3100
860.061	3283
860.194	3275
860.327	3161
860.46	3062
860.592	3214
860.725	3237
860.858	3283
860.99	3119
861.123	3047
861.256	3055
861.388	3112
861.521	3949
861.653	3036
861.786	3013
861.918	3013
862.05	3051
862.183	3131
862.315	3169
862.447	3199
862.58	3081
862.712	2963
862.844	2891
862.976	3028
863.108	2994
863.24	3340
863.372	2887
863.504	2914
863.636	2910
863.768	3020
863.9	2944
864.032	2906
864.164	2933
864.296	2975
864.428	3058
864.559	3100
864.691	3062
864.823	3051
864.954	3005
865.086	3051
865.217	2979
865.349	2948
865.48	2979
865.612	3024
865.743	3131
865.875	3009
866.006	2948
866.137	2986
866.269	2948
866.4	2937
866.531	2910
866.662	2883
866.793	2941
866.924	2895
867.055	2956
867.186	2941
867.317	2883
867.448	2819
867.579	2826
867.71	2872
867.841	2823
867.972	2918
868.103	2899
868.233	2899
868.364	2845
868.495	2861
868.625	3097
868.756	3169
868.886	2994
869.017	3024
869.147	3165
869.278	3176
869.408	3020
869.539	3039
869.669	3108
869.799	3047
869.929	3119
870.06	3085
870.19	3374
870.32	3264
870.45	3283
870.58	3382
870.71	3443
870.84	3431
870.97	3310
871.1	3260
871.23	3496
871.36	3454
871.489	3332
871.619	3382
871.749	3431
871.879	3439
872.008	3462
872.138	3386
872.267	3260
872.397	3161
872.526	3108
872.656	2979
872.785	3104
872.915	3241
873.044	3313
873.173	3188
873.303	3256
873.432	3245
873.561	3214
873.69	3119
873.819	3146
873.948	3195
874.077	3058
874.206	3036
874.335	3077
874.464	3214
874.593	3302
874.722	3214
874.851	3397
874.979	3317
875.108	3313
875.237	3173
875.365	3161
875.494	3173
875.623	3264
875.751	3077
875.88	3104
876.008	3188
876.136	3203
876.265	3332
876.393	3488
876.521	3405
876.65	3393
876.778	3340
876.906	3203
877.034	3188
877.162	3233
877.29	3195
877.418	3256
877.546	3230
877.674	3264
877.802	3218
877.93	3192
878.058	3150
878.185	3123
878.313	3199
878.441	3188
878.568	3089
878.696	3142
878.824	3241
878.951	3336
879.079	3439
879.206	3629
879.333	3431
879.461	3313
879.588	3386
879.715	3481
879.842	3587
879.97	3389
880.097	3188
880.224	3127
880.351	3176
880.478	3214
880.605	3199
880.732	3218
880.859	3568
880.986	3275
881.112	3325
881.239	3161
881.366	3070
881.493	3024
881.619	3005
881.746	3062
881.872	3043
881.999	3085
882.125	3176
882.252	3260
882.378	3272
882.505	3424
882.631	3294
882.757	3146
882.883	3192
883.01	3226
883.136	3150
883.262	3077
883.388	3085
883.514	3287
883.64	3378
883.766	3298
883.892	3142
884.018	3214
884.143	3409
884.269	3530
884.395	3203
884.52	3195
884.646	3173
884.772	3131
884.897	3085
885.023	3154
885.148	3325
885.274	3389
885.399	3355
885.524	3279
885.65	3214
885.775	3287
885.9	3260
886.025	3450
886.15	3363
886.275	3283
886.4	3272
886.525	3283
886.65	3287
886.775	3291
886.9	3473
887.025	3633
887.149	3409
887.274	3222
887.399	3222
887.523	3218
887.648	3169
887.773	3218
887.897	3389
888.021	3348
888.146	3302
888.27	3424
888.395	3526
888.519	3412
888.643	3435
888.767	3458
888.891	3310
889.015	3253
889.139	3249
889.263	3245
889.387	3389
889.511	3431
889.635	3447
889.759	3283
889.883	3313
890.006	3382
890.13	3504
890.254	3313
890.377	3325
890.501	3180
890.624	3218
890.748	3306
890.871	3184
890.995	3123
891.118	3089
891.241	3165
891.364	3211
891.488	3317
891.611	3135
891.734	3253
891.857	3272
891.98	3218
892.103	3340
892.226	3230
892.349	3203
892.471	3138
892.594	3249
892.717	3283
892.839	3272
892.962	3306
893.085	3351
893.207	3275
893.33	3150
893.452	3268
893.575	3359
893.697	3222
893.819	3462
893.941	3542
894.064	3447
894.186	3264
894.308	3279
894.43	3412
894.552	3549
894.674	3507
894.796	3275
894.918	3298
895.04	3256
895.161	3424
895.283	3393
895.405	3317
895.526	3370
895.648	3393
895.769	3447
895.891	3462
896.012	3435
896.134	3477
896.255	3439
896.376	3382
896.498	3355
896.619	3409
896.74	3374
896.861	3401
896.982	3663
897.103	3774
897.224	3561
897.345	3523
897.466	3443
897.587	3492
897.708	3629
897.828	3561
897.949	3416
898.07	3336
898.19	3393
898.311	3618
898.431	3473
898.552	3519
898.672	3557
898.792	3595
898.913	3549
899.033	3412
899.153	3287
899.273	3237
899.393	3249
899.513	3272
899.633	3310
899.753	3325
899.873	3344
899.993	3374
900.113	3332
900.232	3397
900.352	3294
900.472	3245
900.591	3188
900.711	3291
900.83	3218
900.95	3389
901.069	3492
901.189	3370
901.308	3169
901.427	3127
901.546	3192
901.665	3264
901.784	3329
901.904	3180
902.023	3154
902.141	3020
902.26	3005
902.379	3131
902.498	3085
902.617	3039
902.735	3184
902.854	3203
902.973	3188
903.091	3036
903.21	3055
903.328	3135
903.446	3119
903.565	3093
903.683	3218
903.801	3104
903.919	3272
904.038	3317
904.156	3192
904.274	3298
904.392	3241
904.51	3275
904.627	3294
904.745	3412
904.863	3450
904.981	3260
905.098	3161
905.216	3260
905.334	3302
905.451	3306
905.569	3291
905.686	3378
905.803	3447
905.921	3283
906.038	3458
906.155	3351
906.272	3340
906.389	3370
906.506	3249
906.623	3275
906.74	3272
906.857	3188
906.974	3249
907.091	3447
907.208	3599
907.324	3500
907.441	3405
907.557	3211
907.674	3195
907.79	3218
907.907	3253
908.023	3370
908.139	3363
908.256	3306
908.372	3313
908.488	3355
908.604	3279
908.72	3253
908.836	3241
908.952	3279
909.068	3332
909.184	3443
909.3	3409
909.415	3507
909.531	3496
909.647	3264
909.762	3291
909.878	3245
909.993	3321
910.108	3336
910.224	3317
910.339	3401
910.454	3336
910.57	3291
910.685	3283
910.8	3622
910.915	3553
911.03	3412
911.145	3279
911.259	3264
911.374	3332
911.489	3241
911.604	3237
911.718	3089
911.833	3173
911.947	3036
912.062	2948
912.176	3195
912.291	3188
912.405	3207
912.519	3416
912.633	3481
912.748	3329
912.862	3287
912.976	3184
913.09	3032
913.204	3161
913.318	3214
913.431	3348
913.545	3317
913.659	3393
913.772	3325
913.886	3214
914	3226
914.113	3393
914.226	3393
914.34	3378
914.453	3226
914.566	3397
914.68	3302
914.793	3291
914.906	3169
915.019	3055
915.132	3066
915.245	3184
915.358	3173
915.47	3245
915.583	3291
915.696	3287
915.809	3393
915.921	3420
916.034	3283
916.146	3241
916.259	3211
916.371	3367
916.483	3386
916.595	3264
916.708	3275
916.82	3348
916.932	3310
917.044	3344
917.156	3344
917.268	3237
917.38	3264
917.491	3329
917.603	3351
917.715	3485
917.826	3447
917.938	3424
918.049	3294
918.161	3382
918.272	3587
918.384	3576
918.495	3447
918.606	3329
918.717	3279
918.828	3397
918.939	3382
919.05	3310
919.161	3367
919.272	3192
919.383	3237
919.494	3530
919.604	3618
919.715	3481
919.826	3401
919.936	3496
920.047	3599
920.157	3568
920.267	3797
920.378	3606
920.488	3545
920.598	3842
920.708	3964
920.818	3781
920.928	3804
921.038	4032
921.148	4021
921.258	3740
921.368	3644
921.477	3564
921.587	3538
921.697	3443
921.806	3633
921.916	3545
922.025	3313
922.134	3344
922.244	3306
922.353	3447
922.462	3294
922.571	3207
922.68	3108
922.789	3055
922.898	3157
923.007	3066
923.116	3157
923.224	3176
923.333	3192
923.442	3100
923.55	3104
923.659	3112
923.767	3211
923.876	3100
923.984	3218
924.092	3116
924.201	3203
924.309	3161
924.417	3222
924.525	3184
924.633	3211
924.741	4044
924.849	3062
924.956	3260
925.064	3116
925.172	3032
925.279	3116
925.387	3195
925.494	3203
925.602	3317
925.709	3306
925.816	3169
925.924	3287
926.031	3393
926.138	3325
926.245	3386
926.352	3256
926.459	3409
926.566	3477
926.673	3317
926.779	3268
926.886	3245
926.993	3138
927.099	3123
927.206	3074
927.312	3058
927.419	3226
927.525	3218
927.631	3253
927.737	3138
927.843	3123
927.95	2998
928.056	3108
928.162	3211
928.267	3230
928.373	3869
928.479	3313
928.585	3055
928.69	3207
928.796	3272
928.901	3165
929.007	3055
929.112	3192
929.218	3176
929.323	3142
929.428	3142
929.533	3348
929.638	3135
929.743	3188
929.848	3237
929.953	3214
930.058	3127
930.163	3017
930.267	3039
930.372	3169
930.477	3043
930.581	3306
930.685	3173
930.79	3058
930.894	3116
930.998	3066
931.103	3279
931.207	2956
931.311	2952
931.415	2887
931.519	2750
931.623	2819
