Data from test_V78500241_1295.txt Node
Date: Fri Mar 25 16:24:10 CST 2022
User: usil
Spectrometer: V785-0024
Trigger mode: 0
Integration Time (sec): 4.000000E-1
Scans to average: 1
Nonlinearity correction enabled: false
Boxcar width: 0
Storing dark spectrum: false
XAxis mode: Wavelengths
Number of Pixels in Spectrum: 1024
>>>>>Begin Spectral Data<<<<<
801.071	2891
801.214	2922
801.356	2853
801.499	2883
801.641	2864
801.783	2914
801.926	3024
802.068	2986
802.211	2998
802.353	3043
802.496	2963
802.638	3017
802.78	3043
802.923	3093
803.065	2971
803.208	2853
803.35	2910
803.492	2944
803.635	2899
803.777	2807
803.919	2811
804.061	3180
804.204	2918
804.346	2914
804.488	2849
804.63	2998
804.773	2853
804.915	2925
805.057	3085
805.199	2906
805.341	2944
805.483	3005
805.626	3020
805.768	2979
805.91	3066
806.052	3119
806.194	3028
806.336	3169
806.478	3017
806.62	2933
806.762	2971
806.904	3036
807.046	3173
807.188	2963
807.33	2925
807.472	2956
807.614	2914
807.756	3039
807.898	2891
808.04	2891
808.182	2994
808.324	2929
808.465	2906
808.607	2864
808.749	2811
808.891	2819
809.033	2967
809.174	2967
809.316	2883
809.458	2914
809.6	2766
809.741	2750
809.883	2754
810.025	2826
810.166	2853
810.308	2819
810.45	2849
810.591	2788
810.733	2758
810.875	2864
811.016	2758
811.158	2773
811.299	2811
811.441	2906
811.582	2929
811.724	2823
811.865	2861
812.007	2895
812.148	2872
812.29	2826
812.431	2864
812.573	2929
812.714	2982
812.855	3024
812.997	3043
813.138	3089
813.279	2994
813.421	2979
813.562	2967
813.703	2861
813.845	2876
813.986	2758
814.127	2735
814.268	2830
814.41	2796
814.551	2807
814.692	2872
814.833	2834
814.974	2857
815.115	2925
815.256	2834
815.397	2823
815.539	2834
815.68	2769
815.821	2785
815.962	2914
816.103	2914
816.244	2864
816.385	2845
816.526	2982
816.666	2883
816.807	2724
816.948	2910
817.089	2891
817.23	2842
817.371	2800
817.512	2792
817.653	2830
817.793	2823
817.934	2823
818.075	2982
818.216	2979
818.356	3032
818.497	2861
818.638	2781
818.778	2842
818.919	2766
819.06	2762
819.2	2880
819.341	2815
819.481	2800
819.622	2922
819.762	3112
819.903	3051
820.043	2899
820.184	2906
820.324	2899
820.465	3020
820.605	2990
820.746	3005
820.886	2914
821.026	3081
821.167	3188
821.307	3222
821.447	3253
821.588	3268
821.728	3203
821.868	3154
822.008	3093
822.149	3161
822.289	3218
822.429	3085
822.569	3058
822.709	3169
822.849	3036
822.99	3043
823.13	3116
823.27	3214
823.41	3093
823.55	3154
823.69	3138
823.83	3173
823.97	3100
824.11	2963
824.25	3009
824.389	3062
824.529	3108
824.669	3039
824.809	3199
824.949	3233
825.089	3226
825.228	3142
825.368	2971
825.508	2944
825.648	2994
825.787	2967
825.927	3001
826.067	2979
826.206	3005
826.346	3055
826.485	3051
826.625	3112
826.765	3226
826.904	3180
827.044	2963
827.183	2929
827.323	2849
827.462	2956
827.601	2948
827.741	2925
827.88	2963
828.02	2853
828.159	2975
828.298	2994
828.437	3138
828.577	3058
828.716	3214
828.855	3055
828.994	2941
829.134	2864
829.273	2914
829.412	2853
829.551	2853
829.69	2887
829.829	2979
829.968	3062
830.107	3028
830.246	3032
830.385	2922
830.524	2868
830.663	2819
830.802	2697
830.941	2613
831.08	2613
831.219	2800
831.357	2735
831.496	2952
831.635	2724
831.774	2640
831.913	2648
832.051	2533
832.19	2590
832.329	2667
832.467	2549
832.606	2518
832.744	2564
832.883	2560
833.022	2590
833.16	2629
833.299	2678
833.437	2674
833.576	2689
833.714	2746
833.852	2739
833.991	2727
834.129	2826
834.267	2796
834.406	2766
834.544	2899
834.682	2834
834.821	2853
834.959	3062
835.097	2906
835.235	3043
835.373	2963
835.511	2975
835.65	2956
835.788	2929
835.926	2815
836.064	2823
836.202	2842
836.34	3081
836.478	3161
836.615	3020
836.753	3135
836.891	3218
837.029	3146
837.167	3077
837.305	3043
837.443	3058
837.58	2933
837.718	3127
837.856	3017
837.993	3017
838.131	3123
838.269	3097
838.406	3138
838.544	3070
838.681	2941
838.819	2914
838.956	2785
839.094	2834
839.231	2868
839.369	3005
839.506	3348
839.643	3214
839.781	3001
839.918	2937
840.055	3005
840.193	3039
840.33	3077
840.467	3104
840.604	3154
840.742	3355
840.879	3051
841.016	3032
841.153	3108
841.29	3332
841.427	3230
841.564	3233
841.701	3275
841.838	3230
841.975	3184
842.112	3211
842.249	3024
842.385	3032
842.522	3180
842.659	3062
842.796	3058
842.933	3093
843.069	3039
843.206	3013
843.343	3176
843.479	3077
843.616	3108
843.752	2891
843.889	2838
844.025	3119
844.162	2876
844.298	3062
844.435	2982
844.571	2922
844.708	3085
844.844	3150
844.98	3241
845.117	3207
845.253	3005
845.389	2998
845.525	3104
845.661	3100
845.798	3009
845.934	3142
846.07	3043
846.206	3173
846.342	3291
846.478	3249
846.614	3058
846.75	3020
846.886	3020
847.022	3245
847.158	3131
847.294	3165
847.429	3211
847.565	3192
847.701	3523
847.837	3036
847.972	2986
848.108	3195
848.244	3173
848.379	3017
848.515	2933
848.65	2891
848.786	2971
848.921	3005
849.057	3066
849.192	3150
849.328	3032
849.463	3097
849.598	3047
849.734	3020
849.869	2982
850.004	2922
850.14	2948
850.275	2853
850.41	2845
850.545	2880
850.68	2929
850.815	2933
850.95	2979
851.085	3180
851.22	3100
851.355	3017
851.49	2956
851.625	2994
851.76	3013
851.895	2952
852.03	2883
852.165	3024
852.299	3138
852.434	3165
852.569	3146
852.703	3195
852.838	3214
852.973	3291
853.107	3325
853.242	3112
853.376	3081
853.511	2944
853.645	3043
853.78	3233
853.914	3116
854.048	3104
854.183	3093
854.317	3127
854.451	3287
854.585	3135
854.72	3077
854.854	3131
854.988	2994
855.122	3066
855.256	2967
855.39	3138
855.524	3233
855.658	3154
855.792	3112
855.926	3195
856.06	3192
856.194	3245
856.327	3157
856.461	3062
856.595	3074
856.729	3097
856.862	3169
856.996	3184
857.13	3199
857.263	3207
857.397	3237
857.53	3100
857.664	3173
857.797	3230
857.931	3237
858.064	3157
858.197	3161
858.331	3135
858.464	3085
858.597	2986
858.731	3104
858.864	3154
858.997	3081
859.13	3169
859.263	3180
859.396	3195
859.529	3062
859.662	3066
859.795	3028
859.928	3097
860.061	3253
860.194	3256
860.327	3108
860.46	3119
860.592	3245
860.725	3203
860.858	3192
860.99	3108
861.123	3047
861.256	3036
861.388	3157
861.521	3690
861.653	2994
861.786	2960
861.918	3017
862.05	3081
862.183	3116
862.315	3123
862.447	3218
862.58	3112
862.712	2914
862.844	2842
862.976	3032
863.108	3032
863.24	3294
863.372	2883
863.504	2956
863.636	2910
863.768	3024
863.9	2975
864.032	2857
864.164	2948
864.296	3024
864.428	3032
864.559	3077
864.691	3036
864.823	3017
864.954	3020
865.086	3047
865.217	2979
865.349	2944
865.48	3001
865.612	2960
865.743	3135
865.875	3017
866.006	2910
866.137	2956
866.269	2929
866.4	2925
866.531	2895
866.662	2880
866.793	2891
866.924	2872
867.055	2952
867.186	2887
867.317	2876
867.448	2838
867.579	2819
867.71	2838
867.841	2823
867.972	2876
868.103	2891
868.233	2864
868.364	2838
868.495	2895
868.625	3039
868.756	3165
868.886	2967
869.017	3039
869.147	3188
869.278	3119
869.408	3036
869.539	3032
869.669	3100
869.799	3005
869.929	3089
870.06	3093
870.19	3294
870.32	3310
870.45	3310
870.58	3355
870.71	3431
870.84	3466
870.97	3275
871.1	3188
871.23	3485
871.36	3469
871.489	3340
871.619	3351
871.749	3424
871.879	3443
872.008	3477
872.138	3321
872.267	3260
872.397	3150
872.526	3058
872.656	2994
872.785	3055
872.915	3211
873.044	3306
873.173	3199
873.303	3237
873.432	3241
873.561	3226
873.69	3123
873.819	3131
873.948	3184
874.077	3104
874.206	3024
874.335	3066
874.464	3157
874.593	3298
874.722	3226
874.851	3367
874.979	3340
875.108	3321
875.237	3173
875.365	3108
875.494	3131
875.623	3211
875.751	3074
875.88	3116
876.008	3138
876.136	3180
876.265	3370
876.393	3496
876.521	3397
876.65	3363
876.778	3310
876.906	3268
877.034	3211
877.162	3195
877.29	3184
877.418	3260
877.546	3233
877.674	3241
877.802	3222
877.93	3264
878.058	3142
878.185	3112
878.313	3214
878.441	3230
878.568	3070
878.696	3173
878.824	3264
878.951	3313
879.079	3485
879.206	3614
879.333	3443
879.461	3351
879.588	3397
879.715	3519
879.842	3606
879.97	3450
880.097	3184
880.224	3142
880.351	3214
880.478	3226
880.605	3214
880.732	3211
880.859	3504
880.986	3355
881.112	3329
881.239	3249
881.366	3150
881.493	3070
881.619	3058
881.746	3074
881.872	3116
881.999	3131
882.125	3165
882.252	3245
882.378	3321
882.505	3477
882.631	3260
882.757	3214
882.883	3245
883.01	3268
883.136	3192
883.262	3131
883.388	3131
883.514	3378
883.64	3405
883.766	3351
883.892	3195
884.018	3298
884.143	3443
884.269	3580
884.395	3253
884.52	3195
884.646	3253
884.772	3150
884.897	3146
885.023	3233
885.148	3351
885.274	3458
885.399	3412
885.524	3332
885.65	3340
885.775	3359
885.9	3321
886.025	3458
886.15	3382
886.275	3363
886.4	3275
886.525	3317
886.65	3313
886.775	3279
886.9	3469
887.025	3641
887.149	3488
887.274	3294
887.399	3222
887.523	3249
887.648	3207
887.773	3195
887.897	3397
888.021	3386
888.146	3332
888.27	3447
888.395	3519
888.519	3458
888.643	3485
888.767	3504
888.891	3329
889.015	3249
889.139	3367
889.263	3260
889.387	3450
889.511	3595
889.635	3485
889.759	3336
889.883	3313
890.006	3447
890.13	3515
890.254	3321
890.377	3370
890.501	3245
890.624	3207
890.748	3302
890.871	3218
890.995	3138
891.118	3108
891.241	3233
891.364	3253
891.488	3355
891.611	3230
891.734	3241
891.857	3310
891.98	3264
892.103	3374
892.226	3317
892.349	3241
892.471	3119
892.594	3256
892.717	3291
892.839	3336
892.962	3291
893.085	3382
893.207	3344
893.33	3188
893.452	3226
893.575	3378
893.697	3237
893.819	3477
893.941	3507
894.064	3492
894.186	3291
894.308	3294
894.43	3500
894.552	3599
894.674	3477
894.796	3325
894.918	3348
895.04	3291
895.161	3462
895.283	3405
895.405	3325
895.526	3409
895.648	3492
895.769	3447
895.891	3485
896.012	3492
896.134	3488
896.255	3443
896.376	3397
896.498	3367
896.619	3466
896.74	3412
896.861	3431
896.982	3762
897.103	3873
897.224	3622
897.345	3553
897.466	3462
897.587	3534
897.708	3599
897.828	3629
897.949	3439
898.07	3378
898.19	3481
898.311	3618
898.431	3485
898.552	3549
898.672	3614
898.792	3641
898.913	3557
899.033	3401
899.153	3340
899.273	3283
899.393	3329
899.513	3344
899.633	3344
899.753	3393
899.873	3298
899.993	3386
900.113	3363
900.232	3397
900.352	3401
900.472	3313
900.591	3237
900.711	3291
900.83	3256
900.95	3431
901.069	3580
901.189	3397
901.308	3188
901.427	3093
901.546	3237
901.665	3302
901.784	3386
901.904	3264
902.023	3161
902.141	3066
902.26	3005
902.379	3150
902.498	3081
902.617	3116
902.735	3207
902.854	3283
902.973	3222
903.091	3039
903.21	3062
903.328	3150
903.446	3150
903.565	3135
903.683	3195
903.801	3161
903.919	3272
904.038	3332
904.156	3218
904.274	3317
904.392	3294
904.51	3325
904.627	3348
904.745	3485
904.863	3526
904.981	3279
905.098	3199
905.216	3245
905.334	3310
905.451	3283
905.569	3329
905.686	3443
905.803	3488
905.921	3321
906.038	3443
906.155	3355
906.272	3279
906.389	3363
906.506	3264
906.623	3264
906.74	3336
906.857	3233
906.974	3256
907.091	3481
907.208	3526
907.324	3530
907.441	3435
907.557	3256
907.674	3226
907.79	3230
907.907	3325
908.023	3428
908.139	3397
908.256	3332
908.372	3428
908.488	3374
908.604	3313
908.72	3249
908.836	3294
908.952	3291
909.068	3348
909.184	3500
909.3	3443
909.415	3523
909.531	3485
909.647	3329
909.762	3332
909.878	3268
909.993	3351
910.108	3355
910.224	3317
910.339	3420
910.454	3351
910.57	3363
910.685	3287
910.8	3637
910.915	3549
911.03	3447
911.145	3294
911.259	3279
911.374	3321
911.489	3283
911.604	3268
911.718	3146
911.833	3154
911.947	3066
912.062	3013
912.176	3203
912.291	3218
912.405	3211
912.519	3435
912.633	3492
912.748	3386
912.862	3313
912.976	3146
913.09	3074
913.204	3180
913.318	3237
913.431	3378
913.545	3332
913.659	3416
913.772	3321
913.886	3253
914	3218
914.113	3393
914.226	3412
914.34	3405
914.453	3275
914.566	3393
914.68	3313
914.793	3332
914.906	3199
915.019	3085
915.132	3074
915.245	3154
915.358	3222
915.47	3260
915.583	3310
915.696	3325
915.809	3447
915.921	3439
916.034	3241
916.146	3279
916.259	3249
916.371	3420
916.483	3374
916.595	3298
916.708	3367
916.82	3348
916.932	3382
917.044	3359
917.156	3405
917.268	3260
917.38	3332
917.491	3344
917.603	3378
917.715	3458
917.826	3466
917.938	3382
918.049	3283
918.161	3439
918.272	3606
918.384	3595
918.495	3492
918.606	3348
918.717	3310
918.828	3412
918.939	3485
919.05	3325
919.161	3382
919.272	3233
919.383	3302
919.494	3523
919.604	3709
919.715	3542
919.826	3424
919.936	3488
920.047	3580
920.157	3576
920.267	3827
920.378	3625
920.488	3629
920.598	3816
920.708	3975
920.818	3876
920.928	3861
921.038	4048
921.148	4044
921.258	3709
921.368	3603
921.477	3587
921.587	3576
921.697	3485
921.806	3637
921.916	3580
922.025	3412
922.134	3359
922.244	3340
922.353	3466
922.462	3302
922.571	3222
922.68	3093
922.789	3081
922.898	3176
923.007	3116
923.116	3211
923.224	3188
923.333	3184
923.442	3112
923.55	3112
923.659	3161
923.767	3230
923.876	3161
923.984	3275
924.092	3154
924.201	3218
924.309	3230
924.417	3310
924.525	3161
924.633	3260
924.741	4006
924.849	3047
924.956	3298
925.064	3104
925.172	3100
925.279	3142
925.387	3207
925.494	3176
925.602	3355
925.709	3329
925.816	3188
925.924	3310
926.031	3374
926.138	3374
926.245	3401
926.352	3256
926.459	3424
926.566	3511
926.673	3340
926.779	3298
926.886	3272
926.993	3142
927.099	3146
927.206	3119
927.312	3135
927.419	3249
927.525	3203
927.631	3283
927.737	3173
927.843	3135
927.95	3036
928.056	3165
928.162	3188
928.267	3230
928.373	3941
928.479	3294
928.585	3062
928.69	3237
928.796	3260
928.901	3176
929.007	3108
929.112	3211
929.218	3207
929.323	3157
929.428	3135
929.533	3313
929.638	3173
929.743	3165
929.848	3298
929.953	3241
930.058	3157
930.163	3039
930.267	3066
930.372	3207
930.477	3066
930.581	3321
930.685	3176
930.79	3058
930.894	3154
930.998	3119
931.103	3279
931.207	2975
931.311	2941
931.415	2937
931.519	2815
931.623	2807
