Data from test_V78500241_1703.txt Node
Date: Fri Mar 25 16:27:00 CST 2022
User: usil
Spectrometer: V785-0024
Trigger mode: 0
Integration Time (sec): 4.000000E-1
Scans to average: 1
Nonlinearity correction enabled: false
Boxcar width: 0
Storing dark spectrum: false
XAxis mode: Wavelengths
Number of Pixels in Spectrum: 1024
>>>>>Begin Spectral Data<<<<<
801.071	2895
801.214	2963
801.356	2830
801.499	2876
801.641	2891
801.783	2906
801.926	3104
802.068	2963
802.211	2956
802.353	3062
802.496	2956
802.638	3024
802.78	3036
802.923	3039
803.065	2967
803.208	2895
803.35	2933
803.492	2944
803.635	2902
803.777	2796
803.919	2842
804.061	3203
804.204	2963
804.346	2952
804.488	2823
804.63	3020
804.773	2864
804.915	2872
805.057	3077
805.199	2922
805.341	2952
805.483	3013
805.626	2986
805.768	2971
805.91	3070
806.052	3081
806.194	3017
806.336	3230
806.478	3039
806.62	2937
806.762	2994
806.904	3039
807.046	3157
807.188	2975
807.33	2933
807.472	2979
807.614	2918
807.756	2998
807.898	2922
808.04	2895
808.182	2994
808.324	2967
808.465	2872
808.607	2872
808.749	2781
808.891	2876
809.033	2982
809.174	2994
809.316	2883
809.458	2922
809.6	2766
809.741	2777
809.883	2773
810.025	2830
810.166	2864
810.308	2838
810.45	2823
810.591	2788
810.733	2739
810.875	2857
811.016	2781
811.158	2750
811.299	2785
811.441	2918
811.582	2899
811.724	2834
811.865	2849
812.007	2906
812.148	2891
812.29	2853
812.431	2876
812.573	2956
812.714	2944
812.855	3055
812.997	3077
813.138	3119
813.279	3013
813.421	2979
813.562	2975
813.703	2883
813.845	2887
813.986	2754
814.127	2739
814.268	2823
814.41	2819
814.551	2823
814.692	2857
814.833	2842
814.974	2895
815.115	2933
815.256	2830
815.397	2811
815.539	2864
815.68	2758
815.821	2788
815.962	2952
816.103	2944
816.244	2876
816.385	2880
816.526	2918
816.666	2906
816.807	2769
816.948	2899
817.089	2880
817.23	2880
817.371	2800
817.512	2811
817.653	2826
817.793	2826
817.934	2891
818.075	2941
818.216	2990
818.356	3020
818.497	2857
818.638	2769
818.778	2853
818.919	2773
819.06	2796
819.2	2876
819.341	2785
819.481	2830
819.622	2956
819.762	3097
819.903	3039
820.043	2922
820.184	2883
820.324	2887
820.465	3013
820.605	3017
820.746	3043
820.886	2929
821.026	3081
821.167	3169
821.307	3218
821.447	3264
821.588	3230
821.728	3214
821.868	3180
822.008	3093
822.149	3192
822.289	3184
822.429	3043
822.569	3097
822.709	3150
822.849	3024
822.99	3135
823.13	3150
823.27	3188
823.41	3077
823.55	3135
823.69	3131
823.83	3184
823.97	3116
824.11	2990
824.25	2975
824.389	3066
824.529	3138
824.669	3020
824.809	3207
824.949	3256
825.089	3222
825.228	3192
825.368	3036
825.508	2948
825.648	2979
825.787	2986
825.927	3017
826.067	2967
826.206	2910
826.346	3032
826.485	3062
826.625	3108
826.765	3268
826.904	3245
827.044	2990
827.183	2895
827.323	2864
827.462	3005
827.601	2906
827.741	2925
827.88	2963
828.02	2819
828.159	2971
828.298	3039
828.437	3104
828.577	3093
828.716	3237
828.855	3051
828.994	2914
829.134	2861
829.273	2899
829.412	2853
829.551	2868
829.69	2895
829.829	3009
829.968	3161
830.107	2979
830.246	3020
830.385	2929
830.524	2887
830.663	2807
830.802	2724
830.941	2632
831.08	2632
831.219	2712
831.357	2739
831.496	2948
831.635	2697
831.774	2621
831.913	2640
832.051	2545
832.19	2583
832.329	2686
832.467	2537
832.606	2503
832.744	2583
832.883	2587
833.022	2590
833.16	2640
833.299	2689
833.437	2682
833.576	2720
833.714	2712
833.852	2720
833.991	2739
834.129	2830
834.267	2838
834.406	2800
834.544	2887
834.682	2883
834.821	2834
834.959	3074
835.097	2868
835.235	3051
835.373	2944
835.511	3017
835.65	2914
835.788	2933
835.926	2796
836.064	2804
836.202	2838
836.34	3074
836.478	3100
836.615	3032
836.753	3093
836.891	3184
837.029	3123
837.167	3131
837.305	3024
837.443	3032
837.58	2941
837.718	3119
837.856	3070
837.993	2986
838.131	3108
838.269	3097
838.406	3093
838.544	3066
838.681	2963
838.819	2910
838.956	2815
839.094	2845
839.231	2922
839.369	3009
839.506	3363
839.643	3233
839.781	3036
839.918	2963
840.055	3036
840.193	3039
840.33	3081
840.467	3100
840.604	3176
840.742	3401
840.879	3039
841.016	3066
841.153	3112
841.29	3310
841.427	3306
841.564	3237
841.701	3249
841.838	3211
841.975	3150
842.112	3222
842.249	3066
842.385	3013
842.522	3275
842.659	3043
842.796	3085
842.933	3100
843.069	3055
843.206	3024
843.343	3176
843.479	3058
843.616	3119
843.752	2895
843.889	2853
844.025	3043
844.162	2838
844.298	3051
844.435	2929
844.571	2895
844.708	3081
844.844	3188
844.98	3195
845.117	3199
845.253	3028
845.389	2979
845.525	3066
845.661	3085
845.798	3009
845.934	3112
846.07	3039
846.206	3237
846.342	3294
846.478	3222
846.614	3066
846.75	3013
846.886	3028
847.022	3245
847.158	3161
847.294	3188
847.429	3226
847.565	3195
847.701	3473
847.837	2994
847.972	3017
848.108	3157
848.244	3142
848.379	2986
848.515	2933
848.65	2918
848.786	2941
848.921	2998
849.057	3104
849.192	3150
849.328	3055
849.463	3123
849.598	3066
849.734	3043
849.869	2971
850.004	2902
850.14	2971
850.275	2895
850.41	2857
850.545	2883
850.68	2929
850.815	2952
850.95	2952
851.085	3218
851.22	3070
851.355	3036
851.49	2956
851.625	3013
851.76	3017
851.895	2922
852.03	2887
852.165	3028
852.299	3097
852.434	3203
852.569	3157
852.703	3154
852.838	3260
852.973	3340
853.107	3287
853.242	3135
853.376	3070
853.511	2979
853.645	3036
853.78	3211
853.914	3127
854.048	3074
854.183	3108
854.317	3157
854.451	3310
854.585	3119
854.72	3062
854.854	3226
854.988	3043
855.122	3100
855.256	2941
855.39	3142
855.524	3226
855.658	3188
855.792	3154
855.926	3157
856.06	3203
856.194	3237
856.327	3157
856.461	3066
856.595	3112
856.729	3062
856.862	3218
856.996	3142
857.13	3157
857.263	3199
857.397	3287
857.53	3108
857.664	3176
857.797	3249
857.931	3260
858.064	3169
858.197	3180
858.331	3123
858.464	3108
858.597	3028
858.731	3081
858.864	3169
858.997	3081
859.13	3188
859.263	3157
859.396	3211
859.529	3074
859.662	3062
859.795	3047
859.928	3142
860.061	3218
860.194	3260
860.327	3112
860.46	3097
860.592	3245
860.725	3287
860.858	3264
860.99	3058
861.123	3043
861.256	3020
861.388	3116
861.521	3941
861.653	3005
861.786	2971
861.918	2990
862.05	3028
862.183	3062
862.315	3154
862.447	3157
862.58	3062
862.712	2979
862.844	2868
862.976	2986
863.108	3036
863.24	3416
863.372	2872
863.504	2990
863.636	2902
863.768	2998
863.9	2963
864.032	2906
864.164	2933
864.296	3036
864.428	3085
864.559	3112
864.691	3047
864.823	3070
864.954	3005
865.086	3062
865.217	2963
865.349	2922
865.48	2944
865.612	2994
865.743	3123
865.875	2982
866.006	2933
866.137	2948
866.269	2929
866.4	2948
866.531	2914
866.662	2925
866.793	2857
866.924	2902
867.055	2963
867.186	2906
867.317	2891
867.448	2834
867.579	2868
867.71	2853
867.841	2811
867.972	2864
868.103	2918
868.233	2914
868.364	2895
868.495	2887
868.625	3085
868.756	3150
868.886	2986
869.017	3005
869.147	3146
869.278	3188
869.408	3085
869.539	3043
869.669	3108
869.799	3020
869.929	3055
870.06	3108
870.19	3355
870.32	3291
870.45	3275
870.58	3370
870.71	3428
870.84	3450
870.97	3344
871.1	3237
871.23	3458
871.36	3454
871.489	3348
871.619	3367
871.749	3397
871.879	3424
872.008	3443
872.138	3310
872.267	3245
872.397	3097
872.526	3074
872.656	3017
872.785	3055
872.915	3207
873.044	3325
873.173	3203
873.303	3233
873.432	3161
873.561	3188
873.69	3150
873.819	3154
873.948	3195
874.077	3104
874.206	3055
874.335	3051
874.464	3230
874.593	3313
874.722	3233
874.851	3367
874.979	3359
875.108	3283
875.237	3173
875.365	3150
875.494	3169
875.623	3214
875.751	3097
875.88	3108
876.008	3188
876.136	3195
876.265	3336
876.393	3519
876.521	3409
876.65	3359
876.778	3344
876.906	3233
877.034	3203
877.162	3207
877.29	3142
877.418	3207
877.546	3226
877.674	3218
877.802	3253
877.93	3222
878.058	3123
878.185	3085
878.313	3195
878.441	3176
878.568	3089
878.696	3123
878.824	3192
878.951	3272
879.079	3485
879.206	3663
879.333	3420
879.461	3275
879.588	3340
879.715	3492
879.842	3572
879.97	3409
880.097	3169
880.224	3127
880.351	3199
880.478	3214
880.605	3169
880.732	3173
880.859	3473
880.986	3348
881.112	3317
881.239	3241
881.366	3085
881.493	3047
881.619	3047
881.746	3093
881.872	3089
881.999	3112
882.125	3157
882.252	3260
882.378	3298
882.505	3393
882.631	3268
882.757	3135
882.883	3211
883.01	3218
883.136	3150
883.262	3093
883.388	3112
883.514	3348
883.64	3363
883.766	3313
883.892	3157
884.018	3199
884.143	3397
884.269	3538
884.395	3222
884.52	3142
884.646	3180
884.772	3108
884.897	3108
885.023	3199
885.148	3313
885.274	3397
885.399	3348
885.524	3275
885.65	3249
885.775	3310
885.9	3264
886.025	3447
886.15	3370
886.275	3279
886.4	3233
886.525	3279
886.65	3317
886.775	3294
886.9	3485
887.025	3633
887.149	3389
887.274	3222
887.399	3176
887.523	3184
887.648	3180
887.773	3169
887.897	3389
888.021	3386
888.146	3310
888.27	3447
888.395	3511
888.519	3409
888.643	3409
888.767	3469
888.891	3287
889.015	3214
889.139	3264
889.263	3195
889.387	3412
889.511	3557
889.635	3435
889.759	3256
889.883	3272
890.006	3397
890.13	3492
890.254	3275
890.377	3367
890.501	3180
890.624	3173
890.748	3291
890.871	3230
890.995	3089
891.118	3081
891.241	3180
891.364	3211
891.488	3283
891.611	3150
891.734	3233
891.857	3298
891.98	3241
892.103	3321
892.226	3264
892.349	3226
892.471	3104
892.594	3275
892.717	3272
892.839	3287
892.962	3272
893.085	3367
893.207	3332
893.33	3097
893.452	3184
893.575	3332
893.697	3291
893.819	3466
893.941	3485
894.064	3447
894.186	3256
894.308	3313
894.43	3412
894.552	3485
894.674	3458
894.796	3268
894.918	3317
895.04	3283
895.161	3428
895.283	3367
895.405	3283
895.526	3389
895.648	3420
895.769	3412
895.891	3450
896.012	3507
896.134	3469
896.255	3386
896.376	3405
896.498	3351
896.619	3412
896.74	3355
896.861	3405
896.982	3686
897.103	3846
897.224	3591
897.345	3542
897.466	3439
897.587	3492
897.708	3606
897.828	3511
897.949	3431
898.07	3306
898.19	3382
898.311	3610
898.431	3477
898.552	3515
898.672	3614
898.792	3591
898.913	3542
899.033	3401
899.153	3272
899.273	3230
899.393	3256
899.513	3291
899.633	3302
899.753	3313
899.873	3287
899.993	3374
900.113	3336
900.232	3348
900.352	3294
900.472	3283
900.591	3184
900.711	3279
900.83	3233
900.95	3424
901.069	3473
901.189	3344
901.308	3188
901.427	3104
901.546	3195
901.665	3329
901.784	3310
901.904	3214
902.023	3146
902.141	3005
902.26	2944
902.379	3135
902.498	3085
902.617	3055
902.735	3188
902.854	3241
902.973	3199
903.091	3036
903.21	3036
903.328	3135
903.446	3116
903.565	3085
903.683	3211
903.801	3123
903.919	3237
904.038	3264
904.156	3154
904.274	3275
904.392	3283
904.51	3325
904.627	3298
904.745	3477
904.863	3473
904.981	3275
905.098	3150
905.216	3218
905.334	3275
905.451	3283
905.569	3256
905.686	3401
905.803	3462
905.921	3249
906.038	3405
906.155	3317
906.272	3279
906.389	3306
906.506	3207
906.623	3256
906.74	3260
906.857	3222
906.974	3268
907.091	3431
907.208	3545
907.324	3500
907.441	3363
907.557	3188
907.674	3275
907.79	3203
907.907	3283
908.023	3382
908.139	3397
908.256	3313
908.372	3382
908.488	3378
908.604	3245
908.72	3211
908.836	3237
908.952	3279
909.068	3321
909.184	3447
909.3	3386
909.415	3469
909.531	3477
909.647	3275
909.762	3298
909.878	3260
909.993	3344
910.108	3317
910.224	3351
910.339	3416
910.454	3336
910.57	3291
910.685	3272
910.8	3606
910.915	3549
911.03	3447
911.145	3268
911.259	3268
911.374	3367
911.489	3233
911.604	3165
911.718	3142
911.833	3165
911.947	3001
912.062	2967
912.176	3169
912.291	3195
912.405	3176
912.519	3435
912.633	3469
912.748	3302
912.862	3283
912.976	3146
913.09	3043
913.204	3154
913.318	3188
913.431	3321
913.545	3313
913.659	3462
913.772	3340
913.886	3237
914	3207
914.113	3363
914.226	3416
914.34	3397
914.453	3249
914.566	3431
914.68	3313
914.793	3287
914.906	3131
915.019	3093
915.132	3077
915.245	3176
915.358	3222
915.47	3214
915.583	3230
915.696	3302
915.809	3409
915.921	3462
916.034	3279
916.146	3279
916.259	3218
916.371	3386
916.483	3374
916.595	3260
916.708	3359
916.82	3294
916.932	3374
917.044	3344
917.156	3355
917.268	3260
917.38	3275
917.491	3302
917.603	3386
917.715	3466
917.826	3473
917.938	3355
918.049	3241
918.161	3435
918.272	3542
918.384	3542
918.495	3481
918.606	3310
918.717	3283
918.828	3340
918.939	3416
919.05	3287
919.161	3359
919.272	3207
919.383	3325
919.494	3485
919.604	3671
919.715	3485
919.826	3405
919.936	3450
920.047	3584
920.157	3561
920.267	3755
920.378	3614
920.488	3599
920.598	3808
920.708	3937
920.818	3785
920.928	3835
921.038	4032
921.148	3964
921.258	3690
921.368	3618
921.477	3595
921.587	3511
921.697	3443
921.806	3603
921.916	3523
922.025	3378
922.134	3370
922.244	3291
922.353	3401
922.462	3306
922.571	3245
922.68	3093
922.789	3074
922.898	3127
923.007	3081
923.116	3203
923.224	3150
923.333	3135
923.442	3104
923.55	3070
923.659	3085
923.767	3207
923.876	3108
923.984	3245
924.092	3127
924.201	3211
924.309	3214
924.417	3214
924.525	3184
924.633	3256
924.741	3998
924.849	3039
924.956	3241
925.064	3058
925.172	3032
925.279	3062
925.387	3207
925.494	3214
925.602	3329
925.709	3325
925.816	3195
925.924	3283
926.031	3351
926.138	3317
926.245	3340
926.352	3241
926.459	3428
926.566	3477
926.673	3329
926.779	3233
926.886	3245
926.993	3123
927.099	3165
927.206	3097
927.312	3108
927.419	3230
927.525	3207
927.631	3249
927.737	3142
927.843	3138
927.95	3001
928.056	3138
928.162	3173
928.267	3268
928.373	3846
928.479	3291
928.585	3066
928.69	3184
928.796	3275
928.901	3169
929.007	3005
929.112	3222
929.218	3154
929.323	3135
929.428	3116
929.533	3329
929.638	3093
929.743	3188
929.848	3245
929.953	3195
930.058	3165
930.163	3009
930.267	3047
930.372	3192
930.477	3055
930.581	3298
930.685	3157
930.79	3039
930.894	3108
930.998	3074
931.103	3287
931.207	2937
931.311	2941
931.415	2956
931.519	2792
931.623	2807
