Data from test_V78500241_1730.txt Node
Date: Fri Mar 25 16:27:11 CST 2022
User: usil
Spectrometer: V785-0024
Trigger mode: 0
Integration Time (sec): 4.000000E-1
Scans to average: 1
Nonlinearity correction enabled: false
Boxcar width: 0
Storing dark spectrum: false
XAxis mode: Wavelengths
Number of Pixels in Spectrum: 1024
>>>>>Begin Spectral Data<<<<<
801.071	2948
801.214	2982
801.356	2906
801.499	2922
801.641	2895
801.783	2922
801.926	3062
802.068	3028
802.211	2986
802.353	3036
802.496	2986
802.638	3024
802.78	3051
802.923	3108
803.065	3047
803.208	2914
803.35	2948
803.492	2933
803.635	2941
803.777	2750
803.919	2864
804.061	3188
804.204	2944
804.346	2937
804.488	2849
804.63	2979
804.773	2864
804.915	2937
805.057	3081
805.199	2979
805.341	2963
805.483	3039
805.626	2986
805.768	3001
805.91	3097
806.052	3127
806.194	3100
806.336	3268
806.478	3081
806.62	2937
806.762	3001
806.904	3058
807.046	3176
807.188	3024
807.33	2914
807.472	2982
807.614	2906
807.756	2990
807.898	2933
808.04	2925
808.182	3001
808.324	2967
808.465	2899
808.607	2906
808.749	2842
808.891	2872
809.033	3024
809.174	2967
809.316	2891
809.458	2918
809.6	2792
809.741	2804
809.883	2781
810.025	2861
810.166	2834
810.308	2868
810.45	2861
810.591	2788
810.733	2750
810.875	2876
811.016	2819
811.158	2758
811.299	2842
811.441	2902
811.582	2891
811.724	2834
811.865	2823
812.007	2967
812.148	2891
812.29	2845
812.431	2899
812.573	2967
812.714	2982
812.855	3036
812.997	3062
813.138	3104
813.279	3001
813.421	2963
813.562	2929
813.703	2872
813.845	2887
813.986	2823
814.127	2739
814.268	2842
814.41	2842
814.551	2800
814.692	2902
814.833	2857
814.974	2902
815.115	2941
815.256	2834
815.397	2792
815.539	2872
815.68	2773
815.821	2792
815.962	2948
816.103	2956
816.244	2899
816.385	2830
816.526	2948
816.666	2922
816.807	2788
816.948	2902
817.089	2967
817.23	2826
817.371	2792
817.512	2838
817.653	2872
817.793	2830
817.934	2861
818.075	2960
818.216	3017
818.356	3009
818.497	2933
818.638	2826
818.778	2819
818.919	2811
819.06	2773
819.2	2876
819.341	2792
819.481	2800
819.622	2933
819.762	3119
819.903	3039
820.043	2952
820.184	2914
820.324	2906
820.465	3028
820.605	3036
820.746	3013
820.886	2944
821.026	3085
821.167	3207
821.307	3249
821.447	3317
821.588	3241
821.728	3188
821.868	3226
822.008	3104
822.149	3199
822.289	3241
822.429	3119
822.569	3070
822.709	3192
822.849	3028
822.99	3089
823.13	3184
823.27	3211
823.41	3116
823.55	3142
823.69	3154
823.83	3169
823.97	3104
824.11	3020
824.25	3001
824.389	3051
824.529	3100
824.669	3070
824.809	3192
824.949	3268
825.089	3211
825.228	3180
825.368	3001
825.508	2956
825.648	3009
825.787	3036
825.927	3020
826.067	2967
826.206	2956
826.346	3081
826.485	3081
826.625	3097
826.765	3260
826.904	3203
827.044	3017
827.183	2925
827.323	2857
827.462	2960
827.601	2933
827.741	2887
827.88	2929
828.02	2872
828.159	2963
828.298	3036
828.437	3100
828.577	3051
828.716	3237
828.855	3112
828.994	2948
829.134	2918
829.273	2922
829.412	2883
829.551	2906
829.69	2895
829.829	2967
829.968	3150
830.107	3024
830.246	2990
830.385	2948
830.524	2864
830.663	2834
830.802	2731
830.941	2678
831.08	2659
831.219	2762
831.357	2750
831.496	2937
831.635	2701
831.774	2667
831.913	2655
832.051	2564
832.19	2598
832.329	2678
832.467	2541
832.606	2476
832.744	2594
832.883	2579
833.022	2598
833.16	2613
833.299	2693
833.437	2712
833.576	2686
833.714	2743
833.852	2727
833.991	2724
834.129	2845
834.267	2830
834.406	2781
834.544	2857
834.682	2876
834.821	2857
834.959	3062
835.097	2922
835.235	3028
835.373	3013
835.511	2994
835.65	2967
835.788	2960
835.926	2830
836.064	2804
836.202	2868
836.34	3093
836.478	3173
836.615	3047
836.753	3142
836.891	3195
837.029	3173
837.167	3116
837.305	3093
837.443	3058
837.58	2963
837.718	3123
837.856	3093
837.993	3062
838.131	3138
838.269	3112
838.406	3070
838.544	3085
838.681	2948
838.819	2941
838.956	2781
839.094	2849
839.231	2922
839.369	3020
839.506	3329
839.643	3192
839.781	3005
839.918	2986
840.055	3047
840.193	3028
840.33	3062
840.467	3097
840.604	3146
840.742	3424
840.879	3051
841.016	3055
841.153	3127
841.29	3332
841.427	3310
841.564	3275
841.701	3317
841.838	3218
841.975	3188
842.112	3203
842.249	3058
842.385	3020
842.522	3275
842.659	3104
842.796	3043
842.933	3123
843.069	3066
843.206	3039
843.343	3173
843.479	3089
843.616	3135
843.752	2887
843.889	2864
844.025	3077
844.162	2857
844.298	3085
844.435	2963
844.571	2895
844.708	3047
844.844	3135
844.98	3230
845.117	3214
845.253	3032
845.389	2990
845.525	3097
845.661	3104
845.798	3017
845.934	3100
846.07	3047
846.206	3222
846.342	3340
846.478	3237
846.614	3070
846.75	3081
846.886	3032
847.022	3256
847.158	3138
847.294	3211
847.429	3253
847.565	3226
847.701	3492
847.837	2994
847.972	3024
848.108	3180
848.244	3192
848.379	3013
848.515	2922
848.65	2937
848.786	2944
848.921	3001
849.057	3081
849.192	3161
849.328	3093
849.463	3116
849.598	3062
849.734	3047
849.869	2986
850.004	2929
850.14	2952
850.275	2937
850.41	2834
850.545	2891
850.68	2933
850.815	2967
850.95	2933
851.085	3169
851.22	3131
851.355	3032
851.49	2990
851.625	2982
851.76	3036
851.895	2937
852.03	2910
852.165	3024
852.299	3112
852.434	3195
852.569	3169
852.703	3169
852.838	3272
852.973	3336
853.107	3317
853.242	3150
853.376	3108
853.511	2994
853.645	3058
853.78	3233
853.914	3176
854.048	3116
854.183	3127
854.317	3203
854.451	3332
854.585	3161
854.72	3100
854.854	3249
854.988	3051
855.122	3127
855.256	2986
855.39	3169
855.524	3260
855.658	3188
855.792	3192
855.926	3188
856.06	3256
856.194	3291
856.327	3256
856.461	3112
856.595	3100
856.729	3138
856.862	3222
856.996	3192
857.13	3233
857.263	3256
857.397	3306
857.53	3150
857.664	3253
857.797	3245
857.931	3306
858.064	3211
858.197	3268
858.331	3138
858.464	3165
858.597	3051
858.731	3176
858.864	3161
858.997	3127
859.13	3176
859.263	3222
859.396	3222
859.529	3119
859.662	3097
859.795	3066
859.928	3184
860.061	3344
860.194	3355
860.327	3180
860.46	3127
860.592	3306
860.725	3272
860.858	3275
860.99	3146
861.123	3097
861.256	3070
861.388	3165
861.521	3975
861.653	3051
861.786	3020
861.918	3074
862.05	3100
862.183	3142
862.315	3173
862.447	3237
862.58	3142
862.712	2979
862.844	2899
862.976	3066
863.108	3055
863.24	3370
863.372	2895
863.504	2986
863.636	2982
863.768	3081
863.9	3009
864.032	2918
864.164	2994
864.296	3036
864.428	3089
864.559	3127
864.691	3112
864.823	3097
864.954	3047
865.086	3093
865.217	3009
865.349	3009
865.48	3051
865.612	3074
865.743	3222
865.875	3017
866.006	2979
866.137	3005
866.269	2956
866.4	2990
866.531	2944
866.662	2925
866.793	2937
866.924	2922
867.055	2971
867.186	2944
867.317	2922
867.448	2883
867.579	2876
867.71	2868
867.841	2861
867.972	2937
868.103	2925
868.233	2914
868.364	2910
868.495	2933
868.625	3100
868.756	3207
868.886	3028
869.017	3066
869.147	3192
869.278	3157
869.408	3058
869.539	3032
869.669	3154
869.799	3024
869.929	3184
870.06	3116
870.19	3351
870.32	3348
870.45	3386
870.58	3393
870.71	3485
870.84	3488
870.97	3310
871.1	3249
871.23	3504
871.36	3496
871.489	3359
871.619	3397
871.749	3450
871.879	3450
872.008	3496
872.138	3393
872.267	3302
872.397	3146
872.526	3131
872.656	3024
872.785	3119
872.915	3264
873.044	3351
873.173	3249
873.303	3291
873.432	3275
873.561	3237
873.69	3192
873.819	3184
873.948	3230
874.077	3123
874.206	3066
874.335	3135
874.464	3245
874.593	3389
874.722	3237
874.851	3416
874.979	3393
875.108	3344
875.237	3230
875.365	3180
875.494	3184
875.623	3272
875.751	3127
875.88	3127
876.008	3230
876.136	3283
876.265	3382
876.393	3534
876.521	3458
876.65	3401
876.778	3351
876.906	3275
877.034	3260
877.162	3218
877.29	3218
877.418	3275
877.546	3283
877.674	3268
877.802	3211
877.93	3275
878.058	3161
878.185	3161
878.313	3253
878.441	3241
878.568	3097
878.696	3180
878.824	3275
878.951	3298
879.079	3473
879.206	3629
879.333	3454
879.461	3340
879.588	3397
879.715	3511
879.842	3614
879.97	3382
880.097	3180
880.224	3154
880.351	3214
880.478	3253
880.605	3253
880.732	3222
880.859	3515
880.986	3283
881.112	3332
881.239	3241
881.366	3108
881.493	3043
881.619	3085
881.746	3074
881.872	3116
881.999	3116
882.125	3154
882.252	3268
882.378	3302
882.505	3504
882.631	3268
882.757	3203
882.883	3245
883.01	3237
883.136	3180
883.262	3097
883.388	3100
883.514	3374
883.64	3409
883.766	3355
883.892	3211
884.018	3256
884.143	3412
884.269	3572
884.395	3272
884.52	3188
884.646	3184
884.772	3203
884.897	3131
885.023	3222
885.148	3348
885.274	3454
885.399	3397
885.524	3325
885.65	3294
885.775	3340
885.9	3298
886.025	3477
886.15	3389
886.275	3359
886.4	3241
886.525	3321
886.65	3325
886.775	3283
886.9	3488
887.025	3671
887.149	3416
887.274	3283
887.399	3230
887.523	3214
887.648	3237
887.773	3230
887.897	3428
888.021	3401
888.146	3374
888.27	3492
888.395	3568
888.519	3443
888.643	3488
888.767	3500
888.891	3306
889.015	3245
889.139	3340
889.263	3230
889.387	3420
889.511	3542
889.635	3496
889.759	3329
889.883	3340
890.006	3393
890.13	3477
890.254	3306
890.377	3401
890.501	3222
890.624	3222
890.748	3325
890.871	3218
890.995	3138
891.118	3070
891.241	3241
891.364	3260
891.488	3348
891.611	3203
891.734	3253
891.857	3279
891.98	3272
892.103	3378
892.226	3287
892.349	3218
892.471	3135
892.594	3249
892.717	3317
892.839	3268
892.962	3306
893.085	3393
893.207	3287
893.33	3176
893.452	3180
893.575	3370
893.697	3283
893.819	3515
893.941	3526
894.064	3439
894.186	3264
894.308	3306
894.43	3462
894.552	3572
894.674	3545
894.796	3298
894.918	3329
895.04	3313
895.161	3458
895.283	3412
895.405	3298
895.526	3386
895.648	3431
895.769	3409
895.891	3481
896.012	3450
896.134	3424
896.255	3420
896.376	3428
896.498	3374
896.619	3428
896.74	3389
896.861	3435
896.982	3671
897.103	3903
897.224	3633
897.345	3515
897.466	3466
897.587	3515
897.708	3637
897.828	3561
897.949	3454
898.07	3329
898.19	3435
898.311	3675
898.431	3443
898.552	3515
898.672	3595
898.792	3580
898.913	3557
899.033	3397
899.153	3321
899.273	3245
899.393	3325
899.513	3313
899.633	3291
899.753	3382
899.873	3344
899.993	3420
900.113	3370
900.232	3416
900.352	3336
900.472	3306
900.591	3218
900.711	3332
900.83	3253
900.95	3428
901.069	3477
901.189	3397
901.308	3157
901.427	3135
901.546	3214
901.665	3313
901.784	3344
901.904	3272
902.023	3146
902.141	3020
902.26	2998
902.379	3146
902.498	3077
902.617	3085
902.735	3249
902.854	3230
902.973	3230
903.091	3058
903.21	3100
903.328	3135
903.446	3146
903.565	3085
903.683	3176
903.801	3123
903.919	3256
904.038	3294
904.156	3180
904.274	3279
904.392	3275
904.51	3294
904.627	3332
904.745	3454
904.863	3526
904.981	3253
905.098	3207
905.216	3264
905.334	3336
905.451	3332
905.569	3294
905.686	3447
905.803	3458
905.921	3298
906.038	3431
906.155	3355
906.272	3298
906.389	3313
906.506	3264
906.623	3272
906.74	3321
906.857	3157
906.974	3291
907.091	3458
907.208	3572
907.324	3519
907.441	3435
907.557	3226
907.674	3241
907.79	3230
907.907	3306
908.023	3405
908.139	3397
908.256	3363
908.372	3397
908.488	3363
908.604	3283
908.72	3230
908.836	3272
908.952	3279
909.068	3367
909.184	3496
909.3	3412
909.415	3492
909.531	3542
909.647	3298
909.762	3325
909.878	3268
909.993	3336
910.108	3412
910.224	3351
910.339	3450
910.454	3332
910.57	3359
910.685	3249
910.8	3644
910.915	3584
911.03	3466
911.145	3287
911.259	3306
911.374	3329
911.489	3256
911.604	3256
911.718	3135
911.833	3173
911.947	3066
912.062	3028
912.176	3203
912.291	3199
912.405	3245
912.519	3401
912.633	3488
912.748	3344
912.862	3272
912.976	3203
913.09	3062
913.204	3195
913.318	3207
913.431	3351
913.545	3321
913.659	3412
913.772	3370
913.886	3249
914	3214
914.113	3405
914.226	3443
914.34	3405
914.453	3226
914.566	3447
914.68	3294
914.793	3340
914.906	3135
915.019	3119
915.132	3062
915.245	3184
915.358	3165
915.47	3249
915.583	3287
915.696	3310
915.809	3382
915.921	3397
916.034	3272
916.146	3275
916.259	3230
916.371	3401
916.483	3401
916.595	3245
916.708	3351
916.82	3317
916.932	3332
917.044	3359
917.156	3359
917.268	3256
917.38	3275
917.491	3321
917.603	3405
917.715	3485
917.826	3454
917.938	3431
918.049	3260
918.161	3420
918.272	3564
918.384	3507
918.495	3496
918.606	3294
918.717	3264
918.828	3386
918.939	3412
919.05	3306
919.161	3336
919.272	3154
919.383	3294
919.494	3549
919.604	3682
919.715	3492
919.826	3409
919.936	3473
920.047	3603
920.157	3625
920.267	3835
920.378	3633
920.488	3584
920.598	3762
920.708	3949
920.818	3823
920.928	3838
921.038	4025
921.148	3960
921.258	3743
921.368	3629
921.477	3576
921.587	3549
921.697	3519
921.806	3644
921.916	3538
922.025	3325
922.134	3374
922.244	3298
922.353	3409
922.462	3245
922.571	3260
922.68	3119
922.789	3085
922.898	3169
923.007	3131
923.116	3264
923.224	3203
923.333	3207
923.442	3116
923.55	3081
923.659	3142
923.767	3264
923.876	3138
923.984	3253
924.092	3142
924.201	3203
924.309	3222
924.417	3291
924.525	3203
924.633	3230
924.741	4044
924.849	3058
924.956	3268
925.064	3123
925.172	3039
925.279	3112
925.387	3192
925.494	3237
925.602	3359
925.709	3332
925.816	3245
925.924	3291
926.031	3325
926.138	3378
926.245	3321
926.352	3283
926.459	3393
926.566	3458
926.673	3325
926.779	3218
926.886	3294
926.993	3127
927.099	3123
927.206	3093
927.312	3127
927.419	3287
927.525	3211
927.631	3245
927.737	3146
927.843	3150
927.95	3013
928.056	3154
928.162	3173
928.267	3245
928.373	3884
928.479	3340
928.585	3055
928.69	3256
928.796	3310
928.901	3165
929.007	3112
929.112	3237
929.218	3188
929.323	3150
929.428	3165
929.533	3321
929.638	3119
929.743	3165
929.848	3264
929.953	3203
930.058	3135
930.163	3009
930.267	3081
930.372	3207
930.477	3043
930.581	3344
930.685	3214
930.79	3081
930.894	3127
930.998	3112
931.103	3283
931.207	2979
931.311	2967
931.415	2918
931.519	2777
931.623	2804
