Data from test_V78500241_321.txt Node
Date: Fri Mar 25 16:17:25 CST 2022
User: usil
Spectrometer: V785-0024
Trigger mode: 0
Integration Time (sec): 4.000000E-1
Scans to average: 1
Nonlinearity correction enabled: false
Boxcar width: 0
Storing dark spectrum: false
XAxis mode: Wavelengths
Number of Pixels in Spectrum: 1024
>>>>>Begin Spectral Data<<<<<
801.071	2902
801.214	2944
801.356	2857
801.499	2868
801.641	2883
801.783	2872
801.926	3074
802.068	2925
802.211	2990
802.353	3039
802.496	2944
802.638	2986
802.78	3032
802.923	3058
803.065	2994
803.208	2876
803.35	2902
803.492	2937
803.635	2910
803.777	2769
803.919	2861
804.061	3222
804.204	2933
804.346	2902
804.488	2811
804.63	2967
804.773	2887
804.915	2906
805.057	3066
805.199	2880
805.341	2986
805.483	3020
805.626	2990
805.768	2967
805.91	3077
806.052	3116
806.194	2982
806.336	3214
806.478	3024
806.62	2960
806.762	2979
806.904	3036
807.046	3203
807.188	2963
807.33	2941
807.472	2975
807.614	2902
807.756	2979
807.898	2918
808.04	2891
808.182	2975
808.324	2933
808.465	2910
808.607	2876
808.749	2788
808.891	2845
809.033	2994
809.174	2960
809.316	2922
809.458	2899
809.6	2731
809.741	2777
809.883	2769
810.025	2849
810.166	2864
810.308	2838
810.45	2857
810.591	2781
810.733	2754
810.875	2769
811.016	2758
811.158	2720
811.299	2823
811.441	2925
811.582	2887
811.724	2815
811.865	2807
812.007	2918
812.148	2868
812.29	2807
812.431	2906
812.573	2929
812.714	2918
812.855	3074
812.997	3039
813.138	3161
813.279	3024
813.421	2944
813.562	2948
813.703	2872
813.845	2899
813.986	2773
814.127	2712
814.268	2792
814.41	2796
814.551	2838
814.692	2842
814.833	2838
814.974	2883
815.115	2941
815.256	2785
815.397	2811
815.539	2853
815.68	2724
815.821	2796
815.962	2929
816.103	2925
816.244	2853
816.385	2891
816.526	2941
816.666	2941
816.807	2731
816.948	2853
817.089	2910
817.23	2857
817.371	2758
817.512	2762
817.653	2819
817.793	2826
817.934	2883
818.075	2971
818.216	2990
818.356	2982
818.497	2857
818.638	2781
818.778	2815
818.919	2800
819.06	2762
819.2	2842
819.341	2781
819.481	2807
819.622	2918
819.762	3085
819.903	3055
820.043	2895
820.184	2906
820.324	2899
820.465	3066
820.605	2998
820.746	3024
820.886	2941
821.026	3077
821.167	3157
821.307	3291
821.447	3268
821.588	3230
821.728	3180
821.868	3188
822.008	3051
822.149	3180
822.289	3203
822.429	3077
822.569	3039
822.709	3173
822.849	3043
822.99	3032
823.13	3150
823.27	3237
823.41	3135
823.55	3150
823.69	3157
823.83	3188
823.97	3081
824.11	2998
824.25	3013
824.389	3062
824.529	3070
824.669	3058
824.809	3161
824.949	3241
825.089	3203
825.228	3146
825.368	3009
825.508	2944
825.648	2986
825.787	3028
825.927	3036
826.067	2990
826.206	2937
826.346	3043
826.485	3081
826.625	3074
826.765	3233
826.904	3199
827.044	2998
827.183	2910
827.323	2845
827.462	2963
827.601	2906
827.741	2956
827.88	2952
828.02	2826
828.159	3009
828.298	3020
828.437	3131
828.577	3066
828.716	3218
828.855	3097
828.994	2929
829.134	2902
829.273	2906
829.412	2883
829.551	2876
829.69	2853
829.829	2963
829.968	3081
830.107	3009
830.246	3009
830.385	2929
830.524	2880
830.663	2830
830.802	2712
830.941	2632
831.08	2651
831.219	2708
831.357	2746
831.496	2956
831.635	2708
831.774	2670
831.913	2632
832.051	2537
832.19	2587
832.329	2659
832.467	2530
832.606	2507
832.744	2526
832.883	2568
833.022	2571
833.16	2636
833.299	2686
833.437	2678
833.576	2689
833.714	2727
833.852	2731
833.991	2701
834.129	2868
834.267	2842
834.406	2769
834.544	2857
834.682	2864
834.821	2857
834.959	3055
835.097	2891
835.235	3055
835.373	2952
835.511	3047
835.65	2963
835.788	2975
835.926	2826
836.064	2830
836.202	2876
836.34	3047
836.478	3131
836.615	3017
836.753	3135
836.891	3184
837.029	3127
837.167	3077
837.305	3074
837.443	2982
837.58	2975
837.718	3135
837.856	3051
837.993	3036
838.131	3097
838.269	3089
838.406	3062
838.544	3066
838.681	2925
838.819	2956
838.956	2811
839.094	2845
839.231	2910
839.369	3001
839.506	3359
839.643	3226
839.781	2994
839.918	2918
840.055	3062
840.193	3039
840.33	3077
840.467	3104
840.604	3135
840.742	3389
840.879	3051
841.016	3020
841.153	3089
841.29	3329
841.427	3302
841.564	3241
841.701	3302
841.838	3207
841.975	3184
842.112	3226
842.249	3070
842.385	3043
842.522	3237
842.659	3070
842.796	3062
842.933	3123
843.069	3058
843.206	3043
843.343	3138
843.479	3116
843.616	3112
843.752	2933
843.889	2906
844.025	3081
844.162	2895
844.298	3089
844.435	2937
844.571	2883
844.708	3070
844.844	3169
844.98	3203
845.117	3199
845.253	3047
845.389	2960
845.525	3100
845.661	3097
845.798	3001
845.934	3100
846.07	3024
846.206	3230
846.342	3302
846.478	3203
846.614	3077
846.75	3055
846.886	3058
847.022	3230
847.158	3100
847.294	3180
847.429	3260
847.565	3214
847.701	3466
847.837	3043
847.972	2952
848.108	3119
848.244	3108
848.379	2971
848.515	2941
848.65	2929
848.786	2960
848.921	2967
849.057	3100
849.192	3119
849.328	3028
849.463	3112
849.598	3074
849.734	3020
849.869	2933
850.004	2929
850.14	2929
850.275	2906
850.41	2849
850.545	2887
850.68	2948
850.815	2956
850.95	2944
851.085	3184
851.22	3097
851.355	3051
851.49	2925
851.625	2971
851.76	3017
851.895	2925
852.03	2902
852.165	3017
852.299	3070
852.434	3176
852.569	3161
852.703	3131
852.838	3260
852.973	3306
853.107	3298
853.242	3161
853.376	3104
853.511	2910
853.645	3024
853.78	3203
853.914	3119
854.048	3093
854.183	3066
854.317	3165
854.451	3294
854.585	3108
854.72	3089
854.854	3207
854.988	3047
855.122	3089
855.256	2967
855.39	3100
855.524	3226
855.658	3176
855.792	3169
855.926	3161
856.06	3214
856.194	3268
856.327	3176
856.461	3112
856.595	3112
856.729	3104
856.862	3222
856.996	3135
857.13	3203
857.263	3237
857.397	3317
857.53	3150
857.664	3214
857.797	3214
857.931	3260
858.064	3180
858.197	3237
858.331	3146
858.464	3131
858.597	3017
858.731	3161
858.864	3184
858.997	3127
859.13	3146
859.263	3207
859.396	3222
859.529	3100
859.662	3119
859.795	3116
859.928	3211
860.061	3302
860.194	3306
860.327	3173
860.46	3135
860.592	3325
860.725	3275
860.858	3302
860.99	3119
861.123	3074
861.256	3062
861.388	3184
861.521	3854
861.653	3066
861.786	3028
861.918	3062
862.05	3108
862.183	3123
862.315	3180
862.447	3241
862.58	3161
862.712	3032
862.844	2944
862.976	3047
863.108	3047
863.24	3348
863.372	2906
863.504	3036
863.636	2956
863.768	3032
863.9	2998
864.032	2933
864.164	3020
864.296	3066
864.428	3131
864.559	3135
864.691	3100
864.823	3108
864.954	3077
865.086	3070
865.217	3055
865.349	3005
865.48	3047
865.612	3051
865.743	3203
865.875	3017
866.006	2963
866.137	3051
866.269	2963
866.4	2990
866.531	2971
866.662	2937
866.793	2956
866.924	2941
867.055	3013
867.186	2944
867.317	2937
867.448	2864
867.579	2876
867.71	2861
867.841	2853
867.972	2956
868.103	2933
868.233	2906
868.364	2902
868.495	2960
868.625	3112
868.756	3184
868.886	2990
869.017	3077
869.147	3199
869.278	3184
869.408	3055
869.539	3070
869.669	3180
869.799	3074
869.929	3165
870.06	3127
870.19	3363
870.32	3306
870.45	3321
870.58	3420
870.71	3466
870.84	3507
870.97	3351
871.1	3268
871.23	3523
871.36	3462
871.489	3386
871.619	3454
871.749	3481
871.879	3492
872.008	3519
872.138	3359
872.267	3325
872.397	3199
872.526	3135
872.656	3062
872.785	3116
872.915	3298
873.044	3329
873.173	3241
873.303	3256
873.432	3260
873.561	3272
873.69	3230
873.819	3154
873.948	3211
874.077	3089
874.206	3047
874.335	3116
874.464	3222
874.593	3409
874.722	3294
874.851	3416
874.979	3386
875.108	3367
875.237	3260
875.365	3161
875.494	3230
875.623	3264
875.751	3131
875.88	3146
876.008	3222
876.136	3230
876.265	3405
876.393	3515
876.521	3447
876.65	3405
876.778	3389
876.906	3306
877.034	3230
877.162	3272
877.29	3222
877.418	3287
877.546	3272
877.674	3283
877.802	3279
877.93	3279
878.058	3176
878.185	3150
878.313	3226
878.441	3230
878.568	3058
878.696	3176
878.824	3321
878.951	3329
879.079	3477
879.206	3675
879.333	3439
879.461	3340
879.588	3420
879.715	3534
879.842	3629
879.97	3454
880.097	3207
880.224	3176
880.351	3218
880.478	3207
880.605	3260
880.732	3188
880.859	3564
880.986	3382
881.112	3367
881.239	3233
881.366	3131
881.493	3062
881.619	3028
881.746	3085
881.872	3131
881.999	3112
882.125	3192
882.252	3272
882.378	3363
882.505	3481
882.631	3302
882.757	3184
882.883	3233
883.01	3256
883.136	3203
883.262	3112
883.388	3161
883.514	3336
883.64	3389
883.766	3317
883.892	3241
884.018	3298
884.143	3447
884.269	3591
884.395	3184
884.52	3188
884.646	3214
884.772	3173
884.897	3123
885.023	3241
885.148	3348
885.274	3431
885.399	3447
885.524	3325
885.65	3306
885.775	3351
885.9	3332
886.025	3462
886.15	3412
886.275	3351
886.4	3275
886.525	3386
886.65	3302
886.775	3332
886.9	3545
887.025	3686
887.149	3420
887.274	3317
887.399	3199
887.523	3237
887.648	3241
887.773	3233
887.897	3374
888.021	3367
888.146	3336
888.27	3462
888.395	3561
888.519	3443
888.643	3439
888.767	3496
888.891	3344
889.015	3260
889.139	3310
889.263	3256
889.387	3450
889.511	3549
889.635	3477
889.759	3348
889.883	3340
890.006	3424
890.13	3561
890.254	3329
890.377	3367
890.501	3188
890.624	3211
890.748	3321
890.871	3199
890.995	3157
891.118	3104
891.241	3226
891.364	3241
891.488	3363
891.611	3211
891.734	3230
891.857	3329
891.98	3275
892.103	3348
892.226	3340
892.349	3222
892.471	3146
892.594	3272
892.717	3302
892.839	3287
892.962	3332
893.085	3389
893.207	3313
893.33	3211
893.452	3226
893.575	3370
893.697	3245
893.819	3511
893.941	3519
894.064	3485
894.186	3291
894.308	3325
894.43	3500
894.552	3568
894.674	3519
894.796	3306
894.918	3302
895.04	3313
895.161	3428
895.283	3386
895.405	3332
895.526	3374
895.648	3462
895.769	3458
895.891	3507
896.012	3515
896.134	3515
896.255	3431
896.376	3397
896.498	3374
896.619	3454
896.74	3359
896.861	3405
896.982	3701
897.103	3857
897.224	3625
897.345	3530
897.466	3443
897.587	3526
897.708	3660
897.828	3595
897.949	3466
898.07	3332
898.19	3443
898.311	3667
898.431	3485
898.552	3511
898.672	3656
898.792	3572
898.913	3572
899.033	3469
899.153	3340
899.273	3230
899.393	3310
899.513	3363
899.633	3378
899.753	3332
899.873	3344
899.993	3389
900.113	3382
900.232	3424
900.352	3370
900.472	3310
900.591	3233
900.711	3329
900.83	3260
900.95	3481
901.069	3538
901.189	3344
901.308	3184
901.427	3123
901.546	3233
901.665	3340
901.784	3336
901.904	3218
902.023	3131
902.141	3062
902.26	2998
902.379	3195
902.498	3116
902.617	3070
902.735	3249
902.854	3264
902.973	3173
903.091	3070
903.21	3127
903.328	3146
903.446	3150
903.565	3100
903.683	3218
903.801	3165
903.919	3275
904.038	3321
904.156	3226
904.274	3310
904.392	3313
904.51	3298
904.627	3382
904.745	3447
904.863	3466
904.981	3306
905.098	3180
905.216	3268
905.334	3321
905.451	3329
905.569	3294
905.686	3477
905.803	3477
905.921	3317
906.038	3454
906.155	3310
906.272	3283
906.389	3389
906.506	3249
906.623	3283
906.74	3302
906.857	3222
906.974	3272
907.091	3450
907.208	3572
907.324	3507
907.441	3386
907.557	3283
907.674	3253
907.79	3253
907.907	3279
908.023	3378
908.139	3393
908.256	3359
908.372	3397
908.488	3332
908.604	3294
908.72	3283
908.836	3325
908.952	3298
909.068	3332
909.184	3545
909.3	3397
909.415	3504
909.531	3507
909.647	3283
909.762	3313
909.878	3302
909.993	3370
910.108	3370
910.224	3340
910.339	3428
910.454	3378
910.57	3302
910.685	3233
910.8	3606
910.915	3530
911.03	3450
911.145	3279
911.259	3302
911.374	3374
911.489	3245
911.604	3237
911.718	3169
911.833	3211
911.947	3058
912.062	2998
912.176	3161
912.291	3241
912.405	3211
912.519	3431
912.633	3466
912.748	3405
912.862	3306
912.976	3169
913.09	3097
913.204	3161
913.318	3222
913.431	3340
913.545	3363
913.659	3435
913.772	3325
913.886	3256
914	3214
914.113	3367
914.226	3420
914.34	3382
914.453	3260
914.566	3454
914.68	3321
914.793	3367
914.906	3176
915.019	3135
915.132	3100
915.245	3188
915.358	3226
915.47	3222
915.583	3283
915.696	3348
915.809	3424
915.921	3450
916.034	3272
916.146	3287
916.259	3237
916.371	3424
916.483	3370
916.595	3306
916.708	3359
916.82	3348
916.932	3348
917.044	3340
917.156	3367
917.268	3272
917.38	3294
917.491	3313
917.603	3363
917.715	3485
917.826	3481
917.938	3435
918.049	3260
918.161	3447
918.272	3595
918.384	3580
918.495	3534
918.606	3348
918.717	3298
918.828	3409
918.939	3393
919.05	3317
919.161	3367
919.272	3199
919.383	3256
919.494	3481
919.604	3682
919.715	3469
919.826	3389
919.936	3473
920.047	3595
920.157	3580
920.267	3778
920.378	3610
920.488	3576
920.598	3797
920.708	3930
920.818	3892
920.928	3869
921.038	4040
921.148	4013
921.258	3720
921.368	3610
921.477	3618
921.587	3576
921.697	3511
921.806	3633
921.916	3526
922.025	3389
922.134	3401
922.244	3336
922.353	3450
922.462	3294
922.571	3203
922.68	3077
922.789	3074
922.898	3142
923.007	3131
923.116	3260
923.224	3199
923.333	3192
923.442	3127
923.55	3100
923.659	3161
923.767	3222
923.876	3161
923.984	3249
924.092	3123
924.201	3218
924.309	3249
924.417	3306
924.525	3192
924.633	3302
924.741	4223
924.849	3123
924.956	3291
925.064	3123
925.172	3100
925.279	3142
925.387	3237
925.494	3233
925.602	3401
925.709	3374
925.816	3264
925.924	3310
926.031	3420
926.138	3420
926.245	3382
926.352	3317
926.459	3439
926.566	3534
926.673	3351
926.779	3313
926.886	3321
926.993	3180
927.099	3154
927.206	3199
927.312	3138
927.419	3283
927.525	3222
927.631	3279
927.737	3169
927.843	3146
927.95	3055
928.056	3195
928.162	3218
928.267	3272
928.373	3899
928.479	3382
928.585	3108
928.69	3291
928.796	3332
928.901	3195
929.007	3089
929.112	3256
929.218	3264
929.323	3180
929.428	3195
929.533	3355
929.638	3161
929.743	3260
929.848	3313
929.953	3230
930.058	3214
930.163	3055
930.267	3123
930.372	3279
930.477	3119
930.581	3363
930.685	3241
930.79	3089
930.894	3195
930.998	3127
931.103	3348
931.207	2998
931.311	3024
931.415	2952
931.519	2838
931.623	2849
