Data from test_V78500241_1772.txt Node
Date: Fri Mar 25 16:27:28 CST 2022
User: usil
Spectrometer: V785-0024
Trigger mode: 0
Integration Time (sec): 4.000000E-1
Scans to average: 1
Nonlinearity correction enabled: false
Boxcar width: 0
Storing dark spectrum: false
XAxis mode: Wavelengths
Number of Pixels in Spectrum: 1024
>>>>>Begin Spectral Data<<<<<
801.071	2922
801.214	2956
801.356	2891
801.499	2944
801.641	2929
801.783	2979
801.926	3119
802.068	3013
802.211	3100
802.353	3116
802.496	3005
802.638	3055
802.78	3089
802.923	3119
803.065	3055
803.208	2960
803.35	2963
803.492	2982
803.635	2990
803.777	2769
803.919	2922
804.061	3245
804.204	3001
804.346	2933
804.488	2914
804.63	3024
804.773	2952
804.915	2979
805.057	3116
805.199	2925
805.341	3001
805.483	3058
805.626	3036
805.768	3024
805.91	3089
806.052	3127
806.194	3112
806.336	3291
806.478	3066
806.62	3001
806.762	3013
806.904	3131
807.046	3214
807.188	3055
807.33	2967
807.472	3009
807.614	2910
807.756	3020
807.898	2979
808.04	2929
808.182	2971
808.324	3024
808.465	2880
808.607	2880
808.749	2823
808.891	2925
809.033	3028
809.174	3028
809.316	2929
809.458	2952
809.6	2807
809.741	2800
809.883	2811
810.025	2910
810.166	2864
810.308	2910
810.45	2887
810.591	2807
810.733	2804
810.875	2872
811.016	2830
811.158	2781
811.299	2842
811.441	2963
811.582	2906
811.724	2857
811.865	2838
812.007	2922
812.148	2899
812.29	2876
812.431	2922
812.573	2967
812.714	3039
812.855	3055
812.997	3058
813.138	3165
813.279	3017
813.421	2994
813.562	2979
813.703	2876
813.845	2883
813.986	2838
814.127	2754
814.268	2872
814.41	2861
814.551	2830
814.692	2914
814.833	2880
814.974	2918
815.115	3005
815.256	2868
815.397	2838
815.539	2887
815.68	2792
815.821	2815
815.962	2952
816.103	2952
816.244	2937
816.385	2914
816.526	3028
816.666	3005
816.807	2781
816.948	2937
817.089	2918
817.23	2891
817.371	2792
817.512	2861
817.653	2857
817.793	2842
817.934	2902
818.075	2967
818.216	3013
818.356	3028
818.497	2899
818.638	2857
818.778	2819
818.919	2796
819.06	2785
819.2	2906
819.341	2830
819.481	2834
819.622	2925
819.762	3135
819.903	3074
820.043	2922
820.184	2929
820.324	2910
820.465	3036
820.605	3070
820.746	3039
820.886	2937
821.026	3142
821.167	3203
821.307	3272
821.447	3302
821.588	3249
821.728	3245
821.868	3188
822.008	3108
822.149	3253
822.289	3237
822.429	3093
822.569	3142
822.709	3226
822.849	3051
822.99	3047
823.13	3222
823.27	3237
823.41	3100
823.55	3135
823.69	3157
823.83	3222
823.97	3119
824.11	3017
824.25	3020
824.389	3100
824.529	3142
824.669	3070
824.809	3241
824.949	3294
825.089	3241
825.228	3199
825.368	3020
825.508	2963
825.648	2994
825.787	3024
825.927	3043
826.067	2998
826.206	2994
826.346	3047
826.485	3085
826.625	3150
826.765	3313
826.904	3214
827.044	2971
827.183	2979
827.323	2880
827.462	3032
827.601	2971
827.741	2963
827.88	2956
828.02	2872
828.159	3032
828.298	3036
828.437	3142
828.577	3100
828.716	3241
828.855	3089
828.994	2967
829.134	2918
829.273	2933
829.412	2899
829.551	2914
829.69	2902
829.829	2998
829.968	3112
830.107	3032
830.246	3043
830.385	2952
830.524	2887
830.663	2861
830.802	2773
830.941	2693
831.08	2648
831.219	2781
831.357	2754
831.496	2963
831.635	2743
831.774	2682
831.913	2701
832.051	2594
832.19	2598
832.329	2724
832.467	2545
832.606	2492
832.744	2598
832.883	2606
833.022	2610
833.16	2689
833.299	2686
833.437	2727
833.576	2720
833.714	2743
833.852	2754
833.991	2754
834.129	2857
834.267	2834
834.406	2804
834.544	2857
834.682	2868
834.821	2902
834.959	3058
835.097	2857
835.235	3051
835.373	3028
835.511	3093
835.65	3005
835.788	2979
835.926	2857
836.064	2838
836.202	2857
836.34	3127
836.478	3199
836.615	3036
836.753	3150
836.891	3249
837.029	3192
837.167	3135
837.305	3112
837.443	3077
837.58	3013
837.718	3146
837.856	3077
837.993	3070
838.131	3116
838.269	3119
838.406	3112
838.544	3104
838.681	2956
838.819	2952
838.956	2826
839.094	2853
839.231	2948
839.369	3074
839.506	3389
839.643	3222
839.781	3032
839.918	2979
840.055	3066
840.193	3074
840.33	3093
840.467	3131
840.604	3142
840.742	3416
840.879	3051
841.016	3062
841.153	3192
841.29	3386
841.427	3310
841.564	3283
841.701	3317
841.838	3245
841.975	3207
842.112	3214
842.249	3074
842.385	3058
842.522	3249
842.659	3112
842.796	3074
842.933	3157
843.069	3104
843.206	3055
843.343	3226
843.479	3119
843.616	3165
843.752	2895
843.889	2910
844.025	3104
844.162	2887
844.298	3055
844.435	2982
844.571	2956
844.708	3093
844.844	3188
844.98	3233
845.117	3180
845.253	3051
845.389	3024
845.525	3135
845.661	3093
845.798	2971
845.934	3097
846.07	3070
846.206	3230
846.342	3363
846.478	3237
846.614	3119
846.75	3043
846.886	3024
847.022	3253
847.158	3127
847.294	3188
847.429	3260
847.565	3211
847.701	3500
847.837	3047
847.972	2998
848.108	3161
848.244	3146
848.379	3020
848.515	2941
848.65	2971
848.786	2986
848.921	3009
849.057	3108
849.192	3169
849.328	3085
849.463	3157
849.598	3089
849.734	3036
849.869	3001
850.004	2906
850.14	2971
850.275	2925
850.41	2906
850.545	2918
850.68	2948
850.815	2967
850.95	2986
851.085	3226
851.22	3100
851.355	3081
851.49	3017
851.625	3001
851.76	3028
851.895	2922
852.03	2963
852.165	3070
852.299	3100
852.434	3214
852.569	3127
852.703	3165
852.838	3241
852.973	3359
853.107	3298
853.242	3180
853.376	3112
853.511	3024
853.645	3020
853.78	3241
853.914	3085
854.048	3108
854.183	3089
854.317	3203
854.451	3294
854.585	3119
854.72	3089
854.854	3195
854.988	3017
855.122	3055
855.256	3013
855.39	3142
855.524	3268
855.658	3173
855.792	3176
855.926	3157
856.06	3192
856.194	3268
856.327	3154
856.461	3058
856.595	3055
856.729	3097
856.862	3222
856.996	3192
857.13	3203
857.263	3195
857.397	3302
857.53	3135
857.664	3199
857.797	3237
857.931	3260
858.064	3169
858.197	3249
858.331	3108
858.464	3154
858.597	3051
858.731	3154
858.864	3135
858.997	3116
859.13	3184
859.263	3192
859.396	3173
859.529	3127
859.662	3093
859.795	3058
859.928	3123
860.061	3291
860.194	3283
860.327	3154
860.46	3066
860.592	3211
860.725	3253
860.858	3291
860.99	3116
861.123	3055
861.256	3062
861.388	3135
861.521	3896
861.653	3009
861.786	2990
861.918	3024
862.05	3058
862.183	3112
862.315	3154
862.447	3218
862.58	3104
862.712	2944
862.844	2891
862.976	2994
863.108	2990
863.24	3302
863.372	2887
863.504	2979
863.636	2982
863.768	3085
863.9	3024
864.032	2937
864.164	2956
864.296	3001
864.428	3112
864.559	3093
864.691	3100
864.823	3070
864.954	2994
865.086	3070
865.217	2998
865.349	2956
865.48	2971
865.612	2975
865.743	3165
865.875	3009
866.006	2933
866.137	2979
866.269	2952
866.4	3001
866.531	2944
866.662	2887
866.793	2899
866.924	2910
867.055	2994
867.186	2944
867.317	2929
867.448	2868
867.579	2864
867.71	2876
867.841	2857
867.972	2925
868.103	2899
868.233	2899
868.364	2914
868.495	2922
868.625	3077
868.756	3180
868.886	2998
869.017	2998
869.147	3192
869.278	3165
869.408	3043
869.539	3013
869.669	3119
869.799	3077
869.929	3180
870.06	3142
870.19	3291
870.32	3272
870.45	3298
870.58	3374
870.71	3469
870.84	3431
870.97	3298
871.1	3275
871.23	3500
871.36	3454
871.489	3367
871.619	3389
871.749	3382
871.879	3416
872.008	3481
872.138	3344
872.267	3302
872.397	3150
872.526	3108
872.656	3028
872.785	3131
872.915	3294
873.044	3313
873.173	3199
873.303	3241
873.432	3233
873.561	3233
873.69	3157
873.819	3138
873.948	3173
874.077	3138
874.206	3009
874.335	3081
874.464	3230
874.593	3355
874.722	3279
874.851	3389
874.979	3332
875.108	3294
875.237	3211
875.365	3188
875.494	3169
875.623	3222
875.751	3058
875.88	3100
876.008	3249
876.136	3264
876.265	3370
876.393	3496
876.521	3397
876.65	3405
876.778	3317
876.906	3249
877.034	3233
877.162	3226
877.29	3169
877.418	3241
877.546	3199
877.674	3264
877.802	3279
877.93	3226
878.058	3169
878.185	3138
878.313	3218
878.441	3184
878.568	3089
878.696	3142
878.824	3226
878.951	3294
879.079	3435
879.206	3648
879.333	3431
879.461	3355
879.588	3363
879.715	3496
879.842	3584
879.97	3348
880.097	3169
880.224	3123
880.351	3264
880.478	3287
880.605	3199
880.732	3173
880.859	3496
880.986	3298
881.112	3355
881.239	3203
881.366	3138
881.493	3055
881.619	3036
881.746	3077
881.872	3066
881.999	3131
882.125	3161
882.252	3253
882.378	3306
882.505	3431
882.631	3275
882.757	3161
882.883	3218
883.01	3214
883.136	3165
883.262	3104
883.388	3154
883.514	3329
883.64	3389
883.766	3325
883.892	3180
884.018	3218
884.143	3431
884.269	3564
884.395	3237
884.52	3157
884.646	3203
884.772	3119
884.897	3081
885.023	3226
885.148	3325
885.274	3424
885.399	3332
885.524	3306
885.65	3222
885.775	3283
885.9	3237
886.025	3405
886.15	3397
886.275	3325
886.4	3203
886.525	3279
886.65	3249
886.775	3275
886.9	3515
887.025	3641
887.149	3401
887.274	3192
887.399	3199
887.523	3203
887.648	3188
887.773	3180
887.897	3325
888.021	3405
888.146	3294
888.27	3447
888.395	3545
888.519	3443
888.643	3416
888.767	3466
888.891	3294
889.015	3249
889.139	3283
889.263	3199
889.387	3458
889.511	3488
889.635	3412
889.759	3275
889.883	3306
890.006	3332
890.13	3515
890.254	3272
890.377	3340
890.501	3207
890.624	3207
890.748	3329
890.871	3199
890.995	3100
891.118	3058
891.241	3184
891.364	3188
891.488	3310
891.611	3199
891.734	3218
891.857	3313
891.98	3241
892.103	3393
892.226	3275
892.349	3188
892.471	3150
892.594	3268
892.717	3272
892.839	3249
892.962	3268
893.085	3336
893.207	3313
893.33	3138
893.452	3214
893.575	3329
893.697	3222
893.819	3450
893.941	3504
894.064	3405
894.186	3245
894.308	3256
894.43	3435
894.552	3526
894.674	3435
894.796	3279
894.918	3310
895.04	3279
895.161	3416
895.283	3393
895.405	3302
895.526	3355
895.648	3412
895.769	3397
895.891	3405
896.012	3481
896.134	3469
896.255	3393
896.376	3367
896.498	3382
896.619	3454
896.74	3363
896.861	3420
896.982	3690
897.103	3835
897.224	3587
897.345	3488
897.466	3420
897.587	3523
897.708	3652
897.828	3530
897.949	3424
898.07	3272
898.19	3397
898.311	3595
898.431	3443
898.552	3511
898.672	3618
898.792	3545
898.913	3523
899.033	3397
899.153	3291
899.273	3233
899.393	3291
899.513	3310
899.633	3287
899.753	3332
899.873	3272
899.993	3382
900.113	3355
900.232	3393
900.352	3332
900.472	3291
900.591	3230
900.711	3306
900.83	3214
900.95	3454
901.069	3496
901.189	3336
901.308	3188
901.427	3157
901.546	3184
901.665	3287
901.784	3317
901.904	3199
902.023	3154
902.141	3055
902.26	3017
902.379	3169
902.498	3085
902.617	3032
902.735	3188
902.854	3230
902.973	3199
903.091	3020
903.21	3074
903.328	3081
903.446	3123
903.565	3104
903.683	3218
903.801	3142
903.919	3272
904.038	3287
904.156	3176
904.274	3249
904.392	3253
904.51	3306
904.627	3302
904.745	3424
904.863	3504
904.981	3256
905.098	3195
905.216	3203
905.334	3287
905.451	3298
905.569	3298
905.686	3424
905.803	3439
905.921	3332
906.038	3450
906.155	3344
906.272	3260
906.389	3389
906.506	3268
906.623	3279
906.74	3230
906.857	3161
906.974	3230
907.091	3412
907.208	3564
907.324	3469
907.441	3367
907.557	3233
907.674	3233
907.79	3192
907.907	3294
908.023	3374
908.139	3374
908.256	3340
908.372	3332
908.488	3355
908.604	3264
908.72	3298
908.836	3272
908.952	3275
909.068	3329
909.184	3469
909.3	3386
909.415	3477
909.531	3458
909.647	3253
909.762	3294
909.878	3264
909.993	3370
910.108	3348
910.224	3306
910.339	3409
910.454	3348
910.57	3294
910.685	3237
910.8	3564
910.915	3500
911.03	3443
911.145	3275
911.259	3256
911.374	3313
911.489	3245
911.604	3291
911.718	3146
911.833	3176
911.947	3108
912.062	2971
912.176	3157
912.291	3195
912.405	3173
912.519	3443
912.633	3488
912.748	3359
912.862	3233
912.976	3199
913.09	3074
913.204	3104
913.318	3203
913.431	3336
913.545	3332
913.659	3409
913.772	3306
913.886	3203
914	3176
914.113	3351
914.226	3412
914.34	3363
914.453	3241
914.566	3428
914.68	3272
914.793	3302
914.906	3127
915.019	3100
915.132	3070
915.245	3195
915.358	3169
915.47	3207
915.583	3241
915.696	3306
915.809	3393
915.921	3409
916.034	3294
916.146	3245
916.259	3214
916.371	3370
916.483	3363
916.595	3279
916.708	3313
916.82	3355
916.932	3321
917.044	3340
917.156	3348
917.268	3275
917.38	3340
917.491	3306
917.603	3374
917.715	3412
917.826	3469
917.938	3348
918.049	3275
918.161	3420
918.272	3534
918.384	3568
918.495	3526
918.606	3336
918.717	3233
918.828	3363
918.939	3443
919.05	3298
919.161	3389
919.272	3180
919.383	3302
919.494	3462
919.604	3675
919.715	3523
919.826	3397
919.936	3473
920.047	3549
920.157	3553
920.267	3728
920.378	3599
920.488	3584
920.598	3804
920.708	3956
920.818	3812
920.928	3819
921.038	4036
921.148	3983
921.258	3682
921.368	3603
921.477	3584
921.587	3515
921.697	3481
921.806	3679
921.916	3542
922.025	3325
922.134	3332
922.244	3321
922.353	3412
922.462	3272
922.571	3226
922.68	3093
922.789	3077
922.898	3131
923.007	3085
923.116	3207
923.224	3123
923.333	3184
923.442	3070
923.55	3089
923.659	3157
923.767	3233
923.876	3119
923.984	3237
924.092	3104
924.201	3207
924.309	3188
924.417	3264
924.525	3188
924.633	3218
924.741	3941
924.849	3077
924.956	3245
925.064	3112
925.172	3036
925.279	3070
925.387	3199
925.494	3188
925.602	3370
925.709	3332
925.816	3157
925.924	3272
926.031	3359
926.138	3317
926.245	3378
926.352	3230
926.459	3405
926.566	3477
926.673	3313
926.779	3222
926.886	3241
926.993	3146
927.099	3104
927.206	3100
927.312	3100
927.419	3222
927.525	3222
927.631	3279
927.737	3150
927.843	3089
927.95	3028
928.056	3138
928.162	3142
928.267	3249
928.373	3873
928.479	3329
928.585	3036
928.69	3203
928.796	3294
928.901	3192
929.007	2994
929.112	3256
929.218	3192
929.323	3161
929.428	3123
929.533	3317
929.638	3112
929.743	3154
929.848	3230
929.953	3211
930.058	3173
930.163	2982
930.267	3032
930.372	3180
930.477	3032
930.581	3302
930.685	3161
930.79	3028
930.894	3112
930.998	3077
931.103	3260
931.207	2994
931.311	2960
931.415	2937
931.519	2766
931.623	2819
