Data from test_V78500241_31.txt Node
Date: Fri Mar 25 16:15:25 CST 2022
User: usil
Spectrometer: V785-0024
Trigger mode: 0
Integration Time (sec): 4.000000E-1
Scans to average: 1
Nonlinearity correction enabled: false
Boxcar width: 0
Storing dark spectrum: false
XAxis mode: Wavelengths
Number of Pixels in Spectrum: 1024
>>>>>Begin Spectral Data<<<<<
801.071	2971
801.214	2994
801.356	2941
801.499	2952
801.641	2914
801.783	2960
801.926	3146
802.068	3047
802.211	3051
802.353	3062
802.496	3062
802.638	3081
802.78	3093
802.923	3146
803.065	3081
803.208	2944
803.35	2998
803.492	3001
803.635	2990
803.777	2834
803.919	2918
804.061	3230
804.204	2994
804.346	2979
804.488	2883
804.63	3062
804.773	2899
804.915	2971
805.057	3138
805.199	2937
805.341	3017
805.483	3119
805.626	3077
805.768	3070
805.91	3180
806.052	3176
806.194	3085
806.336	3329
806.478	3097
806.62	3017
806.762	3036
806.904	3154
807.046	3214
807.188	3085
807.33	2986
807.472	3055
807.614	2990
807.756	3017
807.898	3017
808.04	2960
808.182	3058
808.324	2994
808.465	2963
808.607	2910
808.749	2876
808.891	2902
809.033	3020
809.174	3032
809.316	2982
809.458	2906
809.6	2849
809.741	2811
809.883	2800
810.025	2914
810.166	2899
810.308	2880
810.45	2914
810.591	2830
810.733	2823
810.875	2891
811.016	2796
811.158	2819
811.299	2853
811.441	2994
811.582	2918
811.724	2857
811.865	2910
812.007	2956
812.148	2990
812.29	2883
812.431	2967
812.573	2990
812.714	3001
812.855	3093
812.997	3112
813.138	3195
813.279	3116
813.421	3028
813.562	3017
813.703	2910
813.845	2922
813.986	2815
814.127	2758
814.268	2883
814.41	2899
814.551	2872
814.692	2937
814.833	2891
814.974	2941
815.115	2979
815.256	2891
815.397	2918
815.539	2925
815.68	2826
815.821	2834
815.962	3001
816.103	2982
816.244	2952
816.385	2910
816.526	2990
816.666	2990
816.807	2811
816.948	2960
817.089	2986
817.23	2925
817.371	2819
817.512	2853
817.653	2914
817.793	2880
817.934	2914
818.075	3024
818.216	3062
818.356	3066
818.497	2956
818.638	2811
818.778	2861
818.919	2838
819.06	2819
819.2	2910
819.341	2857
819.481	2834
819.622	2963
819.762	3150
819.903	3074
820.043	2975
820.184	2933
820.324	2963
820.465	3081
820.605	3074
820.746	3089
820.886	3009
821.026	3146
821.167	3230
821.307	3332
821.447	3367
821.588	3306
821.728	3275
821.868	3230
822.008	3112
822.149	3253
822.289	3302
822.429	3131
822.569	3119
822.709	3214
822.849	3085
822.99	3157
823.13	3230
823.27	3230
823.41	3180
823.55	3184
823.69	3214
823.83	3233
823.97	3150
824.11	3039
824.25	3047
824.389	3127
824.529	3169
824.669	3127
824.809	3253
824.949	3344
825.089	3268
825.228	3237
825.368	3032
825.508	3028
825.648	3020
825.787	3036
825.927	3089
826.067	3005
826.206	2975
826.346	3097
826.485	3119
826.625	3169
826.765	3317
826.904	3264
827.044	3062
827.183	2952
827.323	2914
827.462	3062
827.601	3001
827.741	2994
827.88	3024
828.02	2918
828.159	3020
828.298	3066
828.437	3150
828.577	3112
828.716	3310
828.855	3116
828.994	2971
829.134	2944
829.273	2986
829.412	2883
829.551	2895
829.69	2922
829.829	3028
829.968	3169
830.107	3055
830.246	3077
830.385	3017
830.524	2922
830.663	2883
830.802	2762
830.941	2682
831.08	2682
831.219	2792
831.357	2807
831.496	2990
831.635	2788
831.774	2689
831.913	2712
832.051	2590
832.19	2632
832.329	2743
832.467	2621
832.606	2499
832.744	2651
832.883	2640
833.022	2659
833.16	2701
833.299	2716
833.437	2727
833.576	2739
833.714	2746
833.852	2811
833.991	2823
834.129	2876
834.267	2849
834.406	2834
834.544	2899
834.682	2933
834.821	2910
834.959	3150
835.097	2960
835.235	3089
835.373	3081
835.511	3062
835.65	2998
835.788	3020
835.926	2914
836.064	2826
836.202	2914
836.34	3127
836.478	3195
836.615	3070
836.753	3165
836.891	3256
837.029	3237
837.167	3161
837.305	3097
837.443	3104
837.58	2998
837.718	3195
837.856	3116
837.993	3055
838.131	3188
838.269	3150
838.406	3116
838.544	3131
838.681	2994
838.819	2990
838.956	2861
839.094	2887
839.231	2967
839.369	3085
839.506	3416
839.643	3279
839.781	3104
839.918	3009
840.055	3089
840.193	3138
840.33	3112
840.467	3142
840.604	3199
840.742	3481
840.879	3104
841.016	3100
841.153	3188
841.29	3351
841.427	3348
841.564	3317
841.701	3325
841.838	3233
841.975	3222
842.112	3272
842.249	3119
842.385	3081
842.522	3294
842.659	3157
842.796	3108
842.933	3138
843.069	3097
843.206	3112
843.343	3241
843.479	3173
843.616	3199
843.752	2929
843.889	2899
844.025	3154
844.162	2937
844.298	3108
844.435	2990
844.571	2967
844.708	3165
844.844	3230
844.98	3306
845.117	3279
845.253	3104
845.389	3043
845.525	3161
845.661	3161
845.798	3070
845.934	3154
846.07	3127
846.206	3245
846.342	3291
846.478	3313
846.614	3157
846.75	3131
846.886	3093
847.022	3291
847.158	3176
847.294	3260
847.429	3275
847.565	3256
847.701	3549
847.837	3077
847.972	3013
848.108	3218
848.244	3138
848.379	3024
848.515	2979
848.65	2975
848.786	3032
848.921	3051
849.057	3184
849.192	3192
849.328	3081
849.463	3108
849.598	3119
849.734	3104
849.869	2998
850.004	2956
850.14	3043
850.275	2967
850.41	2861
850.545	2937
850.68	2948
850.815	3005
850.95	3024
851.085	3272
851.22	3131
851.355	3047
851.49	3055
851.625	3039
851.76	3085
851.895	3009
852.03	2967
852.165	3093
852.299	3169
852.434	3253
852.569	3199
852.703	3195
852.838	3325
852.973	3420
853.107	3363
853.242	3173
853.376	3146
853.511	3062
853.645	3093
853.78	3268
853.914	3169
854.048	3169
854.183	3161
854.317	3195
854.451	3317
854.585	3165
854.72	3108
854.854	3302
854.988	3093
855.122	3131
855.256	3051
855.39	3173
855.524	3294
855.658	3268
855.792	3199
855.926	3260
856.06	3272
856.194	3298
856.327	3214
856.461	3093
856.595	3112
856.729	3138
856.862	3294
856.996	3237
857.13	3230
857.263	3294
857.397	3348
857.53	3150
857.664	3249
857.797	3313
857.931	3329
858.064	3195
858.197	3279
858.331	3150
858.464	3135
858.597	3032
858.731	3169
858.864	3222
858.997	3127
859.13	3154
859.263	3233
859.396	3237
859.529	3119
859.662	3119
859.795	3116
859.928	3214
860.061	3332
860.194	3306
860.327	3184
860.46	3154
860.592	3279
860.725	3306
860.858	3321
860.99	3165
861.123	3100
861.256	3089
861.388	3199
861.521	3945
861.653	3097
861.786	3036
861.918	3051
862.05	3116
862.183	3150
862.315	3214
862.447	3233
862.58	3104
862.712	3020
862.844	2899
862.976	3077
863.108	3028
863.24	3473
863.372	2918
863.504	3020
863.636	2960
863.768	3089
863.9	2990
864.032	3013
864.164	3009
864.296	3070
864.428	3142
864.559	3138
864.691	3112
864.823	3119
864.954	3058
865.086	3089
865.217	3020
865.349	2994
865.48	3005
865.612	3089
865.743	3203
865.875	3024
866.006	2998
866.137	3028
866.269	2990
866.4	2960
866.531	2967
866.662	2941
866.793	2937
866.924	2963
867.055	2998
867.186	2975
867.317	2918
867.448	2891
867.579	2861
867.71	2899
867.841	2868
867.972	2944
868.103	2910
868.233	2937
868.364	2910
868.495	2918
868.625	3104
868.756	3218
868.886	2990
869.017	3055
869.147	3199
869.278	3176
869.408	3104
869.539	3097
869.669	3157
869.799	3062
869.929	3199
870.06	3161
870.19	3374
870.32	3317
870.45	3336
870.58	3412
870.71	3545
870.84	3496
870.97	3370
871.1	3279
871.23	3523
871.36	3534
871.489	3389
871.619	3458
871.749	3485
871.879	3504
872.008	3519
872.138	3447
872.267	3321
872.397	3214
872.526	3150
872.656	3043
872.785	3192
872.915	3275
873.044	3386
873.173	3249
873.303	3283
873.432	3253
873.561	3310
873.69	3192
873.819	3199
873.948	3226
874.077	3169
874.206	3104
874.335	3127
874.464	3233
874.593	3431
874.722	3268
874.851	3435
874.979	3424
875.108	3370
875.237	3233
875.365	3222
875.494	3222
875.623	3291
875.751	3119
875.88	3161
876.008	3279
876.136	3298
876.265	3443
876.393	3564
876.521	3473
876.65	3409
876.778	3393
876.906	3264
877.034	3260
877.162	3268
877.29	3203
877.418	3321
877.546	3317
877.674	3279
877.802	3283
877.93	3275
878.058	3249
878.185	3150
878.313	3237
878.441	3253
878.568	3097
878.696	3195
878.824	3275
878.951	3344
879.079	3458
879.206	3694
879.333	3488
879.461	3340
879.588	3431
879.715	3553
879.842	3614
879.97	3397
880.097	3226
880.224	3207
880.351	3275
880.478	3298
880.605	3237
880.732	3214
880.859	3542
880.986	3351
881.112	3378
881.239	3268
881.366	3100
881.493	3112
881.619	3077
881.746	3138
881.872	3131
881.999	3112
882.125	3226
882.252	3291
882.378	3306
882.505	3473
882.631	3332
882.757	3188
882.883	3272
883.01	3313
883.136	3218
883.262	3116
883.388	3169
883.514	3363
883.64	3424
883.766	3351
883.892	3264
884.018	3253
884.143	3447
884.269	3553
884.395	3226
884.52	3192
884.646	3192
884.772	3173
884.897	3138
885.023	3249
885.148	3370
885.274	3466
885.399	3420
885.524	3336
885.65	3359
885.775	3348
885.9	3355
886.025	3458
886.15	3378
886.275	3359
886.4	3264
886.525	3344
886.65	3275
886.775	3306
886.9	3534
887.025	3686
887.149	3443
887.274	3306
887.399	3222
887.523	3253
887.648	3237
887.773	3268
887.897	3412
888.021	3443
888.146	3367
888.27	3462
888.395	3576
888.519	3485
888.643	3507
888.767	3511
888.891	3405
889.015	3272
889.139	3313
889.263	3272
889.387	3454
889.511	3576
889.635	3496
889.759	3363
889.883	3329
890.006	3428
890.13	3507
890.254	3317
890.377	3409
890.501	3245
890.624	3195
890.748	3310
890.871	3253
890.995	3157
891.118	3100
891.241	3218
891.364	3302
891.488	3374
891.611	3241
891.734	3256
891.857	3332
891.98	3275
892.103	3409
892.226	3298
892.349	3241
892.471	3173
892.594	3230
892.717	3298
892.839	3310
892.962	3401
893.085	3397
893.207	3351
893.33	3184
893.452	3241
893.575	3386
893.697	3298
893.819	3519
893.941	3580
894.064	3431
894.186	3287
894.308	3336
894.43	3492
894.552	3584
894.674	3530
894.796	3336
894.918	3363
895.04	3302
895.161	3435
895.283	3447
895.405	3389
895.526	3405
895.648	3450
895.769	3435
895.891	3523
896.012	3561
896.134	3519
896.255	3511
896.376	3420
896.498	3370
896.619	3488
896.74	3450
896.861	3473
896.982	3728
897.103	3892
897.224	3652
897.345	3584
897.466	3443
897.587	3538
897.708	3682
897.828	3572
897.949	3515
898.07	3397
898.19	3473
898.311	3682
898.431	3549
898.552	3526
898.672	3648
898.792	3637
898.913	3572
899.033	3492
899.153	3344
899.273	3291
899.393	3378
899.513	3351
899.633	3363
899.753	3370
899.873	3355
899.993	3428
900.113	3378
900.232	3389
900.352	3397
900.472	3359
900.591	3279
900.711	3332
900.83	3291
900.95	3454
901.069	3538
901.189	3435
901.308	3272
901.427	3161
901.546	3272
901.665	3367
901.784	3363
901.904	3245
902.023	3230
902.141	3062
902.26	3051
902.379	3157
902.498	3150
902.617	3085
902.735	3268
902.854	3268
902.973	3241
903.091	3100
903.21	3108
903.328	3180
903.446	3176
903.565	3188
903.683	3283
903.801	3195
903.919	3272
904.038	3283
904.156	3192
904.274	3317
904.392	3298
904.51	3336
904.627	3367
904.745	3526
904.863	3587
904.981	3302
905.098	3230
905.216	3256
905.334	3336
905.451	3370
905.569	3359
905.686	3500
905.803	3507
905.921	3348
906.038	3473
906.155	3351
906.272	3348
906.389	3386
906.506	3287
906.623	3302
906.74	3298
906.857	3245
906.974	3336
907.091	3492
907.208	3591
907.324	3504
907.441	3454
907.557	3275
907.674	3291
907.79	3245
907.907	3363
908.023	3454
908.139	3393
908.256	3370
908.372	3416
908.488	3389
908.604	3294
908.72	3275
908.836	3348
908.952	3389
909.068	3424
909.184	3572
909.3	3450
909.415	3557
909.531	3515
909.647	3325
909.762	3325
909.878	3325
909.993	3382
910.108	3370
910.224	3386
910.339	3462
910.454	3363
910.57	3382
910.685	3279
910.8	3656
910.915	3572
911.03	3466
911.145	3313
911.259	3310
911.374	3359
911.489	3279
911.604	3298
911.718	3150
911.833	3211
911.947	3085
912.062	3055
912.176	3256
912.291	3218
912.405	3241
912.519	3469
912.633	3504
912.748	3389
912.862	3340
912.976	3188
913.09	3123
913.204	3176
913.318	3218
913.431	3389
913.545	3431
913.659	3431
913.772	3332
913.886	3275
914	3279
914.113	3405
914.226	3492
914.34	3439
914.453	3275
914.566	3447
914.68	3355
914.793	3405
914.906	3165
915.019	3165
915.132	3089
915.245	3207
915.358	3272
915.47	3294
915.583	3313
915.696	3344
915.809	3443
915.921	3488
916.034	3306
916.146	3306
916.259	3287
916.371	3409
916.483	3378
916.595	3325
916.708	3348
916.82	3405
916.932	3378
917.044	3401
917.156	3409
917.268	3332
917.38	3378
917.491	3393
917.603	3443
917.715	3538
917.826	3488
917.938	3428
918.049	3298
918.161	3454
918.272	3622
918.384	3633
918.495	3542
918.606	3374
918.717	3306
918.828	3416
918.939	3477
919.05	3329
919.161	3416
919.272	3207
919.383	3355
919.494	3564
919.604	3732
919.715	3504
919.826	3492
919.936	3519
920.047	3591
920.157	3599
920.267	3812
920.378	3644
920.488	3622
920.598	3857
920.708	4010
920.818	3892
920.928	3907
921.038	4055
921.148	4021
921.258	3736
921.368	3686
921.477	3625
921.587	3584
921.697	3519
921.806	3679
921.916	3580
922.025	3424
922.134	3420
922.244	3370
922.353	3458
922.462	3310
922.571	3241
922.68	3199
922.789	3112
922.898	3157
923.007	3142
923.116	3203
923.224	3218
923.333	3188
923.442	3138
923.55	3127
923.659	3218
923.767	3291
923.876	3192
923.984	3321
924.092	3192
924.201	3275
924.309	3291
924.417	3332
924.525	3203
924.633	3253
924.741	4246
924.849	3074
924.956	3310
925.064	3184
925.172	3097
925.279	3157
925.387	3233
925.494	3249
925.602	3405
925.709	3374
925.816	3230
925.924	3359
926.031	3428
926.138	3409
926.245	3374
926.352	3279
926.459	3431
926.566	3553
926.673	3348
926.779	3306
926.886	3294
926.993	3241
927.099	3123
927.206	3123
927.312	3146
927.419	3272
927.525	3249
927.631	3336
927.737	3192
927.843	3188
927.95	3104
928.056	3184
928.162	3222
928.267	3302
928.373	3880
928.479	3370
928.585	3135
928.69	3283
928.796	3325
928.901	3218
929.007	3093
929.112	3256
929.218	3230
929.323	3214
929.428	3188
929.533	3363
929.638	3135
929.743	3199
929.848	3317
929.953	3256
930.058	3199
930.163	3047
930.267	3097
930.372	3226
930.477	3093
930.581	3412
930.685	3230
930.79	3070
930.894	3165
930.998	3154
931.103	3283
931.207	2982
931.311	3013
931.415	2937
931.519	2785
931.623	2876
