Data from test_V78500241_1081.txt Node
Date: Fri Mar 25 16:22:41 CST 2022
User: usil
Spectrometer: V785-0024
Trigger mode: 0
Integration Time (sec): 4.000000E-1
Scans to average: 1
Nonlinearity correction enabled: false
Boxcar width: 0
Storing dark spectrum: false
XAxis mode: Wavelengths
Number of Pixels in Spectrum: 1024
>>>>>Begin Spectral Data<<<<<
801.071	2937
801.214	2902
801.356	2883
801.499	2868
801.641	2830
801.783	2963
801.926	3047
802.068	2998
802.211	3013
802.353	3043
802.496	2937
802.638	2998
802.78	2994
802.923	3089
803.065	3005
803.208	2872
803.35	2891
803.492	2956
803.635	2929
803.777	2746
803.919	2887
804.061	3188
804.204	2952
804.346	2902
804.488	2842
804.63	3001
804.773	2853
804.915	2899
805.057	3055
805.199	2944
805.341	2956
805.483	3043
805.626	3024
805.768	2933
805.91	3081
806.052	3112
806.194	2986
806.336	3211
806.478	2975
806.62	2948
806.762	2971
806.904	3097
807.046	3135
807.188	2971
807.33	2925
807.472	2963
807.614	2902
807.756	2982
807.898	2910
808.04	2887
808.182	2979
808.324	2933
808.465	2880
808.607	2861
808.749	2781
808.891	2880
809.033	2925
809.174	2960
809.316	2868
809.458	2880
809.6	2758
809.741	2792
809.883	2754
810.025	2830
810.166	2857
810.308	2845
810.45	2811
810.591	2758
810.733	2758
810.875	2834
811.016	2746
811.158	2754
811.299	2792
811.441	2902
811.582	2899
811.724	2849
811.865	2830
812.007	2891
812.148	2883
812.29	2838
812.431	2906
812.573	2960
812.714	2967
812.855	3028
812.997	3028
813.138	3116
813.279	3005
813.421	2979
813.562	2929
813.703	2861
813.845	2880
813.986	2781
814.127	2724
814.268	2830
814.41	2845
814.551	2800
814.692	2883
814.833	2815
814.974	2925
815.115	2948
815.256	2819
815.397	2823
815.539	2842
815.68	2731
815.821	2800
815.962	2922
816.103	2941
816.244	2849
816.385	2845
816.526	2967
816.666	2918
816.807	2716
816.948	2849
817.089	2918
817.23	2845
817.371	2762
817.512	2773
817.653	2834
817.793	2796
817.934	2864
818.075	2971
818.216	2982
818.356	2994
818.497	2902
818.638	2769
818.778	2826
818.919	2762
819.06	2727
819.2	2857
819.341	2830
819.481	2811
819.622	2918
819.762	3074
819.903	3017
820.043	2925
820.184	2895
820.324	2906
820.465	3032
820.605	2975
820.746	3005
820.886	2941
821.026	3089
821.167	3142
821.307	3283
821.447	3272
821.588	3230
821.728	3188
821.868	3218
822.008	3070
822.149	3192
822.289	3211
822.429	3024
822.569	3081
822.709	3131
822.849	3017
822.99	3070
823.13	3173
823.27	3214
823.41	3116
823.55	3146
823.69	3135
823.83	3176
823.97	3100
824.11	3017
824.25	2975
824.389	3085
824.529	3123
824.669	3020
824.809	3192
824.949	3279
825.089	3222
825.228	3154
825.368	2994
825.508	2952
825.648	2994
825.787	2982
825.927	3017
826.067	2986
826.206	2948
826.346	3047
826.485	3051
826.625	3100
826.765	3249
826.904	3211
827.044	3013
827.183	2910
827.323	2857
827.462	2956
827.601	2956
827.741	2902
827.88	2982
828.02	2842
828.159	2979
828.298	3005
828.437	3074
828.577	3013
828.716	3222
828.855	3104
828.994	2925
829.134	2891
829.273	2918
829.412	2845
829.551	2842
829.69	2857
829.829	2963
829.968	3157
830.107	3032
830.246	3009
830.385	2922
830.524	2872
830.663	2838
830.802	2735
830.941	2606
831.08	2625
831.219	2769
831.357	2708
831.496	2941
831.635	2705
831.774	2632
831.913	2598
832.051	2545
832.19	2583
832.329	2663
832.467	2564
832.606	2495
832.744	2575
832.883	2556
833.022	2587
833.16	2621
833.299	2644
833.437	2686
833.576	2651
833.714	2678
833.852	2712
833.991	2735
834.129	2819
834.267	2819
834.406	2785
834.544	2868
834.682	2864
834.821	2891
834.959	3070
835.097	2910
835.235	3032
835.373	2979
835.511	2982
835.65	2933
835.788	2922
835.926	2845
836.064	2788
836.202	2823
836.34	3066
836.478	3154
836.615	3032
836.753	3146
836.891	3176
837.029	3142
837.167	3093
837.305	3028
837.443	3051
837.58	2910
837.718	3123
837.856	3058
837.993	2975
838.131	3104
838.269	3108
838.406	3093
838.544	3043
838.681	2929
838.819	2880
838.956	2792
839.094	2788
839.231	2925
839.369	2986
839.506	3355
839.643	3192
839.781	2990
839.918	2941
840.055	3066
840.193	3039
840.33	3051
840.467	3066
840.604	3108
840.742	3370
840.879	3009
841.016	3055
841.153	3104
841.29	3313
841.427	3325
841.564	3260
841.701	3310
841.838	3222
841.975	3146
842.112	3184
842.249	3081
842.385	3055
842.522	3241
842.659	3085
842.796	3028
842.933	3085
843.069	2998
843.206	3043
843.343	3173
843.479	3089
843.616	3165
843.752	2876
843.889	2845
844.025	3081
844.162	2864
844.298	3074
844.435	2960
844.571	2910
844.708	3077
844.844	3184
844.98	3233
845.117	3173
845.253	3036
845.389	3005
845.525	3066
845.661	3077
845.798	2990
845.934	3085
846.07	3043
846.206	3218
846.342	3275
846.478	3222
846.614	3062
846.75	3085
846.886	3020
847.022	3214
847.158	3138
847.294	3176
847.429	3237
847.565	3214
847.701	3485
847.837	3058
847.972	3009
848.108	3150
848.244	3169
848.379	2994
848.515	2925
848.65	2929
848.786	2922
848.921	2979
849.057	3104
849.192	3108
849.328	3017
849.463	3089
849.598	3039
849.734	3032
849.869	2937
850.004	2887
850.14	2925
850.275	2918
850.41	2830
850.545	2910
850.68	2902
850.815	2967
850.95	2975
851.085	3211
851.22	3089
851.355	3009
851.49	2941
851.625	2982
851.76	3009
851.895	2910
852.03	2895
852.165	3062
852.299	3100
852.434	3142
852.569	3077
852.703	3142
852.838	3272
852.973	3287
853.107	3302
853.242	3165
853.376	3097
853.511	2990
853.645	3032
853.78	3233
853.914	3161
854.048	3119
854.183	3070
854.317	3135
854.451	3260
854.585	3097
854.72	3100
854.854	3214
854.988	3051
855.122	3081
855.256	2979
855.39	3100
855.524	3218
855.658	3203
855.792	3123
855.926	3154
856.06	3203
856.194	3253
856.327	3161
856.461	3043
856.595	3055
856.729	3028
856.862	3192
856.996	3138
857.13	3184
857.263	3222
857.397	3264
857.53	3131
857.664	3173
857.797	3237
857.931	3241
858.064	3169
858.197	3184
858.331	3108
858.464	3093
858.597	3005
858.731	3089
858.864	3104
858.997	3062
859.13	3146
859.263	3176
859.396	3165
859.529	3070
859.662	3074
859.795	3020
859.928	3089
860.061	3279
860.194	3279
860.327	3142
860.46	3089
860.592	3226
860.725	3253
860.858	3207
860.99	3051
861.123	3032
861.256	3028
861.388	3123
861.521	3823
861.653	2948
861.786	2967
861.918	2967
862.05	3047
862.183	3097
862.315	3119
862.447	3222
862.58	3077
862.712	2918
862.844	2838
862.976	3001
863.108	3005
863.24	3291
863.372	2891
863.504	2952
863.636	2910
863.768	2982
863.9	2963
864.032	2880
864.164	2956
864.296	3001
864.428	3058
864.559	3123
864.691	3043
864.823	3066
864.954	3043
865.086	3047
865.217	2986
865.349	2963
865.48	2967
865.612	3051
865.743	3104
865.875	2933
866.006	2956
866.137	2956
866.269	2963
866.4	2948
866.531	2963
866.662	2883
866.793	2876
866.924	2929
867.055	2979
867.186	2941
867.317	2910
867.448	2861
867.579	2864
867.71	2853
867.841	2876
867.972	2902
868.103	2910
868.233	2929
868.364	2887
868.495	2941
868.625	3097
868.756	3199
868.886	2998
869.017	3020
869.147	3218
869.278	3173
869.408	3066
869.539	3032
869.669	3123
869.799	3062
869.929	3146
870.06	3108
870.19	3382
870.32	3313
870.45	3306
870.58	3389
870.71	3488
870.84	3481
870.97	3317
871.1	3275
871.23	3526
871.36	3481
871.489	3359
871.619	3412
871.749	3431
871.879	3466
872.008	3530
872.138	3370
872.267	3279
872.397	3173
872.526	3146
872.656	3051
872.785	3154
872.915	3283
873.044	3336
873.173	3222
873.303	3264
873.432	3287
873.561	3253
873.69	3203
873.819	3169
873.948	3211
874.077	3161
874.206	3093
874.335	3138
874.464	3264
874.593	3367
874.722	3279
874.851	3412
874.979	3389
875.108	3336
875.237	3230
875.365	3230
875.494	3218
875.623	3260
875.751	3131
875.88	3165
876.008	3207
876.136	3245
876.265	3431
876.393	3545
876.521	3424
876.65	3447
876.778	3344
876.906	3283
877.034	3211
877.162	3279
877.29	3226
877.418	3230
877.546	3279
877.674	3287
877.802	3283
877.93	3264
878.058	3222
878.185	3116
878.313	3218
878.441	3226
878.568	3074
878.696	3214
878.824	3279
878.951	3344
879.079	3447
879.206	3633
879.333	3462
879.461	3351
879.588	3367
879.715	3492
879.842	3610
879.97	3428
880.097	3199
880.224	3165
880.351	3222
880.478	3260
880.605	3245
880.732	3203
880.859	3515
880.986	3374
881.112	3325
881.239	3268
881.366	3112
881.493	3028
881.619	3036
881.746	3085
881.872	3062
881.999	3165
882.125	3157
882.252	3245
882.378	3348
882.505	3466
882.631	3294
882.757	3169
882.883	3180
883.01	3241
883.136	3188
883.262	3123
883.388	3150
883.514	3317
883.64	3389
883.766	3359
883.892	3184
884.018	3253
884.143	3450
884.269	3584
884.395	3237
884.52	3203
884.646	3222
884.772	3157
884.897	3142
885.023	3226
885.148	3313
885.274	3428
885.399	3355
885.524	3306
885.65	3294
885.775	3336
885.9	3302
886.025	3466
886.15	3370
886.275	3313
886.4	3249
886.525	3348
886.65	3298
886.775	3283
886.9	3519
887.025	3660
887.149	3431
887.274	3272
887.399	3211
887.523	3260
887.648	3165
887.773	3226
887.897	3382
888.021	3424
888.146	3302
888.27	3450
888.395	3564
888.519	3454
888.643	3466
888.767	3488
888.891	3340
889.015	3268
889.139	3313
889.263	3287
889.387	3439
889.511	3584
889.635	3530
889.759	3313
889.883	3325
890.006	3386
890.13	3485
890.254	3329
890.377	3382
890.501	3211
890.624	3222
890.748	3348
890.871	3214
890.995	3135
891.118	3100
891.241	3245
891.364	3294
891.488	3336
891.611	3203
891.734	3245
891.857	3313
891.98	3264
892.103	3374
892.226	3321
892.349	3237
892.471	3180
892.594	3275
892.717	3302
892.839	3340
892.962	3317
893.085	3367
893.207	3317
893.33	3207
893.452	3241
893.575	3363
893.697	3264
893.819	3515
893.941	3473
894.064	3485
894.186	3306
894.308	3317
894.43	3473
894.552	3568
894.674	3511
894.796	3268
894.918	3370
895.04	3321
895.161	3462
895.283	3416
895.405	3302
895.526	3412
895.648	3458
895.769	3416
895.891	3488
896.012	3492
896.134	3485
896.255	3469
896.376	3409
896.498	3393
896.619	3458
896.74	3389
896.861	3462
896.982	3728
897.103	3873
897.224	3599
897.345	3572
897.466	3466
897.587	3523
897.708	3648
897.828	3561
897.949	3454
898.07	3386
898.19	3431
898.311	3587
898.431	3447
898.552	3549
898.672	3618
898.792	3629
898.913	3545
899.033	3393
899.153	3336
899.273	3253
899.393	3306
899.513	3363
899.633	3329
899.753	3359
899.873	3359
899.993	3409
900.113	3355
900.232	3397
900.352	3355
900.472	3321
900.591	3253
900.711	3298
900.83	3241
900.95	3439
901.069	3526
901.189	3393
901.308	3203
901.427	3161
901.546	3211
901.665	3325
901.784	3306
901.904	3253
902.023	3123
902.141	3051
902.26	2998
902.379	3195
902.498	3097
902.617	3085
902.735	3260
902.854	3256
902.973	3226
903.091	3100
903.21	3066
903.328	3192
903.446	3127
903.565	3138
903.683	3241
903.801	3138
903.919	3207
904.038	3313
904.156	3188
904.274	3325
904.392	3272
904.51	3294
904.627	3363
904.745	3454
904.863	3496
904.981	3272
905.098	3188
905.216	3237
905.334	3332
905.451	3329
905.569	3340
905.686	3435
905.803	3458
905.921	3294
906.038	3424
906.155	3382
906.272	3321
906.389	3382
906.506	3237
906.623	3256
906.74	3291
906.857	3230
906.974	3272
907.091	3431
907.208	3595
907.324	3515
907.441	3431
907.557	3264
907.674	3264
907.79	3211
907.907	3279
908.023	3393
908.139	3382
908.256	3329
908.372	3378
908.488	3382
908.604	3287
908.72	3249
908.836	3287
908.952	3298
909.068	3355
909.184	3507
909.3	3435
909.415	3534
909.531	3488
909.647	3310
909.762	3336
909.878	3317
909.993	3386
910.108	3367
910.224	3336
910.339	3450
910.454	3313
910.57	3294
910.685	3294
910.8	3603
910.915	3523
911.03	3443
911.145	3317
911.259	3313
911.374	3367
911.489	3260
911.604	3245
911.718	3142
911.833	3165
911.947	3047
912.062	3013
912.176	3199
912.291	3241
912.405	3233
912.519	3458
912.633	3511
912.748	3340
912.862	3310
912.976	3180
913.09	3066
913.204	3146
913.318	3214
913.431	3405
913.545	3359
913.659	3389
913.772	3306
913.886	3226
914	3188
914.113	3397
914.226	3443
914.34	3374
914.453	3256
914.566	3397
914.68	3317
914.793	3363
914.906	3199
915.019	3135
915.132	3085
915.245	3195
915.358	3233
915.47	3222
915.583	3264
915.696	3336
915.809	3424
915.921	3424
916.034	3256
916.146	3310
916.259	3256
916.371	3405
916.483	3382
916.595	3321
916.708	3348
916.82	3359
916.932	3355
917.044	3332
917.156	3382
917.268	3253
917.38	3279
917.491	3313
917.603	3359
917.715	3443
917.826	3454
917.938	3355
918.049	3317
918.161	3450
918.272	3568
918.384	3591
918.495	3485
918.606	3348
918.717	3298
918.828	3447
918.939	3424
919.05	3317
919.161	3374
919.272	3180
919.383	3294
919.494	3538
919.604	3682
919.715	3504
919.826	3447
919.936	3481
920.047	3614
920.157	3564
920.267	3732
920.378	3629
920.488	3595
920.598	3812
920.708	3960
920.818	3827
920.928	3819
921.038	4048
921.148	4032
921.258	3762
921.368	3618
921.477	3610
921.587	3557
921.697	3462
921.806	3644
921.916	3534
922.025	3344
922.134	3409
922.244	3329
922.353	3481
922.462	3268
922.571	3211
922.68	3135
922.789	3108
922.898	3154
923.007	3112
923.116	3230
923.224	3165
923.333	3199
923.442	3169
923.55	3100
923.659	3173
923.767	3253
923.876	3127
923.984	3253
924.092	3150
924.201	3226
924.309	3249
924.417	3272
924.525	3226
924.633	3249
924.741	4002
924.849	3081
924.956	3272
925.064	3089
925.172	3070
925.279	3116
925.387	3180
925.494	3203
925.602	3329
925.709	3325
925.816	3154
925.924	3298
926.031	3386
926.138	3351
926.245	3405
926.352	3245
926.459	3435
926.566	3458
926.673	3283
926.779	3268
926.886	3260
926.993	3188
927.099	3142
927.206	3104
927.312	3116
927.419	3207
927.525	3222
927.631	3275
927.737	3165
927.843	3138
927.95	3017
928.056	3150
928.162	3180
928.267	3241
928.373	3861
928.479	3344
928.585	3062
928.69	3211
928.796	3279
928.901	3226
929.007	3058
929.112	3203
929.218	3184
929.323	3131
929.428	3173
929.533	3332
929.638	3142
929.743	3184
929.848	3241
929.953	3211
930.058	3154
930.163	3036
930.267	3047
930.372	3188
930.477	3043
930.581	3336
930.685	3211
930.79	3039
930.894	3138
930.998	3089
931.103	3336
931.207	2937
931.311	2944
931.415	2918
931.519	2777
931.623	2811
