Data from test_V78500241_568.txt Node
Date: Fri Mar 25 16:19:08 CST 2022
User: usil
Spectrometer: V785-0024
Trigger mode: 0
Integration Time (sec): 4.000000E-1
Scans to average: 1
Nonlinearity correction enabled: false
Boxcar width: 0
Storing dark spectrum: false
XAxis mode: Wavelengths
Number of Pixels in Spectrum: 1024
>>>>>Begin Spectral Data<<<<<
801.071	2902
801.214	2922
801.356	2895
801.499	2880
801.641	2861
801.783	2910
801.926	3066
802.068	2956
802.211	3028
802.353	3032
802.496	2963
802.638	3001
802.78	3047
802.923	3077
803.065	3009
803.208	2887
803.35	2899
803.492	2933
803.635	2963
803.777	2735
803.919	2857
804.061	3184
804.204	2937
804.346	2883
804.488	2849
804.63	2963
804.773	2910
804.915	2918
805.057	3081
805.199	2895
805.341	2979
805.483	3036
805.626	2990
805.768	2960
805.91	3043
806.052	3108
806.194	3017
806.336	3214
806.478	3047
806.62	2963
806.762	2952
806.904	3039
807.046	3138
807.188	3001
807.33	2914
807.472	2986
807.614	2887
807.756	2994
807.898	2979
808.04	2918
808.182	2963
808.324	2944
808.465	2868
808.607	2891
808.749	2807
808.891	2830
809.033	2956
809.174	2982
809.316	2902
809.458	2914
809.6	2792
809.741	2769
809.883	2762
810.025	2842
810.166	2868
810.308	2838
810.45	2845
810.591	2746
810.733	2743
810.875	2819
811.016	2796
811.158	2781
811.299	2788
811.441	2906
811.582	2902
811.724	2823
811.865	2819
812.007	2918
812.148	2861
812.29	2864
812.431	2864
812.573	2937
812.714	2925
812.855	3028
812.997	3058
813.138	3131
813.279	2998
813.421	2994
813.562	2960
813.703	2853
813.845	2876
813.986	2781
814.127	2716
814.268	2823
814.41	2826
814.551	2796
814.692	2849
814.833	2826
814.974	2876
815.115	2944
815.256	2823
815.397	2838
815.539	2834
815.68	2773
815.821	2792
815.962	2944
816.103	2910
816.244	2864
816.385	2842
816.526	2975
816.666	2918
816.807	2720
816.948	2853
817.089	2887
817.23	2838
817.371	2777
817.512	2800
817.653	2815
817.793	2823
817.934	2864
818.075	2963
818.216	2979
818.356	3017
818.497	2887
818.638	2766
818.778	2819
818.919	2773
819.06	2758
819.2	2853
819.341	2819
819.481	2815
819.622	2941
819.762	3146
819.903	3036
820.043	2948
820.184	2910
820.324	2868
820.465	3066
820.605	3032
820.746	3039
820.886	2956
821.026	3085
821.167	3184
821.307	3233
821.447	3230
821.588	3241
821.728	3211
821.868	3176
822.008	3047
822.149	3138
822.289	3192
822.429	3108
822.569	3097
822.709	3169
822.849	3024
822.99	3085
823.13	3173
823.27	3180
823.41	3085
823.55	3142
823.69	3150
823.83	3218
823.97	3100
824.11	2994
824.25	2982
824.389	3032
824.529	3089
824.669	3089
824.809	3199
824.949	3275
825.089	3211
825.228	3131
825.368	3024
825.508	2971
825.648	2986
825.787	2998
825.927	2982
826.067	2971
826.206	2948
826.346	3055
826.485	3066
826.625	3112
826.765	3245
826.904	3214
827.044	2994
827.183	2922
827.323	2891
827.462	2975
827.601	2883
827.741	2925
827.88	2944
828.02	2853
828.159	2956
828.298	3020
828.437	3116
828.577	3043
828.716	3256
828.855	3074
828.994	2918
829.134	2864
829.273	2925
829.412	2872
829.551	2845
829.69	2891
829.829	2963
829.968	3104
830.107	2998
830.246	2994
830.385	2929
830.524	2872
830.663	2807
830.802	2724
830.941	2632
831.08	2651
831.219	2731
831.357	2754
831.496	2929
831.635	2674
831.774	2644
831.913	2655
832.051	2522
832.19	2533
832.329	2636
832.467	2511
832.606	2457
832.744	2556
832.883	2571
833.022	2587
833.16	2640
833.299	2689
833.437	2693
833.576	2682
833.714	2754
833.852	2735
833.991	2727
834.129	2830
834.267	2815
834.406	2796
834.544	2868
834.682	2864
834.821	2849
834.959	3051
835.097	2880
835.235	3081
835.373	2990
835.511	3005
835.65	2952
835.788	2914
835.926	2800
836.064	2796
836.202	2849
836.34	3089
836.478	3135
836.615	3017
836.753	3108
836.891	3226
837.029	3176
837.167	3104
837.305	3036
837.443	3036
837.58	2971
837.718	3142
837.856	3085
837.993	3032
838.131	3093
838.269	3077
838.406	3070
838.544	3108
838.681	2918
838.819	2937
838.956	2811
839.094	2792
839.231	2910
839.369	2986
839.506	3363
839.643	3222
839.781	3005
839.918	2948
840.055	3058
840.193	3051
840.33	3077
840.467	3058
840.604	3161
840.742	3382
840.879	3066
841.016	3028
841.153	3089
841.29	3370
841.427	3272
841.564	3279
841.701	3268
841.838	3169
841.975	3150
842.112	3218
842.249	3062
842.385	3020
842.522	3245
842.659	3081
842.796	3047
842.933	3093
843.069	3020
843.206	3047
843.343	3176
843.479	3116
843.616	3138
843.752	2876
843.889	2872
844.025	3081
844.162	2857
844.298	3028
844.435	2944
844.571	2906
844.708	3070
844.844	3184
844.98	3237
845.117	3180
845.253	3013
845.389	3001
845.525	3161
845.661	3085
845.798	2979
845.934	3100
846.07	3047
846.206	3272
846.342	3332
846.478	3207
846.614	3085
846.75	3077
846.886	3024
847.022	3214
847.158	3165
847.294	3161
847.429	3230
847.565	3195
847.701	3466
847.837	3005
847.972	2994
848.108	3138
848.244	3135
848.379	2971
848.515	2929
848.65	2925
848.786	2929
848.921	3024
849.057	3127
849.192	3131
849.328	3036
849.463	3112
849.598	3017
849.734	3013
849.869	2986
850.004	2910
850.14	2963
850.275	2918
850.41	2823
850.545	2902
850.68	2929
850.815	2937
850.95	2956
851.085	3184
851.22	3051
851.355	3043
851.49	2952
851.625	3001
851.76	2967
851.895	2929
852.03	2880
852.165	3024
852.299	3108
852.434	3161
852.569	3146
852.703	3173
852.838	3256
852.973	3340
853.107	3317
853.242	3165
853.376	3089
853.511	2971
853.645	3051
853.78	3207
853.914	3131
854.048	3089
854.183	3036
854.317	3135
854.451	3283
854.585	3108
854.72	3062
854.854	3195
854.988	3020
855.122	3066
855.256	2948
855.39	3123
855.524	3245
855.658	3161
855.792	3154
855.926	3184
856.06	3184
856.194	3283
856.327	3123
856.461	3062
856.595	3058
856.729	3058
856.862	3161
856.996	3138
857.13	3203
857.263	3199
857.397	3268
857.53	3108
857.664	3203
857.797	3253
857.931	3214
858.064	3135
858.197	3203
858.331	3146
858.464	3127
858.597	3005
858.731	3077
858.864	3116
858.997	3081
859.13	3135
859.263	3173
859.396	3226
859.529	3100
859.662	3097
859.795	3055
859.928	3131
860.061	3291
860.194	3264
860.327	3119
860.46	3074
860.592	3260
860.725	3203
860.858	3222
860.99	3100
861.123	3028
861.256	3070
861.388	3127
861.521	3705
861.653	2986
861.786	2994
861.918	2994
862.05	3074
862.183	3077
862.315	3135
862.447	3203
862.58	3055
862.712	2929
862.844	2853
862.976	3036
863.108	3009
863.24	3409
863.372	2876
863.504	2963
863.636	2979
863.768	2990
863.9	2975
864.032	2906
864.164	2925
864.296	3005
864.428	3081
864.559	3104
864.691	3112
864.823	3077
864.954	3017
865.086	3028
865.217	2982
865.349	2956
865.48	2960
865.612	2990
865.743	3127
865.875	2967
866.006	2941
866.137	3009
866.269	2918
866.4	2963
866.531	2925
866.662	2895
866.793	2933
866.924	2906
867.055	2956
867.186	2941
867.317	2861
867.448	2819
867.579	2872
867.71	2845
867.841	2823
867.972	2876
868.103	2861
868.233	2872
868.364	2883
868.495	2914
868.625	3051
868.756	3119
868.886	2979
869.017	2998
869.147	3135
869.278	3146
869.408	3028
869.539	3043
869.669	3093
869.799	3058
869.929	3116
870.06	3100
870.19	3291
870.32	3294
870.45	3287
870.58	3374
870.71	3428
870.84	3393
870.97	3275
871.1	3241
871.23	3447
871.36	3473
871.489	3294
871.619	3348
871.749	3397
871.879	3435
872.008	3488
872.138	3370
872.267	3256
872.397	3150
872.526	3089
872.656	3013
872.785	3077
872.915	3245
873.044	3359
873.173	3230
873.303	3253
873.432	3207
873.561	3226
873.69	3180
873.819	3135
873.948	3203
874.077	3112
874.206	3036
874.335	3112
874.464	3195
874.593	3325
874.722	3283
874.851	3397
874.979	3374
875.108	3317
875.237	3176
875.365	3161
875.494	3165
875.623	3237
875.751	3062
875.88	3112
876.008	3203
876.136	3207
876.265	3370
876.393	3500
876.521	3412
876.65	3409
876.778	3321
876.906	3249
877.034	3211
877.162	3184
877.29	3157
877.418	3241
877.546	3279
877.674	3230
877.802	3253
877.93	3241
878.058	3154
878.185	3085
878.313	3222
878.441	3188
878.568	3077
878.696	3157
878.824	3214
878.951	3306
879.079	3481
879.206	3599
879.333	3409
879.461	3329
879.588	3329
879.715	3496
879.842	3568
879.97	3351
880.097	3161
880.224	3119
880.351	3184
880.478	3199
880.605	3199
880.732	3184
880.859	3466
880.986	3287
881.112	3329
881.239	3169
881.366	3074
881.493	3039
881.619	3013
881.746	3055
881.872	3093
881.999	3077
882.125	3123
882.252	3260
882.378	3283
882.505	3435
882.631	3302
882.757	3142
882.883	3214
883.01	3195
883.136	3192
883.262	3062
883.388	3093
883.514	3302
883.64	3382
883.766	3298
883.892	3131
884.018	3241
884.143	3389
884.269	3549
884.395	3226
884.52	3127
884.646	3207
884.772	3108
884.897	3089
885.023	3161
885.148	3329
885.274	3447
885.399	3378
885.524	3317
885.65	3275
885.775	3329
885.9	3291
886.025	3401
886.15	3340
886.275	3302
886.4	3249
886.525	3310
886.65	3237
886.775	3287
886.9	3500
887.025	3644
887.149	3367
887.274	3260
887.399	3161
887.523	3199
887.648	3157
887.773	3192
887.897	3355
888.021	3412
888.146	3294
888.27	3450
888.395	3500
888.519	3416
888.643	3416
888.767	3450
888.891	3287
889.015	3245
889.139	3249
889.263	3237
889.387	3367
889.511	3511
889.635	3435
889.759	3264
889.883	3291
890.006	3367
890.13	3466
890.254	3272
890.377	3332
890.501	3188
890.624	3169
890.748	3313
890.871	3123
890.995	3104
891.118	3017
891.241	3207
891.364	3226
891.488	3325
891.611	3150
891.734	3195
891.857	3298
891.98	3249
892.103	3302
892.226	3264
892.349	3211
892.471	3116
892.594	3283
892.717	3298
892.839	3249
892.962	3306
893.085	3351
893.207	3291
893.33	3176
893.452	3195
893.575	3351
893.697	3226
893.819	3443
893.941	3481
894.064	3439
894.186	3287
894.308	3237
894.43	3450
894.552	3538
894.674	3504
894.796	3279
894.918	3302
895.04	3226
895.161	3431
895.283	3382
895.405	3306
895.526	3355
895.648	3397
895.769	3409
895.891	3469
896.012	3439
896.134	3466
896.255	3420
896.376	3363
896.498	3355
896.619	3454
896.74	3340
896.861	3367
896.982	3690
897.103	3800
897.224	3519
897.345	3507
897.466	3420
897.587	3500
897.708	3603
897.828	3545
897.949	3401
898.07	3329
898.19	3409
898.311	3599
898.431	3473
898.552	3496
898.672	3587
898.792	3584
898.913	3473
899.033	3389
899.153	3279
899.273	3226
899.393	3264
899.513	3355
899.633	3351
899.753	3310
899.873	3313
899.993	3344
900.113	3325
900.232	3393
900.352	3317
900.472	3272
900.591	3180
900.711	3294
900.83	3245
900.95	3409
901.069	3439
901.189	3317
901.308	3184
901.427	3112
901.546	3184
901.665	3256
901.784	3310
901.904	3211
902.023	3097
902.141	3017
902.26	2986
902.379	3131
902.498	3058
902.617	3058
902.735	3150
902.854	3211
902.973	3230
903.091	3005
903.21	3062
903.328	3119
903.446	3104
903.565	3089
903.683	3154
903.801	3131
903.919	3230
904.038	3260
904.156	3150
904.274	3279
904.392	3264
904.51	3253
904.627	3313
904.745	3450
904.863	3435
904.981	3260
905.098	3173
905.216	3237
905.334	3264
905.451	3298
905.569	3241
905.686	3424
905.803	3439
905.921	3275
906.038	3416
906.155	3306
906.272	3272
906.389	3310
906.506	3218
906.623	3214
906.74	3237
906.857	3157
906.974	3237
907.091	3397
907.208	3538
907.324	3431
907.441	3344
907.557	3249
907.674	3222
907.79	3222
907.907	3272
908.023	3420
908.139	3405
908.256	3317
908.372	3344
908.488	3332
908.604	3245
908.72	3253
908.836	3275
908.952	3241
909.068	3344
909.184	3447
909.3	3325
909.415	3469
909.531	3469
909.647	3222
909.762	3313
909.878	3272
909.993	3355
910.108	3310
910.224	3321
910.339	3389
910.454	3272
910.57	3268
910.685	3233
910.8	3576
910.915	3526
911.03	3382
911.145	3260
911.259	3294
911.374	3325
911.489	3245
911.604	3211
911.718	3112
911.833	3165
911.947	3032
912.062	2952
912.176	3165
912.291	3195
912.405	3138
912.519	3393
912.633	3435
912.748	3325
912.862	3230
912.976	3108
913.09	3043
913.204	3116
913.318	3214
913.431	3325
913.545	3336
913.659	3401
913.772	3370
913.886	3237
914	3169
914.113	3336
914.226	3416
914.34	3344
914.453	3203
914.566	3416
914.68	3310
914.793	3332
914.906	3157
915.019	3116
915.132	3077
915.245	3154
915.358	3222
915.47	3272
915.583	3272
915.696	3325
915.809	3443
915.921	3462
916.034	3253
916.146	3287
916.259	3253
916.371	3389
916.483	3393
916.595	3275
916.708	3359
916.82	3336
916.932	3359
917.044	3409
917.156	3397
917.268	3264
917.38	3332
917.491	3344
917.603	3409
917.715	3488
917.826	3473
917.938	3397
918.049	3256
918.161	3462
918.272	3618
918.384	3610
918.495	3488
918.606	3378
918.717	3302
918.828	3447
918.939	3428
919.05	3317
919.161	3431
919.272	3207
919.383	3306
919.494	3545
919.604	3751
919.715	3538
919.826	3454
919.936	3504
920.047	3618
920.157	3580
920.267	3778
920.378	3663
920.488	3625
920.598	3800
920.708	3998
920.818	3915
920.928	3854
921.038	4044
921.148	4029
921.258	3785
921.368	3671
921.477	3633
921.587	3587
921.697	3496
921.806	3690
921.916	3538
922.025	3363
922.134	3386
922.244	3367
922.353	3454
922.462	3298
922.571	3260
922.68	3150
922.789	3116
922.898	3169
923.007	3108
923.116	3241
923.224	3222
923.333	3211
923.442	3127
923.55	3127
923.659	3169
923.767	3245
923.876	3161
923.984	3283
924.092	3116
924.201	3249
924.309	3279
924.417	3256
924.525	3230
924.633	3313
924.741	4040
924.849	3074
924.956	3344
925.064	3146
925.172	3077
925.279	3138
925.387	3230
925.494	3245
925.602	3393
925.709	3348
925.816	3222
925.924	3287
926.031	3420
926.138	3351
926.245	3382
926.352	3272
926.459	3386
926.566	3473
926.673	3351
926.779	3241
926.886	3298
926.993	3180
927.099	3203
927.206	3173
927.312	3146
927.419	3260
927.525	3218
927.631	3306
927.737	3142
927.843	3142
927.95	3039
928.056	3165
928.162	3188
928.267	3287
928.373	3785
928.479	3344
928.585	3081
928.69	3256
928.796	3268
928.901	3214
929.007	3062
929.112	3249
929.218	3188
929.323	3199
929.428	3146
929.533	3344
929.638	3161
929.743	3195
929.848	3283
929.953	3211
930.058	3192
930.163	2982
930.267	3051
930.372	3211
930.477	3047
930.581	3348
930.685	3173
930.79	3077
930.894	3123
930.998	3104
931.103	3287
931.207	2986
931.311	2975
931.415	2956
931.519	2781
931.623	2834
