Data from test_V78500241_1328.txt Node
Date: Fri Mar 25 16:24:24 CST 2022
User: usil
Spectrometer: V785-0024
Trigger mode: 0
Integration Time (sec): 4.000000E-1
Scans to average: 1
Nonlinearity correction enabled: false
Boxcar width: 0
Storing dark spectrum: false
XAxis mode: Wavelengths
Number of Pixels in Spectrum: 1024
>>>>>Begin Spectral Data<<<<<
801.071	2914
801.214	2925
801.356	2868
801.499	2872
801.641	2887
801.783	2925
801.926	3051
802.068	2971
802.211	3001
802.353	3017
802.496	2910
802.638	2998
802.78	2994
802.923	3089
803.065	2998
803.208	2910
803.35	2929
803.492	2899
803.635	2887
803.777	2762
803.919	2887
804.061	3222
804.204	2922
804.346	2891
804.488	2830
804.63	3024
804.773	2864
804.915	2910
805.057	3081
805.199	2952
805.341	2956
805.483	3036
805.626	2982
805.768	2944
805.91	3074
806.052	3112
806.194	3051
806.336	3226
806.478	3020
806.62	2948
806.762	2982
806.904	3039
807.046	3154
807.188	2956
807.33	2891
807.472	2941
807.614	2880
807.756	2990
807.898	2922
808.04	2891
808.182	2986
808.324	2941
808.465	2899
808.607	2883
808.749	2792
808.891	2838
809.033	2982
809.174	2986
809.316	2887
809.458	2872
809.6	2766
809.741	2785
809.883	2781
810.025	2842
810.166	2838
810.308	2845
810.45	2845
810.591	2777
810.733	2754
810.875	2819
811.016	2773
811.158	2758
811.299	2800
811.441	2880
811.582	2910
811.724	2819
811.865	2838
812.007	2925
812.148	2872
812.29	2830
812.431	2891
812.573	2941
812.714	2960
812.855	3039
812.997	3028
813.138	3058
813.279	2986
813.421	2979
813.562	2982
813.703	2880
813.845	2857
813.986	2773
814.127	2746
814.268	2807
814.41	2819
814.551	2826
814.692	2857
814.833	2815
814.974	2899
815.115	2925
815.256	2811
815.397	2830
815.539	2845
815.68	2754
815.821	2773
815.962	2910
816.103	2941
816.244	2876
816.385	2861
816.526	2925
816.666	2891
816.807	2781
816.948	2842
817.089	2906
817.23	2853
817.371	2785
817.512	2823
817.653	2838
817.793	2815
817.934	2857
818.075	2941
818.216	2956
818.356	3005
818.497	2918
818.638	2781
818.778	2819
818.919	2800
819.06	2754
819.2	2899
819.341	2788
819.481	2826
819.622	2902
819.762	3085
819.903	3036
820.043	2906
820.184	2918
820.324	2906
820.465	2998
820.605	3005
820.746	3036
820.886	2929
821.026	3097
821.167	3127
821.307	3237
821.447	3256
821.588	3222
821.728	3230
821.868	3138
822.008	3100
822.149	3161
822.289	3218
822.429	3047
822.569	3104
822.709	3161
822.849	3024
822.99	3085
823.13	3192
823.27	3222
823.41	3093
823.55	3180
823.69	3123
823.83	3188
823.97	3074
824.11	2986
824.25	3013
824.389	3043
824.529	3112
824.669	3077
824.809	3150
824.949	3233
825.089	3230
825.228	3142
825.368	3001
825.508	2952
825.648	2971
825.787	3020
825.927	2994
826.067	2967
826.206	2971
826.346	3055
826.485	3085
826.625	3093
826.765	3237
826.904	3203
827.044	2971
827.183	2941
827.323	2872
827.462	2960
827.601	2922
827.741	2925
827.88	2933
828.02	2830
828.159	2937
828.298	3055
828.437	3100
828.577	2982
828.716	3203
828.855	3112
828.994	2910
829.134	2883
829.273	2952
829.412	2830
829.551	2857
829.69	2891
829.829	3013
829.968	3112
830.107	3028
830.246	3024
830.385	2933
830.524	2902
830.663	2826
830.802	2701
830.941	2632
831.08	2636
831.219	2766
831.357	2758
831.496	2952
831.635	2670
831.774	2659
831.913	2625
832.051	2552
832.19	2568
832.329	2655
832.467	2511
832.606	2457
832.744	2579
832.883	2568
833.022	2568
833.16	2674
833.299	2686
833.437	2678
833.576	2670
833.714	2689
833.852	2724
833.991	2743
834.129	2834
834.267	2823
834.406	2826
834.544	2883
834.682	2887
834.821	2853
834.959	3028
835.097	2902
835.235	3036
835.373	3001
835.511	3032
835.65	2967
835.788	2929
835.926	2819
836.064	2823
836.202	2849
836.34	3112
836.478	3154
836.615	3039
836.753	3112
836.891	3211
837.029	3150
837.167	3081
837.305	3066
837.443	3036
837.58	2960
837.718	3131
837.856	3070
837.993	3055
838.131	3138
838.269	3104
838.406	3074
838.544	3093
838.681	2895
838.819	2914
838.956	2823
839.094	2800
839.231	2937
839.369	3043
839.506	3355
839.643	3195
839.781	3024
839.918	2963
840.055	3009
840.193	3024
840.33	3043
840.467	3081
840.604	3138
840.742	3405
840.879	3062
841.016	3013
841.153	3112
841.29	3329
841.427	3310
841.564	3233
841.701	3306
841.838	3184
841.975	3154
842.112	3211
842.249	3055
842.385	3055
842.522	3241
842.659	3070
842.796	3077
842.933	3100
843.069	3020
843.206	3005
843.343	3203
843.479	3085
843.616	3146
843.752	2880
843.889	2842
844.025	3070
844.162	2876
844.298	3070
844.435	2963
844.571	2933
844.708	3066
844.844	3157
844.98	3199
845.117	3146
845.253	3024
845.389	2963
845.525	3097
845.661	3055
845.798	3024
845.934	3077
846.07	3005
846.206	3230
846.342	3275
846.478	3176
846.614	3077
846.75	3032
846.886	3005
847.022	3249
847.158	3173
847.294	3184
847.429	3230
847.565	3195
847.701	3473
847.837	3009
847.972	2971
848.108	3188
848.244	3138
848.379	2982
848.515	2929
848.65	2941
848.786	2929
848.921	2986
849.057	3108
849.192	3142
849.328	3077
849.463	3085
849.598	3058
849.734	3017
849.869	2994
850.004	2914
850.14	2963
850.275	2864
850.41	2864
850.545	2868
850.68	2929
850.815	2963
850.95	2971
851.085	3176
851.22	3081
851.355	3017
851.49	2941
851.625	3009
851.76	3028
851.895	2948
852.03	2895
852.165	3009
852.299	3085
852.434	3150
852.569	3192
852.703	3157
852.838	3230
852.973	3359
853.107	3294
853.242	3154
853.376	3104
853.511	2979
853.645	3009
853.78	3237
853.914	3097
854.048	3089
854.183	3066
854.317	3116
854.451	3249
854.585	3119
854.72	3074
854.854	3192
854.988	3066
855.122	3066
855.256	2998
855.39	3097
855.524	3249
855.658	3173
855.792	3135
855.926	3230
856.06	3230
856.194	3241
856.327	3150
856.461	3043
856.595	3085
856.729	3131
856.862	3165
856.996	3154
857.13	3176
857.263	3195
857.397	3245
857.53	3077
857.664	3184
857.797	3211
857.931	3256
858.064	3165
858.197	3222
858.331	3108
858.464	3100
858.597	3020
858.731	3093
858.864	3138
858.997	3089
859.13	3169
859.263	3184
859.396	3211
859.529	3074
859.662	3108
859.795	3020
859.928	3116
860.061	3294
860.194	3283
860.327	3119
860.46	3119
860.592	3218
860.725	3233
860.858	3237
860.99	3097
861.123	3036
861.256	3081
861.388	3135
861.521	3724
861.653	2975
861.786	2979
861.918	2963
862.05	3070
862.183	3085
862.315	3142
862.447	3169
862.58	3077
862.712	2952
862.844	2853
862.976	3013
863.108	3001
863.24	3317
863.372	2861
863.504	2963
863.636	2982
863.768	2998
863.9	2956
864.032	2925
864.164	2922
864.296	2971
864.428	3100
864.559	3070
864.691	3066
864.823	3081
864.954	3013
865.086	3039
865.217	2971
865.349	2941
865.48	2967
865.612	3020
865.743	3161
865.875	2979
866.006	2979
866.137	2975
866.269	2918
866.4	2929
866.531	2880
866.662	2902
866.793	2918
866.924	2891
867.055	2944
867.186	2922
867.317	2887
867.448	2807
867.579	2845
867.71	2830
867.841	2826
867.972	2918
868.103	2868
868.233	2845
868.364	2876
868.495	2922
868.625	3108
868.756	3154
868.886	2971
869.017	3055
869.147	3173
869.278	3127
869.408	3039
869.539	3024
869.669	3093
869.799	3020
869.929	3112
870.06	3062
870.19	3340
870.32	3268
870.45	3294
870.58	3363
870.71	3462
870.84	3447
870.97	3275
871.1	3256
871.23	3458
871.36	3469
871.489	3367
871.619	3386
871.749	3397
871.879	3397
872.008	3443
872.138	3351
872.267	3272
872.397	3169
872.526	3108
872.656	2982
872.785	3074
872.915	3245
873.044	3332
873.173	3241
873.303	3222
873.432	3222
873.561	3214
873.69	3180
873.819	3184
873.948	3188
874.077	3112
874.206	3024
874.335	3104
874.464	3195
874.593	3329
874.722	3245
874.851	3367
874.979	3340
875.108	3332
875.237	3237
875.365	3173
875.494	3165
875.623	3253
875.751	3055
875.88	3138
876.008	3203
876.136	3233
876.265	3351
876.393	3511
876.521	3428
876.65	3382
876.778	3313
876.906	3245
877.034	3180
877.162	3214
877.29	3157
877.418	3253
877.546	3241
877.674	3199
877.802	3249
877.93	3230
878.058	3146
878.185	3116
878.313	3169
878.441	3222
878.568	3070
878.696	3127
878.824	3245
878.951	3272
879.079	3454
879.206	3625
879.333	3424
879.461	3317
879.588	3355
879.715	3496
879.842	3576
879.97	3367
880.097	3154
880.224	3157
880.351	3150
880.478	3188
880.605	3169
880.732	3199
880.859	3496
880.986	3298
881.112	3313
881.239	3176
881.366	3108
881.493	3020
881.619	3009
881.746	3039
881.872	3062
881.999	3081
882.125	3161
882.252	3214
882.378	3287
882.505	3409
882.631	3268
882.757	3108
882.883	3199
883.01	3245
883.136	3135
883.262	3100
883.388	3104
883.514	3302
883.64	3382
883.766	3294
883.892	3218
884.018	3218
884.143	3393
884.269	3500
884.395	3203
884.52	3150
884.646	3173
884.772	3119
884.897	3127
885.023	3226
885.148	3351
885.274	3401
885.399	3351
885.524	3272
885.65	3211
885.775	3325
885.9	3287
886.025	3431
886.15	3340
886.275	3260
886.4	3218
886.525	3264
886.65	3302
886.775	3260
886.9	3511
887.025	3648
887.149	3424
887.274	3237
887.399	3154
887.523	3207
887.648	3176
887.773	3211
887.897	3329
888.021	3389
888.146	3294
888.27	3447
888.395	3534
888.519	3420
888.643	3397
888.767	3462
888.891	3313
889.015	3256
889.139	3268
889.263	3211
889.387	3367
889.511	3515
889.635	3416
889.759	3302
889.883	3268
890.006	3351
890.13	3454
890.254	3264
890.377	3329
890.501	3199
890.624	3176
890.748	3287
890.871	3184
890.995	3142
891.118	3062
891.241	3154
891.364	3226
891.488	3317
891.611	3165
891.734	3211
891.857	3291
891.98	3230
892.103	3329
892.226	3302
892.349	3188
892.471	3100
892.594	3245
892.717	3329
892.839	3264
892.962	3279
893.085	3348
893.207	3291
893.33	3157
893.452	3192
893.575	3340
893.697	3222
893.819	3447
893.941	3477
894.064	3420
894.186	3268
894.308	3291
894.43	3420
894.552	3538
894.674	3485
894.796	3275
894.918	3298
895.04	3253
895.161	3454
895.283	3378
895.405	3302
895.526	3351
895.648	3439
895.769	3393
895.891	3443
896.012	3443
896.134	3500
896.255	3424
896.376	3370
896.498	3340
896.619	3389
896.74	3340
896.861	3340
896.982	3675
897.103	3819
897.224	3580
897.345	3526
897.466	3420
897.587	3504
897.708	3576
897.828	3515
897.949	3412
898.07	3321
898.19	3401
898.311	3595
898.431	3462
898.552	3511
898.672	3599
898.792	3564
898.913	3523
899.033	3424
899.153	3279
899.273	3233
899.393	3306
899.513	3283
899.633	3310
899.753	3355
899.873	3302
899.993	3405
900.113	3344
900.232	3386
900.352	3351
900.472	3287
900.591	3203
900.711	3302
900.83	3222
900.95	3443
901.069	3485
901.189	3340
901.308	3176
901.427	3093
901.546	3199
901.665	3279
901.784	3340
901.904	3230
902.023	3157
902.141	3024
902.26	2975
902.379	3123
902.498	3062
902.617	3066
902.735	3180
902.854	3203
902.973	3173
903.091	3013
903.21	3077
903.328	3116
903.446	3104
903.565	3127
903.683	3218
903.801	3127
903.919	3237
904.038	3302
904.156	3176
904.274	3264
904.392	3230
904.51	3264
904.627	3310
904.745	3439
904.863	3462
904.981	3230
905.098	3207
905.216	3222
905.334	3287
905.451	3283
905.569	3291
905.686	3424
905.803	3454
905.921	3264
906.038	3435
906.155	3348
906.272	3245
906.389	3359
906.506	3222
906.623	3260
906.74	3272
906.857	3195
906.974	3283
907.091	3439
907.208	3568
907.324	3477
907.441	3344
907.557	3203
907.674	3245
907.79	3192
907.907	3279
908.023	3351
908.139	3401
908.256	3302
908.372	3287
908.488	3329
908.604	3256
908.72	3211
908.836	3294
908.952	3298
909.068	3283
909.184	3462
909.3	3393
909.415	3488
909.531	3477
909.647	3287
909.762	3272
909.878	3230
909.993	3374
910.108	3332
910.224	3310
910.339	3397
910.454	3291
910.57	3321
910.685	3218
910.8	3553
910.915	3500
911.03	3401
911.145	3268
911.259	3272
911.374	3317
911.489	3241
911.604	3226
911.718	3116
911.833	3188
911.947	3039
912.062	2998
912.176	3188
912.291	3207
912.405	3199
912.519	3382
912.633	3462
912.748	3313
912.862	3253
912.976	3142
913.09	3028
913.204	3108
913.318	3176
913.431	3306
913.545	3332
913.659	3428
913.772	3321
913.886	3222
914	3184
914.113	3344
914.226	3363
914.34	3370
914.453	3230
914.566	3431
914.68	3268
914.793	3313
914.906	3176
915.019	3119
915.132	3070
915.245	3157
915.358	3165
915.47	3260
915.583	3214
915.696	3275
915.809	3386
915.921	3412
916.034	3245
916.146	3260
916.259	3214
916.371	3389
916.483	3325
916.595	3249
916.708	3329
916.82	3344
916.932	3321
917.044	3344
917.156	3351
917.268	3218
917.38	3332
917.491	3275
917.603	3412
917.715	3431
917.826	3469
917.938	3420
918.049	3226
918.161	3409
918.272	3564
918.384	3584
918.495	3538
918.606	3329
918.717	3317
918.828	3363
918.939	3405
919.05	3275
919.161	3370
919.272	3176
919.383	3279
919.494	3507
919.604	3686
919.715	3473
919.826	3454
919.936	3458
920.047	3576
920.157	3549
920.267	3762
920.378	3625
920.488	3580
920.598	3785
920.708	3937
920.818	3816
920.928	3876
921.038	4006
921.148	3979
921.258	3660
921.368	3648
921.477	3545
921.587	3542
921.697	3496
921.806	3694
921.916	3523
922.025	3363
922.134	3351
922.244	3275
922.353	3447
922.462	3256
922.571	3222
922.68	3123
922.789	3104
922.898	3169
923.007	3146
923.116	3207
923.224	3180
923.333	3180
923.442	3077
923.55	3085
923.659	3112
923.767	3211
923.876	3157
923.984	3203
924.092	3081
924.201	3214
924.309	3237
924.417	3268
924.525	3184
924.633	3218
924.741	3983
924.849	3047
924.956	3272
925.064	3116
925.172	3009
925.279	3116
925.387	3203
925.494	3188
925.602	3336
925.709	3340
925.816	3203
925.924	3283
926.031	3397
926.138	3302
926.245	3344
926.352	3207
926.459	3374
926.566	3492
926.673	3359
926.779	3245
926.886	3230
926.993	3169
927.099	3157
927.206	3112
927.312	3154
927.419	3195
927.525	3176
927.631	3268
927.737	3142
927.843	3112
927.95	3001
928.056	3131
928.162	3180
928.267	3253
928.373	3865
928.479	3302
928.585	3051
928.69	3253
928.796	3287
928.901	3173
929.007	3066
929.112	3233
929.218	3169
929.323	3116
929.428	3138
929.533	3283
929.638	3108
929.743	3195
929.848	3256
929.953	3211
930.058	3135
930.163	3020
930.267	3055
930.372	3184
930.477	3032
930.581	3317
930.685	3176
930.79	3066
930.894	3123
930.998	3093
931.103	3291
931.207	2944
931.311	2899
931.415	2941
931.519	2746
931.623	2853
