Data from test_V78500241_1585.txt Node
Date: Fri Mar 25 16:26:11 CST 2022
User: usil
Spectrometer: V785-0024
Trigger mode: 0
Integration Time (sec): 4.000000E-1
Scans to average: 1
Nonlinearity correction enabled: false
Boxcar width: 0
Storing dark spectrum: false
XAxis mode: Wavelengths
Number of Pixels in Spectrum: 1024
>>>>>Begin Spectral Data<<<<<
801.071	2929
801.214	2952
801.356	2902
801.499	2922
801.641	2887
801.783	2941
801.926	3081
802.068	3039
802.211	3062
802.353	3047
802.496	3032
802.638	3062
802.78	3039
802.923	3077
803.065	3024
803.208	2914
803.35	2975
803.492	2963
803.635	2933
803.777	2785
803.919	2887
804.061	3222
804.204	3005
804.346	2937
804.488	2872
804.63	3032
804.773	2910
804.915	2914
805.057	3116
805.199	2967
805.341	2952
805.483	3032
805.626	2979
805.768	2998
805.91	3100
806.052	3116
806.194	3089
806.336	3207
806.478	3036
806.62	2952
806.762	3001
806.904	3066
807.046	3142
807.188	3001
807.33	2979
807.472	2994
807.614	2922
807.756	3013
807.898	2944
808.04	2902
808.182	2975
808.324	2990
808.465	2910
808.607	2853
808.749	2804
808.891	2864
809.033	3001
809.174	3001
809.316	2895
809.458	2883
809.6	2746
809.741	2758
809.883	2800
810.025	2899
810.166	2864
810.308	2834
810.45	2849
810.591	2769
810.733	2777
810.875	2819
811.016	2792
811.158	2766
811.299	2807
811.441	2979
811.582	2891
811.724	2853
811.865	2868
812.007	2941
812.148	2929
812.29	2883
812.431	2887
812.573	2922
812.714	3009
812.855	3081
812.997	3074
813.138	3131
813.279	3028
813.421	2960
813.562	2975
813.703	2887
813.845	2876
813.986	2800
814.127	2724
814.268	2861
814.41	2849
814.551	2826
814.692	2868
814.833	2811
814.974	2902
815.115	2967
815.256	2830
815.397	2800
815.539	2918
815.68	2769
815.821	2800
815.962	2971
816.103	2941
816.244	2929
816.385	2857
816.526	2963
816.666	2944
816.807	2781
816.948	2895
817.089	2933
817.23	2857
817.371	2785
817.512	2800
817.653	2861
817.793	2872
817.934	2902
818.075	2967
818.216	3028
818.356	3013
818.497	2887
818.638	2815
818.778	2804
818.919	2796
819.06	2785
819.2	2899
819.341	2819
819.481	2819
819.622	2956
819.762	3116
819.903	3097
820.043	2967
820.184	2918
820.324	2925
820.465	3058
820.605	3020
820.746	3009
820.886	2956
821.026	3108
821.167	3135
821.307	3298
821.447	3264
821.588	3218
821.728	3199
821.868	3218
822.008	3108
822.149	3211
822.289	3283
822.429	3112
822.569	3123
822.709	3173
822.849	3066
822.99	3028
823.13	3165
823.27	3237
823.41	3123
823.55	3180
823.69	3192
823.83	3203
823.97	3127
824.11	3043
824.25	3036
824.389	3077
824.529	3150
824.669	3055
824.809	3184
824.949	3279
825.089	3199
825.228	3173
825.368	3001
825.508	3013
825.648	2975
825.787	3020
825.927	3043
826.067	3032
826.206	2982
826.346	3047
826.485	3116
826.625	3100
826.765	3275
826.904	3218
827.044	3055
827.183	2986
827.323	2887
827.462	2990
827.601	2937
827.741	2952
827.88	2963
828.02	2906
828.159	3043
828.298	3077
828.437	3127
828.577	3062
828.716	3283
828.855	3089
828.994	2941
829.134	2918
829.273	2925
829.412	2857
829.551	2891
829.69	2914
829.829	3032
829.968	3169
830.107	3032
830.246	3020
830.385	2952
830.524	2906
830.663	2815
830.802	2727
830.941	2663
831.08	2644
831.219	2758
831.357	2788
831.496	2994
831.635	2777
831.774	2682
831.913	2667
832.051	2556
832.19	2606
832.329	2716
832.467	2560
832.606	2522
832.744	2610
832.883	2587
833.022	2606
833.16	2701
833.299	2686
833.437	2724
833.576	2701
833.714	2708
833.852	2735
833.991	2781
834.129	2861
834.267	2861
834.406	2826
834.544	2861
834.682	2861
834.821	2876
834.959	3070
835.097	2952
835.235	3066
835.373	2990
835.511	3055
835.65	2948
835.788	2975
835.926	2838
836.064	2811
836.202	2807
836.34	3112
836.478	3165
836.615	3074
836.753	3157
836.891	3173
837.029	3192
837.167	3131
837.305	3089
837.443	3077
837.58	2956
837.718	3135
837.856	3051
837.993	3039
838.131	3135
838.269	3104
838.406	3062
838.544	3116
838.681	2948
838.819	2902
838.956	2823
839.094	2845
839.231	2944
839.369	3024
839.506	3393
839.643	3241
839.781	3020
839.918	2952
840.055	3081
840.193	3047
840.33	3077
840.467	3131
840.604	3135
840.742	3435
840.879	3081
841.016	3085
841.153	3142
841.29	3367
841.427	3355
841.564	3279
841.701	3317
841.838	3241
841.975	3165
842.112	3264
842.249	3097
842.385	3039
842.522	3253
842.659	3070
842.796	3047
842.933	3100
843.069	3051
843.206	3055
843.343	3184
843.479	3119
843.616	3154
843.752	2899
843.889	2887
844.025	3081
844.162	2880
844.298	3089
844.435	2990
844.571	2918
844.708	3104
844.844	3199
844.98	3249
845.117	3211
845.253	3055
845.389	3039
845.525	3123
845.661	3108
845.798	3043
845.934	3135
846.07	3047
846.206	3195
846.342	3302
846.478	3222
846.614	3089
846.75	3058
846.886	3077
847.022	3268
847.158	3131
847.294	3211
847.429	3260
847.565	3214
847.701	3450
847.837	3081
847.972	3013
848.108	3173
848.244	3173
848.379	2998
848.515	2975
848.65	2952
848.786	2979
848.921	2998
849.057	3127
849.192	3154
849.328	3074
849.463	3142
849.598	3093
849.734	3070
849.869	2990
850.004	2929
850.14	2979
850.275	2929
850.41	2868
850.545	2899
850.68	2944
850.815	2982
850.95	2994
851.085	3184
851.22	3146
851.355	3039
851.49	2986
851.625	2998
851.76	3043
851.895	2952
852.03	2933
852.165	3024
852.299	3123
852.434	3211
852.569	3138
852.703	3195
852.838	3237
852.973	3348
853.107	3310
853.242	3165
853.376	3074
853.511	2979
853.645	3047
853.78	3249
853.914	3135
854.048	3135
854.183	3089
854.317	3161
854.451	3298
854.585	3131
854.72	3119
854.854	3245
854.988	3085
855.122	3070
855.256	3001
855.39	3093
855.524	3233
855.658	3169
855.792	3180
855.926	3237
856.06	3207
856.194	3264
856.327	3150
856.461	3051
856.595	3100
856.729	3116
856.862	3192
856.996	3180
857.13	3180
857.263	3214
857.397	3264
857.53	3116
857.664	3222
857.797	3272
857.931	3287
858.064	3157
858.197	3264
858.331	3154
858.464	3093
858.597	3009
858.731	3138
858.864	3135
858.997	3055
859.13	3154
859.263	3199
859.396	3211
859.529	3081
859.662	3074
859.795	3043
859.928	3154
860.061	3233
860.194	3283
860.327	3138
860.46	3085
860.592	3230
860.725	3222
860.858	3291
860.99	3112
861.123	3024
861.256	3051
861.388	3165
861.521	3850
861.653	3058
861.786	2971
861.918	3005
862.05	3058
862.183	3081
862.315	3142
862.447	3226
862.58	3131
862.712	2986
862.844	2868
862.976	3028
863.108	3055
863.24	3325
863.372	2872
863.504	3017
863.636	2952
863.768	3017
863.9	3005
864.032	2899
864.164	2948
864.296	3001
864.428	3062
864.559	3112
864.691	3066
864.823	3089
864.954	3005
865.086	3047
865.217	3024
865.349	2971
865.48	2979
865.612	3051
865.743	3116
865.875	2994
866.006	2944
866.137	3017
866.269	2982
866.4	2906
866.531	2933
866.662	2914
866.793	2914
866.924	2918
867.055	2956
867.186	2941
867.317	2868
867.448	2853
867.579	2861
867.71	2857
867.841	2815
867.972	2899
868.103	2910
868.233	2883
868.364	2868
868.495	2895
868.625	3055
868.756	3184
868.886	2990
869.017	3020
869.147	3142
869.278	3192
869.408	3081
869.539	3028
869.669	3097
869.799	3074
869.929	3138
870.06	3135
870.19	3351
870.32	3283
870.45	3294
870.58	3409
870.71	3492
870.84	3431
870.97	3264
871.1	3272
871.23	3496
871.36	3431
871.489	3370
871.619	3431
871.749	3382
871.879	3409
872.008	3473
872.138	3344
872.267	3279
872.397	3112
872.526	3093
872.656	3017
872.785	3055
872.915	3230
873.044	3275
873.173	3264
873.303	3279
873.432	3268
873.561	3233
873.69	3180
873.819	3192
873.948	3180
874.077	3093
874.206	3062
874.335	3089
874.464	3195
874.593	3378
874.722	3230
874.851	3405
874.979	3363
875.108	3336
875.237	3184
875.365	3173
875.494	3173
875.623	3287
875.751	3051
875.88	3093
876.008	3226
876.136	3245
876.265	3344
876.393	3572
876.521	3443
876.65	3401
876.778	3344
876.906	3249
877.034	3245
877.162	3245
877.29	3180
877.418	3260
877.546	3241
877.674	3226
877.802	3264
877.93	3203
878.058	3154
878.185	3108
878.313	3211
878.441	3192
878.568	3043
878.696	3154
878.824	3256
878.951	3332
879.079	3477
879.206	3606
879.333	3443
879.461	3374
879.588	3386
879.715	3435
879.842	3610
879.97	3416
880.097	3207
880.224	3116
880.351	3176
880.478	3214
880.605	3173
880.732	3195
880.859	3534
880.986	3306
881.112	3317
881.239	3203
881.366	3089
881.493	3039
881.619	3009
881.746	3077
881.872	3081
881.999	3070
882.125	3146
882.252	3237
882.378	3275
882.505	3412
882.631	3272
882.757	3161
882.883	3214
883.01	3237
883.136	3142
883.262	3077
883.388	3138
883.514	3325
883.64	3340
883.766	3298
883.892	3192
884.018	3237
884.143	3393
884.269	3507
884.395	3207
884.52	3184
884.646	3218
884.772	3146
884.897	3123
885.023	3211
885.148	3325
885.274	3401
885.399	3348
885.524	3310
885.65	3233
885.775	3332
885.9	3268
886.025	3401
886.15	3344
886.275	3325
886.4	3291
886.525	3310
886.65	3275
886.775	3272
886.9	3545
887.025	3652
887.149	3397
887.274	3275
887.399	3169
887.523	3161
887.648	3214
887.773	3203
887.897	3382
888.021	3348
888.146	3306
888.27	3409
888.395	3530
888.519	3412
888.643	3443
888.767	3416
888.891	3325
889.015	3245
889.139	3275
889.263	3199
889.387	3428
889.511	3557
889.635	3450
889.759	3317
889.883	3306
890.006	3386
890.13	3523
890.254	3237
890.377	3340
890.501	3199
890.624	3207
890.748	3272
890.871	3157
890.995	3089
891.118	3032
891.241	3184
891.364	3161
891.488	3306
891.611	3157
891.734	3218
891.857	3302
891.98	3256
892.103	3325
892.226	3298
892.349	3188
892.471	3074
892.594	3260
892.717	3291
892.839	3245
892.962	3249
893.085	3336
893.207	3256
893.33	3093
893.452	3184
893.575	3348
893.697	3264
893.819	3473
893.941	3469
894.064	3424
894.186	3256
894.308	3291
894.43	3443
894.552	3515
894.674	3500
894.796	3287
894.918	3317
895.04	3260
895.161	3401
895.283	3389
895.405	3317
895.526	3355
895.648	3409
895.769	3416
895.891	3469
896.012	3473
896.134	3450
896.255	3389
896.376	3367
896.498	3382
896.619	3378
896.74	3386
896.861	3363
896.982	3663
897.103	3804
897.224	3568
897.345	3519
897.466	3431
897.587	3447
897.708	3633
897.828	3576
897.949	3450
898.07	3363
898.19	3447
898.311	3580
898.431	3435
898.552	3545
898.672	3576
898.792	3584
898.913	3523
899.033	3435
899.153	3272
899.273	3237
899.393	3260
899.513	3279
899.633	3325
899.753	3313
899.873	3340
899.993	3363
900.113	3310
900.232	3401
900.352	3287
900.472	3321
900.591	3188
900.711	3279
900.83	3226
900.95	3409
901.069	3519
901.189	3351
901.308	3188
901.427	3150
901.546	3222
901.665	3340
901.784	3332
901.904	3203
902.023	3176
902.141	3036
902.26	3005
902.379	3157
902.498	3062
902.617	3036
902.735	3230
902.854	3241
902.973	3195
903.091	3005
903.21	3036
903.328	3180
903.446	3104
903.565	3081
903.683	3173
903.801	3146
903.919	3245
904.038	3283
904.156	3169
904.274	3264
904.392	3275
904.51	3313
904.627	3325
904.745	3447
904.863	3466
904.981	3245
905.098	3173
905.216	3226
905.334	3313
905.451	3298
905.569	3294
905.686	3420
905.803	3443
905.921	3275
906.038	3409
906.155	3340
906.272	3260
906.389	3329
906.506	3256
906.623	3249
906.74	3272
906.857	3203
906.974	3226
907.091	3458
907.208	3561
907.324	3431
907.441	3367
907.557	3218
907.674	3226
907.79	3230
907.907	3268
908.023	3397
908.139	3355
908.256	3325
908.372	3386
908.488	3363
908.604	3294
908.72	3256
908.836	3283
908.952	3306
909.068	3329
909.184	3439
909.3	3412
909.415	3492
909.531	3511
909.647	3264
909.762	3344
909.878	3241
909.993	3344
910.108	3332
910.224	3344
910.339	3409
910.454	3329
910.57	3272
910.685	3211
910.8	3599
910.915	3454
911.03	3431
911.145	3256
911.259	3264
911.374	3275
911.489	3233
911.604	3218
911.718	3119
911.833	3157
911.947	3066
912.062	2956
912.176	3180
912.291	3180
912.405	3180
912.519	3431
912.633	3469
912.748	3332
912.862	3291
912.976	3146
913.09	3043
913.204	3127
913.318	3199
913.431	3332
913.545	3340
913.659	3378
913.772	3332
913.886	3226
914	3192
914.113	3325
914.226	3447
914.34	3389
914.453	3195
914.566	3401
914.68	3302
914.793	3302
914.906	3154
915.019	3116
915.132	3074
915.245	3161
915.358	3199
915.47	3199
915.583	3272
915.696	3294
915.809	3378
915.921	3382
916.034	3253
916.146	3302
916.259	3218
916.371	3389
916.483	3367
916.595	3256
916.708	3310
916.82	3355
916.932	3344
917.044	3294
917.156	3367
917.268	3241
917.38	3272
917.491	3306
917.603	3374
917.715	3485
917.826	3412
917.938	3355
918.049	3264
918.161	3412
918.272	3564
918.384	3587
918.495	3462
918.606	3306
918.717	3249
918.828	3344
918.939	3431
919.05	3298
919.161	3302
919.272	3165
919.383	3249
919.494	3515
919.604	3690
919.715	3485
919.826	3458
919.936	3469
920.047	3580
920.157	3523
920.267	3759
920.378	3614
920.488	3568
920.598	3751
920.708	3945
920.818	3846
920.928	3823
921.038	4010
921.148	4032
921.258	3705
921.368	3648
921.477	3564
921.587	3511
921.697	3462
921.806	3618
921.916	3481
922.025	3363
922.134	3351
922.244	3325
922.353	3370
922.462	3279
922.571	3233
922.68	3077
922.789	3089
922.898	3100
923.007	3093
923.116	3230
923.224	3154
923.333	3192
923.442	3085
923.55	3077
923.659	3142
923.767	3207
923.876	3116
923.984	3260
924.092	3123
924.201	3207
924.309	3176
924.417	3249
924.525	3180
924.633	3230
924.741	4173
924.849	3077
924.956	3256
925.064	3074
925.172	2998
925.279	3085
925.387	3184
925.494	3195
925.602	3355
925.709	3302
925.816	3188
925.924	3275
926.031	3397
926.138	3310
926.245	3386
926.352	3230
926.459	3382
926.566	3458
926.673	3321
926.779	3268
926.886	3253
926.993	3127
927.099	3138
927.206	3097
927.312	3097
927.419	3184
927.525	3188
927.631	3268
927.737	3142
927.843	3108
927.95	3028
928.056	3165
928.162	3150
928.267	3230
928.373	3884
928.479	3298
928.585	3043
928.69	3176
928.796	3249
928.901	3154
929.007	3058
929.112	3169
929.218	3169
929.323	3131
929.428	3142
929.533	3306
929.638	3135
929.743	3154
929.848	3237
929.953	3233
930.058	3176
930.163	2975
930.267	3047
930.372	3218
930.477	3024
930.581	3336
930.685	3131
930.79	3032
930.894	3150
930.998	3089
931.103	3264
931.207	2914
931.311	2918
931.415	2944
931.519	2773
931.623	2819
