Data from test_V78500241_1346.txt Node
Date: Fri Mar 25 16:24:31 CST 2022
User: usil
Spectrometer: V785-0024
Trigger mode: 0
Integration Time (sec): 4.000000E-1
Scans to average: 1
Nonlinearity correction enabled: false
Boxcar width: 0
Storing dark spectrum: false
XAxis mode: Wavelengths
Number of Pixels in Spectrum: 1024
>>>>>Begin Spectral Data<<<<<
801.071	2944
801.214	2967
801.356	2899
801.499	2956
801.641	2899
801.783	2910
801.926	3066
802.068	2998
802.211	3001
802.353	3066
802.496	2982
802.638	3013
802.78	3089
802.923	3081
803.065	3036
803.208	2918
803.35	2941
803.492	2960
803.635	2975
803.777	2796
803.919	2902
804.061	3203
804.204	2960
804.346	2971
804.488	2868
804.63	3020
804.773	2902
804.915	2910
805.057	3097
805.199	2960
805.341	2998
805.483	3081
805.626	3043
805.768	3020
805.91	3127
806.052	3146
806.194	3013
806.336	3253
806.478	3077
806.62	3047
806.762	3013
806.904	3051
807.046	3230
807.188	3024
807.33	2937
807.472	3043
807.614	2922
807.756	3005
807.898	2971
808.04	2914
808.182	3009
808.324	2952
808.465	2887
808.607	2914
808.749	2838
808.891	2876
809.033	3001
809.174	2994
809.316	2914
809.458	2918
809.6	2838
809.741	2807
809.883	2781
810.025	2891
810.166	2902
810.308	2872
810.45	2887
810.591	2785
810.733	2842
810.875	2830
811.016	2815
811.158	2766
811.299	2880
811.441	2956
811.582	2937
811.724	2891
811.865	2883
812.007	2933
812.148	2899
812.29	2914
812.431	2963
812.573	2971
812.714	2982
812.855	3089
812.997	3043
813.138	3192
813.279	3074
813.421	2986
813.562	2979
813.703	2910
813.845	2891
813.986	2804
814.127	2735
814.268	2857
814.41	2864
814.551	2826
814.692	2899
814.833	2823
814.974	2876
815.115	2975
815.256	2868
815.397	2861
815.539	2914
815.68	2785
815.821	2807
815.962	3001
816.103	2960
816.244	2914
816.385	2922
816.526	2990
816.666	2948
816.807	2762
816.948	2895
817.089	2967
817.23	2872
817.371	2804
817.512	2842
817.653	2876
817.793	2849
817.934	2910
818.075	2975
818.216	3032
818.356	3036
818.497	2922
818.638	2815
818.778	2815
818.919	2811
819.06	2769
819.2	2922
819.341	2845
819.481	2830
819.622	2944
819.762	3123
819.903	3100
820.043	2967
820.184	2906
820.324	2929
820.465	3055
820.605	3081
820.746	3028
820.886	2956
821.026	3081
821.167	3207
821.307	3264
821.447	3321
821.588	3264
821.728	3230
821.868	3237
822.008	3074
822.149	3214
822.289	3253
822.429	3131
822.569	3123
822.709	3241
822.849	3032
822.99	3119
823.13	3192
823.27	3256
823.41	3119
823.55	3207
823.69	3161
823.83	3214
823.97	3116
824.11	3024
824.25	3036
824.389	3100
824.529	3127
824.669	3085
824.809	3211
824.949	3264
825.089	3230
825.228	3165
825.368	3039
825.508	2960
825.648	2944
825.787	3036
825.927	3024
826.067	2982
826.206	2971
826.346	3062
826.485	3085
826.625	3169
826.765	3306
826.904	3241
827.044	3028
827.183	2986
827.323	2887
827.462	3024
827.601	2933
827.741	2956
827.88	2994
828.02	2906
828.159	3013
828.298	3104
828.437	3116
828.577	3077
828.716	3260
828.855	3116
828.994	2948
829.134	2933
829.273	2948
829.412	2895
829.551	2906
829.69	2891
829.829	3013
829.968	3119
830.107	3009
830.246	3066
830.385	2967
830.524	2925
830.663	2861
830.802	2766
830.941	2667
831.08	2655
831.219	2796
831.357	2804
831.496	2963
831.635	2762
831.774	2693
831.913	2682
832.051	2598
832.19	2610
832.329	2705
832.467	2556
832.606	2499
832.744	2621
832.883	2613
833.022	2617
833.16	2686
833.299	2701
833.437	2724
833.576	2762
833.714	2735
833.852	2716
833.991	2788
834.129	2838
834.267	2868
834.406	2800
834.544	2918
834.682	2925
834.821	2902
834.959	3074
835.097	2918
835.235	3097
835.373	3020
835.511	3005
835.65	2952
835.788	3001
835.926	2849
836.064	2842
836.202	2876
836.34	3093
836.478	3169
836.615	3070
836.753	3150
836.891	3226
837.029	3218
837.167	3116
837.305	3100
837.443	3085
837.58	2998
837.718	3165
837.856	3066
837.993	3039
838.131	3157
838.269	3131
838.406	3089
838.544	3123
838.681	2925
838.819	2933
838.956	2769
839.094	2857
839.231	2948
839.369	3089
839.506	3397
839.643	3226
839.781	3017
839.918	2986
840.055	3051
840.193	3047
840.33	3077
840.467	3154
840.604	3157
840.742	3397
840.879	3100
841.016	3043
841.153	3142
841.29	3336
841.427	3344
841.564	3294
841.701	3336
841.838	3226
841.975	3218
842.112	3226
842.249	3104
842.385	3043
842.522	3291
842.659	3127
842.796	3123
842.933	3093
843.069	3024
843.206	3085
843.343	3184
843.479	3127
843.616	3123
843.752	2948
843.889	2895
844.025	3104
844.162	2883
844.298	3138
844.435	2956
844.571	2906
844.708	3097
844.844	3199
844.98	3283
845.117	3169
845.253	3047
845.389	3020
845.525	3138
845.661	3123
845.798	3032
845.934	3112
846.07	3089
846.206	3211
846.342	3336
846.478	3195
846.614	3089
846.75	3074
846.886	3039
847.022	3237
847.158	3146
847.294	3207
847.429	3253
847.565	3230
847.701	3549
847.837	3043
847.972	2998
848.108	3180
848.244	3142
848.379	2944
848.515	2967
848.65	2952
848.786	2975
848.921	3020
849.057	3100
849.192	3173
849.328	3062
849.463	3093
849.598	3085
849.734	3066
849.869	2982
850.004	2941
850.14	3032
850.275	2941
850.41	2861
850.545	2887
850.68	2982
850.815	2952
850.95	2952
851.085	3207
851.22	3108
851.355	3028
851.49	2994
851.625	3032
851.76	3032
851.895	2948
852.03	2956
852.165	3055
852.299	3119
852.434	3211
852.569	3142
852.703	3184
852.838	3275
852.973	3367
853.107	3351
853.242	3146
853.376	3119
853.511	2998
853.645	3085
853.78	3226
853.914	3146
854.048	3108
854.183	3116
854.317	3176
854.451	3332
854.585	3138
854.72	3104
854.854	3218
854.988	3074
855.122	3108
855.256	2971
855.39	3138
855.524	3253
855.658	3192
855.792	3142
855.926	3222
856.06	3218
856.194	3260
856.327	3157
856.461	3058
856.595	3085
856.729	3123
856.862	3279
856.996	3157
857.13	3211
857.263	3264
857.397	3302
857.53	3165
857.664	3195
857.797	3226
857.931	3275
858.064	3150
858.197	3245
858.331	3127
858.464	3123
858.597	3020
858.731	3138
858.864	3123
858.997	3119
859.13	3154
859.263	3184
859.396	3199
859.529	3127
859.662	3077
859.795	3055
859.928	3146
860.061	3226
860.194	3302
860.327	3157
860.46	3077
860.592	3279
860.725	3249
860.858	3264
860.99	3112
861.123	3055
861.256	3058
861.388	3188
861.521	3732
861.653	3028
861.786	2990
861.918	3020
862.05	3039
862.183	3108
862.315	3138
862.447	3214
862.58	3100
862.712	2960
862.844	2880
862.976	3058
863.108	3001
863.24	3348
863.372	2861
863.504	2986
863.636	2937
863.768	3028
863.9	3009
864.032	2887
864.164	2971
864.296	3013
864.428	3081
864.559	3100
864.691	3093
864.823	3066
864.954	3097
865.086	3051
865.217	3017
865.349	3005
865.48	2967
865.612	2994
865.743	3127
865.875	3017
866.006	2956
866.137	3009
866.269	2925
866.4	2944
866.531	2899
866.662	2887
866.793	2929
866.924	2918
867.055	2986
867.186	2929
867.317	2902
867.448	2834
867.579	2845
867.71	2830
867.841	2838
867.972	2895
868.103	2925
868.233	2925
868.364	2883
868.495	2922
868.625	3104
868.756	3173
868.886	2982
869.017	3017
869.147	3154
869.278	3165
869.408	3058
869.539	3013
869.669	3100
869.799	3066
869.929	3131
870.06	3085
870.19	3313
870.32	3283
870.45	3351
870.58	3370
870.71	3450
870.84	3443
870.97	3298
871.1	3272
871.23	3477
871.36	3481
871.489	3321
871.619	3393
871.749	3428
871.879	3435
872.008	3481
872.138	3344
872.267	3302
872.397	3165
872.526	3074
872.656	2975
872.785	3108
872.915	3294
873.044	3317
873.173	3233
873.303	3253
873.432	3256
873.561	3249
873.69	3169
873.819	3138
873.948	3218
874.077	3100
874.206	3047
874.335	3077
874.464	3161
874.593	3348
874.722	3268
874.851	3374
874.979	3325
875.108	3317
875.237	3199
875.365	3157
875.494	3157
875.623	3241
875.751	3127
875.88	3097
876.008	3184
876.136	3237
876.265	3367
876.393	3515
876.521	3420
876.65	3393
876.778	3332
876.906	3249
877.034	3203
877.162	3214
877.29	3157
877.418	3245
877.546	3283
877.674	3287
877.802	3222
877.93	3233
878.058	3142
878.185	3108
878.313	3188
878.441	3192
878.568	3062
878.696	3169
878.824	3256
878.951	3317
879.079	3473
879.206	3622
879.333	3469
879.461	3329
879.588	3378
879.715	3504
879.842	3599
879.97	3359
880.097	3169
880.224	3146
880.351	3218
880.478	3199
880.605	3214
880.732	3173
880.859	3488
880.986	3321
881.112	3313
881.239	3214
881.366	3077
881.493	3039
881.619	3017
881.746	3070
881.872	3097
881.999	3077
882.125	3135
882.252	3256
882.378	3310
882.505	3428
882.631	3275
882.757	3135
882.883	3226
883.01	3226
883.136	3199
883.262	3085
883.388	3104
883.514	3340
883.64	3378
883.766	3313
883.892	3127
884.018	3245
884.143	3424
884.269	3523
884.395	3214
884.52	3169
884.646	3176
884.772	3104
884.897	3074
885.023	3184
885.148	3329
885.274	3424
885.399	3393
885.524	3264
885.65	3287
885.775	3340
885.9	3279
886.025	3450
886.15	3393
886.275	3321
886.4	3237
886.525	3336
886.65	3272
886.775	3302
886.9	3492
887.025	3644
887.149	3370
887.274	3253
887.399	3188
887.523	3195
887.648	3211
887.773	3222
887.897	3313
888.021	3367
888.146	3313
888.27	3420
888.395	3519
888.519	3424
888.643	3462
888.767	3443
888.891	3268
889.015	3245
889.139	3253
889.263	3218
889.387	3416
889.511	3500
889.635	3462
889.759	3291
889.883	3283
890.006	3420
890.13	3519
890.254	3275
890.377	3310
890.501	3211
890.624	3169
890.748	3256
890.871	3214
890.995	3100
891.118	3066
891.241	3199
891.364	3199
891.488	3332
891.611	3169
891.734	3241
891.857	3253
891.98	3237
892.103	3317
892.226	3283
892.349	3233
892.471	3119
892.594	3184
892.717	3253
892.839	3275
892.962	3329
893.085	3382
893.207	3332
893.33	3173
893.452	3195
893.575	3355
893.697	3237
893.819	3473
893.941	3545
894.064	3454
894.186	3268
894.308	3230
894.43	3428
894.552	3496
894.674	3492
894.796	3310
894.918	3325
895.04	3287
895.161	3412
895.283	3431
895.405	3291
895.526	3340
895.648	3420
895.769	3389
895.891	3454
896.012	3523
896.134	3458
896.255	3424
896.376	3374
896.498	3355
896.619	3439
896.74	3321
896.861	3397
896.982	3660
897.103	3854
897.224	3568
897.345	3488
897.466	3397
897.587	3534
897.708	3633
897.828	3530
897.949	3420
898.07	3340
898.19	3416
898.311	3572
898.431	3462
898.552	3542
898.672	3614
898.792	3553
898.913	3504
899.033	3412
899.153	3325
899.273	3192
899.393	3287
899.513	3256
899.633	3294
899.753	3321
899.873	3344
899.993	3405
900.113	3306
900.232	3363
900.352	3351
900.472	3329
900.591	3184
900.711	3291
900.83	3226
900.95	3389
901.069	3485
901.189	3348
901.308	3142
901.427	3138
901.546	3199
901.665	3264
901.784	3374
901.904	3203
902.023	3154
902.141	2982
902.26	2998
902.379	3131
902.498	3100
902.617	3047
902.735	3184
902.854	3264
902.973	3207
903.091	3043
903.21	3055
903.328	3135
903.446	3097
903.565	3081
903.683	3161
903.801	3100
903.919	3233
904.038	3310
904.156	3127
904.274	3275
904.392	3233
904.51	3291
904.627	3348
904.745	3405
904.863	3492
904.981	3241
905.098	3173
905.216	3245
905.334	3291
905.451	3272
905.569	3287
905.686	3420
905.803	3466
905.921	3310
906.038	3412
906.155	3386
906.272	3272
906.389	3313
906.506	3245
906.623	3237
906.74	3283
906.857	3180
906.974	3237
907.091	3435
907.208	3564
907.324	3428
907.441	3359
907.557	3230
907.674	3237
907.79	3249
907.907	3268
908.023	3359
908.139	3348
908.256	3340
908.372	3332
908.488	3329
908.604	3253
908.72	3233
908.836	3302
908.952	3230
909.068	3321
909.184	3515
909.3	3401
909.415	3519
909.531	3454
909.647	3249
909.762	3245
909.878	3245
909.993	3351
910.108	3363
910.224	3336
910.339	3397
910.454	3310
910.57	3283
910.685	3241
910.8	3595
910.915	3549
911.03	3481
911.145	3264
911.259	3275
911.374	3287
911.489	3272
911.604	3249
911.718	3123
911.833	3218
911.947	3032
912.062	2937
912.176	3161
912.291	3192
912.405	3203
912.519	3431
912.633	3454
912.748	3325
912.862	3260
912.976	3146
913.09	3074
913.204	3123
913.318	3199
913.431	3325
913.545	3351
913.659	3382
913.772	3306
913.886	3230
914	3233
914.113	3336
914.226	3382
914.34	3359
914.453	3199
914.566	3420
914.68	3279
914.793	3310
914.906	3142
915.019	3142
915.132	3081
915.245	3142
915.358	3203
915.47	3207
915.583	3253
915.696	3237
915.809	3378
915.921	3374
916.034	3218
916.146	3253
916.259	3211
916.371	3382
916.483	3340
916.595	3249
916.708	3336
916.82	3340
916.932	3351
917.044	3310
917.156	3348
917.268	3275
917.38	3294
917.491	3294
917.603	3340
917.715	3416
917.826	3431
917.938	3374
918.049	3272
918.161	3386
918.272	3576
918.384	3549
918.495	3473
918.606	3329
918.717	3306
918.828	3332
918.939	3405
919.05	3268
919.161	3367
919.272	3188
919.383	3245
919.494	3488
919.604	3663
919.715	3515
919.826	3367
919.936	3458
920.047	3572
920.157	3507
920.267	3766
920.378	3595
920.488	3545
920.598	3762
920.708	3941
920.818	3819
920.928	3827
921.038	4025
921.148	3964
921.258	3671
921.368	3667
921.477	3622
921.587	3526
921.697	3447
921.806	3614
921.916	3530
922.025	3351
922.134	3367
922.244	3317
922.353	3431
922.462	3249
922.571	3253
922.68	3119
922.789	3077
922.898	3119
923.007	3081
923.116	3192
923.224	3131
923.333	3157
923.442	3085
923.55	3077
923.659	3123
923.767	3188
923.876	3142
923.984	3184
924.092	3123
924.201	3173
924.309	3199
924.417	3260
924.525	3173
924.633	3241
924.741	4025
924.849	3017
924.956	3298
925.064	3062
925.172	3036
925.279	3116
925.387	3180
925.494	3195
925.602	3329
925.709	3325
925.816	3195
925.924	3245
926.031	3332
926.138	3325
926.245	3348
926.352	3256
926.459	3401
926.566	3488
926.673	3313
926.779	3253
926.886	3218
926.993	3203
927.099	3165
927.206	3127
927.312	3135
927.419	3222
927.525	3173
927.631	3294
927.737	3119
927.843	3119
927.95	3020
928.056	3097
928.162	3154
928.267	3237
928.373	3846
928.479	3332
928.585	3051
928.69	3180
928.796	3283
928.901	3154
929.007	3055
929.112	3176
929.218	3169
929.323	3161
929.428	3123
929.533	3325
929.638	3100
929.743	3176
929.848	3233
929.953	3173
930.058	3127
930.163	2986
930.267	3051
930.372	3165
930.477	3028
930.581	3348
930.685	3173
930.79	3001
930.894	3097
930.998	3081
931.103	3272
931.207	2933
931.311	2944
931.415	2922
931.519	2754
931.623	2796
