Data from test_V78500241_1412.txt Node
Date: Fri Mar 25 16:24:59 CST 2022
User: usil
Spectrometer: V785-0024
Trigger mode: 0
Integration Time (sec): 4.000000E-1
Scans to average: 1
Nonlinearity correction enabled: false
Boxcar width: 0
Storing dark spectrum: false
XAxis mode: Wavelengths
Number of Pixels in Spectrum: 1024
>>>>>Begin Spectral Data<<<<<
801.071	2933
801.214	2971
801.356	2925
801.499	2899
801.641	2925
801.783	2925
801.926	3085
802.068	2986
802.211	2998
802.353	3058
802.496	2998
802.638	3051
802.78	3085
802.923	3097
803.065	3013
803.208	2891
803.35	2941
803.492	2922
803.635	2952
803.777	2807
803.919	2906
804.061	3203
804.204	2952
804.346	2952
804.488	2842
804.63	2998
804.773	2933
804.915	2933
805.057	3116
805.199	2956
805.341	2971
805.483	3062
805.626	3066
805.768	2986
805.91	3093
806.052	3108
806.194	3097
806.336	3264
806.478	3020
806.62	2975
806.762	3005
806.904	3085
807.046	3180
807.188	3001
807.33	2960
807.472	2990
807.614	2929
807.756	3020
807.898	2937
808.04	2918
808.182	2979
808.324	2963
808.465	2895
808.607	2830
808.749	2842
808.891	2876
809.033	2998
809.174	2975
809.316	2910
809.458	2971
809.6	2811
809.741	2758
809.883	2811
810.025	2883
810.166	2883
810.308	2849
810.45	2880
810.591	2800
810.733	2796
810.875	2853
811.016	2785
811.158	2785
811.299	2796
811.441	2933
811.582	2922
811.724	2838
811.865	2857
812.007	2929
812.148	2891
812.29	2853
812.431	2876
812.573	2963
812.714	2960
812.855	3070
812.997	3062
813.138	3131
813.279	3043
813.421	2994
813.562	2963
813.703	2880
813.845	2902
813.986	2785
814.127	2720
814.268	2807
814.41	2845
814.551	2834
814.692	2906
814.833	2823
814.974	2910
815.115	2944
815.256	2861
815.397	2842
815.539	2861
815.68	2792
815.821	2815
815.962	2963
816.103	2941
816.244	2922
816.385	2857
816.526	2998
816.666	2929
816.807	2758
816.948	2864
817.089	2937
817.23	2880
817.371	2815
817.512	2823
817.653	2876
817.793	2853
817.934	2899
818.075	2975
818.216	3017
818.356	3058
818.497	2906
818.638	2834
818.778	2853
818.919	2796
819.06	2769
819.2	2906
819.341	2830
819.481	2788
819.622	2925
819.762	3116
819.903	3051
820.043	2963
820.184	2910
820.324	2941
820.465	3062
820.605	2986
820.746	3028
820.886	2967
821.026	3112
821.167	3142
821.307	3294
821.447	3306
821.588	3241
821.728	3218
821.868	3214
822.008	3081
822.149	3180
822.289	3218
822.429	3062
822.569	3089
822.709	3195
822.849	2998
822.99	3074
823.13	3173
823.27	3241
823.41	3081
823.55	3138
823.69	3142
823.83	3249
823.97	3085
824.11	3036
824.25	3024
824.389	3066
824.529	3116
824.669	3055
824.809	3211
824.949	3237
825.089	3233
825.228	3157
825.368	3017
825.508	2956
825.648	2971
825.787	3020
825.927	3032
826.067	2990
826.206	2922
826.346	3070
826.485	3077
826.625	3116
826.765	3249
826.904	3241
827.044	2975
827.183	2933
827.323	2899
827.462	3001
827.601	2948
827.741	2914
827.88	2944
828.02	2864
828.159	2948
828.298	3055
828.437	3142
828.577	3058
828.716	3237
828.855	3077
828.994	2918
829.134	2899
829.273	2910
829.412	2933
829.551	2872
829.69	2864
829.829	2967
829.968	3161
830.107	3009
830.246	3043
830.385	2925
830.524	2902
830.663	2842
830.802	2727
830.941	2636
831.08	2667
831.219	2762
831.357	2781
831.496	2952
831.635	2682
831.774	2667
831.913	2682
832.051	2575
832.19	2579
832.329	2735
832.467	2560
832.606	2476
832.744	2568
832.883	2606
833.022	2602
833.16	2651
833.299	2708
833.437	2727
833.576	2731
833.714	2735
833.852	2731
833.991	2758
834.129	2823
834.267	2830
834.406	2811
834.544	2868
834.682	2914
834.821	2918
834.959	3074
835.097	2902
835.235	3074
835.373	3024
835.511	3017
835.65	2975
835.788	2960
835.926	2830
836.064	2796
836.202	2845
836.34	3127
836.478	3173
836.615	3047
836.753	3135
836.891	3203
837.029	3192
837.167	3154
837.305	3104
837.443	3047
837.58	2998
837.718	3123
837.856	3089
837.993	3039
838.131	3146
838.269	3127
838.406	3100
838.544	3093
838.681	2963
838.819	2922
838.956	2777
839.094	2819
839.231	2899
839.369	3017
839.506	3428
839.643	3256
839.781	2982
839.918	2986
840.055	3036
840.193	3055
840.33	3070
840.467	3070
840.604	3184
840.742	3405
840.879	3055
841.016	3085
841.153	3112
841.29	3363
841.427	3291
841.564	3279
841.701	3317
841.838	3214
841.975	3207
842.112	3222
842.249	3104
842.385	3058
842.522	3279
842.659	3093
842.796	3089
842.933	3135
843.069	3062
843.206	3066
843.343	3195
843.479	3074
843.616	3184
843.752	2864
843.889	2891
844.025	3104
844.162	2891
844.298	3097
844.435	2929
844.571	2960
844.708	3066
844.844	3211
844.98	3241
845.117	3176
845.253	3077
845.389	3047
845.525	3116
845.661	3070
845.798	3055
845.934	3116
846.07	3097
846.206	3241
846.342	3340
846.478	3195
846.614	3123
846.75	3062
846.886	3039
847.022	3241
847.158	3131
847.294	3199
847.429	3272
847.565	3203
847.701	3485
847.837	3020
847.972	2982
848.108	3135
848.244	3154
848.379	2998
848.515	2967
848.65	2929
848.786	2986
848.921	2986
849.057	3116
849.192	3138
849.328	3085
849.463	3112
849.598	3077
849.734	3047
849.869	2937
850.004	2891
850.14	2975
850.275	2929
850.41	2823
850.545	2899
850.68	2906
850.815	2941
850.95	2967
851.085	3214
851.22	3116
851.355	3093
851.49	2990
851.625	3032
851.76	3020
851.895	2925
852.03	2948
852.165	3001
852.299	3093
852.434	3173
852.569	3138
852.703	3135
852.838	3264
852.973	3363
853.107	3359
853.242	3150
853.376	3112
853.511	2982
853.645	3077
853.78	3245
853.914	3127
854.048	3142
854.183	3116
854.317	3104
854.451	3306
854.585	3104
854.72	3066
854.854	3176
854.988	3032
855.122	3085
855.256	2956
855.39	3112
855.524	3260
855.658	3173
855.792	3112
855.926	3214
856.06	3199
856.194	3253
856.327	3161
856.461	3077
856.595	3108
856.729	3085
856.862	3207
856.996	3131
857.13	3230
857.263	3203
857.397	3306
857.53	3116
857.664	3203
857.797	3241
857.931	3287
858.064	3146
858.197	3195
858.331	3146
858.464	3062
858.597	2971
858.731	3104
858.864	3112
858.997	3127
859.13	3176
859.263	3150
859.396	3192
859.529	3070
859.662	3077
859.795	3055
859.928	3112
860.061	3291
860.194	3287
860.327	3138
860.46	3104
860.592	3207
860.725	3233
860.858	3230
860.99	3089
861.123	3062
861.256	3020
861.388	3165
861.521	3766
861.653	3055
861.786	3005
861.918	3036
862.05	3066
862.183	3032
862.315	3146
862.447	3199
862.58	3081
862.712	2944
862.844	2887
862.976	3058
863.108	2982
863.24	3313
863.372	2887
863.504	2967
863.636	2948
863.768	3017
863.9	2986
864.032	2925
864.164	2994
864.296	3009
864.428	3100
864.559	3131
864.691	3074
864.823	3058
864.954	3043
865.086	3039
865.217	2986
865.349	2933
865.48	2979
865.612	3001
865.743	3123
865.875	3009
866.006	2918
866.137	3013
866.269	2941
866.4	2948
866.531	2925
866.662	2868
866.793	2857
866.924	2895
867.055	2982
867.186	2922
867.317	2880
867.448	2853
867.579	2838
867.71	2834
867.841	2792
867.972	2883
868.103	2933
868.233	2872
868.364	2857
868.495	2887
868.625	3066
868.756	3138
868.886	2963
869.017	3017
869.147	3131
869.278	3146
869.408	3017
869.539	3043
869.669	3058
869.799	3013
869.929	3150
870.06	3104
870.19	3283
870.32	3306
870.45	3260
870.58	3393
870.71	3473
870.84	3447
870.97	3272
871.1	3241
871.23	3492
871.36	3481
871.489	3374
871.619	3340
871.749	3401
871.879	3412
872.008	3401
872.138	3359
872.267	3249
872.397	3116
872.526	3089
872.656	3020
872.785	3108
872.915	3233
873.044	3291
873.173	3226
873.303	3199
873.432	3260
873.561	3291
873.69	3142
873.819	3127
873.948	3192
874.077	3119
874.206	3058
874.335	3043
874.464	3188
874.593	3294
874.722	3245
874.851	3393
874.979	3329
875.108	3321
875.237	3195
875.365	3138
875.494	3154
875.623	3230
875.751	3055
875.88	3058
876.008	3222
876.136	3192
876.265	3340
876.393	3542
876.521	3412
876.65	3386
876.778	3329
876.906	3222
877.034	3211
877.162	3218
877.29	3192
877.418	3233
877.546	3203
877.674	3264
877.802	3211
877.93	3230
878.058	3135
878.185	3100
878.313	3199
878.441	3173
878.568	3070
878.696	3169
878.824	3249
878.951	3275
879.079	3504
879.206	3618
879.333	3412
879.461	3378
879.588	3348
879.715	3492
879.842	3587
879.97	3397
880.097	3180
880.224	3112
880.351	3192
880.478	3214
880.605	3211
880.732	3195
880.859	3504
880.986	3291
881.112	3329
881.239	3192
881.366	3119
881.493	3017
881.619	3009
881.746	3039
881.872	3112
881.999	3131
882.125	3142
882.252	3268
882.378	3287
882.505	3485
882.631	3321
882.757	3150
882.883	3184
883.01	3188
883.136	3150
883.262	3058
883.388	3142
883.514	3351
883.64	3401
883.766	3291
883.892	3173
884.018	3222
884.143	3443
884.269	3519
884.395	3180
884.52	3173
884.646	3173
884.772	3123
884.897	3108
885.023	3188
885.148	3336
885.274	3416
885.399	3370
885.524	3272
885.65	3260
885.775	3321
885.9	3287
886.025	3420
886.15	3389
886.275	3279
886.4	3230
886.525	3306
886.65	3268
886.775	3317
886.9	3462
887.025	3629
887.149	3370
887.274	3287
887.399	3184
887.523	3199
887.648	3203
887.773	3203
887.897	3374
888.021	3447
888.146	3283
888.27	3443
888.395	3526
888.519	3435
888.643	3416
888.767	3450
888.891	3329
889.015	3245
889.139	3294
889.263	3214
889.387	3424
889.511	3481
889.635	3454
889.759	3279
889.883	3302
890.006	3374
890.13	3458
890.254	3287
890.377	3321
890.501	3233
890.624	3154
890.748	3264
890.871	3192
890.995	3131
891.118	3055
891.241	3180
891.364	3211
891.488	3298
891.611	3165
891.734	3218
891.857	3260
891.98	3260
892.103	3348
892.226	3272
892.349	3241
892.471	3119
892.594	3233
892.717	3313
892.839	3291
892.962	3283
893.085	3355
893.207	3268
893.33	3146
893.452	3218
893.575	3313
893.697	3264
893.819	3496
893.941	3507
894.064	3431
894.186	3226
894.308	3283
894.43	3424
894.552	3553
894.674	3447
894.796	3233
894.918	3279
895.04	3298
895.161	3443
895.283	3370
895.405	3287
895.526	3409
895.648	3412
895.769	3409
895.891	3431
896.012	3458
896.134	3439
896.255	3412
896.376	3382
896.498	3348
896.619	3424
896.74	3359
896.861	3367
896.982	3625
897.103	3823
897.224	3564
897.345	3477
897.466	3412
897.587	3519
897.708	3595
897.828	3523
897.949	3443
898.07	3382
898.19	3409
898.311	3584
898.431	3454
898.552	3473
898.672	3591
898.792	3572
898.913	3534
899.033	3389
899.153	3298
899.273	3222
899.393	3294
899.513	3306
899.633	3336
899.753	3336
899.873	3294
899.993	3367
900.113	3344
900.232	3344
900.352	3317
900.472	3283
900.591	3245
900.711	3287
900.83	3199
900.95	3397
901.069	3454
901.189	3351
901.308	3176
901.427	3089
901.546	3184
901.665	3268
901.784	3294
901.904	3173
902.023	3146
902.141	3009
902.26	3013
902.379	3119
902.498	3097
902.617	3081
902.735	3173
902.854	3211
902.973	3184
903.091	3020
903.21	3039
903.328	3131
903.446	3108
903.565	3097
903.683	3188
903.801	3116
903.919	3256
904.038	3256
904.156	3188
904.274	3291
904.392	3253
904.51	3283
904.627	3317
904.745	3409
904.863	3492
904.981	3245
905.098	3169
905.216	3211
905.334	3325
905.451	3291
905.569	3302
905.686	3447
905.803	3469
905.921	3298
906.038	3405
906.155	3367
906.272	3268
906.389	3321
906.506	3260
906.623	3268
906.74	3245
906.857	3154
906.974	3230
907.091	3412
907.208	3557
907.324	3473
907.441	3378
907.557	3233
907.674	3233
907.79	3188
907.907	3256
908.023	3397
908.139	3344
908.256	3325
908.372	3370
908.488	3397
908.604	3268
908.72	3203
908.836	3291
908.952	3302
909.068	3363
909.184	3469
909.3	3374
909.415	3477
909.531	3477
909.647	3287
909.762	3306
909.878	3245
909.993	3321
910.108	3367
910.224	3329
910.339	3401
910.454	3363
910.57	3325
910.685	3249
910.8	3576
910.915	3587
911.03	3428
911.145	3264
911.259	3264
911.374	3336
911.489	3268
911.604	3203
911.718	3138
911.833	3142
911.947	3047
912.062	3017
912.176	3188
912.291	3218
912.405	3173
912.519	3393
912.633	3447
912.748	3332
912.862	3230
912.976	3176
913.09	3058
913.204	3169
913.318	3176
913.431	3313
913.545	3317
913.659	3439
913.772	3351
913.886	3207
914	3199
914.113	3370
914.226	3389
914.34	3359
914.453	3173
914.566	3424
914.68	3260
914.793	3310
914.906	3135
915.019	3093
915.132	3085
915.245	3138
915.358	3218
915.47	3249
915.583	3241
915.696	3283
915.809	3397
915.921	3405
916.034	3264
916.146	3272
916.259	3226
916.371	3355
916.483	3363
916.595	3287
916.708	3355
916.82	3336
916.932	3310
917.044	3317
917.156	3325
917.268	3241
917.38	3329
917.491	3260
917.603	3344
917.715	3534
917.826	3443
917.938	3393
918.049	3306
918.161	3428
918.272	3530
918.384	3599
918.495	3488
918.606	3340
918.717	3298
918.828	3405
918.939	3439
919.05	3298
919.161	3389
919.272	3154
919.383	3302
919.494	3492
919.604	3694
919.715	3454
919.826	3344
919.936	3450
920.047	3587
920.157	3572
920.267	3770
920.378	3637
920.488	3530
920.598	3812
920.708	3964
920.818	3869
920.928	3808
921.038	4025
921.148	3979
921.258	3671
921.368	3614
921.477	3526
921.587	3561
921.697	3462
921.806	3614
921.916	3511
922.025	3344
922.134	3344
922.244	3306
922.353	3412
922.462	3256
922.571	3264
922.68	3116
922.789	3089
922.898	3131
923.007	3058
923.116	3169
923.224	3173
923.333	3192
923.442	3070
923.55	3074
923.659	3119
923.767	3230
923.876	3142
923.984	3226
924.092	3093
924.201	3237
924.309	3218
924.417	3253
924.525	3150
924.633	3245
924.741	4166
924.849	3032
924.956	3256
925.064	3077
925.172	3013
925.279	3070
925.387	3203
925.494	3161
925.602	3340
925.709	3317
925.816	3157
925.924	3256
926.031	3336
926.138	3325
926.245	3344
926.352	3268
926.459	3412
926.566	3466
926.673	3298
926.779	3298
926.886	3241
926.993	3123
927.099	3142
927.206	3112
927.312	3154
927.419	3211
927.525	3230
927.631	3275
927.737	3142
927.843	3119
927.95	3032
928.056	3123
928.162	3173
928.267	3241
928.373	3922
928.479	3313
928.585	3047
928.69	3195
928.796	3249
928.901	3161
929.007	3020
929.112	3192
929.218	3169
929.323	3112
929.428	3123
929.533	3317
929.638	3093
929.743	3188
929.848	3199
929.953	3207
930.058	3119
930.163	2944
930.267	3032
930.372	3207
930.477	3032
930.581	3317
930.685	3180
930.79	3051
930.894	3100
930.998	3097
931.103	3233
931.207	2944
931.311	2963
931.415	2914
931.519	2800
931.623	2807
