Data from test_V78500241_1683.txt Node
Date: Fri Mar 25 16:26:51 CST 2022
User: usil
Spectrometer: V785-0024
Trigger mode: 0
Integration Time (sec): 4.000000E-1
Scans to average: 1
Nonlinearity correction enabled: false
Boxcar width: 0
Storing dark spectrum: false
XAxis mode: Wavelengths
Number of Pixels in Spectrum: 1024
>>>>>Begin Spectral Data<<<<<
801.071	2963
801.214	2986
801.356	2922
801.499	2922
801.641	2887
801.783	2967
801.926	3058
802.068	3005
802.211	3051
802.353	3055
802.496	2990
802.638	3039
802.78	3089
802.923	3150
803.065	3043
803.208	2910
803.35	2933
803.492	2971
803.635	2963
803.777	2796
803.919	2918
804.061	3214
804.204	2960
804.346	2914
804.488	2895
804.63	3036
804.773	2872
804.915	2944
805.057	3127
805.199	2925
805.341	3036
805.483	3058
805.626	3043
805.768	2982
805.91	3108
806.052	3123
806.194	3047
806.336	3241
806.478	3036
806.62	2956
806.762	2994
806.904	3066
807.046	3203
807.188	3036
807.33	2937
807.472	3001
807.614	2906
807.756	3017
807.898	2948
808.04	2891
808.182	2979
808.324	2986
808.465	2902
808.607	2872
808.749	2785
808.891	2864
809.033	2994
809.174	2963
809.316	2910
809.458	2902
809.6	2773
809.741	2769
809.883	2796
810.025	2857
810.166	2861
810.308	2887
810.45	2861
810.591	2838
810.733	2826
810.875	2906
811.016	2804
811.158	2754
811.299	2861
811.441	2910
811.582	2910
811.724	2826
811.865	2857
812.007	2914
812.148	2883
812.29	2902
812.431	2933
812.573	2979
812.714	2960
812.855	3043
812.997	3100
813.138	3169
813.279	3036
813.421	2979
813.562	3009
813.703	2902
813.845	2895
813.986	2807
814.127	2746
814.268	2815
814.41	2826
814.551	2796
814.692	2906
814.833	2830
814.974	2902
815.115	2971
815.256	2845
815.397	2815
815.539	2887
815.68	2807
815.821	2792
815.962	2937
816.103	2952
816.244	2861
816.385	2918
816.526	2948
816.666	2960
816.807	2777
816.948	2902
817.089	2914
817.23	2880
817.371	2785
817.512	2849
817.653	2891
817.793	2853
817.934	2880
818.075	2982
818.216	3017
818.356	3024
818.497	2910
818.638	2796
818.778	2842
818.919	2811
819.06	2766
819.2	2872
819.341	2804
819.481	2826
819.622	2948
819.762	3085
819.903	3097
820.043	2929
820.184	2918
820.324	2941
820.465	3013
820.605	3043
820.746	3032
820.886	2937
821.026	3097
821.167	3165
821.307	3249
821.447	3306
821.588	3275
821.728	3203
821.868	3226
822.008	3097
822.149	3203
822.289	3253
822.429	3116
822.569	3127
822.709	3226
822.849	3036
822.99	3081
823.13	3199
823.27	3199
823.41	3108
823.55	3165
823.69	3211
823.83	3184
823.97	3119
824.11	3047
824.25	2990
824.389	3097
824.529	3146
824.669	3085
824.809	3169
824.949	3287
825.089	3226
825.228	3157
825.368	3017
825.508	2963
825.648	2975
825.787	3043
825.927	3024
826.067	2975
826.206	2956
826.346	3062
826.485	3093
826.625	3146
826.765	3294
826.904	3199
827.044	2994
827.183	2948
827.323	2887
827.462	3005
827.601	2918
827.741	2971
827.88	2994
828.02	2845
828.159	2948
828.298	3043
828.437	3142
828.577	3009
828.716	3260
828.855	3100
828.994	2929
829.134	2906
829.273	2922
829.412	2857
829.551	2891
829.69	2895
829.829	3020
829.968	3138
830.107	3028
830.246	3013
830.385	2944
830.524	2922
830.663	2857
830.802	2762
830.941	2659
831.08	2648
831.219	2762
831.357	2788
831.496	2948
831.635	2746
831.774	2667
831.913	2678
832.051	2541
832.19	2602
832.329	2663
832.467	2568
832.606	2495
832.744	2587
832.883	2606
833.022	2598
833.16	2651
833.299	2727
833.437	2697
833.576	2697
833.714	2746
833.852	2735
833.991	2762
834.129	2872
834.267	2834
834.406	2777
834.544	2872
834.682	2883
834.821	2872
834.959	3047
835.097	2941
835.235	3085
835.373	3028
835.511	3055
835.65	2948
835.788	2979
835.926	2826
836.064	2823
836.202	2857
836.34	3104
836.478	3173
836.615	3066
836.753	3135
836.891	3222
837.029	3173
837.167	3100
837.305	3100
837.443	3020
837.58	2971
837.718	3127
837.856	3081
837.993	3047
838.131	3123
838.269	3097
838.406	3138
838.544	3066
838.681	2948
838.819	2933
838.956	2819
839.094	2834
839.231	2941
839.369	2998
839.506	3412
839.643	3226
839.781	3013
839.918	2975
840.055	3028
840.193	3070
840.33	3066
840.467	3089
840.604	3169
840.742	3420
840.879	3074
841.016	3036
841.153	3089
841.29	3325
841.427	3348
841.564	3279
841.701	3302
841.838	3226
841.975	3184
842.112	3214
842.249	3077
842.385	3017
842.522	3253
842.659	3104
842.796	3058
842.933	3089
843.069	3051
843.206	3017
843.343	3188
843.479	3150
843.616	3173
843.752	2941
843.889	2864
844.025	3100
844.162	2880
844.298	3112
844.435	2963
844.571	2963
844.708	3093
844.844	3176
844.98	3260
845.117	3207
845.253	3047
845.389	3032
845.525	3108
845.661	3119
845.798	3009
845.934	3154
846.07	3085
846.206	3214
846.342	3317
846.478	3226
846.614	3081
846.75	3036
846.886	3028
847.022	3283
847.158	3138
847.294	3211
847.429	3237
847.565	3188
847.701	3515
847.837	3043
847.972	2990
848.108	3119
848.244	3135
848.379	2963
848.515	2948
848.65	2902
848.786	2956
848.921	3013
849.057	3051
849.192	3135
849.328	3043
849.463	3135
849.598	3070
849.734	3032
849.869	2994
850.004	2967
850.14	2960
850.275	2933
850.41	2872
850.545	2880
850.68	2948
850.815	2971
850.95	2963
851.085	3230
851.22	3100
851.355	3017
851.49	2960
851.625	2986
851.76	3028
851.895	2922
852.03	2910
852.165	3074
852.299	3097
852.434	3173
852.569	3150
852.703	3176
852.838	3226
852.973	3332
853.107	3306
853.242	3154
853.376	3119
853.511	2952
853.645	3005
853.78	3226
853.914	3138
854.048	3108
854.183	3055
854.317	3150
854.451	3321
854.585	3089
854.72	3070
854.854	3222
854.988	3077
855.122	3104
855.256	3009
855.39	3081
855.524	3245
855.658	3211
855.792	3161
855.926	3203
856.06	3188
856.194	3226
856.327	3169
856.461	3097
856.595	3085
856.729	3100
856.862	3256
856.996	3131
857.13	3154
857.263	3241
857.397	3253
857.53	3135
857.664	3195
857.797	3256
857.931	3233
858.064	3173
858.197	3230
858.331	3150
858.464	3100
858.597	3001
858.731	3112
858.864	3119
858.997	3085
859.13	3119
859.263	3180
859.396	3199
859.529	3089
859.662	3077
859.795	3009
859.928	3154
860.061	3283
860.194	3272
860.327	3112
860.46	3093
860.592	3222
860.725	3222
860.858	3275
860.99	3074
861.123	3074
861.256	3024
861.388	3154
861.521	3835
861.653	2998
861.786	2963
861.918	3028
862.05	3066
862.183	3077
862.315	3150
862.447	3199
862.58	3097
862.712	2937
862.844	2910
862.976	3017
863.108	3009
863.24	3420
863.372	2899
863.504	2967
863.636	2944
863.768	3017
863.9	2963
864.032	2883
864.164	2922
864.296	3009
864.428	3081
864.559	3058
864.691	3043
864.823	3020
864.954	3036
865.086	3077
865.217	2982
865.349	2956
865.48	3009
865.612	3036
865.743	3173
865.875	2986
866.006	2929
866.137	2963
866.269	2944
866.4	2933
866.531	2960
866.662	2853
866.793	2906
866.924	2910
867.055	2948
867.186	2918
867.317	2853
867.448	2826
867.579	2838
867.71	2826
867.841	2819
867.972	2895
868.103	2883
868.233	2880
868.364	2876
868.495	2933
868.625	3047
868.756	3173
868.886	2982
869.017	3013
869.147	3123
869.278	3180
869.408	3043
869.539	3020
869.669	3127
869.799	3024
869.929	3150
870.06	3123
870.19	3302
870.32	3291
870.45	3306
870.58	3359
870.71	3420
870.84	3454
870.97	3279
871.1	3249
871.23	3523
871.36	3454
871.489	3340
871.619	3393
871.749	3416
871.879	3412
872.008	3496
872.138	3332
872.267	3260
872.397	3142
872.526	3116
872.656	2990
872.785	3070
872.915	3249
873.044	3302
873.173	3199
873.303	3241
873.432	3253
873.561	3272
873.69	3161
873.819	3146
873.948	3207
874.077	3112
874.206	3039
874.335	3085
874.464	3226
874.593	3370
874.722	3260
874.851	3420
874.979	3363
875.108	3287
875.237	3241
875.365	3161
875.494	3184
875.623	3226
875.751	3043
875.88	3116
876.008	3180
876.136	3203
876.265	3359
876.393	3504
876.521	3386
876.65	3382
876.778	3325
876.906	3245
877.034	3203
877.162	3207
877.29	3176
877.418	3237
877.546	3264
877.674	3260
877.802	3268
877.93	3211
878.058	3116
878.185	3097
878.313	3173
878.441	3207
878.568	3097
878.696	3135
878.824	3241
878.951	3298
879.079	3447
879.206	3637
879.333	3450
879.461	3325
879.588	3389
879.715	3469
879.842	3584
879.97	3374
880.097	3165
880.224	3081
880.351	3188
880.478	3211
880.605	3207
880.732	3203
880.859	3492
880.986	3294
881.112	3298
881.239	3188
881.366	3112
881.493	3009
881.619	2982
881.746	3066
881.872	3112
881.999	3173
882.125	3135
882.252	3253
882.378	3325
882.505	3424
882.631	3294
882.757	3146
882.883	3237
883.01	3226
883.136	3192
883.262	3104
883.388	3104
883.514	3306
883.64	3374
883.766	3291
883.892	3173
884.018	3222
884.143	3397
884.269	3526
884.395	3180
884.52	3180
884.646	3203
884.772	3131
884.897	3055
885.023	3222
885.148	3329
885.274	3405
885.399	3370
885.524	3310
885.65	3249
885.775	3279
885.9	3272
886.025	3397
886.15	3351
886.275	3279
886.4	3218
886.525	3302
886.65	3256
886.775	3275
886.9	3553
887.025	3591
887.149	3412
887.274	3245
887.399	3169
887.523	3199
887.648	3192
887.773	3195
887.897	3329
888.021	3382
888.146	3279
888.27	3405
888.395	3572
888.519	3443
888.643	3454
888.767	3477
888.891	3317
889.015	3222
889.139	3287
889.263	3249
889.387	3412
889.511	3519
889.635	3416
889.759	3302
889.883	3275
890.006	3412
890.13	3485
890.254	3268
890.377	3302
890.501	3222
890.624	3195
890.748	3283
890.871	3150
890.995	3116
891.118	3039
891.241	3226
891.364	3230
891.488	3279
891.611	3157
891.734	3211
891.857	3306
891.98	3253
892.103	3344
892.226	3218
892.349	3226
892.471	3150
892.594	3233
892.717	3294
892.839	3294
892.962	3253
893.085	3332
893.207	3306
893.33	3169
893.452	3245
893.575	3340
893.697	3249
893.819	3450
893.941	3466
894.064	3412
894.186	3226
894.308	3256
894.43	3416
894.552	3511
894.674	3454
894.796	3279
894.918	3321
895.04	3264
895.161	3405
895.283	3363
895.405	3275
895.526	3355
895.648	3420
895.769	3428
895.891	3469
896.012	3424
896.134	3458
896.255	3401
896.376	3355
896.498	3378
896.619	3401
896.74	3389
896.861	3405
896.982	3679
897.103	3850
897.224	3606
897.345	3496
897.466	3462
897.587	3500
897.708	3629
897.828	3523
897.949	3428
898.07	3283
898.19	3447
898.311	3606
898.431	3477
898.552	3523
898.672	3644
898.792	3538
898.913	3507
899.033	3424
899.153	3275
899.273	3226
899.393	3291
899.513	3310
899.633	3317
899.753	3321
899.873	3298
899.993	3359
900.113	3298
900.232	3409
900.352	3340
900.472	3302
900.591	3260
900.711	3310
900.83	3256
900.95	3424
901.069	3485
901.189	3355
901.308	3180
901.427	3138
901.546	3176
901.665	3313
901.784	3344
901.904	3241
902.023	3142
902.141	2971
902.26	2994
902.379	3104
902.498	3070
902.617	3036
902.735	3195
902.854	3237
902.973	3188
903.091	3051
903.21	3047
903.328	3104
903.446	3142
903.565	3070
903.683	3211
903.801	3127
903.919	3199
904.038	3313
904.156	3138
904.274	3260
904.392	3256
904.51	3268
904.627	3359
904.745	3450
904.863	3515
904.981	3249
905.098	3173
905.216	3192
905.334	3306
905.451	3306
905.569	3321
905.686	3374
905.803	3424
905.921	3325
906.038	3424
906.155	3332
906.272	3291
906.389	3325
906.506	3188
906.623	3256
906.74	3310
906.857	3180
906.974	3279
907.091	3435
907.208	3564
907.324	3462
907.441	3386
907.557	3268
907.674	3199
907.79	3188
907.907	3260
908.023	3401
908.139	3363
908.256	3359
908.372	3374
908.488	3332
908.604	3268
908.72	3214
908.836	3291
908.952	3245
909.068	3306
909.184	3500
909.3	3367
909.415	3481
909.531	3466
909.647	3249
909.762	3298
909.878	3253
909.993	3351
910.108	3321
910.224	3351
910.339	3431
910.454	3329
910.57	3287
910.685	3249
910.8	3610
910.915	3500
911.03	3393
911.145	3268
911.259	3294
911.374	3279
911.489	3230
911.604	3211
911.718	3104
911.833	3150
911.947	3028
912.062	2975
912.176	3184
912.291	3176
912.405	3245
912.519	3424
912.633	3507
912.748	3302
912.862	3294
912.976	3180
913.09	3055
913.204	3135
913.318	3207
913.431	3317
913.545	3291
913.659	3416
913.772	3313
913.886	3264
914	3249
914.113	3329
914.226	3348
914.34	3351
914.453	3226
914.566	3424
914.68	3279
914.793	3310
914.906	3123
915.019	3112
915.132	3070
915.245	3195
915.358	3199
915.47	3199
915.583	3264
915.696	3321
915.809	3431
915.921	3454
916.034	3272
916.146	3268
916.259	3211
916.371	3401
916.483	3363
916.595	3279
916.708	3336
916.82	3374
916.932	3321
917.044	3321
917.156	3367
917.268	3241
917.38	3306
917.491	3310
917.603	3397
917.715	3420
917.826	3454
917.938	3359
918.049	3294
918.161	3412
918.272	3603
918.384	3557
918.495	3466
918.606	3317
918.717	3272
918.828	3370
918.939	3370
919.05	3283
919.161	3378
919.272	3173
919.383	3291
919.494	3496
919.604	3709
919.715	3504
919.826	3401
919.936	3450
920.047	3564
920.157	3576
920.267	3762
920.378	3625
920.488	3584
920.598	3770
920.708	3949
920.818	3842
920.928	3797
921.038	4017
921.148	3949
921.258	3720
921.368	3641
921.477	3561
921.587	3561
921.697	3435
921.806	3618
921.916	3481
922.025	3378
922.134	3370
922.244	3302
922.353	3439
922.462	3306
922.571	3218
922.68	3138
922.789	3097
922.898	3135
923.007	3093
923.116	3165
923.224	3165
923.333	3192
923.442	3119
923.55	3097
923.659	3142
923.767	3195
923.876	3093
923.984	3211
924.092	3131
924.201	3207
924.309	3237
924.417	3253
924.525	3203
924.633	3218
924.741	4154
924.849	3028
924.956	3233
925.064	3089
925.172	3051
925.279	3066
925.387	3199
925.494	3192
925.602	3348
925.709	3351
925.816	3180
925.924	3275
926.031	3348
926.138	3313
926.245	3370
926.352	3264
926.459	3405
926.566	3439
926.673	3317
926.779	3245
926.886	3245
926.993	3169
927.099	3127
927.206	3100
927.312	3093
927.419	3222
927.525	3188
927.631	3325
927.737	3184
927.843	3116
927.95	2998
928.056	3157
928.162	3161
928.267	3241
928.373	3850
928.479	3298
928.585	3085
928.69	3218
928.796	3279
928.901	3165
929.007	3062
929.112	3195
929.218	3165
929.323	3138
929.428	3176
929.533	3329
929.638	3146
929.743	3146
929.848	3226
929.953	3218
930.058	3138
930.163	3013
930.267	3009
930.372	3192
930.477	3058
930.581	3336
930.685	3169
930.79	3081
930.894	3146
930.998	3085
931.103	3283
931.207	2975
931.311	2956
931.415	2933
931.519	2762
931.623	2853
