Data from test_V78500241_1008.txt Node
Date: Fri Mar 25 16:22:11 CST 2022
User: usil
Spectrometer: V785-0024
Trigger mode: 0
Integration Time (sec): 4.000000E-1
Scans to average: 1
Nonlinearity correction enabled: false
Boxcar width: 0
Storing dark spectrum: false
XAxis mode: Wavelengths
Number of Pixels in Spectrum: 1024
>>>>>Begin Spectral Data<<<<<
801.071	2929
801.214	2971
801.356	2922
801.499	2956
801.641	2906
801.783	2960
801.926	3062
802.068	3013
802.211	3009
802.353	3017
802.496	2982
802.638	3028
802.78	3043
802.923	3081
803.065	3005
803.208	2918
803.35	2914
803.492	2948
803.635	2941
803.777	2785
803.919	2883
804.061	3195
804.204	2956
804.346	2933
804.488	2857
804.63	3001
804.773	2906
804.915	2929
805.057	3066
805.199	2922
805.341	2975
805.483	3062
805.626	3005
805.768	2937
805.91	3108
806.052	3138
806.194	3066
806.336	3253
806.478	3074
806.62	2948
806.762	2956
806.904	3043
807.046	3112
807.188	3020
807.33	2891
807.472	2960
807.614	2922
807.756	2994
807.898	2937
808.04	2925
808.182	2952
808.324	2952
808.465	2861
808.607	2899
808.749	2804
808.891	2868
809.033	2998
809.174	2963
809.316	2933
809.458	2891
809.6	2804
809.741	2796
809.883	2762
810.025	2853
810.166	2838
810.308	2864
810.45	2891
810.591	2785
810.733	2773
810.875	2864
811.016	2785
811.158	2777
811.299	2819
811.441	2963
811.582	2902
811.724	2849
811.865	2826
812.007	2883
812.148	2887
812.29	2819
812.431	2902
812.573	2925
812.714	2982
812.855	3066
812.997	3039
813.138	3104
813.279	3013
813.421	3009
813.562	2910
813.703	2872
813.845	2902
813.986	2766
814.127	2731
814.268	2834
814.41	2880
814.551	2823
814.692	2914
814.833	2815
814.974	2891
815.115	2956
815.256	2834
815.397	2804
815.539	2899
815.68	2811
815.821	2811
815.962	2963
816.103	2944
816.244	2902
816.385	2857
816.526	2986
816.666	2906
816.807	2750
816.948	2895
817.089	2960
817.23	2842
817.371	2796
817.512	2807
817.653	2842
817.793	2811
817.934	2868
818.075	2986
818.216	2979
818.356	3020
818.497	2899
818.638	2819
818.778	2838
818.919	2834
819.06	2781
819.2	2895
819.341	2823
819.481	2792
819.622	2899
819.762	3104
819.903	3055
820.043	2956
820.184	2914
820.324	2914
820.465	3077
820.605	2998
820.746	3047
820.886	2925
821.026	3116
821.167	3180
821.307	3272
821.447	3275
821.588	3233
821.728	3214
821.868	3169
822.008	3093
822.149	3173
822.289	3207
822.429	3077
822.569	3081
822.709	3176
822.849	2998
822.99	3036
823.13	3173
823.27	3214
823.41	3116
823.55	3146
823.69	3146
823.83	3169
823.97	3138
824.11	3005
824.25	2994
824.389	3070
824.529	3097
824.669	3047
824.809	3203
824.949	3249
825.089	3199
825.228	3161
825.368	2994
825.508	2967
825.648	2975
825.787	2994
825.927	3024
826.067	2979
826.206	2975
826.346	3001
826.485	3062
826.625	3116
826.765	3302
826.904	3207
827.044	3005
827.183	2941
827.323	2887
827.462	3013
827.601	2872
827.741	2941
827.88	2975
828.02	2849
828.159	2937
828.298	3055
828.437	3119
828.577	3013
828.716	3233
828.855	3074
828.994	2891
829.134	2872
829.273	2914
829.412	2868
829.551	2857
829.69	2895
829.829	3013
829.968	3108
830.107	3013
830.246	3043
830.385	2925
830.524	2918
830.663	2777
830.802	2724
830.941	2659
831.08	2655
831.219	2754
831.357	2788
831.496	2956
831.635	2739
831.774	2632
831.913	2674
832.051	2514
832.19	2568
832.329	2678
832.467	2537
832.606	2484
832.744	2571
832.883	2579
833.022	2629
833.16	2659
833.299	2659
833.437	2693
833.576	2708
833.714	2708
833.852	2727
833.991	2716
834.129	2834
834.267	2815
834.406	2746
834.544	2849
834.682	2910
834.821	2857
834.959	3062
835.097	2902
835.235	3036
835.373	2998
835.511	2971
835.65	2960
835.788	2975
835.926	2857
836.064	2788
836.202	2853
836.34	3127
836.478	3161
836.615	3081
836.753	3112
836.891	3180
837.029	3176
837.167	3100
837.305	3074
837.443	3036
837.58	2929
837.718	3138
837.856	3055
837.993	2986
838.131	3058
838.269	3116
838.406	3100
838.544	3062
838.681	2922
838.819	2948
838.956	2811
839.094	2845
839.231	2887
839.369	3047
839.506	3317
839.643	3211
839.781	3032
839.918	2998
840.055	3058
840.193	3017
840.33	3093
840.467	3112
840.604	3188
840.742	3370
840.879	3036
841.016	3032
841.153	3116
841.29	3302
841.427	3287
841.564	3275
841.701	3298
841.838	3233
841.975	3173
842.112	3195
842.249	3047
842.385	3055
842.522	3249
842.659	3093
842.796	3047
842.933	3104
843.069	3024
843.206	3009
843.343	3203
843.479	3066
843.616	3154
843.752	2914
843.889	2857
844.025	3100
844.162	2849
844.298	3097
844.435	2979
844.571	2941
844.708	3089
844.844	3169
844.98	3256
845.117	3138
845.253	3070
845.389	3013
845.525	3066
845.661	3135
845.798	3013
845.934	3146
846.07	3062
846.206	3214
846.342	3332
846.478	3188
846.614	3077
846.75	3070
846.886	3043
847.022	3218
847.158	3116
847.294	3207
847.429	3222
847.565	3230
847.701	3435
847.837	3036
847.972	2986
848.108	3138
848.244	3135
848.379	3009
848.515	2937
848.65	2880
848.786	2963
848.921	3001
849.057	3127
849.192	3161
849.328	3062
849.463	3097
849.598	3036
849.734	3108
849.869	2994
850.004	2883
850.14	2933
850.275	2891
850.41	2807
850.545	2887
850.68	2941
850.815	2929
850.95	2963
851.085	3203
851.22	3112
851.355	2990
851.49	2982
851.625	3024
851.76	3020
851.895	2933
852.03	2925
852.165	3017
852.299	3104
852.434	3184
852.569	3173
852.703	3157
852.838	3218
852.973	3325
853.107	3321
853.242	3119
853.376	3123
853.511	2956
853.645	3036
853.78	3230
853.914	3169
854.048	3062
854.183	3062
854.317	3119
854.451	3294
854.585	3127
854.72	3070
854.854	3211
854.988	3047
855.122	3093
855.256	3020
855.39	3100
855.524	3226
855.658	3165
855.792	3146
855.926	3180
856.06	3195
856.194	3237
856.327	3161
856.461	3051
856.595	3100
856.729	3074
856.862	3199
856.996	3150
857.13	3199
857.263	3253
857.397	3260
857.53	3085
857.664	3211
857.797	3245
857.931	3218
858.064	3154
858.197	3214
858.331	3154
858.464	3116
858.597	3013
858.731	3093
858.864	3097
858.997	3066
859.13	3112
859.263	3169
859.396	3203
859.529	3089
859.662	3043
859.795	3070
859.928	3173
860.061	3256
860.194	3298
860.327	3127
860.46	3066
860.592	3245
860.725	3237
860.858	3279
860.99	3123
861.123	3055
861.256	3077
861.388	3116
861.521	3808
861.653	3017
861.786	2952
861.918	3005
862.05	3055
862.183	3081
862.315	3142
862.447	3161
862.58	3097
862.712	2960
862.844	2872
862.976	2986
863.108	2990
863.24	3412
863.372	2853
863.504	2971
863.636	2883
863.768	2979
863.9	2982
864.032	2891
864.164	2956
864.296	2994
864.428	3085
864.559	3142
864.691	3062
864.823	3074
864.954	2990
865.086	3043
865.217	2986
865.349	2971
865.48	2948
865.612	3024
865.743	3192
865.875	2986
866.006	2929
866.137	2967
866.269	2941
866.4	2944
866.531	2887
866.662	2891
866.793	2899
866.924	2918
867.055	2963
867.186	2925
867.317	2876
867.448	2861
867.579	2857
867.71	2842
867.841	2815
867.972	2899
868.103	2876
868.233	2895
868.364	2845
868.495	2902
868.625	3100
868.756	3157
868.886	2956
869.017	2994
869.147	3131
869.278	3157
869.408	3039
869.539	3017
869.669	3077
869.799	3005
869.929	3097
870.06	3089
870.19	3325
870.32	3287
870.45	3302
870.58	3355
870.71	3405
870.84	3431
870.97	3272
871.1	3249
871.23	3466
871.36	3443
871.489	3321
871.619	3378
871.749	3401
871.879	3443
872.008	3450
872.138	3332
872.267	3245
872.397	3138
872.526	3093
872.656	3009
872.785	3119
872.915	3230
873.044	3363
873.173	3195
873.303	3253
873.432	3230
873.561	3218
873.69	3135
873.819	3131
873.948	3165
874.077	3058
874.206	3024
874.335	3062
874.464	3230
874.593	3310
874.722	3264
874.851	3386
874.979	3332
875.108	3321
875.237	3154
875.365	3142
875.494	3131
875.623	3256
875.751	3074
875.88	3089
876.008	3173
876.136	3218
876.265	3378
876.393	3481
876.521	3424
876.65	3382
876.778	3321
876.906	3260
877.034	3211
877.162	3192
877.29	3135
877.418	3253
877.546	3233
877.674	3237
877.802	3241
877.93	3176
878.058	3135
878.185	3062
878.313	3184
878.441	3211
878.568	3070
878.696	3138
878.824	3195
878.951	3306
879.079	3424
879.206	3572
879.333	3477
879.461	3344
879.588	3329
879.715	3469
879.842	3622
879.97	3355
880.097	3176
880.224	3119
880.351	3173
880.478	3233
880.605	3154
880.732	3184
880.859	3447
880.986	3279
881.112	3298
881.239	3211
881.366	3108
881.493	3093
881.619	2998
881.746	3066
881.872	3070
881.999	3100
882.125	3192
882.252	3245
882.378	3272
882.505	3420
882.631	3272
882.757	3142
882.883	3176
883.01	3180
883.136	3157
883.262	3089
883.388	3131
883.514	3317
883.64	3340
883.766	3321
883.892	3180
884.018	3199
884.143	3386
884.269	3519
884.395	3199
884.52	3207
884.646	3173
884.772	3104
884.897	3081
885.023	3188
885.148	3329
885.274	3412
885.399	3344
885.524	3268
885.65	3264
885.775	3310
885.9	3272
886.025	3420
886.15	3359
886.275	3264
886.4	3214
886.525	3287
886.65	3275
886.775	3272
886.9	3519
887.025	3641
887.149	3367
887.274	3253
887.399	3161
887.523	3203
887.648	3169
887.773	3188
887.897	3359
888.021	3409
888.146	3291
888.27	3439
888.395	3523
888.519	3435
888.643	3424
888.767	3443
888.891	3291
889.015	3218
889.139	3264
889.263	3226
889.387	3409
889.511	3481
889.635	3435
889.759	3294
889.883	3268
890.006	3389
890.13	3488
890.254	3218
890.377	3363
890.501	3207
890.624	3188
890.748	3317
890.871	3161
890.995	3085
891.118	3066
891.241	3184
891.364	3195
891.488	3283
891.611	3173
891.734	3218
891.857	3272
891.98	3253
892.103	3325
892.226	3256
892.349	3241
892.471	3100
892.594	3233
892.717	3268
892.839	3260
892.962	3272
893.085	3351
893.207	3306
893.33	3142
893.452	3180
893.575	3355
893.697	3256
893.819	3431
893.941	3496
894.064	3424
894.186	3268
894.308	3291
894.43	3393
894.552	3542
894.674	3454
894.796	3268
894.918	3260
895.04	3294
895.161	3428
895.283	3386
895.405	3325
895.526	3351
895.648	3412
895.769	3420
895.891	3424
896.012	3466
896.134	3435
896.255	3439
896.376	3351
896.498	3348
896.619	3435
896.74	3317
896.861	3332
896.982	3663
897.103	3793
897.224	3595
897.345	3485
897.466	3409
897.587	3466
897.708	3622
897.828	3545
897.949	3416
898.07	3310
898.19	3393
898.311	3606
898.431	3462
898.552	3530
898.672	3606
898.792	3561
898.913	3496
899.033	3405
899.153	3264
899.273	3230
899.393	3275
899.513	3321
899.633	3291
899.753	3325
899.873	3302
899.993	3351
900.113	3302
900.232	3367
900.352	3321
900.472	3253
900.591	3199
900.711	3287
900.83	3226
900.95	3428
901.069	3462
901.189	3363
901.308	3165
901.427	3138
901.546	3169
901.665	3268
901.784	3336
901.904	3195
902.023	3165
902.141	2967
902.26	2967
902.379	3123
902.498	3077
902.617	3051
902.735	3176
902.854	3233
902.973	3173
903.091	3032
903.21	3036
903.328	3138
903.446	3108
903.565	3081
903.683	3195
903.801	3119
903.919	3253
904.038	3268
904.156	3188
904.274	3268
904.392	3275
904.51	3317
904.627	3275
904.745	3412
904.863	3511
904.981	3256
905.098	3146
905.216	3214
905.334	3268
905.451	3329
905.569	3336
905.686	3397
905.803	3420
905.921	3253
906.038	3393
906.155	3348
906.272	3291
906.389	3321
906.506	3214
906.623	3256
906.74	3260
906.857	3173
906.974	3245
907.091	3431
907.208	3511
907.324	3454
907.441	3389
907.557	3222
907.674	3226
907.79	3195
907.907	3310
908.023	3363
908.139	3370
908.256	3340
908.372	3370
908.488	3325
908.604	3256
908.72	3237
908.836	3272
908.952	3275
909.068	3367
909.184	3458
909.3	3420
909.415	3481
909.531	3454
909.647	3211
909.762	3245
909.878	3237
909.993	3367
910.108	3321
910.224	3325
910.339	3378
910.454	3329
910.57	3294
910.685	3230
910.8	3614
910.915	3500
911.03	3424
911.145	3256
911.259	3241
911.374	3317
911.489	3249
911.604	3237
911.718	3138
911.833	3123
911.947	3028
912.062	2982
912.176	3154
912.291	3180
912.405	3195
912.519	3409
912.633	3481
912.748	3348
912.862	3249
912.976	3161
913.09	3024
913.204	3142
913.318	3199
913.431	3317
913.545	3302
913.659	3401
913.772	3313
913.886	3214
914	3169
914.113	3367
914.226	3355
914.34	3382
914.453	3184
914.566	3367
914.68	3275
914.793	3321
914.906	3127
915.019	3081
915.132	3058
915.245	3165
915.358	3176
915.47	3214
915.583	3249
915.696	3283
915.809	3397
915.921	3386
916.034	3245
916.146	3218
916.259	3233
916.371	3382
916.483	3344
916.595	3279
916.708	3287
916.82	3340
916.932	3317
917.044	3367
917.156	3355
917.268	3260
917.38	3283
917.491	3264
917.603	3332
917.715	3439
917.826	3447
917.938	3374
918.049	3245
918.161	3412
918.272	3542
918.384	3572
918.495	3481
918.606	3351
918.717	3245
918.828	3325
918.939	3363
919.05	3306
919.161	3389
919.272	3169
919.383	3241
919.494	3466
919.604	3690
919.715	3504
919.826	3389
919.936	3424
920.047	3549
920.157	3534
920.267	3759
920.378	3622
920.488	3584
920.598	3785
920.708	3975
920.818	3857
920.928	3869
921.038	4029
921.148	4002
921.258	3720
921.368	3629
921.477	3576
921.587	3591
921.697	3488
921.806	3652
921.916	3561
922.025	3382
922.134	3405
922.244	3306
922.353	3492
922.462	3313
922.571	3260
922.68	3127
922.789	3119
922.898	3169
923.007	3150
923.116	3245
923.224	3218
923.333	3192
923.442	3119
923.55	3142
923.659	3184
923.767	3256
923.876	3157
923.984	3294
924.092	3127
924.201	3226
924.309	3256
924.417	3321
924.525	3214
924.633	3283
924.741	4192
924.849	3135
924.956	3291
925.064	3123
925.172	3074
925.279	3119
925.387	3226
925.494	3253
925.602	3386
925.709	3386
925.816	3237
925.924	3355
926.031	3420
926.138	3340
926.245	3397
926.352	3226
926.459	3458
926.566	3519
926.673	3344
926.779	3294
926.886	3298
926.993	3192
927.099	3173
927.206	3112
927.312	3161
927.419	3222
927.525	3207
927.631	3302
927.737	3184
927.843	3169
927.95	3043
928.056	3142
928.162	3192
928.267	3310
928.373	3876
928.479	3336
928.585	3093
928.69	3222
928.796	3283
928.901	3241
929.007	3093
929.112	3245
929.218	3253
929.323	3192
929.428	3199
929.533	3332
929.638	3188
929.743	3199
929.848	3321
929.953	3256
930.058	3184
930.163	3070
930.267	3085
930.372	3237
930.477	3051
930.581	3298
930.685	3192
930.79	3093
930.894	3135
930.998	3180
931.103	3321
931.207	3020
931.311	3017
931.415	2956
931.519	2792
931.623	2857
