Data from test_V78500241_1114.txt Node
Date: Fri Mar 25 16:22:55 CST 2022
User: usil
Spectrometer: V785-0024
Trigger mode: 0
Integration Time (sec): 4.000000E-1
Scans to average: 1
Nonlinearity correction enabled: false
Boxcar width: 0
Storing dark spectrum: false
XAxis mode: Wavelengths
Number of Pixels in Spectrum: 1024
>>>>>Begin Spectral Data<<<<<
801.071	2914
801.214	2948
801.356	2849
801.499	2876
801.641	2864
801.783	2902
801.926	3024
802.068	2967
802.211	2994
802.353	3024
802.496	2963
802.638	3005
802.78	3039
802.923	3066
803.065	3024
803.208	2887
803.35	2929
803.492	2918
803.635	2937
803.777	2777
803.919	2853
804.061	3207
804.204	2941
804.346	2914
804.488	2838
804.63	2986
804.773	2868
804.915	2895
805.057	3074
805.199	2910
805.341	2963
805.483	3028
805.626	3055
805.768	2956
805.91	3058
806.052	3116
806.194	3077
806.336	3245
806.478	3032
806.62	3005
806.762	2986
806.904	3058
807.046	3199
807.188	3005
807.33	2925
807.472	3017
807.614	2922
807.756	3020
807.898	2914
808.04	2895
808.182	2952
808.324	2960
808.465	2906
808.607	2872
808.749	2842
808.891	2861
809.033	2979
809.174	2990
809.316	2883
809.458	2876
809.6	2754
809.741	2792
809.883	2727
810.025	2872
810.166	2872
810.308	2838
810.45	2849
810.591	2766
810.733	2762
810.875	2876
811.016	2796
811.158	2781
811.299	2849
811.441	2944
811.582	2891
811.724	2842
811.865	2857
812.007	2918
812.148	2872
812.29	2834
812.431	2899
812.573	2941
812.714	2948
812.855	3058
812.997	3043
813.138	3123
813.279	2998
813.421	2975
813.562	2967
813.703	2883
813.845	2876
813.986	2758
814.127	2712
814.268	2811
814.41	2823
814.551	2823
814.692	2861
814.833	2842
814.974	2899
815.115	2967
815.256	2826
815.397	2823
815.539	2891
815.68	2811
815.821	2796
815.962	2952
816.103	2922
816.244	2906
816.385	2906
816.526	2963
816.666	2891
816.807	2762
816.948	2883
817.089	2906
817.23	2845
817.371	2754
817.512	2823
817.653	2819
817.793	2861
817.934	2906
818.075	2971
818.216	2975
818.356	2990
818.497	2891
818.638	2819
818.778	2823
818.919	2788
819.06	2758
819.2	2872
819.341	2811
819.481	2807
819.622	2937
819.762	3089
819.903	3024
820.043	2902
820.184	2883
820.324	2895
820.465	3013
820.605	3028
820.746	2986
820.886	2937
821.026	3070
821.167	3173
821.307	3249
821.447	3275
821.588	3237
821.728	3211
821.868	3199
822.008	3112
822.149	3199
822.289	3211
822.429	3093
822.569	3047
822.709	3157
822.849	2998
822.99	3074
823.13	3127
823.27	3173
823.41	3123
823.55	3142
823.69	3154
823.83	3165
823.97	3100
824.11	2956
824.25	2982
824.389	3081
824.529	3108
824.669	3043
824.809	3188
824.949	3222
825.089	3199
825.228	3142
825.368	3005
825.508	2960
825.648	2971
825.787	3055
825.927	3013
826.067	2956
826.206	2963
826.346	3055
826.485	3077
826.625	3077
826.765	3294
826.904	3226
827.044	3001
827.183	2982
827.323	2861
827.462	2982
827.601	2929
827.741	2963
827.88	2948
828.02	2868
828.159	2963
828.298	3024
828.437	3074
828.577	3070
828.716	3199
828.855	3074
828.994	2914
829.134	2887
829.273	2952
829.412	2849
829.551	2807
829.69	2902
829.829	2975
829.968	3112
830.107	3009
830.246	2998
830.385	2933
830.524	2864
830.663	2815
830.802	2716
830.941	2636
831.08	2667
831.219	2762
831.357	2746
831.496	2933
831.635	2724
831.774	2678
831.913	2632
832.051	2522
832.19	2579
832.329	2705
832.467	2514
832.606	2476
832.744	2571
832.883	2579
833.022	2564
833.16	2659
833.299	2693
833.437	2689
833.576	2686
833.714	2705
833.852	2746
833.991	2735
834.129	2830
834.267	2807
834.406	2807
834.544	2887
834.682	2906
834.821	2826
834.959	3032
835.097	2883
835.235	3047
835.373	2982
835.511	3024
835.65	2933
835.788	2952
835.926	2842
836.064	2785
836.202	2826
836.34	3093
836.478	3150
836.615	3055
836.753	3104
836.891	3230
837.029	3169
837.167	3131
837.305	3081
837.443	3024
837.58	2929
837.718	3146
837.856	3074
837.993	3020
838.131	3077
838.269	3093
838.406	3097
838.544	3074
838.681	2925
838.819	2918
838.956	2811
839.094	2823
839.231	2922
839.369	3005
839.506	3359
839.643	3214
839.781	3017
839.918	2979
840.055	3039
840.193	3055
840.33	3058
840.467	3089
840.604	3135
840.742	3351
840.879	3043
841.016	3032
841.153	3127
841.29	3397
841.427	3275
841.564	3245
841.701	3302
841.838	3211
841.975	3165
842.112	3207
842.249	3055
842.385	3039
842.522	3237
842.659	3066
842.796	3097
842.933	3100
843.069	3051
843.206	3009
843.343	3226
843.479	3097
843.616	3165
843.752	2899
843.889	2872
844.025	3077
844.162	2872
844.298	3081
844.435	2929
844.571	2925
844.708	3043
844.844	3195
844.98	3222
845.117	3195
845.253	3074
845.389	3005
845.525	3081
845.661	3104
845.798	3005
845.934	3154
846.07	3028
846.206	3214
846.342	3329
846.478	3211
846.614	3097
846.75	3089
846.886	3009
847.022	3233
847.158	3100
847.294	3176
847.429	3230
847.565	3253
847.701	3523
847.837	3062
847.972	3001
848.108	3173
848.244	3135
848.379	2982
848.515	2944
848.65	2910
848.786	2952
848.921	2994
849.057	3081
849.192	3116
849.328	3047
849.463	3085
849.598	3047
849.734	3024
849.869	3020
850.004	2937
850.14	2990
850.275	2929
850.41	2849
850.545	2876
850.68	2933
850.815	2963
850.95	2986
851.085	3184
851.22	3112
851.355	3024
851.49	2967
851.625	2982
851.76	3013
851.895	2960
852.03	2906
852.165	2990
852.299	3131
852.434	3203
852.569	3116
852.703	3203
852.838	3283
852.973	3336
853.107	3302
853.242	3119
853.376	3108
853.511	2990
853.645	3032
853.78	3253
853.914	3116
854.048	3097
854.183	3074
854.317	3150
854.451	3291
854.585	3150
854.72	3074
854.854	3180
854.988	3032
855.122	3077
855.256	2960
855.39	3112
855.524	3218
855.658	3142
855.792	3119
855.926	3173
856.06	3214
856.194	3230
856.327	3154
856.461	3062
856.595	3085
856.729	3093
856.862	3237
856.996	3169
857.13	3218
857.263	3207
857.397	3245
857.53	3112
857.664	3192
857.797	3211
857.931	3241
858.064	3176
858.197	3218
858.331	3089
858.464	3093
858.597	3020
858.731	3104
858.864	3127
858.997	3081
859.13	3104
859.263	3180
859.396	3161
859.529	3100
859.662	3047
859.795	3028
859.928	3150
860.061	3264
860.194	3253
860.327	3116
860.46	3077
860.592	3237
860.725	3241
860.858	3264
860.99	3093
861.123	3009
861.256	3039
861.388	3112
861.521	3713
861.653	3028
861.786	2979
861.918	2994
862.05	3055
862.183	3093
862.315	3116
862.447	3180
862.58	3085
862.712	2925
862.844	2876
862.976	3001
863.108	2998
863.24	3454
863.372	2864
863.504	2998
863.636	2971
863.768	3013
863.9	2990
864.032	2880
864.164	2914
864.296	2998
864.428	3062
864.559	3085
864.691	3074
864.823	3070
864.954	3028
865.086	3062
865.217	3001
865.349	2937
865.48	2967
865.612	2990
865.743	3142
865.875	2982
866.006	2960
866.137	2971
866.269	2967
866.4	2944
866.531	2887
866.662	2845
866.793	2902
866.924	2887
867.055	2975
867.186	2899
867.317	2826
867.448	2834
867.579	2876
867.71	2849
867.841	2766
867.972	2914
868.103	2906
868.233	2853
868.364	2853
868.495	2910
868.625	3081
868.756	3157
868.886	2948
869.017	3005
869.147	3192
869.278	3176
869.408	3058
869.539	3032
869.669	3097
869.799	3039
869.929	3127
870.06	3135
870.19	3329
870.32	3226
870.45	3306
870.58	3397
870.71	3447
870.84	3462
870.97	3287
871.1	3233
871.23	3485
871.36	3435
871.489	3302
871.619	3416
871.749	3363
871.879	3378
872.008	3450
872.138	3359
872.267	3302
872.397	3108
872.526	3066
872.656	2998
872.785	3089
872.915	3222
873.044	3306
873.173	3226
873.303	3245
873.432	3253
873.561	3211
873.69	3146
873.819	3138
873.948	3176
874.077	3097
874.206	3058
874.335	3100
874.464	3173
874.593	3336
874.722	3253
874.851	3370
874.979	3367
875.108	3329
875.237	3173
875.365	3119
875.494	3138
875.623	3226
875.751	3089
875.88	3123
876.008	3195
876.136	3218
876.265	3378
876.393	3519
876.521	3462
876.65	3405
876.778	3344
876.906	3230
877.034	3192
877.162	3253
877.29	3188
877.418	3253
877.546	3279
877.674	3222
877.802	3199
877.93	3233
878.058	3123
878.185	3100
878.313	3214
878.441	3184
878.568	3070
878.696	3154
878.824	3233
878.951	3275
879.079	3420
879.206	3625
879.333	3412
879.461	3351
879.588	3359
879.715	3511
879.842	3549
879.97	3405
880.097	3146
880.224	3108
880.351	3192
880.478	3268
880.605	3192
880.732	3188
880.859	3534
880.986	3313
881.112	3340
881.239	3161
881.366	3085
881.493	3039
881.619	3017
881.746	3074
881.872	3093
881.999	3116
882.125	3127
882.252	3241
882.378	3260
882.505	3481
882.631	3279
882.757	3173
882.883	3214
883.01	3169
883.136	3150
883.262	3093
883.388	3116
883.514	3245
883.64	3344
883.766	3272
883.892	3203
884.018	3203
884.143	3409
884.269	3542
884.395	3199
884.52	3173
884.646	3207
884.772	3119
884.897	3077
885.023	3218
885.148	3363
885.274	3389
885.399	3359
885.524	3272
885.65	3230
885.775	3313
885.9	3249
886.025	3439
886.15	3382
886.275	3325
886.4	3211
886.525	3275
886.65	3256
886.775	3272
886.9	3504
887.025	3633
887.149	3386
887.274	3275
887.399	3165
887.523	3199
887.648	3176
887.773	3203
887.897	3386
888.021	3382
888.146	3249
888.27	3435
888.395	3549
888.519	3405
888.643	3469
888.767	3454
888.891	3317
889.015	3245
889.139	3302
889.263	3256
889.387	3409
889.511	3485
889.635	3412
889.759	3294
889.883	3260
890.006	3359
890.13	3496
890.254	3306
890.377	3332
890.501	3226
890.624	3142
890.748	3272
890.871	3214
890.995	3070
891.118	3070
891.241	3199
891.364	3218
891.488	3332
891.611	3176
891.734	3237
891.857	3313
891.98	3222
892.103	3378
892.226	3279
892.349	3253
892.471	3104
892.594	3226
892.717	3287
892.839	3294
892.962	3294
893.085	3325
893.207	3306
893.33	3180
893.452	3188
893.575	3363
893.697	3264
893.819	3477
893.941	3538
894.064	3450
894.186	3260
894.308	3253
894.43	3409
894.552	3572
894.674	3492
894.796	3287
894.918	3291
895.04	3291
895.161	3428
895.283	3420
895.405	3283
895.526	3332
895.648	3420
895.769	3393
895.891	3431
896.012	3473
896.134	3469
896.255	3367
896.376	3401
896.498	3348
896.619	3416
896.74	3325
896.861	3378
896.982	3679
897.103	3842
897.224	3572
897.345	3507
897.466	3431
897.587	3492
897.708	3595
897.828	3568
897.949	3469
898.07	3332
898.19	3435
898.311	3576
898.431	3431
898.552	3519
898.672	3629
898.792	3572
898.913	3519
899.033	3424
899.153	3264
899.273	3222
899.393	3294
899.513	3313
899.633	3275
899.753	3351
899.873	3287
899.993	3359
900.113	3325
900.232	3382
900.352	3363
900.472	3264
900.591	3180
900.711	3291
900.83	3211
900.95	3401
901.069	3488
901.189	3340
901.308	3184
901.427	3112
901.546	3173
901.665	3287
901.784	3344
901.904	3192
902.023	3131
902.141	3036
902.26	3039
902.379	3146
902.498	3024
902.617	3066
902.735	3195
902.854	3214
902.973	3211
903.091	3039
903.21	3077
903.328	3116
903.446	3100
903.565	3100
903.683	3169
903.801	3108
903.919	3230
904.038	3291
904.156	3108
904.274	3291
904.392	3230
904.51	3310
904.627	3298
904.745	3420
904.863	3488
904.981	3302
905.098	3188
905.216	3226
905.334	3298
905.451	3332
905.569	3313
905.686	3401
905.803	3412
905.921	3306
906.038	3389
906.155	3367
906.272	3291
906.389	3310
906.506	3199
906.623	3275
906.74	3317
906.857	3195
906.974	3256
907.091	3428
907.208	3572
907.324	3450
907.441	3386
907.557	3264
907.674	3226
907.79	3226
907.907	3298
908.023	3355
908.139	3382
908.256	3363
908.372	3359
908.488	3325
908.604	3264
908.72	3241
908.836	3332
908.952	3237
909.068	3336
909.184	3485
909.3	3397
909.415	3458
909.531	3469
909.647	3237
909.762	3291
909.878	3218
909.993	3363
910.108	3340
910.224	3340
910.339	3382
910.454	3332
910.57	3283
910.685	3241
910.8	3610
910.915	3511
911.03	3424
911.145	3272
911.259	3264
911.374	3336
911.489	3230
911.604	3199
911.718	3093
911.833	3146
911.947	3032
912.062	3001
912.176	3161
912.291	3199
912.405	3184
912.519	3382
912.633	3439
912.748	3340
912.862	3260
912.976	3165
913.09	3081
913.204	3157
913.318	3180
913.431	3340
913.545	3313
913.659	3389
913.772	3370
913.886	3199
914	3192
914.113	3310
914.226	3428
914.34	3355
914.453	3199
914.566	3431
914.68	3279
914.793	3317
914.906	3142
915.019	3150
915.132	3097
915.245	3154
915.358	3211
915.47	3207
915.583	3249
915.696	3291
915.809	3412
915.921	3363
916.034	3264
916.146	3245
916.259	3230
916.371	3348
916.483	3332
916.595	3253
916.708	3344
916.82	3279
916.932	3336
917.044	3374
917.156	3355
917.268	3241
917.38	3275
917.491	3260
917.603	3405
917.715	3466
917.826	3435
917.938	3363
918.049	3264
918.161	3428
918.272	3561
918.384	3557
918.495	3496
918.606	3313
918.717	3302
918.828	3359
918.939	3401
919.05	3279
919.161	3409
919.272	3207
919.383	3268
919.494	3530
919.604	3686
919.715	3447
919.826	3389
919.936	3416
920.047	3614
920.157	3538
920.267	3747
920.378	3568
920.488	3595
920.598	3732
920.708	3983
920.818	3804
920.928	3812
921.038	4044
921.148	3945
921.258	3705
921.368	3595
921.477	3538
921.587	3507
921.697	3492
921.806	3591
921.916	3549
922.025	3367
922.134	3363
922.244	3298
922.353	3435
922.462	3283
922.571	3203
922.68	3108
922.789	3100
922.898	3173
923.007	3077
923.116	3203
923.224	3188
923.333	3165
923.442	3097
923.55	3116
923.659	3150
923.767	3237
923.876	3108
923.984	3184
924.092	3085
924.201	3218
924.309	3222
924.417	3253
924.525	3169
924.633	3233
924.741	4006
924.849	3043
924.956	3283
925.064	3077
925.172	2998
925.279	3093
925.387	3211
925.494	3188
925.602	3355
925.709	3351
925.816	3161
925.924	3310
926.031	3363
926.138	3294
926.245	3382
926.352	3253
926.459	3393
926.566	3469
926.673	3325
926.779	3249
926.886	3249
926.993	3146
927.099	3131
927.206	3108
927.312	3138
927.419	3230
927.525	3230
927.631	3272
927.737	3157
927.843	3135
927.95	2986
928.056	3142
928.162	3161
928.267	3218
928.373	3876
928.479	3287
928.585	3055
928.69	3195
928.796	3287
928.901	3146
929.007	3013
929.112	3207
929.218	3146
929.323	3104
929.428	3165
929.533	3321
929.638	3127
929.743	3169
929.848	3237
929.953	3188
930.058	3100
930.163	3009
930.267	3058
930.372	3188
930.477	3032
930.581	3321
930.685	3169
930.79	2990
930.894	3116
930.998	3066
931.103	3260
931.207	2952
931.311	2937
931.415	2914
931.519	2758
931.623	2811
