Data from test_V78500241_1441.txt Node
Date: Fri Mar 25 16:25:11 CST 2022
User: usil
Spectrometer: V785-0024
Trigger mode: 0
Integration Time (sec): 4.000000E-1
Scans to average: 1
Nonlinearity correction enabled: false
Boxcar width: 0
Storing dark spectrum: false
XAxis mode: Wavelengths
Number of Pixels in Spectrum: 1024
>>>>>Begin Spectral Data<<<<<
801.071	2902
801.214	2948
801.356	2861
801.499	2902
801.641	2861
801.783	2895
801.926	3043
802.068	3028
802.211	3001
802.353	3017
802.496	2941
802.638	3017
802.78	3051
802.923	3066
803.065	2971
803.208	2876
803.35	2902
803.492	2944
803.635	2914
803.777	2758
803.919	2891
804.061	3184
804.204	2941
804.346	2861
804.488	2811
804.63	2994
804.773	2842
804.915	2902
805.057	3077
805.199	2910
805.341	2944
805.483	3036
805.626	2994
805.768	2922
805.91	3047
806.052	3074
806.194	3036
806.336	3188
806.478	2990
806.62	2918
806.762	2986
806.904	3081
807.046	3100
807.188	2986
807.33	2895
807.472	3009
807.614	2941
807.756	2952
807.898	2937
808.04	2899
808.182	2975
808.324	2963
808.465	2868
808.607	2891
808.749	2823
808.891	2849
809.033	2944
809.174	2933
809.316	2883
809.458	2876
809.6	2773
809.741	2712
809.883	2754
810.025	2834
810.166	2857
810.308	2849
810.45	2849
810.591	2758
810.733	2724
810.875	2838
811.016	2807
811.158	2766
811.299	2769
811.441	2883
811.582	2899
811.724	2819
811.865	2838
812.007	2922
812.148	2895
812.29	2864
812.431	2880
812.573	2944
812.714	2925
812.855	2994
812.997	3081
813.138	3119
813.279	3051
813.421	2960
813.562	2967
813.703	2864
813.845	2918
813.986	2800
814.127	2735
814.268	2777
814.41	2834
814.551	2807
814.692	2842
814.833	2796
814.974	2887
815.115	2948
815.256	2834
815.397	2800
815.539	2883
815.68	2788
815.821	2796
815.962	2963
816.103	2922
816.244	2853
816.385	2883
816.526	2982
816.666	2899
816.807	2762
816.948	2910
817.089	2891
817.23	2845
817.371	2777
817.512	2777
817.653	2834
817.793	2796
817.934	2880
818.075	2963
818.216	2971
818.356	3024
818.497	2876
818.638	2758
818.778	2853
818.919	2766
819.06	2766
819.2	2910
819.341	2785
819.481	2811
819.622	2944
819.762	3077
819.903	3020
820.043	2918
820.184	2918
820.324	2906
820.465	2986
820.605	3028
820.746	3058
820.886	2918
821.026	3138
821.167	3154
821.307	3241
821.447	3268
821.588	3207
821.728	3188
821.868	3180
822.008	3058
822.149	3173
822.289	3207
822.429	3066
822.569	3119
822.709	3188
822.849	2998
822.99	3043
823.13	3154
823.27	3184
823.41	3123
823.55	3085
823.69	3127
823.83	3199
823.97	3085
824.11	3024
824.25	2975
824.389	3043
824.529	3055
824.669	3055
824.809	3169
824.949	3256
825.089	3211
825.228	3165
825.368	3024
825.508	2956
825.648	2975
825.787	3032
825.927	2956
826.067	2963
826.206	2956
826.346	3017
826.485	3066
826.625	3127
826.765	3283
826.904	3211
827.044	2952
827.183	2929
827.323	2902
827.462	2975
827.601	2906
827.741	2937
827.88	2948
828.02	2853
828.159	2933
828.298	2998
828.437	3097
828.577	3036
828.716	3264
828.855	3055
828.994	2948
829.134	2910
829.273	2948
829.412	2910
829.551	2796
829.69	2899
829.829	2937
829.968	3112
830.107	2986
830.246	3039
830.385	2880
830.524	2891
830.663	2823
830.802	2727
830.941	2644
831.08	2602
831.219	2781
831.357	2746
831.496	2914
831.635	2682
831.774	2648
831.913	2667
832.051	2511
832.19	2556
832.329	2705
832.467	2541
832.606	2484
832.744	2568
832.883	2587
833.022	2606
833.16	2632
833.299	2682
833.437	2697
833.576	2697
833.714	2693
833.852	2750
833.991	2712
834.129	2815
834.267	2857
834.406	2766
834.544	2868
834.682	2849
834.821	2830
834.959	3058
835.097	2899
835.235	3039
835.373	2990
835.511	3020
835.65	3009
835.788	2967
835.926	2792
836.064	2785
836.202	2864
836.34	3081
836.478	3127
836.615	3070
836.753	3077
836.891	3230
837.029	3119
837.167	3108
837.305	3032
837.443	3058
837.58	2979
837.718	3150
837.856	3089
837.993	3024
838.131	3112
838.269	3093
838.406	3100
838.544	3093
838.681	2975
838.819	2918
838.956	2811
839.094	2823
839.231	2922
839.369	3036
839.506	3344
839.643	3203
839.781	3043
839.918	2948
840.055	3043
840.193	3055
840.33	3036
840.467	3066
840.604	3211
840.742	3397
840.879	3039
841.016	3066
841.153	3104
841.29	3370
841.427	3294
841.564	3264
841.701	3291
841.838	3195
841.975	3161
842.112	3199
842.249	3058
842.385	3085
842.522	3237
842.659	3089
842.796	3093
842.933	3135
843.069	3039
843.206	3047
843.343	3218
843.479	3089
843.616	3112
843.752	2914
843.889	2895
844.025	3077
844.162	2876
844.298	3077
844.435	2960
844.571	2899
844.708	3081
844.844	3161
844.98	3233
845.117	3180
845.253	3039
845.389	3013
845.525	3112
845.661	3077
845.798	3001
845.934	3123
846.07	3028
846.206	3233
846.342	3348
846.478	3211
846.614	3093
846.75	3062
846.886	2986
847.022	3268
847.158	3123
847.294	3222
847.429	3214
847.565	3226
847.701	3477
847.837	3028
847.972	3005
848.108	3138
848.244	3119
848.379	2956
848.515	2891
848.65	2887
848.786	2925
848.921	3017
849.057	3116
849.192	3154
849.328	3074
849.463	3066
849.598	3013
849.734	3032
849.869	2944
850.004	2899
850.14	2971
850.275	2910
850.41	2815
850.545	2861
850.68	2929
850.815	2941
850.95	2941
851.085	3188
851.22	3100
851.355	3047
851.49	2952
851.625	2990
851.76	3024
851.895	2929
852.03	2895
852.165	3020
852.299	3123
852.434	3169
852.569	3116
852.703	3184
852.838	3222
852.973	3329
853.107	3336
853.242	3104
853.376	3070
853.511	2990
853.645	3032
853.78	3214
853.914	3108
854.048	3108
854.183	3104
854.317	3176
854.451	3306
854.585	3116
854.72	3070
854.854	3237
854.988	3051
855.122	3074
855.256	2971
855.39	3116
855.524	3199
855.658	3222
855.792	3165
855.926	3169
856.06	3211
856.194	3249
856.327	3131
856.461	3062
856.595	3085
856.729	3089
856.862	3207
856.996	3161
857.13	3222
857.263	3207
857.397	3237
857.53	3127
857.664	3222
857.797	3214
857.931	3214
858.064	3135
858.197	3226
858.331	3116
858.464	3077
858.597	2979
858.731	3138
858.864	3154
858.997	3089
859.13	3165
859.263	3195
859.396	3218
859.529	3116
859.662	3058
859.795	3074
859.928	3104
860.061	3256
860.194	3256
860.327	3104
860.46	3116
860.592	3226
860.725	3233
860.858	3260
860.99	3108
861.123	3036
861.256	3085
861.388	3123
861.521	3857
861.653	2994
861.786	2960
861.918	2979
862.05	3043
862.183	3089
862.315	3157
862.447	3173
862.58	3089
862.712	2925
862.844	2891
862.976	2986
863.108	3017
863.24	3321
863.372	2857
863.504	2956
863.636	2963
863.768	3085
863.9	2937
864.032	2880
864.164	2944
864.296	3005
864.428	3062
864.559	3077
864.691	3066
864.823	3036
864.954	3039
865.086	3032
865.217	2994
865.349	2960
865.48	2990
865.612	3013
865.743	3123
865.875	2986
866.006	2960
866.137	2941
866.269	2895
866.4	2929
866.531	2914
866.662	2906
866.793	2891
866.924	2922
867.055	2994
867.186	2941
867.317	2861
867.448	2883
867.579	2880
867.71	2838
867.841	2834
867.972	2883
868.103	2872
868.233	2895
868.364	2853
868.495	2887
868.625	3062
868.756	3154
868.886	2979
869.017	3009
869.147	3180
869.278	3180
869.408	3032
869.539	3017
869.669	3116
869.799	3024
869.929	3150
870.06	3104
870.19	3317
870.32	3287
870.45	3294
870.58	3409
870.71	3473
870.84	3428
870.97	3287
871.1	3207
871.23	3450
871.36	3443
871.489	3336
871.619	3378
871.749	3412
871.879	3397
872.008	3439
872.138	3382
872.267	3264
872.397	3131
872.526	3093
872.656	3009
872.785	3100
872.915	3192
873.044	3306
873.173	3241
873.303	3207
873.432	3237
873.561	3211
873.69	3127
873.819	3146
873.948	3119
874.077	3074
874.206	3051
874.335	3070
874.464	3211
874.593	3317
874.722	3199
874.851	3397
874.979	3367
875.108	3340
875.237	3188
875.365	3161
875.494	3157
875.623	3268
875.751	3043
875.88	3093
876.008	3138
876.136	3203
876.265	3329
876.393	3462
876.521	3424
876.65	3351
876.778	3298
876.906	3256
877.034	3203
877.162	3214
877.29	3176
877.418	3226
877.546	3245
877.674	3249
877.802	3245
877.93	3241
878.058	3135
878.185	3112
878.313	3199
878.441	3184
878.568	3097
878.696	3119
878.824	3291
878.951	3256
879.079	3439
879.206	3622
879.333	3458
879.461	3340
879.588	3344
879.715	3477
879.842	3553
879.97	3382
880.097	3165
880.224	3123
880.351	3180
880.478	3211
880.605	3150
880.732	3173
880.859	3507
880.986	3249
881.112	3325
881.239	3211
881.366	3085
881.493	3013
881.619	3005
881.746	3047
881.872	3085
881.999	3097
882.125	3100
882.252	3275
882.378	3260
882.505	3435
882.631	3298
882.757	3135
882.883	3218
883.01	3218
883.136	3176
883.262	3074
883.388	3116
883.514	3310
883.64	3348
883.766	3287
883.892	3207
884.018	3249
884.143	3420
884.269	3564
884.395	3211
884.52	3123
884.646	3127
884.772	3112
884.897	3077
885.023	3207
885.148	3317
885.274	3405
885.399	3389
885.524	3256
885.65	3233
885.775	3230
885.9	3310
886.025	3431
886.15	3359
886.275	3306
886.4	3268
886.525	3291
886.65	3260
886.775	3275
886.9	3473
887.025	3614
887.149	3378
887.274	3211
887.399	3188
887.523	3218
887.648	3207
887.773	3192
887.897	3374
888.021	3401
888.146	3287
888.27	3420
888.395	3515
888.519	3420
888.643	3409
888.767	3462
888.891	3283
889.015	3245
889.139	3275
889.263	3241
889.387	3397
889.511	3542
889.635	3420
889.759	3294
889.883	3283
890.006	3386
890.13	3492
890.254	3264
890.377	3313
890.501	3211
890.624	3195
890.748	3287
890.871	3150
890.995	3112
891.118	3039
891.241	3222
891.364	3214
891.488	3291
891.611	3207
891.734	3207
891.857	3310
891.98	3226
892.103	3321
892.226	3230
892.349	3173
892.471	3104
892.594	3218
892.717	3279
892.839	3264
892.962	3329
893.085	3306
893.207	3325
893.33	3104
893.452	3154
893.575	3340
893.697	3268
893.819	3420
893.941	3511
894.064	3454
894.186	3222
894.308	3256
894.43	3393
894.552	3557
894.674	3469
894.796	3245
894.918	3298
895.04	3306
895.161	3443
895.283	3393
895.405	3272
895.526	3374
895.648	3409
895.769	3405
895.891	3443
896.012	3458
896.134	3424
896.255	3405
896.376	3351
896.498	3336
896.619	3420
896.74	3355
896.861	3325
896.982	3698
897.103	3797
897.224	3568
897.345	3507
897.466	3397
897.587	3477
897.708	3599
897.828	3526
897.949	3431
898.07	3325
898.19	3401
898.311	3625
898.431	3401
898.552	3496
898.672	3568
898.792	3587
898.913	3553
899.033	3374
899.153	3253
899.273	3233
899.393	3279
899.513	3310
899.633	3336
899.753	3294
899.873	3287
899.993	3317
900.113	3291
900.232	3409
900.352	3348
900.472	3253
900.591	3260
900.711	3241
900.83	3226
900.95	3401
901.069	3488
901.189	3359
901.308	3173
901.427	3108
901.546	3169
901.665	3291
901.784	3332
901.904	3176
902.023	3131
902.141	2979
902.26	2971
902.379	3135
902.498	3043
902.617	3028
902.735	3154
902.854	3188
902.973	3165
903.091	3017
903.21	3055
903.328	3161
903.446	3108
903.565	3081
903.683	3203
903.801	3093
903.919	3222
904.038	3291
904.156	3142
904.274	3268
904.392	3253
904.51	3279
904.627	3268
904.745	3363
904.863	3515
904.981	3199
905.098	3157
905.216	3241
905.334	3287
905.451	3306
905.569	3291
905.686	3416
905.803	3401
905.921	3287
906.038	3443
906.155	3344
906.272	3253
906.389	3302
906.506	3233
906.623	3275
906.74	3268
906.857	3222
906.974	3264
907.091	3447
907.208	3580
907.324	3477
907.441	3389
907.557	3245
907.674	3275
907.79	3211
907.907	3283
908.023	3397
908.139	3389
908.256	3329
908.372	3412
908.488	3355
908.604	3329
908.72	3291
908.836	3283
908.952	3294
909.068	3374
909.184	3534
909.3	3443
909.415	3530
909.531	3534
909.647	3298
909.762	3332
909.878	3310
909.993	3370
910.108	3363
910.224	3355
910.339	3439
910.454	3344
910.57	3348
910.685	3260
910.8	3606
910.915	3580
911.03	3435
911.145	3313
911.259	3291
911.374	3359
911.489	3256
911.604	3260
911.718	3146
911.833	3165
911.947	3058
912.062	3024
912.176	3184
912.291	3241
912.405	3260
912.519	3473
912.633	3538
912.748	3374
912.862	3283
912.976	3184
913.09	3097
913.204	3176
913.318	3256
913.431	3405
913.545	3393
913.659	3458
913.772	3351
913.886	3253
914	3302
914.113	3412
914.226	3450
914.34	3412
914.453	3264
914.566	3443
914.68	3310
914.793	3393
914.906	3207
915.019	3161
915.132	3100
915.245	3211
915.358	3253
915.47	3222
915.583	3317
915.696	3336
915.809	3469
915.921	3466
916.034	3310
916.146	3310
916.259	3233
916.371	3428
916.483	3397
916.595	3306
916.708	3386
916.82	3348
916.932	3374
917.044	3344
917.156	3397
917.268	3291
917.38	3325
917.491	3367
917.603	3401
917.715	3492
917.826	3488
917.938	3412
918.049	3313
918.161	3466
918.272	3584
918.384	3633
918.495	3538
918.606	3386
918.717	3340
918.828	3424
918.939	3443
919.05	3321
919.161	3367
919.272	3169
919.383	3321
919.494	3515
919.604	3724
919.715	3485
919.826	3439
919.936	3504
920.047	3652
920.157	3603
920.267	3835
920.378	3637
920.488	3610
920.598	3831
920.708	3968
920.818	3873
920.928	3869
921.038	4078
921.148	3968
921.258	3755
921.368	3652
921.477	3580
921.587	3568
921.697	3511
921.806	3671
921.916	3523
922.025	3393
922.134	3397
922.244	3393
922.353	3424
922.462	3329
922.571	3199
922.68	3150
922.789	3100
922.898	3176
923.007	3100
923.116	3237
923.224	3218
923.333	3195
923.442	3142
923.55	3108
923.659	3157
923.767	3249
923.876	3123
923.984	3283
924.092	3138
924.201	3157
924.309	3253
924.417	3260
924.525	3192
924.633	3302
924.741	4177
924.849	3097
924.956	3275
925.064	3127
925.172	3104
925.279	3127
925.387	3237
925.494	3249
925.602	3378
925.709	3344
925.816	3218
925.924	3317
926.031	3409
926.138	3363
926.245	3367
926.352	3268
926.459	3454
926.566	3492
926.673	3336
926.779	3306
926.886	3279
926.993	3161
927.099	3138
927.206	3176
927.312	3138
927.419	3260
927.525	3211
927.631	3294
927.737	3157
927.843	3169
927.95	3062
928.056	3173
928.162	3226
928.267	3218
928.373	3934
928.479	3348
928.585	3093
928.69	3245
928.796	3329
928.901	3203
929.007	3058
929.112	3287
929.218	3214
929.323	3203
929.428	3192
929.533	3393
929.638	3169
929.743	3173
929.848	3298
929.953	3214
930.058	3203
930.163	3005
930.267	3066
930.372	3230
930.477	3089
930.581	3340
930.685	3218
930.79	3062
930.894	3135
930.998	3100
931.103	3302
931.207	3017
931.311	2948
931.415	2922
931.519	2804
931.623	2819
