Data from test_V78500241_127.txt Node
Date: Fri Mar 25 16:16:05 CST 2022
User: usil
Spectrometer: V785-0024
Trigger mode: 0
Integration Time (sec): 4.000000E-1
Scans to average: 1
Nonlinearity correction enabled: false
Boxcar width: 0
Storing dark spectrum: false
XAxis mode: Wavelengths
Number of Pixels in Spectrum: 1024
>>>>>Begin Spectral Data<<<<<
801.071	2922
801.214	2982
801.356	2929
801.499	2922
801.641	2853
801.783	2929
801.926	3070
802.068	2990
802.211	3009
802.353	3077
802.496	3001
802.638	3017
802.78	3020
802.923	3081
803.065	2990
803.208	2887
803.35	2910
803.492	2971
803.635	2929
803.777	2758
803.919	2910
804.061	3222
804.204	2967
804.346	2906
804.488	2864
804.63	3028
804.773	2857
804.915	2929
805.057	3047
805.199	2902
805.341	3009
805.483	3051
805.626	3028
805.768	2960
805.91	3123
806.052	3123
806.194	3055
806.336	3275
806.478	3036
806.62	2975
806.762	2982
806.904	3062
807.046	3150
807.188	2986
807.33	2937
807.472	3005
807.614	2918
807.756	2948
807.898	2914
808.04	2883
808.182	2986
808.324	2952
808.465	2895
808.607	2876
808.749	2830
808.891	2842
809.033	3001
809.174	2956
809.316	2944
809.458	2922
809.6	2777
809.741	2773
809.883	2758
810.025	2849
810.166	2857
810.308	2842
810.45	2876
810.591	2830
810.733	2766
810.875	2864
811.016	2785
811.158	2750
811.299	2811
811.441	2963
811.582	2861
811.724	2849
811.865	2849
812.007	2902
812.148	2845
812.29	2902
812.431	2895
812.573	2925
812.714	2975
812.855	3085
812.997	3039
813.138	3104
813.279	3009
813.421	2994
813.562	2994
813.703	2883
813.845	2906
813.986	2788
814.127	2739
814.268	2826
814.41	2849
814.551	2781
814.692	2880
814.833	2800
814.974	2891
815.115	2963
815.256	2853
815.397	2815
815.539	2834
815.68	2781
815.821	2823
815.962	2922
816.103	2918
816.244	2868
816.385	2887
816.526	2967
816.666	2956
816.807	2800
816.948	2891
817.089	2891
817.23	2899
817.371	2826
817.512	2811
817.653	2807
817.793	2842
817.934	2906
818.075	2975
818.216	2967
818.356	3028
818.497	2922
818.638	2796
818.778	2830
818.919	2807
819.06	2750
819.2	2910
819.341	2807
819.481	2834
819.622	2929
819.762	3089
819.903	3032
820.043	2941
820.184	2925
820.324	2929
820.465	3020
820.605	3081
820.746	3047
820.886	2960
821.026	3123
821.167	3142
821.307	3237
821.447	3306
821.588	3249
821.728	3184
821.868	3226
822.008	3085
822.149	3203
822.289	3230
822.429	3104
822.569	3077
822.709	3157
822.849	3020
822.99	3077
823.13	3176
823.27	3218
823.41	3157
823.55	3180
823.69	3169
823.83	3218
823.97	3127
824.11	3005
824.25	2990
824.389	3081
824.529	3093
824.669	3108
824.809	3184
824.949	3275
825.089	3237
825.228	3154
825.368	3036
825.508	2990
825.648	2979
825.787	3055
825.927	3032
826.067	2971
826.206	2967
826.346	3104
826.485	3104
826.625	3104
826.765	3249
826.904	3226
827.044	2982
827.183	2963
827.323	2887
827.462	2986
827.601	2925
827.741	2902
827.88	2971
828.02	2880
828.159	2986
828.298	3043
828.437	3127
828.577	3055
828.716	3249
828.855	3081
828.994	2948
829.134	2872
829.273	2948
829.412	2842
829.551	2887
829.69	2929
829.829	3001
829.968	3127
830.107	3020
830.246	3047
830.385	2914
830.524	2925
830.663	2826
830.802	2746
830.941	2674
831.08	2632
831.219	2750
831.357	2792
831.496	2952
831.635	2754
831.774	2636
831.913	2705
832.051	2552
832.19	2587
832.329	2697
832.467	2511
832.606	2495
832.744	2617
832.883	2613
833.022	2606
833.16	2697
833.299	2693
833.437	2701
833.576	2693
833.714	2720
833.852	2769
833.991	2758
834.129	2849
834.267	2811
834.406	2769
834.544	2876
834.682	2895
834.821	2845
834.959	3081
835.097	2906
835.235	3066
835.373	3028
835.511	3001
835.65	3013
835.788	2952
835.926	2861
836.064	2830
836.202	2899
836.34	3062
836.478	3157
836.615	3093
836.753	3131
836.891	3211
837.029	3150
837.167	3165
837.305	3062
837.443	3028
837.58	3013
837.718	3127
837.856	3043
837.993	3051
838.131	3097
838.269	3108
838.406	3135
838.544	3070
838.681	2971
838.819	2910
838.956	2804
839.094	2838
839.231	2891
839.369	3039
839.506	3386
839.643	3245
839.781	3028
839.918	2979
840.055	3108
840.193	3036
840.33	3051
840.467	3081
840.604	3169
840.742	3378
840.879	3066
841.016	3070
841.153	3131
841.29	3336
841.427	3321
841.564	3275
841.701	3298
841.838	3199
841.975	3176
842.112	3192
842.249	3066
842.385	3070
842.522	3272
842.659	3074
842.796	3085
842.933	3097
843.069	3032
843.206	3047
843.343	3173
843.479	3100
843.616	3138
843.752	2899
843.889	2868
844.025	3093
844.162	2895
844.298	3097
844.435	2956
844.571	2918
844.708	3093
844.844	3249
844.98	3249
845.117	3230
845.253	3085
845.389	3001
845.525	3112
845.661	3127
845.798	3020
845.934	3123
846.07	3051
846.206	3214
846.342	3313
846.478	3264
846.614	3119
846.75	3051
846.886	3036
847.022	3264
847.158	3165
847.294	3233
847.429	3283
847.565	3226
847.701	3557
847.837	3066
847.972	3051
848.108	3188
848.244	3180
848.379	3001
848.515	3001
848.65	2944
848.786	2963
848.921	3043
849.057	3135
849.192	3203
849.328	3081
849.463	3157
849.598	3119
849.734	3074
849.869	3013
850.004	2975
850.14	3055
850.275	2963
850.41	2895
850.545	2925
850.68	2979
850.815	2982
850.95	3047
851.085	3241
851.22	3161
851.355	3081
851.49	2975
851.625	3039
851.76	3081
851.895	2975
852.03	2952
852.165	3108
852.299	3184
852.434	3241
852.569	3192
852.703	3222
852.838	3302
852.973	3409
853.107	3401
853.242	3233
853.376	3173
853.511	2998
853.645	3097
853.78	3340
853.914	3142
854.048	3180
854.183	3150
854.317	3207
854.451	3386
854.585	3184
854.72	3188
854.854	3313
854.988	3112
855.122	3157
855.256	3032
855.39	3176
855.524	3272
855.658	3226
855.792	3203
855.926	3237
856.06	3279
856.194	3321
856.327	3222
856.461	3108
856.595	3173
856.729	3157
856.862	3283
856.996	3241
857.13	3237
857.263	3287
857.397	3321
857.53	3192
857.664	3268
857.797	3291
857.931	3336
858.064	3214
858.197	3291
858.331	3169
858.464	3173
858.597	3047
858.731	3180
858.864	3180
858.997	3146
859.13	3207
859.263	3256
859.396	3264
859.529	3131
859.662	3119
859.795	3116
859.928	3214
860.061	3348
860.194	3329
860.327	3176
860.46	3173
860.592	3264
860.725	3272
860.858	3325
860.99	3142
861.123	3135
861.256	3097
861.388	3211
861.521	3808
861.653	3055
861.786	3047
861.918	3039
862.05	3123
862.183	3150
862.315	3192
862.447	3241
862.58	3161
862.712	2971
862.844	2929
862.976	3070
863.108	3043
863.24	3496
863.372	2906
863.504	3043
863.636	2994
863.768	3074
863.9	3017
864.032	2948
864.164	3051
864.296	3055
864.428	3123
864.559	3131
864.691	3150
864.823	3119
864.954	3062
865.086	3097
865.217	3036
865.349	3001
865.48	3058
865.612	3047
865.743	3230
865.875	3032
866.006	2975
866.137	2982
866.269	2982
866.4	3001
866.531	2971
866.662	2956
866.793	2952
866.924	2944
867.055	3005
867.186	2975
867.317	2960
867.448	2891
867.579	2861
867.71	2899
867.841	2868
867.972	2960
868.103	2948
868.233	2906
868.364	2952
868.495	2941
868.625	3165
868.756	3157
868.886	3001
869.017	3055
869.147	3188
869.278	3268
869.408	3123
869.539	3108
869.669	3154
869.799	3074
869.929	3165
870.06	3142
870.19	3374
870.32	3325
870.45	3317
870.58	3447
870.71	3515
870.84	3561
870.97	3336
871.1	3275
871.23	3526
871.36	3530
871.489	3401
871.619	3435
871.749	3477
871.879	3488
872.008	3507
872.138	3409
872.267	3298
872.397	3222
872.526	3184
872.656	3077
872.785	3131
872.915	3302
873.044	3359
873.173	3279
873.303	3313
873.432	3298
873.561	3283
873.69	3222
873.819	3169
873.948	3283
874.077	3146
874.206	3089
874.335	3142
874.464	3268
874.593	3412
874.722	3325
874.851	3473
874.979	3412
875.108	3351
875.237	3260
875.365	3218
875.494	3207
875.623	3310
875.751	3135
875.88	3173
876.008	3237
876.136	3272
876.265	3443
876.393	3538
876.521	3469
876.65	3431
876.778	3340
876.906	3287
877.034	3287
877.162	3283
877.29	3237
877.418	3294
877.546	3279
877.674	3329
877.802	3294
877.93	3283
878.058	3214
878.185	3161
878.313	3272
878.441	3237
878.568	3119
878.696	3207
878.824	3310
878.951	3325
879.079	3515
879.206	3675
879.333	3481
879.461	3378
879.588	3382
879.715	3523
879.842	3648
879.97	3450
880.097	3207
880.224	3176
880.351	3230
880.478	3279
880.605	3283
880.732	3249
880.859	3553
880.986	3325
881.112	3363
881.239	3233
881.366	3146
881.493	3104
881.619	3085
881.746	3150
881.872	3100
881.999	3123
882.125	3211
882.252	3291
882.378	3325
882.505	3473
882.631	3306
882.757	3192
882.883	3264
883.01	3253
883.136	3195
883.262	3146
883.388	3169
883.514	3389
883.64	3450
883.766	3355
883.892	3241
884.018	3313
884.143	3477
884.269	3572
884.395	3264
884.52	3173
884.646	3230
884.772	3165
884.897	3180
885.023	3245
885.148	3378
885.274	3469
885.399	3424
885.524	3355
885.65	3313
885.775	3412
885.9	3340
886.025	3454
886.15	3405
886.275	3340
886.4	3294
886.525	3351
886.65	3336
886.775	3313
886.9	3538
887.025	3660
887.149	3496
887.274	3291
887.399	3207
887.523	3253
887.648	3230
887.773	3245
887.897	3409
888.021	3466
888.146	3351
888.27	3504
888.395	3568
888.519	3515
888.643	3530
888.767	3542
888.891	3386
889.015	3253
889.139	3306
889.263	3283
889.387	3435
889.511	3572
889.635	3469
889.759	3332
889.883	3367
890.006	3431
890.13	3542
890.254	3344
890.377	3409
890.501	3256
890.624	3237
890.748	3359
890.871	3226
890.995	3131
891.118	3131
891.241	3218
891.364	3253
891.488	3351
891.611	3192
891.734	3298
891.857	3340
891.98	3283
892.103	3389
892.226	3325
892.349	3272
892.471	3169
892.594	3306
892.717	3340
892.839	3279
892.962	3336
893.085	3443
893.207	3348
893.33	3211
893.452	3226
893.575	3416
893.697	3268
893.819	3488
893.941	3545
894.064	3450
894.186	3332
894.308	3310
894.43	3485
894.552	3584
894.674	3530
894.796	3355
894.918	3355
895.04	3325
895.161	3458
895.283	3401
895.405	3344
895.526	3397
895.648	3477
895.769	3431
895.891	3488
896.012	3469
896.134	3515
896.255	3439
896.376	3439
896.498	3389
896.619	3435
896.74	3416
896.861	3450
896.982	3762
897.103	3911
897.224	3663
897.345	3561
897.466	3496
897.587	3545
897.708	3717
897.828	3614
897.949	3447
898.07	3378
898.19	3485
898.311	3663
898.431	3488
898.552	3557
898.672	3663
898.792	3644
898.913	3561
899.033	3450
899.153	3306
899.273	3249
899.393	3321
899.513	3363
899.633	3378
899.753	3367
899.873	3344
899.993	3416
900.113	3348
900.232	3412
900.352	3389
900.472	3325
900.591	3230
900.711	3355
900.83	3298
900.95	3454
901.069	3561
901.189	3416
901.308	3233
901.427	3157
901.546	3222
901.665	3310
901.784	3359
901.904	3241
902.023	3173
902.141	3058
902.26	3020
902.379	3214
902.498	3081
902.617	3055
902.735	3222
902.854	3302
902.973	3233
903.091	3108
903.21	3089
903.328	3138
903.446	3195
903.565	3154
903.683	3226
903.801	3192
903.919	3279
904.038	3310
904.156	3192
904.274	3321
904.392	3294
904.51	3313
904.627	3351
904.745	3469
904.863	3523
904.981	3291
905.098	3233
905.216	3237
905.334	3317
905.451	3340
905.569	3382
905.686	3488
905.803	3500
905.921	3306
906.038	3450
906.155	3393
906.272	3344
906.389	3374
906.506	3279
906.623	3287
906.74	3329
906.857	3207
906.974	3294
907.091	3496
907.208	3622
907.324	3530
907.441	3454
907.557	3264
907.674	3275
907.79	3245
907.907	3325
908.023	3416
908.139	3420
908.256	3340
908.372	3401
908.488	3420
908.604	3287
908.72	3272
908.836	3344
908.952	3321
909.068	3370
909.184	3500
909.3	3431
909.415	3557
909.531	3530
909.647	3313
909.762	3313
909.878	3294
909.993	3431
910.108	3370
910.224	3389
910.339	3443
910.454	3374
910.57	3332
910.685	3268
910.8	3614
910.915	3595
911.03	3477
911.145	3287
911.259	3306
911.374	3367
911.489	3287
911.604	3260
911.718	3135
911.833	3184
911.947	3066
912.062	2994
912.176	3184
912.291	3203
912.405	3226
912.519	3488
912.633	3504
912.748	3359
912.862	3313
912.976	3207
913.09	3123
913.204	3180
913.318	3291
913.431	3367
913.545	3332
913.659	3466
913.772	3363
913.886	3260
914	3245
914.113	3389
914.226	3443
914.34	3416
914.453	3230
914.566	3477
914.68	3332
914.793	3340
914.906	3180
915.019	3169
915.132	3112
915.245	3233
915.358	3279
915.47	3260
915.583	3321
915.696	3378
915.809	3428
915.921	3500
916.034	3291
916.146	3272
916.259	3310
916.371	3424
916.483	3435
916.595	3317
916.708	3386
916.82	3401
916.932	3363
917.044	3386
917.156	3367
917.268	3359
917.38	3294
917.491	3340
917.603	3466
917.715	3507
917.826	3572
917.938	3454
918.049	3310
918.161	3526
918.272	3637
918.384	3618
918.495	3538
918.606	3454
918.717	3336
918.828	3420
918.939	3458
919.05	3393
919.161	3454
919.272	3245
919.383	3348
919.494	3538
919.604	3747
919.715	3507
919.826	3481
919.936	3557
920.047	3648
920.157	3637
920.267	3880
920.378	3701
920.488	3667
920.598	3861
920.708	4036
920.818	3911
920.928	3880
921.038	4101
921.148	4090
921.258	3816
921.368	3705
921.477	3641
921.587	3587
921.697	3526
921.806	3713
921.916	3568
922.025	3424
922.134	3443
922.244	3389
922.353	3485
922.462	3340
922.571	3294
922.68	3195
922.789	3161
922.898	3207
923.007	3150
923.116	3253
923.224	3272
923.333	3291
923.442	3169
923.55	3169
923.659	3176
923.767	3294
923.876	3211
923.984	3355
924.092	3211
924.201	3249
924.309	3245
924.417	3321
924.525	3237
924.633	3283
924.741	4280
924.849	3119
924.956	3348
925.064	3161
925.172	3077
925.279	3192
925.387	3283
925.494	3298
925.602	3409
925.709	3397
925.816	3264
925.924	3367
926.031	3420
926.138	3389
926.245	3416
926.352	3332
926.459	3488
926.566	3568
926.673	3409
926.779	3336
926.886	3348
926.993	3207
927.099	3203
927.206	3184
927.312	3188
927.419	3279
927.525	3287
927.631	3378
927.737	3218
927.843	3230
927.95	3081
928.056	3195
928.162	3226
928.267	3325
928.373	3869
928.479	3359
928.585	3188
928.69	3272
928.796	3306
928.901	3165
929.007	3127
929.112	3287
929.218	3188
929.323	3218
929.428	3188
929.533	3397
929.638	3192
929.743	3211
929.848	3306
929.953	3275
930.058	3226
930.163	3093
930.267	3119
930.372	3256
930.477	3077
930.581	3409
930.685	3245
930.79	3146
930.894	3188
930.998	3131
931.103	3310
931.207	3043
931.311	3009
931.415	2998
931.519	2838
931.623	2861
