Data from test_V78500241_1223.txt Node
Date: Fri Mar 25 16:23:40 CST 2022
User: usil
Spectrometer: V785-0024
Trigger mode: 0
Integration Time (sec): 4.000000E-1
Scans to average: 1
Nonlinearity correction enabled: false
Boxcar width: 0
Storing dark spectrum: false
XAxis mode: Wavelengths
Number of Pixels in Spectrum: 1024
>>>>>Begin Spectral Data<<<<<
801.071	2960
801.214	2990
801.356	2929
801.499	2944
801.641	2914
801.783	2967
801.926	3055
802.068	3017
802.211	3028
802.353	3039
802.496	3005
802.638	3043
802.78	3104
802.923	3108
803.065	3036
803.208	2918
803.35	2956
803.492	2975
803.635	2963
803.777	2792
803.919	2895
804.061	3211
804.204	2975
804.346	2941
804.488	2876
804.63	3001
804.773	2895
804.915	2979
805.057	3116
805.199	2952
805.341	2986
805.483	3093
805.626	3028
805.768	2998
805.91	3108
806.052	3138
806.194	3074
806.336	3253
806.478	3047
806.62	2967
806.762	2990
806.904	3055
807.046	3192
807.188	3043
807.33	2937
807.472	3024
807.614	2937
807.756	3043
807.898	2929
808.04	2910
808.182	2963
808.324	2979
808.465	2937
808.607	2899
808.749	2788
808.891	2864
809.033	2998
809.174	3001
809.316	2922
809.458	2880
809.6	2788
809.741	2781
809.883	2769
810.025	2845
810.166	2842
810.308	2902
810.45	2910
810.591	2792
810.733	2785
810.875	2861
811.016	2819
811.158	2781
811.299	2842
811.441	2910
811.582	2883
811.724	2887
811.865	2876
812.007	2944
812.148	2895
812.29	2876
812.431	2891
812.573	2956
812.714	2960
812.855	3047
812.997	3062
813.138	3161
813.279	3009
813.421	2982
813.562	2990
813.703	2876
813.845	2891
813.986	2773
814.127	2754
814.268	2815
814.41	2853
814.551	2766
814.692	2880
814.833	2838
814.974	2906
815.115	2952
815.256	2861
815.397	2861
815.539	2880
815.68	2781
815.821	2826
815.962	2941
816.103	3013
816.244	2933
816.385	2864
816.526	2979
816.666	2971
816.807	2792
816.948	2937
817.089	2948
817.23	2887
817.371	2777
817.512	2800
817.653	2868
817.793	2842
817.934	2906
818.075	2994
818.216	3020
818.356	3043
818.497	2918
818.638	2800
818.778	2853
818.919	2796
819.06	2777
819.2	2929
819.341	2788
819.481	2777
819.622	2956
819.762	3127
819.903	3051
820.043	2986
820.184	2880
820.324	2922
820.465	3047
820.605	3066
820.746	3036
820.886	2910
821.026	3116
821.167	3169
821.307	3283
821.447	3298
821.588	3241
821.728	3207
821.868	3203
822.008	3093
822.149	3188
822.289	3230
822.429	3097
822.569	3093
822.709	3214
822.849	3039
822.99	3097
823.13	3192
823.27	3222
823.41	3142
823.55	3169
823.69	3173
823.83	3192
823.97	3150
824.11	2979
824.25	3020
824.389	3062
824.529	3108
824.669	3112
824.809	3203
824.949	3332
825.089	3253
825.228	3188
825.368	3017
825.508	2979
825.648	2975
825.787	3036
825.927	3047
826.067	2975
826.206	2982
826.346	3062
826.485	3119
826.625	3131
826.765	3272
826.904	3256
827.044	3001
827.183	2937
827.323	2868
827.462	2986
827.601	2918
827.741	2975
827.88	2982
828.02	2868
828.159	2963
828.298	3032
828.437	3112
828.577	3036
828.716	3253
828.855	3108
828.994	2914
829.134	2887
829.273	2937
829.412	2902
829.551	2872
829.69	2910
829.829	3009
829.968	3150
830.107	3047
830.246	3032
830.385	2952
830.524	2906
830.663	2853
830.802	2758
830.941	2689
831.08	2689
831.219	2807
831.357	2800
831.496	2948
831.635	2743
831.774	2648
831.913	2670
832.051	2575
832.19	2575
832.329	2674
832.467	2537
832.606	2492
832.744	2575
832.883	2583
833.022	2571
833.16	2678
833.299	2705
833.437	2697
833.576	2701
833.714	2724
833.852	2712
833.991	2781
834.129	2834
834.267	2864
834.406	2826
834.544	2899
834.682	2891
834.821	2902
834.959	3062
835.097	2914
835.235	3093
835.373	3001
835.511	3066
835.65	2963
835.788	2967
835.926	2826
836.064	2826
836.202	2872
836.34	3112
836.478	3176
836.615	3036
836.753	3169
836.891	3192
837.029	3161
837.167	3119
837.305	3081
837.443	3051
837.58	2994
837.718	3135
837.856	3077
837.993	3039
838.131	3104
838.269	3112
838.406	3089
838.544	3093
838.681	2971
838.819	2937
838.956	2853
839.094	2842
839.231	2914
839.369	3020
839.506	3363
839.643	3222
839.781	3039
839.918	2982
840.055	3058
840.193	3039
840.33	3112
840.467	3108
840.604	3157
840.742	3412
840.879	3032
841.016	3074
841.153	3135
841.29	3348
841.427	3275
841.564	3287
841.701	3294
841.838	3249
841.975	3154
842.112	3275
842.249	3077
842.385	3043
842.522	3291
842.659	3081
842.796	3062
842.933	3108
843.069	3017
843.206	3024
843.343	3214
843.479	3108
843.616	3180
843.752	2914
843.889	2895
844.025	3074
844.162	2899
844.298	3081
844.435	2956
844.571	2883
844.708	3074
844.844	3211
844.98	3237
845.117	3218
845.253	3077
845.389	3028
845.525	3123
845.661	3116
845.798	3024
845.934	3127
846.07	3077
846.206	3195
846.342	3272
846.478	3226
846.614	3066
846.75	3081
846.886	3013
847.022	3275
847.158	3157
847.294	3195
847.429	3260
847.565	3245
847.701	3523
847.837	3039
847.972	3051
848.108	3199
848.244	3154
848.379	3013
848.515	2933
848.65	2922
848.786	2979
848.921	3074
849.057	3100
849.192	3123
849.328	3116
849.463	3135
849.598	3104
849.734	3024
849.869	2979
850.004	2933
850.14	2960
850.275	2906
850.41	2842
850.545	2902
850.68	2933
850.815	2960
850.95	2952
851.085	3180
851.22	3112
851.355	3062
851.49	2998
851.625	3032
851.76	3039
851.895	2998
852.03	2922
852.165	3024
852.299	3104
852.434	3180
852.569	3131
852.703	3165
852.838	3264
852.973	3332
853.107	3355
853.242	3184
853.376	3085
853.511	3001
853.645	3066
853.78	3230
853.914	3138
854.048	3123
854.183	3074
854.317	3150
854.451	3272
854.585	3108
854.72	3058
854.854	3230
854.988	3066
855.122	3108
855.256	3020
855.39	3108
855.524	3253
855.658	3188
855.792	3165
855.926	3184
856.06	3192
856.194	3230
856.327	3146
856.461	3066
856.595	3089
856.729	3127
856.862	3188
856.996	3123
857.13	3199
857.263	3260
857.397	3291
857.53	3123
857.664	3188
857.797	3207
857.931	3199
858.064	3176
858.197	3230
858.331	3123
858.464	3085
858.597	3017
858.731	3135
858.864	3119
858.997	3104
859.13	3138
859.263	3176
859.396	3184
859.529	3077
859.662	3066
859.795	3070
859.928	3127
860.061	3264
860.194	3283
860.327	3085
860.46	3066
860.592	3226
860.725	3249
860.858	3272
860.99	3119
861.123	3077
861.256	3070
861.388	3135
861.521	3728
861.653	3036
861.786	3017
861.918	2967
862.05	3089
862.183	3077
862.315	3142
862.447	3211
862.58	3097
862.712	2971
862.844	2895
862.976	3032
863.108	3001
863.24	3447
863.372	2864
863.504	2960
863.636	2990
863.768	3001
863.9	2960
864.032	2876
864.164	2952
864.296	3055
864.428	3081
864.559	3108
864.691	3055
864.823	3070
864.954	3028
865.086	3055
865.217	3001
865.349	2975
865.48	3005
865.612	3020
865.743	3157
865.875	2952
866.006	2922
866.137	2979
866.269	2910
866.4	2933
866.531	2952
866.662	2861
866.793	2876
866.924	2899
867.055	3001
867.186	2944
867.317	2883
867.448	2868
867.579	2849
867.71	2853
867.841	2811
867.972	2864
868.103	2914
868.233	2910
868.364	2887
868.495	2883
868.625	3085
868.756	3188
868.886	2952
869.017	3058
869.147	3173
869.278	3142
869.408	3047
869.539	3039
869.669	3123
869.799	3036
869.929	3150
870.06	3108
870.19	3321
870.32	3275
870.45	3332
870.58	3348
870.71	3443
870.84	3431
870.97	3272
871.1	3218
871.23	3492
871.36	3466
871.489	3393
871.619	3359
871.749	3370
871.879	3443
872.008	3523
872.138	3389
872.267	3272
872.397	3127
872.526	3104
872.656	3005
872.785	3081
872.915	3268
873.044	3275
873.173	3233
873.303	3264
873.432	3245
873.561	3203
873.69	3161
873.819	3127
873.948	3150
874.077	3100
874.206	3058
874.335	3097
874.464	3230
874.593	3298
874.722	3241
874.851	3397
874.979	3310
875.108	3306
875.237	3195
875.365	3165
875.494	3161
875.623	3253
875.751	3070
875.88	3100
876.008	3176
876.136	3222
876.265	3393
876.393	3507
876.521	3416
876.65	3431
876.778	3348
876.906	3249
877.034	3173
877.162	3260
877.29	3154
877.418	3226
877.546	3253
877.674	3249
877.802	3245
877.93	3226
878.058	3180
878.185	3112
878.313	3230
878.441	3203
878.568	3047
878.696	3119
878.824	3275
878.951	3306
879.079	3409
879.206	3629
879.333	3416
879.461	3321
879.588	3351
879.715	3507
879.842	3584
879.97	3351
880.097	3169
880.224	3142
880.351	3184
880.478	3218
880.605	3192
880.732	3146
880.859	3469
880.986	3321
881.112	3344
881.239	3192
881.366	3112
881.493	3043
881.619	3024
881.746	3070
881.872	3116
881.999	3104
882.125	3127
882.252	3237
882.378	3298
882.505	3416
882.631	3264
882.757	3127
882.883	3195
883.01	3245
883.136	3165
883.262	3123
883.388	3100
883.514	3363
883.64	3351
883.766	3306
883.892	3192
884.018	3226
884.143	3378
884.269	3523
884.395	3211
884.52	3195
884.646	3138
884.772	3135
884.897	3108
885.023	3199
885.148	3348
885.274	3431
885.399	3393
885.524	3294
885.65	3279
885.775	3317
885.9	3298
886.025	3370
886.15	3409
886.275	3302
886.4	3260
886.525	3283
886.65	3249
886.775	3283
886.9	3492
887.025	3644
887.149	3401
887.274	3249
887.399	3146
887.523	3188
887.648	3184
887.773	3192
887.897	3370
888.021	3405
888.146	3294
888.27	3409
888.395	3542
888.519	3458
888.643	3416
888.767	3431
888.891	3298
889.015	3268
889.139	3321
889.263	3253
889.387	3393
889.511	3466
889.635	3443
889.759	3272
889.883	3313
890.006	3378
890.13	3534
890.254	3245
890.377	3355
890.501	3176
890.624	3180
890.748	3279
890.871	3157
890.995	3142
891.118	3070
891.241	3218
891.364	3214
891.488	3302
891.611	3173
891.734	3188
891.857	3264
891.98	3279
892.103	3313
892.226	3268
892.349	3226
892.471	3112
892.594	3249
892.717	3256
892.839	3233
892.962	3249
893.085	3344
893.207	3253
893.33	3165
893.452	3226
893.575	3329
893.697	3241
893.819	3496
893.941	3492
894.064	3462
894.186	3279
894.308	3249
894.43	3424
894.552	3507
894.674	3450
894.796	3256
894.918	3313
895.04	3268
895.161	3443
895.283	3386
895.405	3260
895.526	3367
895.648	3378
895.769	3378
895.891	3420
896.012	3492
896.134	3462
896.255	3401
896.376	3348
896.498	3344
896.619	3439
896.74	3370
896.861	3409
896.982	3709
897.103	3835
897.224	3584
897.345	3496
897.466	3409
897.587	3454
897.708	3644
897.828	3534
897.949	3443
898.07	3332
898.19	3428
898.311	3622
898.431	3409
898.552	3526
898.672	3625
898.792	3587
898.913	3523
899.033	3397
899.153	3298
899.273	3222
899.393	3253
899.513	3302
899.633	3291
899.753	3370
899.873	3313
899.993	3355
900.113	3329
900.232	3389
900.352	3321
900.472	3294
900.591	3211
900.711	3313
900.83	3230
900.95	3393
901.069	3526
901.189	3336
901.308	3176
901.427	3112
901.546	3188
901.665	3272
901.784	3359
901.904	3169
902.023	3131
902.141	2998
902.26	2990
902.379	3150
902.498	3081
902.617	3051
902.735	3214
902.854	3211
902.973	3214
903.091	3039
903.21	3055
903.328	3116
903.446	3081
903.565	3123
903.683	3203
903.801	3135
903.919	3260
904.038	3272
904.156	3161
904.274	3260
904.392	3230
904.51	3279
904.627	3306
904.745	3466
904.863	3496
904.981	3256
905.098	3203
905.216	3211
905.334	3298
905.451	3310
905.569	3325
905.686	3401
905.803	3443
905.921	3272
906.038	3386
906.155	3348
906.272	3264
906.389	3306
906.506	3203
906.623	3233
906.74	3264
906.857	3146
906.974	3275
907.091	3462
907.208	3553
907.324	3450
907.441	3389
907.557	3211
907.674	3230
907.79	3199
907.907	3253
908.023	3325
908.139	3401
908.256	3344
908.372	3348
908.488	3325
908.604	3272
908.72	3226
908.836	3275
908.952	3253
909.068	3332
909.184	3485
909.3	3351
909.415	3488
909.531	3454
909.647	3268
909.762	3306
909.878	3253
909.993	3351
910.108	3355
910.224	3329
910.339	3401
910.454	3317
910.57	3325
910.685	3237
910.8	3614
910.915	3526
911.03	3420
911.145	3294
911.259	3260
911.374	3329
911.489	3241
911.604	3176
911.718	3112
911.833	3112
911.947	3028
912.062	2948
912.176	3176
912.291	3199
912.405	3207
912.519	3412
912.633	3439
912.748	3344
912.862	3275
912.976	3184
913.09	3074
913.204	3154
913.318	3222
913.431	3302
913.545	3351
913.659	3439
913.772	3321
913.886	3195
914	3214
914.113	3382
914.226	3435
914.34	3367
914.453	3184
914.566	3378
914.68	3325
914.793	3294
914.906	3146
915.019	3108
915.132	3081
915.245	3138
915.358	3203
915.47	3218
915.583	3260
915.696	3321
915.809	3450
915.921	3393
916.034	3249
916.146	3260
916.259	3233
916.371	3363
916.483	3321
916.595	3287
916.708	3310
916.82	3355
916.932	3302
917.044	3351
917.156	3332
917.268	3233
917.38	3272
917.491	3260
917.603	3355
917.715	3428
917.826	3458
917.938	3348
918.049	3272
918.161	3409
918.272	3542
918.384	3545
918.495	3462
918.606	3310
918.717	3294
918.828	3351
918.939	3386
919.05	3268
919.161	3370
919.272	3218
919.383	3287
919.494	3519
919.604	3663
919.715	3435
919.826	3409
919.936	3424
920.047	3584
920.157	3584
920.267	3766
920.378	3603
920.488	3564
920.598	3781
920.708	3949
920.818	3831
920.928	3831
921.038	3987
921.148	3979
921.258	3751
921.368	3606
921.477	3580
921.587	3530
921.697	3435
921.806	3625
921.916	3473
922.025	3325
922.134	3363
922.244	3329
922.353	3450
922.462	3291
922.571	3222
922.68	3093
922.789	3028
922.898	3142
923.007	3104
923.116	3173
923.224	3192
923.333	3214
923.442	3066
923.55	3123
923.659	3157
923.767	3211
923.876	3138
923.984	3260
924.092	3085
924.201	3188
924.309	3211
924.417	3256
924.525	3214
924.633	3226
924.741	4032
924.849	3066
924.956	3241
925.064	3100
925.172	3081
925.279	3085
925.387	3192
925.494	3188
925.602	3344
925.709	3329
925.816	3207
925.924	3291
926.031	3378
926.138	3340
926.245	3344
926.352	3218
926.459	3424
926.566	3504
926.673	3291
926.779	3253
926.886	3233
926.993	3203
927.099	3123
927.206	3108
927.312	3093
927.419	3214
927.525	3184
927.631	3249
927.737	3081
927.843	3070
927.95	3013
928.056	3093
928.162	3184
928.267	3233
928.373	3873
928.479	3260
928.585	3055
928.69	3214
928.796	3253
928.901	3108
929.007	3032
929.112	3192
929.218	3108
929.323	3146
929.428	3119
929.533	3283
929.638	3100
929.743	3165
929.848	3249
929.953	3203
930.058	3150
930.163	2994
930.267	3047
930.372	3218
930.477	3005
930.581	3294
930.685	3188
930.79	3062
930.894	3112
930.998	3093
931.103	3275
931.207	2948
931.311	2918
931.415	2918
931.519	2788
931.623	2807
