Data from test_V78500241_411.txt Node
Date: Fri Mar 25 16:18:03 CST 2022
User: usil
Spectrometer: V785-0024
Trigger mode: 0
Integration Time (sec): 4.000000E-1
Scans to average: 1
Nonlinearity correction enabled: false
Boxcar width: 0
Storing dark spectrum: false
XAxis mode: Wavelengths
Number of Pixels in Spectrum: 1024
>>>>>Begin Spectral Data<<<<<
801.071	2906
801.214	2895
801.356	2834
801.499	2906
801.641	2845
801.783	2914
801.926	3039
802.068	2967
802.211	2963
802.353	3055
802.496	2982
802.638	3005
802.78	3047
802.923	3039
803.065	2986
803.208	2876
803.35	2948
803.492	2918
803.635	2918
803.777	2746
803.919	2876
804.061	3176
804.204	2967
804.346	2887
804.488	2849
804.63	2979
804.773	2826
804.915	2918
805.057	3085
805.199	2914
805.341	2975
805.483	3017
805.626	2967
805.768	2960
805.91	3058
806.052	3119
806.194	3017
806.336	3184
806.478	2998
806.62	2925
806.762	2971
806.904	3055
807.046	3176
807.188	2963
807.33	2914
807.472	2986
807.614	2914
807.756	2979
807.898	2906
808.04	2849
808.182	2956
808.324	2971
808.465	2834
808.607	2849
808.749	2807
808.891	2849
809.033	2963
809.174	2960
809.316	2929
809.458	2880
809.6	2727
809.741	2739
809.883	2762
810.025	2834
810.166	2883
810.308	2819
810.45	2838
810.591	2807
810.733	2739
810.875	2872
811.016	2792
811.158	2716
811.299	2811
811.441	2922
811.582	2891
811.724	2785
811.865	2819
812.007	2906
812.148	2876
812.29	2823
812.431	2845
812.573	2925
812.714	2986
812.855	3043
812.997	3017
813.138	3112
813.279	2979
813.421	2971
813.562	2975
813.703	2857
813.845	2891
813.986	2769
814.127	2708
814.268	2834
814.41	2857
814.551	2811
814.692	2845
814.833	2800
814.974	2906
815.115	2952
815.256	2811
815.397	2826
815.539	2861
815.68	2777
815.821	2792
815.962	2941
816.103	2952
816.244	2868
816.385	2853
816.526	2944
816.666	2880
816.807	2739
816.948	2887
817.089	2887
817.23	2849
817.371	2777
817.512	2769
817.653	2826
817.793	2769
817.934	2853
818.075	2967
818.216	2948
818.356	2963
818.497	2902
818.638	2758
818.778	2804
818.919	2773
819.06	2762
819.2	2914
819.341	2792
819.481	2781
819.622	2971
819.762	3085
819.903	3039
820.043	2918
820.184	2910
820.324	2876
820.465	2960
820.605	3005
820.746	3020
820.886	2948
821.026	3070
821.167	3123
821.307	3275
821.447	3253
821.588	3245
821.728	3173
821.868	3150
822.008	3089
822.149	3154
822.289	3245
822.429	3112
822.569	3062
822.709	3188
822.849	3047
822.99	3089
823.13	3150
823.27	3195
823.41	3058
823.55	3157
823.69	3150
823.83	3230
823.97	3089
824.11	2994
824.25	2986
824.389	3085
824.529	3157
824.669	3089
824.809	3226
824.949	3272
825.089	3203
825.228	3173
825.368	3036
825.508	2944
825.648	2994
825.787	3036
825.927	3058
826.067	2990
826.206	2967
826.346	3112
826.485	3150
826.625	3165
826.765	3291
826.904	3249
827.044	3032
827.183	2982
827.323	2891
827.462	3009
827.601	2967
827.741	2929
827.88	2982
828.02	2880
828.159	3043
828.298	3093
828.437	3112
828.577	3058
828.716	3302
828.855	3119
828.994	2948
829.134	2902
829.273	2967
829.412	2918
829.551	2895
829.69	2899
829.829	3036
829.968	3214
830.107	3070
830.246	3070
830.385	2982
830.524	2952
830.663	2868
830.802	2777
830.941	2720
831.08	2678
831.219	2815
831.357	2785
831.496	2986
831.635	2739
831.774	2663
831.913	2705
832.051	2583
832.19	2610
832.329	2735
832.467	2552
832.606	2522
832.744	2651
832.883	2629
833.022	2644
833.16	2689
833.299	2743
833.437	2731
833.576	2735
833.714	2769
833.852	2724
833.991	2796
834.129	2887
834.267	2883
834.406	2804
834.544	2895
834.682	2925
834.821	2895
834.959	3108
835.097	2902
835.235	3100
835.373	3066
835.511	3093
835.65	3013
835.788	2979
835.926	2883
836.064	2864
836.202	2899
836.34	3108
836.478	3161
836.615	3074
836.753	3192
836.891	3275
837.029	3184
837.167	3157
837.305	3108
837.443	3058
837.58	3009
837.718	3207
837.856	3104
837.993	3074
838.131	3142
838.269	3176
838.406	3104
838.544	3112
838.681	2967
838.819	2963
838.956	2849
839.094	2880
839.231	2960
839.369	3039
839.506	3412
839.643	3241
839.781	3085
839.918	3013
840.055	3085
840.193	3097
840.33	3066
840.467	3112
840.604	3169
840.742	3431
840.879	3081
841.016	3085
841.153	3135
841.29	3374
841.427	3336
841.564	3298
841.701	3344
841.838	3245
841.975	3214
842.112	3188
842.249	3089
842.385	3085
842.522	3291
842.659	3123
842.796	3081
842.933	3161
843.069	3074
843.206	3081
843.343	3214
843.479	3135
843.616	3173
843.752	2937
843.889	2933
844.025	3081
844.162	2914
844.298	3138
844.435	2975
844.571	2952
844.708	3104
844.844	3226
844.98	3279
845.117	3233
845.253	3047
845.389	3051
845.525	3146
845.661	3157
845.798	3062
845.934	3173
846.07	3077
846.206	3245
846.342	3332
846.478	3241
846.614	3127
846.75	3123
846.886	3077
847.022	3302
847.158	3169
847.294	3211
847.429	3260
847.565	3245
847.701	3466
847.837	3081
847.972	3058
848.108	3230
848.244	3176
848.379	3055
848.515	2971
848.65	2967
848.786	2960
848.921	3043
849.057	3138
849.192	3184
849.328	3081
849.463	3127
849.598	3100
849.734	3043
849.869	3028
850.004	2925
850.14	2990
850.275	2960
850.41	2887
850.545	2883
850.68	2990
850.815	3001
850.95	3020
851.085	3222
851.22	3142
851.355	3070
851.49	3009
851.625	3028
851.76	3047
851.895	2979
852.03	2948
852.165	3058
852.299	3142
852.434	3188
852.569	3184
852.703	3207
852.838	3321
852.973	3363
853.107	3348
853.242	3169
853.376	3173
853.511	2979
853.645	3077
853.78	3302
853.914	3154
854.048	3138
854.183	3100
854.317	3176
854.451	3294
854.585	3192
854.72	3119
854.854	3241
854.988	3089
855.122	3127
855.256	3020
855.39	3161
855.524	3272
855.658	3237
855.792	3214
855.926	3192
856.06	3192
856.194	3310
856.327	3165
856.461	3165
856.595	3112
856.729	3116
856.862	3233
856.996	3165
857.13	3214
857.263	3249
857.397	3306
857.53	3161
857.664	3214
857.797	3306
857.931	3245
858.064	3184
858.197	3233
858.331	3192
858.464	3112
858.597	3051
858.731	3127
858.864	3135
858.997	3112
859.13	3199
859.263	3161
859.396	3207
859.529	3146
859.662	3077
859.795	3062
859.928	3138
860.061	3291
860.194	3329
860.327	3157
860.46	3119
860.592	3268
860.725	3256
860.858	3287
860.99	3062
861.123	3085
861.256	3081
861.388	3176
861.521	3846
861.653	3047
861.786	3017
861.918	3028
862.05	3085
862.183	3104
862.315	3207
862.447	3241
862.58	3100
862.712	2971
862.844	2902
862.976	3043
863.108	3013
863.24	3492
863.372	2876
863.504	2986
863.636	2994
863.768	3043
863.9	3009
864.032	2933
864.164	2986
864.296	3039
864.428	3104
864.559	3131
864.691	3085
864.823	3013
864.954	3074
865.086	3070
865.217	3024
865.349	2956
865.48	3001
865.612	3047
865.743	3184
865.875	2944
866.006	2944
866.137	2979
866.269	2986
866.4	2998
866.531	2948
866.662	2880
866.793	2853
866.924	2914
867.055	3005
867.186	2948
867.317	2899
867.448	2872
867.579	2883
867.71	2887
867.841	2834
867.972	2982
868.103	2906
868.233	2922
868.364	2899
868.495	2918
868.625	3097
868.756	3230
868.886	2979
869.017	3051
869.147	3180
869.278	3169
869.408	3119
869.539	3043
869.669	3135
869.799	3070
869.929	3161
870.06	3127
870.19	3336
870.32	3272
870.45	3317
870.58	3393
870.71	3454
870.84	3466
870.97	3287
871.1	3256
871.23	3526
871.36	3466
871.489	3363
871.619	3420
871.749	3447
871.879	3431
872.008	3473
872.138	3397
872.267	3310
872.397	3135
872.526	3150
872.656	3047
872.785	3097
872.915	3283
873.044	3325
873.173	3245
873.303	3272
873.432	3272
873.561	3218
873.69	3169
873.819	3169
873.948	3260
874.077	3119
874.206	3058
874.335	3081
874.464	3245
874.593	3325
874.722	3253
874.851	3412
874.979	3325
875.108	3359
875.237	3218
875.365	3165
875.494	3176
875.623	3264
875.751	3100
875.88	3150
876.008	3260
876.136	3218
876.265	3416
876.393	3538
876.521	3435
876.65	3409
876.778	3348
876.906	3249
877.034	3233
877.162	3260
877.29	3188
877.418	3245
877.546	3275
877.674	3268
877.802	3256
877.93	3268
878.058	3169
878.185	3131
878.313	3218
878.441	3268
878.568	3116
878.696	3161
878.824	3283
878.951	3291
879.079	3469
879.206	3614
879.333	3458
879.461	3370
879.588	3378
879.715	3492
879.842	3629
879.97	3416
880.097	3199
880.224	3150
880.351	3260
880.478	3256
880.605	3203
880.732	3184
880.859	3519
880.986	3332
881.112	3340
881.239	3214
881.366	3108
881.493	3043
881.619	3013
881.746	3077
881.872	3077
881.999	3100
882.125	3169
882.252	3226
882.378	3332
882.505	3454
882.631	3287
882.757	3188
882.883	3253
883.01	3291
883.136	3161
883.262	3138
883.388	3131
883.514	3344
883.64	3409
883.766	3317
883.892	3226
884.018	3218
884.143	3454
884.269	3530
884.395	3188
884.52	3176
884.646	3157
884.772	3135
884.897	3150
885.023	3230
885.148	3348
885.274	3458
885.399	3370
885.524	3283
885.65	3291
885.775	3313
885.9	3256
886.025	3458
886.15	3348
886.275	3329
886.4	3275
886.525	3340
886.65	3256
886.775	3321
886.9	3515
887.025	3629
887.149	3389
887.274	3222
887.399	3207
887.523	3241
887.648	3195
887.773	3184
887.897	3412
888.021	3397
888.146	3294
888.27	3439
888.395	3557
888.519	3431
888.643	3439
888.767	3443
888.891	3355
889.015	3256
889.139	3355
889.263	3268
889.387	3412
889.511	3515
889.635	3462
889.759	3313
889.883	3325
890.006	3412
890.13	3485
890.254	3329
890.377	3355
890.501	3226
890.624	3211
890.748	3355
890.871	3188
890.995	3142
891.118	3055
891.241	3222
891.364	3241
891.488	3332
891.611	3199
891.734	3241
891.857	3268
891.98	3279
892.103	3329
892.226	3275
892.349	3264
892.471	3127
892.594	3264
892.717	3291
892.839	3317
892.962	3275
893.085	3359
893.207	3321
893.33	3138
893.452	3226
893.575	3367
893.697	3272
893.819	3458
893.941	3469
894.064	3447
894.186	3260
894.308	3249
894.43	3428
894.552	3568
894.674	3447
894.796	3275
894.918	3287
895.04	3306
895.161	3409
895.283	3397
895.405	3317
895.526	3363
895.648	3439
895.769	3435
895.891	3466
896.012	3469
896.134	3466
896.255	3439
896.376	3393
896.498	3409
896.619	3431
896.74	3363
896.861	3458
896.982	3709
897.103	3850
897.224	3629
897.345	3523
897.466	3443
897.587	3485
897.708	3637
897.828	3542
897.949	3458
898.07	3348
898.19	3386
898.311	3606
898.431	3428
898.552	3500
898.672	3622
898.792	3568
898.913	3523
899.033	3424
899.153	3329
899.273	3264
899.393	3279
899.513	3329
899.633	3336
899.753	3355
899.873	3306
899.993	3386
900.113	3359
900.232	3393
900.352	3367
900.472	3298
900.591	3230
900.711	3279
900.83	3268
900.95	3477
901.069	3488
901.189	3355
901.308	3192
901.427	3180
901.546	3192
901.665	3302
901.784	3344
901.904	3226
902.023	3169
902.141	3009
902.26	3020
902.379	3146
902.498	3070
902.617	3066
902.735	3207
902.854	3253
902.973	3188
903.091	3077
903.21	3085
903.328	3165
903.446	3131
903.565	3157
903.683	3192
903.801	3089
903.919	3237
904.038	3306
904.156	3207
904.274	3294
904.392	3306
904.51	3298
904.627	3332
904.745	3416
904.863	3526
904.981	3264
905.098	3150
905.216	3222
905.334	3317
905.451	3313
905.569	3348
905.686	3424
905.803	3511
905.921	3291
906.038	3420
906.155	3378
906.272	3340
906.389	3382
906.506	3245
906.623	3260
906.74	3298
906.857	3165
906.974	3237
907.091	3458
907.208	3599
907.324	3485
907.441	3412
907.557	3192
907.674	3241
907.79	3192
907.907	3294
908.023	3393
908.139	3401
908.256	3344
908.372	3386
908.488	3348
908.604	3260
908.72	3214
908.836	3313
908.952	3272
909.068	3382
909.184	3507
909.3	3393
909.415	3507
909.531	3519
909.647	3313
909.762	3317
909.878	3298
909.993	3363
910.108	3351
910.224	3317
910.339	3450
910.454	3340
910.57	3294
910.685	3260
910.8	3610
910.915	3545
911.03	3462
911.145	3268
911.259	3287
911.374	3332
911.489	3230
911.604	3207
911.718	3131
911.833	3173
911.947	3043
912.062	3020
912.176	3146
912.291	3173
912.405	3180
912.519	3424
912.633	3447
912.748	3306
912.862	3272
912.976	3169
913.09	3058
913.204	3131
913.318	3218
913.431	3336
913.545	3321
913.659	3428
913.772	3367
913.886	3237
914	3211
914.113	3355
914.226	3397
914.34	3393
914.453	3192
914.566	3409
914.68	3279
914.793	3313
914.906	3169
915.019	3116
915.132	3051
915.245	3180
915.358	3203
915.47	3207
915.583	3241
915.696	3272
915.809	3416
915.921	3485
916.034	3268
916.146	3287
916.259	3203
916.371	3428
916.483	3378
916.595	3218
916.708	3348
916.82	3359
916.932	3367
917.044	3351
917.156	3367
917.268	3253
917.38	3313
917.491	3310
917.603	3363
917.715	3454
917.826	3450
917.938	3378
918.049	3306
918.161	3443
918.272	3603
918.384	3595
918.495	3507
918.606	3355
918.717	3306
918.828	3329
918.939	3420
919.05	3275
919.161	3325
919.272	3203
919.383	3291
919.494	3526
919.604	3713
919.715	3466
919.826	3409
919.936	3485
920.047	3576
920.157	3561
920.267	3755
920.378	3641
920.488	3542
920.598	3781
920.708	3975
920.818	3797
920.928	3857
921.038	4036
921.148	4029
921.258	3698
921.368	3637
921.477	3580
921.587	3530
921.697	3477
921.806	3599
921.916	3523
922.025	3363
922.134	3382
922.244	3317
922.353	3420
922.462	3313
922.571	3203
922.68	3138
922.789	3104
922.898	3127
923.007	3097
923.116	3214
923.224	3173
923.333	3222
923.442	3112
923.55	3104
923.659	3146
923.767	3203
923.876	3150
923.984	3233
924.092	3089
924.201	3203
924.309	3249
924.417	3272
924.525	3211
924.633	3256
924.741	4181
924.849	3074
924.956	3249
925.064	3093
925.172	3043
925.279	3146
925.387	3184
925.494	3211
925.602	3397
925.709	3374
925.816	3188
925.924	3272
926.031	3405
926.138	3355
926.245	3367
926.352	3218
926.459	3412
926.566	3450
926.673	3306
926.779	3329
926.886	3275
926.993	3184
927.099	3089
927.206	3131
927.312	3169
927.419	3226
927.525	3207
927.631	3279
927.737	3173
927.843	3142
927.95	2990
928.056	3165
928.162	3150
928.267	3230
928.373	3892
928.479	3275
928.585	3081
928.69	3222
928.796	3294
928.901	3184
929.007	3055
929.112	3195
929.218	3169
929.323	3173
929.428	3116
929.533	3291
929.638	3135
929.743	3207
929.848	3214
929.953	3211
930.058	3154
930.163	3020
930.267	3039
930.372	3230
930.477	3039
930.581	3351
930.685	3203
930.79	3058
930.894	3093
930.998	3112
931.103	3317
931.207	2963
931.311	2948
931.415	2918
931.519	2754
931.623	2788
