Data from test_V78500241_1702.txt Node
Date: Fri Mar 25 16:26:59 CST 2022
User: usil
Spectrometer: V785-0024
Trigger mode: 0
Integration Time (sec): 4.000000E-1
Scans to average: 1
Nonlinearity correction enabled: false
Boxcar width: 0
Storing dark spectrum: false
XAxis mode: Wavelengths
Number of Pixels in Spectrum: 1024
>>>>>Begin Spectral Data<<<<<
801.071	2944
801.214	2967
801.356	2880
801.499	2891
801.641	2845
801.783	2929
801.926	2998
802.068	2975
802.211	3028
802.353	3001
802.496	2918
802.638	2967
802.78	3055
802.923	3074
803.065	2967
803.208	2883
803.35	2887
803.492	2922
803.635	2899
803.777	2739
803.919	2880
804.061	3192
804.204	2960
804.346	2895
804.488	2853
804.63	2952
804.773	2876
804.915	2918
805.057	3043
805.199	2891
805.341	2948
805.483	3017
805.626	2994
805.768	2971
805.91	3051
806.052	3138
806.194	3032
806.336	3218
806.478	3013
806.62	2948
806.762	2941
806.904	3047
807.046	3127
807.188	2941
807.33	2914
807.472	2952
807.614	2899
807.756	2971
807.898	2952
808.04	2883
808.182	2948
808.324	2937
808.465	2868
808.607	2876
808.749	2785
808.891	2823
809.033	2941
809.174	2994
809.316	2853
809.458	2876
809.6	2743
809.741	2773
809.883	2766
810.025	2830
810.166	2815
810.308	2804
810.45	2849
810.591	2754
810.733	2762
810.875	2842
811.016	2769
811.158	2712
811.299	2811
811.441	2941
811.582	2891
811.724	2830
811.865	2815
812.007	2906
812.148	2857
812.29	2838
812.431	2845
812.573	2883
812.714	2937
812.855	3001
812.997	3043
813.138	3112
813.279	2960
813.421	2998
813.562	2941
813.703	2819
813.845	2857
813.986	2758
814.127	2746
814.268	2815
814.41	2857
814.551	2804
814.692	2830
814.833	2807
814.974	2864
815.115	2925
815.256	2804
815.397	2792
815.539	2880
815.68	2766
815.821	2781
815.962	2914
816.103	2941
816.244	2864
816.385	2853
816.526	2956
816.666	2868
816.807	2697
816.948	2838
817.089	2853
817.23	2868
817.371	2781
817.512	2773
817.653	2826
817.793	2830
817.934	2883
818.075	2925
818.216	2967
818.356	3024
818.497	2876
818.638	2800
818.778	2800
818.919	2769
819.06	2724
819.2	2880
819.341	2804
819.481	2766
819.622	2883
819.762	3070
819.903	3028
820.043	2899
820.184	2861
820.324	2895
820.465	2960
820.605	3001
820.746	3009
820.886	2918
821.026	3070
821.167	3157
821.307	3241
821.447	3268
821.588	3188
821.728	3173
821.868	3161
822.008	3024
822.149	3157
822.289	3180
822.429	3097
822.569	3074
822.709	3123
822.849	3009
822.99	3066
823.13	3150
823.27	3173
823.41	3112
823.55	3104
823.69	3138
823.83	3211
823.97	3104
824.11	2975
824.25	3020
824.389	3100
824.529	3123
824.669	3070
824.809	3218
824.949	3253
825.089	3211
825.228	3138
825.368	3009
825.508	3017
825.648	2967
825.787	3017
825.927	3036
826.067	2998
826.206	2948
826.346	3093
826.485	3089
826.625	3131
826.765	3287
826.904	3195
827.044	3024
827.183	2910
827.323	2906
827.462	3028
827.601	2929
827.741	2986
827.88	2986
828.02	2895
828.159	3028
828.298	3047
828.437	3146
828.577	3093
828.716	3275
828.855	3108
828.994	2963
829.134	2933
829.273	2952
829.412	2941
829.551	2914
829.69	2922
829.829	3051
829.968	3184
830.107	3062
830.246	3077
830.385	2948
830.524	2914
830.663	2853
830.802	2800
830.941	2686
831.08	2663
831.219	2804
831.357	2766
831.496	3020
831.635	2781
831.774	2682
831.913	2670
832.051	2594
832.19	2598
832.329	2708
832.467	2583
832.606	2533
832.744	2632
832.883	2644
833.022	2621
833.16	2708
833.299	2712
833.437	2746
833.576	2739
833.714	2781
833.852	2773
833.991	2815
834.129	2845
834.267	2868
834.406	2807
834.544	2914
834.682	2922
834.821	2899
834.959	3100
835.097	2918
835.235	3116
835.373	3047
835.511	3032
835.65	3005
835.788	2990
835.926	2853
836.064	2819
836.202	2872
836.34	3127
836.478	3173
836.615	3036
836.753	3150
836.891	3253
837.029	3203
837.167	3135
837.305	3085
837.443	3070
837.58	3028
837.718	3154
837.856	3100
837.993	3036
838.131	3127
838.269	3157
838.406	3127
838.544	3097
838.681	2994
838.819	2929
838.956	2876
839.094	2815
839.231	2925
839.369	3028
839.506	3397
839.643	3253
839.781	3070
839.918	2990
840.055	3093
840.193	3066
840.33	3047
840.467	3123
840.604	3203
840.742	3401
840.879	3081
841.016	3093
841.153	3138
841.29	3351
841.427	3313
841.564	3279
841.701	3325
841.838	3222
841.975	3222
842.112	3230
842.249	3097
842.385	3066
842.522	3264
842.659	3108
842.796	3074
842.933	3108
843.069	3089
843.206	3043
843.343	3199
843.479	3157
843.616	3176
843.752	2948
843.889	2880
844.025	3123
844.162	2922
844.298	3123
844.435	2960
844.571	2944
844.708	3108
844.844	3203
844.98	3268
845.117	3226
845.253	3051
845.389	3036
845.525	3112
845.661	3119
845.798	3058
845.934	3119
846.07	3028
846.206	3218
846.342	3348
846.478	3264
846.614	3093
846.75	3055
846.886	3074
847.022	3275
847.158	3142
847.294	3230
847.429	3306
847.565	3222
847.701	3500
847.837	3062
847.972	2998
848.108	3176
848.244	3180
848.379	3005
848.515	2963
848.65	2960
848.786	2971
848.921	3032
849.057	3119
849.192	3165
849.328	3116
849.463	3154
849.598	3085
849.734	3070
849.869	3020
850.004	2971
850.14	3009
850.275	2941
850.41	2891
850.545	2914
850.68	2948
850.815	2982
850.95	3013
851.085	3214
851.22	3119
851.355	3077
851.49	2998
851.625	3009
851.76	3032
851.895	2979
852.03	2941
852.165	3062
852.299	3142
852.434	3226
852.569	3154
852.703	3211
852.838	3256
852.973	3382
853.107	3370
853.242	3199
853.376	3150
853.511	3001
853.645	3058
853.78	3260
853.914	3127
854.048	3150
854.183	3116
854.317	3180
854.451	3279
854.585	3157
854.72	3062
854.854	3245
854.988	3100
855.122	3104
855.256	2998
855.39	3142
855.524	3272
855.658	3207
855.792	3142
855.926	3195
856.06	3253
856.194	3272
856.327	3173
856.461	3074
856.595	3085
856.729	3127
856.862	3233
856.996	3180
857.13	3226
857.263	3245
857.397	3245
857.53	3146
857.664	3207
857.797	3260
857.931	3256
858.064	3207
858.197	3214
858.331	3154
858.464	3089
858.597	3024
858.731	3108
858.864	3176
858.997	3100
859.13	3169
859.263	3207
859.396	3203
859.529	3097
859.662	3104
859.795	3036
859.928	3154
860.061	3283
860.194	3340
860.327	3142
860.46	3116
860.592	3268
860.725	3275
860.858	3294
860.99	3154
861.123	3085
861.256	3077
861.388	3165
861.521	3998
861.653	3066
861.786	3024
861.918	3013
862.05	3085
862.183	3108
862.315	3195
862.447	3226
862.58	3108
862.712	2971
862.844	2899
862.976	3055
863.108	3017
863.24	3454
863.372	2906
863.504	2979
863.636	2982
863.768	3066
863.9	3036
864.032	2941
864.164	2956
864.296	3051
864.428	3138
864.559	3154
864.691	3066
864.823	3089
864.954	3032
865.086	3070
865.217	3032
865.349	2971
865.48	3001
865.612	3051
865.743	3211
865.875	3017
866.006	2960
866.137	2982
866.269	3001
866.4	2967
866.531	2941
866.662	2899
866.793	2899
866.924	2929
867.055	2982
867.186	3005
867.317	2914
867.448	2857
867.579	2864
867.71	2857
867.841	2807
867.972	2929
868.103	2895
868.233	2929
868.364	2876
868.495	2899
868.625	3119
868.756	3184
868.886	3001
869.017	3047
869.147	3188
869.278	3173
869.408	3036
869.539	3074
869.669	3131
869.799	3077
869.929	3157
870.06	3085
870.19	3363
870.32	3291
870.45	3294
870.58	3401
870.71	3466
870.84	3454
870.97	3291
871.1	3226
871.23	3496
871.36	3485
871.489	3393
871.619	3397
871.749	3462
871.879	3424
872.008	3466
872.138	3378
872.267	3279
872.397	3146
872.526	3150
872.656	3039
872.785	3100
872.915	3260
873.044	3317
873.173	3272
873.303	3268
873.432	3241
873.561	3241
873.69	3165
873.819	3150
873.948	3264
874.077	3135
874.206	3070
874.335	3066
874.464	3214
874.593	3382
874.722	3272
874.851	3424
874.979	3359
875.108	3359
875.237	3222
875.365	3195
875.494	3180
875.623	3256
875.751	3108
875.88	3142
876.008	3195
876.136	3214
876.265	3409
876.393	3542
876.521	3447
876.65	3412
876.778	3378
876.906	3287
877.034	3169
877.162	3253
877.29	3184
877.418	3298
877.546	3260
877.674	3287
877.802	3264
877.93	3222
878.058	3211
878.185	3097
878.313	3188
878.441	3222
878.568	3066
878.696	3161
878.824	3291
878.951	3294
879.079	3496
879.206	3610
879.333	3435
879.461	3363
879.588	3401
879.715	3500
879.842	3614
879.97	3393
880.097	3180
880.224	3165
880.351	3211
880.478	3211
880.605	3218
880.732	3184
880.859	3515
880.986	3329
881.112	3329
881.239	3241
881.366	3066
881.493	3089
881.619	3024
881.746	3043
881.872	3093
881.999	3135
882.125	3169
882.252	3268
882.378	3321
882.505	3431
882.631	3302
882.757	3188
882.883	3233
883.01	3249
883.136	3131
883.262	3093
883.388	3127
883.514	3336
883.64	3412
883.766	3329
883.892	3207
884.018	3275
884.143	3401
884.269	3557
884.395	3214
884.52	3176
884.646	3180
884.772	3108
884.897	3119
885.023	3203
885.148	3386
885.274	3397
885.399	3382
885.524	3287
885.65	3294
885.775	3279
885.9	3268
886.025	3409
886.15	3409
886.275	3351
886.4	3233
886.525	3306
886.65	3272
886.775	3317
886.9	3492
887.025	3625
887.149	3344
887.274	3268
887.399	3157
887.523	3211
887.648	3272
887.773	3188
887.897	3401
888.021	3378
888.146	3321
888.27	3431
888.395	3553
888.519	3473
888.643	3473
888.767	3485
888.891	3294
889.015	3260
889.139	3283
889.263	3241
889.387	3424
889.511	3507
889.635	3431
889.759	3313
889.883	3302
890.006	3397
890.13	3477
890.254	3310
890.377	3359
890.501	3214
890.624	3184
890.748	3321
890.871	3188
890.995	3074
891.118	3043
891.241	3180
891.364	3233
891.488	3329
891.611	3176
891.734	3230
891.857	3283
891.98	3241
892.103	3367
892.226	3291
892.349	3245
892.471	3119
892.594	3226
892.717	3291
892.839	3321
892.962	3325
893.085	3359
893.207	3321
893.33	3165
893.452	3207
893.575	3340
893.697	3222
893.819	3473
893.941	3500
894.064	3428
894.186	3272
894.308	3298
894.43	3431
894.552	3580
894.674	3492
894.796	3287
894.918	3370
895.04	3294
895.161	3462
895.283	3378
895.405	3329
895.526	3409
895.648	3450
895.769	3454
895.891	3477
896.012	3523
896.134	3500
896.255	3462
896.376	3370
896.498	3332
896.619	3447
896.74	3363
896.861	3389
896.982	3675
897.103	3819
897.224	3580
897.345	3519
897.466	3428
897.587	3488
897.708	3606
897.828	3545
897.949	3454
898.07	3340
898.19	3447
898.311	3591
898.431	3439
898.552	3542
898.672	3622
898.792	3591
898.913	3530
899.033	3424
899.153	3332
899.273	3211
899.393	3306
899.513	3321
899.633	3291
899.753	3363
899.873	3306
899.993	3397
900.113	3313
900.232	3344
900.352	3313
900.472	3313
900.591	3195
900.711	3313
900.83	3233
900.95	3397
901.069	3507
901.189	3359
901.308	3214
901.427	3104
901.546	3176
901.665	3291
901.784	3317
901.904	3214
902.023	3135
902.141	3009
902.26	2994
902.379	3131
902.498	3112
902.617	3066
902.735	3203
902.854	3222
902.973	3222
903.091	3097
903.21	3081
903.328	3203
903.446	3119
903.565	3093
903.683	3237
903.801	3165
903.919	3283
904.038	3321
904.156	3199
904.274	3302
904.392	3310
904.51	3306
904.627	3386
904.745	3496
904.863	3538
904.981	3287
905.098	3195
905.216	3264
905.334	3336
905.451	3378
905.569	3332
905.686	3485
905.803	3473
905.921	3313
906.038	3511
906.155	3439
906.272	3283
906.389	3416
906.506	3294
906.623	3317
906.74	3329
906.857	3203
906.974	3287
907.091	3488
907.208	3606
907.324	3492
907.441	3439
907.557	3291
907.674	3268
907.79	3283
907.907	3363
908.023	3424
908.139	3412
908.256	3401
908.372	3424
908.488	3389
908.604	3329
908.72	3226
908.836	3332
908.952	3302
909.068	3382
909.184	3519
909.3	3431
909.415	3568
909.531	3568
909.647	3348
909.762	3363
909.878	3313
909.993	3386
910.108	3378
910.224	3374
910.339	3431
910.454	3397
910.57	3291
910.685	3294
910.8	3644
910.915	3553
911.03	3443
911.145	3287
911.259	3298
911.374	3428
911.489	3291
911.604	3264
911.718	3138
911.833	3203
911.947	3051
912.062	3036
912.176	3222
912.291	3245
912.405	3245
912.519	3454
912.633	3523
912.748	3389
912.862	3306
912.976	3233
913.09	3104
913.204	3169
913.318	3233
913.431	3386
913.545	3370
913.659	3458
913.772	3382
913.886	3275
914	3214
914.113	3412
914.226	3435
914.34	3389
914.453	3253
914.566	3405
914.68	3302
914.793	3351
914.906	3188
915.019	3150
915.132	3089
915.245	3207
915.358	3272
915.47	3241
915.583	3306
915.696	3351
915.809	3439
915.921	3447
916.034	3321
916.146	3283
916.259	3272
916.371	3409
916.483	3397
916.595	3268
916.708	3370
916.82	3389
916.932	3409
917.044	3382
917.156	3397
917.268	3310
917.38	3367
917.491	3355
917.603	3416
917.715	3450
917.826	3481
917.938	3424
918.049	3291
918.161	3469
918.272	3633
918.384	3557
918.495	3504
918.606	3378
918.717	3302
918.828	3363
918.939	3454
919.05	3355
919.161	3405
919.272	3249
919.383	3336
919.494	3545
919.604	3686
919.715	3500
919.826	3428
919.936	3523
920.047	3618
920.157	3595
920.267	3793
920.378	3625
920.488	3587
920.598	3827
920.708	3987
920.818	3876
920.928	3857
921.038	4082
921.148	4063
921.258	3682
921.368	3709
921.477	3652
921.587	3538
921.697	3504
921.806	3694
921.916	3561
922.025	3389
922.134	3389
922.244	3348
922.353	3428
922.462	3329
922.571	3256
922.68	3184
922.789	3093
922.898	3161
923.007	3131
923.116	3253
923.224	3241
923.333	3233
923.442	3135
923.55	3104
923.659	3146
923.767	3256
923.876	3161
923.984	3298
924.092	3157
924.201	3241
924.309	3260
924.417	3272
924.525	3203
924.633	3260
924.741	4082
924.849	3081
924.956	3287
925.064	3142
925.172	3058
925.279	3116
925.387	3245
925.494	3226
925.602	3363
925.709	3329
925.816	3222
925.924	3321
926.031	3447
926.138	3386
926.245	3420
926.352	3310
926.459	3469
926.566	3492
926.673	3317
926.779	3264
926.886	3302
926.993	3214
927.099	3138
927.206	3131
927.312	3165
927.419	3275
927.525	3199
927.631	3294
927.737	3203
927.843	3146
927.95	3070
928.056	3169
928.162	3226
928.267	3245
928.373	3869
928.479	3374
928.585	3097
928.69	3253
928.796	3344
928.901	3226
929.007	3070
929.112	3211
929.218	3233
929.323	3195
929.428	3169
929.533	3332
929.638	3184
929.743	3165
929.848	3272
929.953	3249
930.058	3184
930.163	3024
930.267	3089
930.372	3222
930.477	3093
930.581	3344
930.685	3199
930.79	3089
930.894	3146
930.998	3154
931.103	3340
931.207	3032
931.311	2998
931.415	2948
931.519	2807
931.623	2800
