Data from test_V78500241_1255.txt Node
Date: Fri Mar 25 16:23:53 CST 2022
User: usil
Spectrometer: V785-0024
Trigger mode: 0
Integration Time (sec): 4.000000E-1
Scans to average: 1
Nonlinearity correction enabled: false
Boxcar width: 0
Storing dark spectrum: false
XAxis mode: Wavelengths
Number of Pixels in Spectrum: 1024
>>>>>Begin Spectral Data<<<<<
801.071	2883
801.214	2910
801.356	2845
801.499	2899
801.641	2864
801.783	2899
801.926	3051
802.068	2982
802.211	2975
802.353	3024
802.496	2941
802.638	2982
802.78	3032
802.923	3074
803.065	3001
803.208	2914
803.35	2899
803.492	2948
803.635	2929
803.777	2781
803.919	2853
804.061	3211
804.204	2941
804.346	2941
804.488	2868
804.63	2971
804.773	2883
804.915	2929
805.057	3104
805.199	2933
805.341	2956
805.483	3043
805.626	3001
805.768	2963
805.91	3093
806.052	3097
806.194	3039
806.336	3203
806.478	3005
806.62	2925
806.762	2967
806.904	3081
807.046	3180
807.188	3013
807.33	2914
807.472	2994
807.614	2929
807.756	2994
807.898	2967
808.04	2880
808.182	2944
808.324	2944
808.465	2906
808.607	2853
808.749	2845
808.891	2853
809.033	2998
809.174	2986
809.316	2902
809.458	2906
809.6	2743
809.741	2781
809.883	2792
810.025	2868
810.166	2868
810.308	2826
810.45	2876
810.591	2777
810.733	2773
810.875	2815
811.016	2777
811.158	2750
811.299	2826
811.441	2902
811.582	2914
811.724	2842
811.865	2861
812.007	2902
812.148	2887
812.29	2853
812.431	2876
812.573	2941
812.714	2967
812.855	3043
812.997	3077
813.138	3119
813.279	3039
813.421	2982
813.562	2960
813.703	2914
813.845	2883
813.986	2811
814.127	2746
814.268	2864
814.41	2830
814.551	2785
814.692	2876
814.833	2804
814.974	2933
815.115	2956
815.256	2838
815.397	2834
815.539	2902
815.68	2792
815.821	2807
815.962	2937
816.103	2963
816.244	2876
816.385	2887
816.526	2963
816.666	2933
816.807	2758
816.948	2914
817.089	2906
817.23	2849
817.371	2804
817.512	2800
817.653	2842
817.793	2807
817.934	2868
818.075	2982
818.216	3001
818.356	3062
818.497	2895
818.638	2834
818.778	2834
818.919	2804
819.06	2762
819.2	2887
819.341	2800
819.481	2819
819.622	2963
819.762	3108
819.903	3077
820.043	2910
820.184	2872
820.324	2956
820.465	3036
820.605	3020
820.746	3017
820.886	2960
821.026	3089
821.167	3138
821.307	3253
821.447	3287
821.588	3260
821.728	3188
821.868	3188
822.008	3081
822.149	3199
822.289	3233
822.429	3081
822.569	3093
822.709	3161
822.849	3039
822.99	3032
823.13	3188
823.27	3207
823.41	3089
823.55	3150
823.69	3173
823.83	3199
823.97	3138
824.11	2994
824.25	2956
824.389	3089
824.529	3108
824.669	3074
824.809	3180
824.949	3268
825.089	3237
825.228	3154
825.368	2982
825.508	2948
825.648	3001
825.787	3047
825.927	3013
826.067	3005
826.206	2960
826.346	3017
826.485	3062
826.625	3119
826.765	3264
826.904	3207
827.044	2971
827.183	2922
827.323	2823
827.462	2956
827.601	2925
827.741	2948
827.88	2956
828.02	2815
828.159	3009
828.298	3020
828.437	3085
828.577	3051
828.716	3214
828.855	3070
828.994	2952
829.134	2864
829.273	2933
829.412	2880
829.551	2880
829.69	2895
829.829	2971
829.968	3100
830.107	3036
830.246	3001
830.385	2902
830.524	2883
830.663	2834
830.802	2708
830.941	2644
831.08	2617
831.219	2769
831.357	2766
831.496	2948
831.635	2697
831.774	2663
831.913	2667
832.051	2541
832.19	2579
832.329	2705
832.467	2526
832.606	2473
832.744	2556
832.883	2575
833.022	2602
833.16	2663
833.299	2678
833.437	2693
833.576	2686
833.714	2739
833.852	2735
833.991	2739
834.129	2807
834.267	2857
834.406	2785
834.544	2857
834.682	2838
834.821	2872
834.959	3043
835.097	2891
835.235	3074
835.373	2967
835.511	2994
835.65	2952
835.788	2963
835.926	2804
836.064	2823
836.202	2830
836.34	3081
836.478	3154
836.615	3036
836.753	3154
836.891	3218
837.029	3195
837.167	3127
837.305	3081
837.443	3036
837.58	2979
837.718	3100
837.856	3058
837.993	3024
838.131	3138
838.269	3093
838.406	3070
838.544	3066
838.681	2933
838.819	2880
838.956	2804
839.094	2826
839.231	2910
839.369	3028
839.506	3367
839.643	3226
839.781	3017
839.918	2941
840.055	3039
840.193	3036
840.33	3055
840.467	3093
840.604	3154
840.742	3401
840.879	3089
841.016	3058
841.153	3104
841.29	3298
841.427	3256
841.564	3233
841.701	3336
841.838	3184
841.975	3173
842.112	3203
842.249	3100
842.385	3043
842.522	3268
842.659	3085
842.796	3058
842.933	3074
843.069	3028
843.206	3039
843.343	3173
843.479	3062
843.616	3116
843.752	2861
843.889	2883
844.025	3070
844.162	2887
844.298	3066
844.435	2941
844.571	2906
844.708	3077
844.844	3211
844.98	3241
845.117	3173
845.253	3032
845.389	3017
845.525	3131
845.661	3081
845.798	3017
845.934	3131
846.07	3051
846.206	3192
846.342	3317
846.478	3211
846.614	3055
846.75	3055
846.886	3028
847.022	3214
847.158	3123
847.294	3207
847.429	3192
847.565	3264
847.701	3488
847.837	3047
847.972	2998
848.108	3173
848.244	3150
848.379	3005
848.515	2956
848.65	2906
848.786	2994
848.921	3020
849.057	3112
849.192	3142
849.328	3039
849.463	3108
849.598	3058
849.734	3032
849.869	2941
850.004	2933
850.14	2952
850.275	2933
850.41	2838
850.545	2910
850.68	2914
850.815	2963
850.95	2963
851.085	3165
851.22	3077
851.355	3055
851.49	2963
851.625	3024
851.76	3009
851.895	2941
852.03	2891
852.165	3039
852.299	3100
852.434	3161
852.569	3138
852.703	3173
852.838	3233
852.973	3317
853.107	3351
853.242	3161
853.376	3085
853.511	3020
853.645	3024
853.78	3218
853.914	3131
854.048	3077
854.183	3081
854.317	3146
854.451	3241
854.585	3123
854.72	3058
854.854	3253
854.988	3028
855.122	3081
855.256	2998
855.39	3116
855.524	3233
855.658	3180
855.792	3154
855.926	3176
856.06	3199
856.194	3249
856.327	3142
856.461	3051
856.595	3066
856.729	3058
856.862	3211
856.996	3195
857.13	3195
857.263	3199
857.397	3268
857.53	3131
857.664	3157
857.797	3230
857.931	3233
858.064	3154
858.197	3245
858.331	3104
858.464	3119
858.597	3024
858.731	3108
858.864	3112
858.997	3089
859.13	3127
859.263	3188
859.396	3180
859.529	3070
859.662	3097
859.795	3032
859.928	3173
860.061	3256
860.194	3279
860.327	3127
860.46	3100
860.592	3233
860.725	3218
860.858	3237
860.99	3055
861.123	3058
861.256	3017
861.388	3131
861.521	3671
861.653	3001
861.786	2975
861.918	2979
862.05	3036
862.183	3066
862.315	3169
862.447	3222
862.58	3100
862.712	2941
862.844	2895
862.976	2979
863.108	2998
863.24	3332
863.372	2853
863.504	2960
863.636	2998
863.768	3043
863.9	2982
864.032	2883
864.164	2922
864.296	3017
864.428	3062
864.559	3081
864.691	3043
864.823	3077
864.954	3013
865.086	3043
865.217	3005
865.349	2952
865.48	2982
865.612	3036
865.743	3176
865.875	2933
866.006	2910
866.137	2998
866.269	2975
866.4	2941
866.531	2910
866.662	2906
866.793	2842
866.924	2895
867.055	3017
867.186	2941
867.317	2842
867.448	2792
867.579	2857
867.71	2857
867.841	2819
867.972	2891
868.103	2872
868.233	2906
868.364	2887
868.495	2895
868.625	3055
868.756	3123
868.886	2982
869.017	3009
869.147	3146
869.278	3142
869.408	3017
869.539	3028
869.669	3104
869.799	3036
869.929	3108
870.06	3104
870.19	3298
870.32	3306
870.45	3291
870.58	3340
870.71	3428
870.84	3511
870.97	3256
871.1	3222
871.23	3469
871.36	3443
871.489	3367
871.619	3382
871.749	3389
871.879	3386
872.008	3473
872.138	3351
872.267	3256
872.397	3131
872.526	3097
872.656	3001
872.785	3112
872.915	3272
873.044	3332
873.173	3188
873.303	3214
873.432	3249
873.561	3203
873.69	3127
873.819	3138
873.948	3176
874.077	3138
874.206	3028
874.335	3097
874.464	3180
874.593	3313
874.722	3279
874.851	3370
874.979	3313
875.108	3325
875.237	3211
875.365	3169
875.494	3131
875.623	3237
875.751	3093
875.88	3097
876.008	3192
876.136	3237
876.265	3344
876.393	3488
876.521	3393
876.65	3393
876.778	3370
876.906	3260
877.034	3188
877.162	3233
877.29	3176
877.418	3241
877.546	3233
877.674	3233
877.802	3218
877.93	3192
878.058	3157
878.185	3138
878.313	3165
878.441	3173
878.568	3017
878.696	3157
878.824	3214
878.951	3264
879.079	3416
879.206	3622
879.333	3447
879.461	3351
879.588	3359
879.715	3477
879.842	3580
879.97	3340
880.097	3176
880.224	3138
880.351	3203
880.478	3226
880.605	3237
880.732	3195
880.859	3523
880.986	3294
881.112	3317
881.239	3142
881.366	3104
881.493	2982
881.619	3028
881.746	3047
881.872	3074
881.999	3070
882.125	3123
882.252	3287
882.378	3294
882.505	3450
882.631	3268
882.757	3135
882.883	3237
883.01	3245
883.136	3154
883.262	3081
883.388	3123
883.514	3306
883.64	3332
883.766	3329
883.892	3180
884.018	3306
884.143	3382
884.269	3519
884.395	3230
884.52	3165
884.646	3169
884.772	3108
884.897	3135
885.023	3169
885.148	3317
885.274	3401
885.399	3359
885.524	3264
885.65	3294
885.775	3294
885.9	3279
886.025	3443
886.15	3363
886.275	3268
886.4	3237
886.525	3313
886.65	3294
886.775	3268
886.9	3526
887.025	3584
887.149	3401
887.274	3253
887.399	3154
887.523	3218
887.648	3207
887.773	3199
887.897	3321
888.021	3389
888.146	3279
888.27	3439
888.395	3545
888.519	3424
888.643	3439
888.767	3477
888.891	3317
889.015	3218
889.139	3287
889.263	3241
889.387	3401
889.511	3485
889.635	3447
889.759	3272
889.883	3294
890.006	3424
890.13	3492
890.254	3279
890.377	3313
890.501	3199
890.624	3157
890.748	3317
890.871	3207
890.995	3112
891.118	3055
891.241	3195
891.364	3226
891.488	3351
891.611	3169
891.734	3226
891.857	3287
891.98	3283
892.103	3340
892.226	3264
892.349	3211
892.471	3100
892.594	3203
892.717	3302
892.839	3268
892.962	3272
893.085	3344
893.207	3291
893.33	3135
893.452	3173
893.575	3370
893.697	3207
893.819	3462
893.941	3504
894.064	3447
894.186	3253
894.308	3275
894.43	3439
894.552	3500
894.674	3447
894.796	3253
894.918	3306
895.04	3264
895.161	3405
895.283	3370
895.405	3264
895.526	3325
895.648	3412
895.769	3389
895.891	3439
896.012	3477
896.134	3462
896.255	3409
896.376	3389
896.498	3336
896.619	3393
896.74	3389
896.861	3393
896.982	3656
897.103	3835
897.224	3599
897.345	3538
897.466	3428
897.587	3515
897.708	3591
897.828	3557
897.949	3412
898.07	3332
898.19	3382
898.311	3572
898.431	3416
898.552	3530
898.672	3610
898.792	3599
898.913	3553
899.033	3405
899.153	3287
899.273	3226
899.393	3256
899.513	3310
899.633	3268
899.753	3325
899.873	3283
899.993	3370
900.113	3355
900.232	3355
900.352	3321
900.472	3279
900.591	3203
900.711	3294
900.83	3253
900.95	3389
901.069	3526
901.189	3363
901.308	3195
901.427	3161
901.546	3135
901.665	3287
901.784	3313
901.904	3184
902.023	3112
902.141	3001
902.26	3001
902.379	3131
902.498	3032
902.617	3043
902.735	3222
902.854	3192
902.973	3176
903.091	3047
903.21	3051
903.328	3146
903.446	3112
903.565	3081
903.683	3180
903.801	3127
903.919	3268
904.038	3279
904.156	3176
904.274	3275
904.392	3287
904.51	3283
904.627	3310
904.745	3477
904.863	3477
904.981	3245
905.098	3150
905.216	3241
905.334	3264
905.451	3298
905.569	3321
905.686	3401
905.803	3401
905.921	3275
906.038	3443
906.155	3389
906.272	3317
906.389	3348
906.506	3245
906.623	3245
906.74	3233
906.857	3154
906.974	3241
907.091	3473
907.208	3553
907.324	3443
907.441	3367
907.557	3253
907.674	3214
907.79	3184
907.907	3283
908.023	3389
908.139	3351
908.256	3348
908.372	3340
908.488	3340
908.604	3222
908.72	3214
908.836	3256
908.952	3260
909.068	3336
909.184	3492
909.3	3405
909.415	3515
909.531	3473
909.647	3310
909.762	3291
909.878	3237
909.993	3367
910.108	3279
910.224	3321
910.339	3393
910.454	3321
910.57	3317
910.685	3260
910.8	3591
910.915	3553
911.03	3428
911.145	3233
911.259	3275
911.374	3306
911.489	3241
911.604	3192
911.718	3142
911.833	3154
911.947	2998
912.062	2948
912.176	3184
912.291	3203
912.405	3214
912.519	3397
912.633	3458
912.748	3325
912.862	3283
912.976	3150
913.09	3055
913.204	3108
913.318	3169
913.431	3340
913.545	3321
913.659	3424
913.772	3325
913.886	3188
914	3195
914.113	3355
914.226	3382
914.34	3367
914.453	3188
914.566	3386
914.68	3268
914.793	3302
914.906	3161
915.019	3081
915.132	3058
915.245	3195
915.358	3218
915.47	3184
915.583	3249
915.696	3291
915.809	3416
915.921	3386
916.034	3241
916.146	3226
916.259	3211
916.371	3363
916.483	3344
916.595	3302
916.708	3336
916.82	3317
916.932	3340
917.044	3321
917.156	3355
917.268	3302
917.38	3321
917.491	3233
917.603	3340
917.715	3439
917.826	3466
917.938	3378
918.049	3287
918.161	3393
918.272	3591
918.384	3553
918.495	3500
918.606	3340
918.717	3272
918.828	3378
918.939	3393
919.05	3279
919.161	3359
919.272	3157
919.383	3256
919.494	3492
919.604	3641
919.715	3466
919.826	3416
919.936	3439
920.047	3614
920.157	3557
920.267	3743
920.378	3576
920.488	3568
920.598	3774
920.708	3956
920.818	3800
920.928	3812
921.038	4032
921.148	3983
921.258	3705
921.368	3618
921.477	3557
921.587	3545
921.697	3435
921.806	3622
921.916	3473
922.025	3363
922.134	3351
922.244	3298
922.353	3397
922.462	3302
922.571	3226
922.68	3100
922.789	3055
922.898	3138
923.007	3093
923.116	3214
923.224	3176
923.333	3203
923.442	3066
923.55	3074
923.659	3154
923.767	3233
923.876	3093
923.984	3241
924.092	3108
924.201	3176
924.309	3222
924.417	3214
924.525	3146
924.633	3214
924.741	3964
924.849	3024
924.956	3249
925.064	3119
925.172	3028
925.279	3108
925.387	3192
925.494	3184
925.602	3389
925.709	3336
925.816	3203
925.924	3230
926.031	3367
926.138	3306
926.245	3336
926.352	3253
926.459	3420
926.566	3458
926.673	3279
926.779	3253
926.886	3230
926.993	3131
927.099	3112
927.206	3097
927.312	3146
927.419	3230
927.525	3195
927.631	3279
927.737	3123
927.843	3104
927.95	3036
928.056	3165
928.162	3180
928.267	3291
928.373	3865
928.479	3275
928.585	3051
928.69	3176
928.796	3275
928.901	3161
929.007	3024
929.112	3207
929.218	3203
929.323	3192
929.428	3169
929.533	3287
929.638	3154
929.743	3199
929.848	3237
929.953	3207
930.058	3161
930.163	2986
930.267	3047
930.372	3214
930.477	3009
930.581	3279
930.685	3146
930.79	3055
930.894	3081
930.998	3097
931.103	3302
931.207	2937
931.311	2952
931.415	2941
931.519	2773
931.623	2807
