Data from test_V78500241_1089.txt Node
Date: Fri Mar 25 16:22:44 CST 2022
User: usil
Spectrometer: V785-0024
Trigger mode: 0
Integration Time (sec): 4.000000E-1
Scans to average: 1
Nonlinearity correction enabled: false
Boxcar width: 0
Storing dark spectrum: false
XAxis mode: Wavelengths
Number of Pixels in Spectrum: 1024
>>>>>Begin Spectral Data<<<<<
801.071	2891
801.214	2960
801.356	2899
801.499	2914
801.641	2887
801.783	2906
801.926	3039
802.068	2971
802.211	2975
802.353	3062
802.496	2960
802.638	2956
802.78	3043
802.923	3032
803.065	2990
803.208	2914
803.35	2914
803.492	2925
803.635	2910
803.777	2754
803.919	2857
804.061	3199
804.204	2948
804.346	2925
804.488	2823
804.63	2982
804.773	2842
804.915	2895
805.057	3077
805.199	2925
805.341	2963
805.483	3020
805.626	2967
805.768	2952
805.91	3104
806.052	3123
806.194	3005
806.336	3237
806.478	3024
806.62	2975
806.762	2960
806.904	3081
807.046	3165
807.188	3001
807.33	2918
807.472	2998
807.614	2925
807.756	2979
807.898	2956
808.04	2883
808.182	2960
808.324	2948
808.465	2883
808.607	2830
808.749	2804
808.891	2830
809.033	3001
809.174	2967
809.316	2876
809.458	2891
809.6	2743
809.741	2762
809.883	2773
810.025	2853
810.166	2845
810.308	2815
810.45	2826
810.591	2762
810.733	2773
810.875	2773
811.016	2773
811.158	2746
811.299	2785
811.441	2895
811.582	2883
811.724	2834
811.865	2834
812.007	2914
812.148	2834
812.29	2842
812.431	2872
812.573	2887
812.714	2975
812.855	3017
812.997	3043
813.138	3127
813.279	2979
813.421	2967
813.562	2948
813.703	2868
813.845	2864
813.986	2769
814.127	2746
814.268	2823
814.41	2872
814.551	2777
814.692	2872
814.833	2811
814.974	2880
815.115	2967
815.256	2819
815.397	2804
815.539	2826
815.68	2743
815.821	2762
815.962	2914
816.103	2925
816.244	2899
816.385	2880
816.526	2994
816.666	2922
816.807	2716
816.948	2853
817.089	2899
817.23	2887
817.371	2781
817.512	2762
817.653	2807
817.793	2826
817.934	2849
818.075	2982
818.216	2975
818.356	3005
818.497	2853
818.638	2773
818.778	2823
818.919	2830
819.06	2766
819.2	2861
819.341	2804
819.481	2796
819.622	2948
819.762	3104
819.903	3032
820.043	2914
820.184	2868
820.324	2902
820.465	3039
820.605	3017
820.746	3024
820.886	2929
821.026	3070
821.167	3119
821.307	3237
821.447	3302
821.588	3272
821.728	3192
821.868	3154
822.008	3058
822.149	3157
822.289	3264
822.429	3074
822.569	3089
822.709	3199
822.849	2990
822.99	3085
823.13	3150
823.27	3199
823.41	3089
823.55	3119
823.69	3108
823.83	3142
823.97	3081
824.11	2990
824.25	2967
824.389	3085
824.529	3127
824.669	3058
824.809	3192
824.949	3249
825.089	3226
825.228	3146
825.368	2979
825.508	2944
825.648	2944
825.787	3024
825.927	3009
826.067	2963
826.206	2925
826.346	3024
826.485	3036
826.625	3070
826.765	3275
826.904	3199
827.044	2963
827.183	2922
827.323	2845
827.462	2979
827.601	2895
827.741	2933
827.88	2922
828.02	2838
828.159	2986
828.298	3028
828.437	3104
828.577	3005
828.716	3237
828.855	3039
828.994	2902
829.134	2887
829.273	2899
829.412	2845
829.551	2845
829.69	2918
829.829	2956
829.968	3150
830.107	3005
830.246	3020
830.385	2925
830.524	2887
830.663	2826
830.802	2708
830.941	2648
831.08	2594
831.219	2739
831.357	2762
831.496	2952
831.635	2746
831.774	2648
831.913	2651
832.051	2549
832.19	2552
832.329	2670
832.467	2533
832.606	2488
832.744	2590
832.883	2564
833.022	2587
833.16	2636
833.299	2686
833.437	2689
833.576	2746
833.714	2735
833.852	2735
833.991	2769
834.129	2834
834.267	2857
834.406	2781
834.544	2876
834.682	2857
834.821	2872
834.959	3036
835.097	2895
835.235	3070
835.373	3024
835.511	2998
835.65	2967
835.788	2937
835.926	2838
836.064	2785
836.202	2830
836.34	3100
836.478	3150
836.615	3039
836.753	3127
836.891	3180
837.029	3173
837.167	3112
837.305	3058
837.443	3043
837.58	2963
837.718	3116
837.856	3085
837.993	3036
838.131	3081
838.269	3097
838.406	3112
838.544	3074
838.681	2922
838.819	2914
838.956	2826
839.094	2785
839.231	2902
839.369	3043
839.506	3386
839.643	3211
839.781	2975
839.918	2975
840.055	3024
840.193	3043
840.33	3093
840.467	3077
840.604	3142
840.742	3370
840.879	3024
841.016	3013
841.153	3123
841.29	3325
841.427	3310
841.564	3245
841.701	3344
841.838	3192
841.975	3161
842.112	3222
842.249	3085
842.385	3081
842.522	3253
842.659	3077
842.796	3077
842.933	3093
843.069	3020
843.206	3062
843.343	3161
843.479	3108
843.616	3097
843.752	2906
843.889	2842
844.025	3051
844.162	2864
844.298	3074
844.435	2929
844.571	2895
844.708	3039
844.844	3157
844.98	3226
845.117	3245
845.253	3047
845.389	2986
845.525	3081
845.661	3142
845.798	2998
845.934	3119
846.07	3017
846.206	3222
846.342	3302
846.478	3256
846.614	3097
846.75	3104
846.886	2979
847.022	3203
847.158	3119
847.294	3218
847.429	3214
847.565	3195
847.701	3462
847.837	3062
847.972	2963
848.108	3154
848.244	3127
848.379	2960
848.515	2948
848.65	2910
848.786	2937
848.921	2990
849.057	3104
849.192	3104
849.328	3074
849.463	3077
849.598	3074
849.734	3051
849.869	2971
850.004	2925
850.14	2948
850.275	2906
850.41	2872
850.545	2845
850.68	2906
850.815	2971
850.95	2956
851.085	3165
851.22	3089
851.355	3032
851.49	2967
851.625	2975
851.76	3005
851.895	2933
852.03	2944
852.165	3055
852.299	3135
852.434	3165
852.569	3161
852.703	3146
852.838	3218
852.973	3325
853.107	3332
853.242	3135
853.376	3055
853.511	2967
853.645	3077
853.78	3237
853.914	3135
854.048	3112
854.183	3112
854.317	3116
854.451	3294
854.585	3142
854.72	3058
854.854	3165
854.988	3032
855.122	3112
855.256	2982
855.39	3081
855.524	3268
855.658	3180
855.792	3157
855.926	3138
856.06	3203
856.194	3249
856.327	3146
856.461	3081
856.595	3085
856.729	3058
856.862	3214
856.996	3150
857.13	3161
857.263	3249
857.397	3253
857.53	3108
857.664	3192
857.797	3237
857.931	3294
858.064	3154
858.197	3207
858.331	3081
858.464	3074
858.597	2986
858.731	3112
858.864	3127
858.997	3074
859.13	3123
859.263	3161
859.396	3245
859.529	3100
859.662	3077
859.795	3058
859.928	3150
860.061	3260
860.194	3256
860.327	3142
860.46	3104
860.592	3237
860.725	3199
860.858	3245
860.99	3097
861.123	3055
861.256	3074
861.388	3142
861.521	3675
861.653	3020
861.786	2971
861.918	2986
862.05	3055
862.183	3108
862.315	3112
862.447	3230
862.58	3089
862.712	2971
862.844	2895
862.976	3017
863.108	2986
863.24	3416
863.372	2883
863.504	2971
863.636	2925
863.768	2994
863.9	2979
864.032	2899
864.164	2937
864.296	3013
864.428	3062
864.559	3085
864.691	3062
864.823	3032
864.954	3020
865.086	3036
865.217	3001
865.349	2937
865.48	2963
865.612	3009
865.743	3176
865.875	2975
866.006	2944
866.137	2971
866.269	2914
866.4	2929
866.531	2902
866.662	2895
866.793	2891
866.924	2895
867.055	2937
867.186	2906
867.317	2887
867.448	2845
867.579	2857
867.71	2819
867.841	2785
867.972	2883
868.103	2914
868.233	2906
868.364	2864
868.495	2914
868.625	3043
868.756	3157
868.886	2979
869.017	3017
869.147	3165
869.278	3127
869.408	3039
869.539	3028
869.669	3066
869.799	2986
869.929	3112
870.06	3127
870.19	3294
870.32	3302
870.45	3306
870.58	3344
870.71	3447
870.84	3488
870.97	3298
871.1	3260
871.23	3454
871.36	3447
871.489	3367
871.619	3401
871.749	3386
871.879	3458
872.008	3439
872.138	3378
872.267	3264
872.397	3146
872.526	3093
872.656	3036
872.785	3108
872.915	3199
873.044	3302
873.173	3211
873.303	3230
873.432	3275
873.561	3233
873.69	3154
873.819	3161
873.948	3173
874.077	3085
874.206	3028
874.335	3051
874.464	3222
874.593	3321
874.722	3253
874.851	3370
874.979	3378
875.108	3344
875.237	3211
875.365	3146
875.494	3184
875.623	3256
875.751	3093
875.88	3119
876.008	3146
876.136	3207
876.265	3363
876.393	3523
876.521	3405
876.65	3374
876.778	3310
876.906	3249
877.034	3207
877.162	3237
877.29	3157
877.418	3275
877.546	3241
877.674	3253
877.802	3253
877.93	3195
878.058	3138
878.185	3058
878.313	3218
878.441	3222
878.568	3009
878.696	3116
878.824	3222
878.951	3275
879.079	3439
879.206	3618
879.333	3435
879.461	3310
879.588	3409
879.715	3466
879.842	3622
879.97	3405
880.097	3138
880.224	3074
880.351	3207
880.478	3207
880.605	3169
880.732	3211
880.859	3488
880.986	3294
881.112	3313
881.239	3184
881.366	3085
881.493	3020
881.619	2998
881.746	3051
881.872	3100
881.999	3116
882.125	3123
882.252	3253
882.378	3275
882.505	3409
882.631	3260
882.757	3146
882.883	3211
883.01	3188
883.136	3112
883.262	3070
883.388	3123
883.514	3355
883.64	3374
883.766	3306
883.892	3203
884.018	3233
884.143	3382
884.269	3545
884.395	3192
884.52	3146
884.646	3161
884.772	3097
884.897	3081
885.023	3233
885.148	3332
885.274	3416
885.399	3355
885.524	3291
885.65	3268
885.775	3245
885.9	3283
886.025	3397
886.15	3359
886.275	3275
886.4	3199
886.525	3310
886.65	3256
886.775	3321
886.9	3477
887.025	3618
887.149	3401
887.274	3272
887.399	3169
887.523	3207
887.648	3169
887.773	3176
887.897	3336
888.021	3386
888.146	3287
888.27	3424
888.395	3576
888.519	3424
888.643	3420
888.767	3447
888.891	3287
889.015	3260
889.139	3253
889.263	3218
889.387	3424
889.511	3488
889.635	3454
889.759	3268
889.883	3283
890.006	3355
890.13	3469
890.254	3249
890.377	3317
890.501	3226
890.624	3176
890.748	3310
890.871	3180
890.995	3085
891.118	3051
891.241	3173
891.364	3199
891.488	3329
891.611	3169
891.734	3226
891.857	3302
891.98	3245
892.103	3298
892.226	3291
892.349	3203
892.471	3104
892.594	3218
892.717	3291
892.839	3249
892.962	3321
893.085	3401
893.207	3294
893.33	3165
893.452	3218
893.575	3321
893.697	3230
893.819	3492
893.941	3454
894.064	3443
894.186	3275
894.308	3253
894.43	3401
894.552	3538
894.674	3473
894.796	3249
894.918	3306
895.04	3294
895.161	3443
895.283	3389
895.405	3340
895.526	3351
895.648	3412
895.769	3450
895.891	3447
896.012	3416
896.134	3504
896.255	3435
896.376	3416
896.498	3374
896.619	3424
896.74	3336
896.861	3393
896.982	3660
897.103	3819
897.224	3553
897.345	3515
897.466	3401
897.587	3477
897.708	3576
897.828	3538
897.949	3450
898.07	3351
898.19	3401
898.311	3591
898.431	3466
898.552	3515
898.672	3561
898.792	3576
898.913	3511
899.033	3428
899.153	3272
899.273	3176
899.393	3283
899.513	3306
899.633	3313
899.753	3302
899.873	3279
899.993	3370
900.113	3325
900.232	3389
900.352	3367
900.472	3340
900.591	3180
900.711	3283
900.83	3272
900.95	3393
901.069	3504
901.189	3340
901.308	3173
901.427	3146
901.546	3154
901.665	3287
901.784	3332
901.904	3211
902.023	3131
902.141	3017
902.26	2956
902.379	3146
902.498	3074
902.617	3070
902.735	3207
902.854	3241
902.973	3165
903.091	3055
903.21	3081
903.328	3123
903.446	3154
903.565	3093
903.683	3195
903.801	3104
903.919	3222
904.038	3249
904.156	3192
904.274	3310
904.392	3260
904.51	3291
904.627	3332
904.745	3435
904.863	3462
904.981	3256
905.098	3138
905.216	3226
905.334	3291
905.451	3256
905.569	3298
905.686	3435
905.803	3420
905.921	3279
906.038	3439
906.155	3367
906.272	3256
906.389	3302
906.506	3214
906.623	3272
906.74	3283
906.857	3192
906.974	3245
907.091	3424
907.208	3576
907.324	3431
907.441	3389
907.557	3203
907.674	3233
907.79	3207
907.907	3256
908.023	3370
908.139	3363
908.256	3287
908.372	3382
908.488	3351
908.604	3249
908.72	3233
908.836	3287
908.952	3302
909.068	3332
909.184	3477
909.3	3340
909.415	3538
909.531	3500
909.647	3253
909.762	3272
909.878	3245
909.993	3344
910.108	3313
910.224	3310
910.339	3397
910.454	3332
910.57	3272
910.685	3218
910.8	3564
910.915	3534
911.03	3428
911.145	3245
911.259	3253
911.374	3260
911.489	3291
911.604	3226
911.718	3112
911.833	3146
911.947	2982
912.062	3005
912.176	3165
912.291	3176
912.405	3211
912.519	3412
912.633	3458
912.748	3321
912.862	3230
912.976	3188
913.09	3070
913.204	3116
913.318	3184
913.431	3317
913.545	3317
913.659	3416
913.772	3302
913.886	3195
914	3176
914.113	3325
914.226	3351
914.34	3382
914.453	3195
914.566	3397
914.68	3275
914.793	3332
914.906	3154
915.019	3142
915.132	3020
915.245	3192
915.358	3207
915.47	3195
915.583	3249
915.696	3272
915.809	3424
915.921	3409
916.034	3253
916.146	3264
916.259	3203
916.371	3412
916.483	3359
916.595	3275
916.708	3355
916.82	3313
916.932	3351
917.044	3363
917.156	3336
917.268	3260
917.38	3306
917.491	3306
917.603	3409
917.715	3466
917.826	3466
917.938	3386
918.049	3283
918.161	3507
918.272	3595
918.384	3591
918.495	3481
918.606	3367
918.717	3317
918.828	3397
918.939	3466
919.05	3340
919.161	3431
919.272	3203
919.383	3313
919.494	3542
919.604	3720
919.715	3530
919.826	3405
919.936	3431
920.047	3606
920.157	3633
920.267	3797
920.378	3629
920.488	3599
920.598	3823
920.708	4006
920.818	3831
920.928	3842
921.038	4044
921.148	4051
921.258	3747
921.368	3622
921.477	3580
921.587	3606
921.697	3485
921.806	3675
921.916	3523
922.025	3439
922.134	3348
922.244	3359
922.353	3500
922.462	3321
922.571	3283
922.68	3150
922.789	3131
922.898	3188
923.007	3169
923.116	3264
923.224	3268
923.333	3211
923.442	3161
923.55	3138
923.659	3169
923.767	3268
923.876	3142
923.984	3272
924.092	3119
924.201	3230
924.309	3272
924.417	3344
924.525	3241
924.633	3298
924.741	4055
924.849	3074
924.956	3283
925.064	3138
925.172	3085
925.279	3154
925.387	3222
925.494	3245
925.602	3409
925.709	3393
925.816	3203
925.924	3321
926.031	3405
926.138	3351
926.245	3382
926.352	3279
926.459	3435
926.566	3530
926.673	3336
926.779	3264
926.886	3283
926.993	3176
927.099	3135
927.206	3146
927.312	3138
927.419	3226
927.525	3203
927.631	3264
927.737	3176
927.843	3150
927.95	3047
928.056	3161
928.162	3207
928.267	3298
928.373	3899
928.479	3344
928.585	3097
928.69	3253
928.796	3283
928.901	3237
929.007	3066
929.112	3256
929.218	3203
929.323	3188
929.428	3165
929.533	3344
929.638	3157
929.743	3214
929.848	3298
929.953	3211
930.058	3180
930.163	3043
930.267	3066
930.372	3184
930.477	3070
930.581	3336
930.685	3230
930.79	3135
930.894	3131
930.998	3081
931.103	3291
931.207	3013
931.311	2990
931.415	2982
931.519	2811
931.623	2849
