Data from test_V78500241_865.txt Node
Date: Fri Mar 25 16:21:11 CST 2022
User: usil
Spectrometer: V785-0024
Trigger mode: 0
Integration Time (sec): 4.000000E-1
Scans to average: 1
Nonlinearity correction enabled: false
Boxcar width: 0
Storing dark spectrum: false
XAxis mode: Wavelengths
Number of Pixels in Spectrum: 1024
>>>>>Begin Spectral Data<<<<<
801.071	2914
801.214	2941
801.356	2902
801.499	2910
801.641	2883
801.783	2906
801.926	3055
802.068	2982
802.211	2990
802.353	3062
802.496	2971
802.638	3005
802.78	3051
802.923	3089
803.065	3028
803.208	2902
803.35	2941
803.492	2967
803.635	2941
803.777	2746
803.919	2857
804.061	3180
804.204	2963
804.346	2891
804.488	2857
804.63	2956
804.773	2845
804.915	2906
805.057	3058
805.199	2948
805.341	2971
805.483	3032
805.626	3017
805.768	2982
805.91	3116
806.052	3097
806.194	3066
806.336	3233
806.478	3036
806.62	2963
806.762	2986
806.904	3043
807.046	3165
807.188	2956
807.33	2922
807.472	2982
807.614	2956
807.756	2990
807.898	2933
808.04	2910
808.182	2979
808.324	2967
808.465	2857
808.607	2887
808.749	2804
808.891	2868
809.033	3005
809.174	2982
809.316	2880
809.458	2868
809.6	2739
809.741	2746
809.883	2788
810.025	2853
810.166	2838
810.308	2834
810.45	2830
810.591	2781
810.733	2804
810.875	2838
811.016	2762
811.158	2750
811.299	2807
811.441	2910
811.582	2891
811.724	2838
811.865	2811
812.007	2918
812.148	2857
812.29	2883
812.431	2891
812.573	2887
812.714	2941
812.855	3009
812.997	3058
813.138	3104
813.279	2975
813.421	2971
813.562	2960
813.703	2861
813.845	2910
813.986	2746
814.127	2720
814.268	2845
814.41	2811
814.551	2823
814.692	2868
814.833	2815
814.974	2883
815.115	2971
815.256	2830
815.397	2800
815.539	2815
815.68	2758
815.821	2766
815.962	2887
816.103	2956
816.244	2868
816.385	2891
816.526	2952
816.666	2944
816.807	2750
816.948	2868
817.089	2922
817.23	2861
817.371	2743
817.512	2773
817.653	2826
817.793	2811
817.934	2887
818.075	2967
818.216	2975
818.356	3013
818.497	2861
818.638	2758
818.778	2796
818.919	2800
819.06	2746
819.2	2887
819.341	2815
819.481	2823
819.622	2925
819.762	3127
819.903	3058
820.043	2902
820.184	2910
820.324	2914
820.465	2990
820.605	3013
820.746	3001
820.886	2956
821.026	3055
821.167	3138
821.307	3279
821.447	3313
821.588	3233
821.728	3207
821.868	3222
822.008	3089
822.149	3188
822.289	3253
822.429	3100
822.569	3097
822.709	3188
822.849	3039
822.99	3055
823.13	3203
823.27	3192
823.41	3169
823.55	3188
823.69	3188
823.83	3245
823.97	3108
824.11	3028
824.25	3039
824.389	3112
824.529	3131
824.669	3089
824.809	3245
824.949	3321
825.089	3275
825.228	3214
825.368	3062
825.508	3005
825.648	3001
825.787	3058
825.927	3051
826.067	2975
826.206	2963
826.346	3047
826.485	3127
826.625	3150
826.765	3310
826.904	3218
827.044	3024
827.183	2922
827.323	2891
827.462	3009
827.601	2952
827.741	2929
827.88	2990
828.02	2899
828.159	2986
828.298	3085
828.437	3138
828.577	3058
828.716	3279
828.855	3100
828.994	2948
829.134	2922
829.273	2929
829.412	2902
829.551	2887
829.69	2956
829.829	3005
829.968	3169
830.107	3020
830.246	3070
830.385	2952
830.524	2891
830.663	2857
830.802	2781
830.941	2686
831.08	2697
831.219	2766
831.357	2804
831.496	2963
831.635	2781
831.774	2674
831.913	2727
832.051	2613
832.19	2617
832.329	2727
832.467	2575
832.606	2507
832.744	2617
832.883	2651
833.022	2629
833.16	2724
833.299	2720
833.437	2708
833.576	2724
833.714	2754
833.852	2815
833.991	2834
834.129	2880
834.267	2910
834.406	2811
834.544	2937
834.682	2922
834.821	2902
834.959	3100
835.097	2956
835.235	3089
835.373	3051
835.511	3051
835.65	3005
835.788	2998
835.926	2891
836.064	2876
836.202	2857
836.34	3112
836.478	3199
836.615	3104
836.753	3214
836.891	3279
837.029	3211
837.167	3108
837.305	3097
837.443	3108
837.58	2998
837.718	3192
837.856	3123
837.993	3043
838.131	3135
838.269	3127
838.406	3146
838.544	3154
838.681	2960
838.819	2937
838.956	2845
839.094	2868
839.231	2948
839.369	3055
839.506	3420
839.643	3260
839.781	3017
839.918	3009
840.055	3127
840.193	3093
840.33	3085
840.467	3131
840.604	3142
840.742	3412
840.879	3089
841.016	3058
841.153	3150
841.29	3409
841.427	3291
841.564	3268
841.701	3359
841.838	3207
841.975	3211
842.112	3256
842.249	3089
842.385	3070
842.522	3298
842.659	3138
842.796	3066
842.933	3123
843.069	3074
843.206	3085
843.343	3176
843.479	3142
843.616	3165
843.752	2963
843.889	2849
844.025	3123
844.162	2914
844.298	3100
844.435	2979
844.571	2933
844.708	3097
844.844	3245
844.98	3241
845.117	3218
845.253	3085
845.389	3047
845.525	3108
845.661	3131
845.798	3062
845.934	3142
846.07	3077
846.206	3256
846.342	3378
846.478	3249
846.614	3100
846.75	3089
846.886	3039
847.022	3211
847.158	3180
847.294	3192
847.429	3272
847.565	3272
847.701	3507
847.837	3039
847.972	3036
848.108	3188
848.244	3169
848.379	2998
848.515	2960
848.65	2967
848.786	2963
848.921	3020
849.057	3089
849.192	3150
849.328	3116
849.463	3100
849.598	3062
849.734	3081
849.869	2979
850.004	2963
850.14	2994
850.275	2933
850.41	2876
850.545	2922
850.68	2922
850.815	2998
850.95	3005
851.085	3214
851.22	3131
851.355	3062
851.49	3017
851.625	3036
851.76	3013
851.895	2933
852.03	2937
852.165	3039
852.299	3135
852.434	3203
852.569	3127
852.703	3214
852.838	3245
852.973	3359
853.107	3355
853.242	3176
853.376	3135
853.511	2998
853.645	3039
853.78	3260
853.914	3116
854.048	3108
854.183	3142
854.317	3176
854.451	3313
854.585	3138
854.72	3112
854.854	3226
854.988	3100
855.122	3097
855.256	2982
855.39	3146
855.524	3272
855.658	3188
855.792	3180
855.926	3214
856.06	3222
856.194	3298
856.327	3211
856.461	3100
856.595	3123
856.729	3119
856.862	3268
856.996	3192
857.13	3241
857.263	3272
857.397	3302
857.53	3157
857.664	3222
857.797	3275
857.931	3298
858.064	3203
858.197	3233
858.331	3157
858.464	3100
858.597	3036
858.731	3119
858.864	3154
858.997	3108
859.13	3188
859.263	3222
859.396	3241
859.529	3077
859.662	3093
859.795	3047
859.928	3165
860.061	3272
860.194	3256
860.327	3184
860.46	3131
860.592	3279
860.725	3233
860.858	3332
860.99	3131
861.123	3097
861.256	3081
861.388	3165
861.521	3842
861.653	3036
861.786	3024
861.918	3032
862.05	3062
862.183	3093
862.315	3199
862.447	3203
862.58	3116
862.712	2986
862.844	2891
862.976	3070
863.108	3032
863.24	3340
863.372	2880
863.504	2994
863.636	2986
863.768	3074
863.9	2998
864.032	2922
864.164	2971
864.296	3017
864.428	3127
864.559	3123
864.691	3123
864.823	3077
864.954	3047
865.086	3070
865.217	3032
865.349	3001
865.48	2979
865.612	3043
865.743	3173
865.875	3009
866.006	2948
866.137	2994
866.269	2937
866.4	2971
866.531	2925
866.662	2906
866.793	2941
866.924	2895
867.055	3032
867.186	2929
867.317	2910
867.448	2823
867.579	2861
867.71	2861
867.841	2845
867.972	2944
868.103	2918
868.233	2891
868.364	2880
868.495	2925
868.625	3112
868.756	3161
868.886	2979
869.017	3055
869.147	3211
869.278	3180
869.408	3039
869.539	3055
869.669	3108
869.799	3070
869.929	3165
870.06	3100
870.19	3374
870.32	3310
870.45	3321
870.58	3397
870.71	3462
870.84	3431
870.97	3317
871.1	3222
871.23	3496
871.36	3466
871.489	3355
871.619	3401
871.749	3412
871.879	3488
872.008	3454
872.138	3355
872.267	3268
872.397	3150
872.526	3123
872.656	3028
872.785	3116
872.915	3275
873.044	3317
873.173	3245
873.303	3256
873.432	3249
873.561	3226
873.69	3157
873.819	3157
873.948	3214
874.077	3123
874.206	3085
874.335	3097
874.464	3233
874.593	3355
874.722	3272
874.851	3393
874.979	3340
875.108	3348
875.237	3218
875.365	3214
875.494	3165
875.623	3275
875.751	3097
875.88	3104
876.008	3226
876.136	3237
876.265	3412
876.393	3515
876.521	3420
876.65	3431
876.778	3325
876.906	3260
877.034	3222
877.162	3253
877.29	3207
877.418	3249
877.546	3279
877.674	3249
877.802	3260
877.93	3237
878.058	3150
878.185	3131
878.313	3203
878.441	3218
878.568	3093
878.696	3169
878.824	3264
878.951	3298
879.079	3469
879.206	3622
879.333	3450
879.461	3313
879.588	3405
879.715	3534
879.842	3599
879.97	3416
880.097	3203
880.224	3142
880.351	3195
880.478	3218
880.605	3203
880.732	3142
880.859	3485
880.986	3321
881.112	3321
881.239	3241
881.366	3089
881.493	3081
881.619	3024
881.746	3093
881.872	3097
881.999	3089
882.125	3161
882.252	3264
882.378	3291
882.505	3447
882.631	3317
882.757	3161
882.883	3211
883.01	3237
883.136	3184
883.262	3116
883.388	3123
883.514	3329
883.64	3393
883.766	3378
883.892	3192
884.018	3241
884.143	3431
884.269	3587
884.395	3226
884.52	3195
884.646	3188
884.772	3169
884.897	3108
885.023	3241
885.148	3397
885.274	3439
885.399	3397
885.524	3294
885.65	3272
885.775	3340
885.9	3313
886.025	3439
886.15	3355
886.275	3332
886.4	3233
886.525	3294
886.65	3275
886.775	3264
886.9	3485
887.025	3682
887.149	3401
887.274	3245
887.399	3192
887.523	3207
887.648	3180
887.773	3218
887.897	3405
888.021	3393
888.146	3317
888.27	3462
888.395	3538
888.519	3416
888.643	3431
888.767	3469
888.891	3302
889.015	3260
889.139	3291
889.263	3214
889.387	3416
889.511	3496
889.635	3473
889.759	3279
889.883	3306
890.006	3389
890.13	3458
890.254	3279
890.377	3359
890.501	3195
890.624	3203
890.748	3298
890.871	3218
890.995	3100
891.118	3100
891.241	3249
891.364	3180
891.488	3302
891.611	3207
891.734	3192
891.857	3264
891.98	3245
892.103	3363
892.226	3313
892.349	3237
892.471	3085
892.594	3237
892.717	3283
892.839	3268
892.962	3279
893.085	3317
893.207	3317
893.33	3188
893.452	3199
893.575	3336
893.697	3310
893.819	3488
893.941	3519
894.064	3439
894.186	3321
894.308	3249
894.43	3458
894.552	3530
894.674	3507
894.796	3325
894.918	3325
895.04	3272
895.161	3447
895.283	3405
895.405	3306
895.526	3370
895.648	3462
895.769	3401
895.891	3443
896.012	3504
896.134	3469
896.255	3412
896.376	3363
896.498	3359
896.619	3450
896.74	3332
896.861	3424
896.982	3736
897.103	3835
897.224	3614
897.345	3488
897.466	3454
897.587	3534
897.708	3625
897.828	3572
897.949	3477
898.07	3340
898.19	3447
898.311	3663
898.431	3428
898.552	3526
898.672	3591
898.792	3549
898.913	3523
899.033	3428
899.153	3253
899.273	3230
899.393	3256
899.513	3306
899.633	3348
899.753	3370
899.873	3317
899.993	3424
900.113	3313
900.232	3405
900.352	3340
900.472	3298
900.591	3192
900.711	3264
900.83	3237
900.95	3416
901.069	3481
901.189	3329
901.308	3169
901.427	3173
901.546	3154
901.665	3272
901.784	3374
901.904	3199
902.023	3104
902.141	3001
902.26	3024
902.379	3135
902.498	3074
902.617	3100
902.735	3249
902.854	3283
902.973	3192
903.091	3085
903.21	3043
903.328	3146
903.446	3108
903.565	3135
903.683	3199
903.801	3123
903.919	3256
904.038	3275
904.156	3188
904.274	3313
904.392	3253
904.51	3268
904.627	3348
904.745	3443
904.863	3428
904.981	3272
905.098	3173
905.216	3237
905.334	3310
905.451	3306
905.569	3313
905.686	3477
905.803	3450
905.921	3302
906.038	3435
906.155	3340
906.272	3287
906.389	3313
906.506	3192
906.623	3268
906.74	3268
906.857	3180
906.974	3268
907.091	3485
907.208	3561
907.324	3416
907.441	3348
907.557	3222
907.674	3218
907.79	3226
907.907	3283
908.023	3431
908.139	3359
908.256	3336
908.372	3397
908.488	3351
908.604	3256
908.72	3226
908.836	3283
908.952	3302
909.068	3355
909.184	3477
909.3	3363
909.415	3477
909.531	3500
909.647	3272
909.762	3287
909.878	3237
909.993	3363
910.108	3336
910.224	3344
910.339	3447
910.454	3321
910.57	3306
910.685	3214
910.8	3545
910.915	3545
911.03	3393
911.145	3264
911.259	3253
911.374	3287
911.489	3245
911.604	3249
911.718	3150
911.833	3138
911.947	3032
912.062	2971
912.176	3173
912.291	3192
912.405	3188
912.519	3405
912.633	3447
912.748	3325
912.862	3256
912.976	3161
913.09	3051
913.204	3135
913.318	3211
913.431	3298
913.545	3340
913.659	3374
913.772	3355
913.886	3222
914	3237
914.113	3397
914.226	3405
914.34	3363
914.453	3218
914.566	3416
914.68	3329
914.793	3329
914.906	3192
915.019	3116
915.132	3089
915.245	3173
915.358	3188
915.47	3237
915.583	3279
915.696	3249
915.809	3386
915.921	3431
916.034	3294
916.146	3256
916.259	3233
916.371	3431
916.483	3329
916.595	3272
916.708	3344
916.82	3329
916.932	3351
917.044	3336
917.156	3344
917.268	3264
917.38	3287
917.491	3310
917.603	3367
917.715	3458
917.826	3424
917.938	3363
918.049	3291
918.161	3431
918.272	3610
918.384	3572
918.495	3500
918.606	3340
918.717	3306
918.828	3409
918.939	3431
919.05	3336
919.161	3355
919.272	3169
919.383	3268
919.494	3485
919.604	3671
919.715	3469
919.826	3397
919.936	3492
920.047	3599
920.157	3584
920.267	3751
920.378	3622
920.488	3557
920.598	3808
920.708	3945
920.818	3857
920.928	3808
921.038	4010
921.148	3979
921.258	3690
921.368	3652
921.477	3526
921.587	3557
921.697	3450
921.806	3580
921.916	3526
922.025	3336
922.134	3382
922.244	3310
922.353	3416
922.462	3256
922.571	3237
922.68	3074
922.789	3089
922.898	3100
923.007	3093
923.116	3195
923.224	3165
923.333	3211
923.442	3097
923.55	3104
923.659	3146
923.767	3256
923.876	3161
923.984	3256
924.092	3116
924.201	3226
924.309	3203
924.417	3283
924.525	3207
924.633	3218
924.741	4158
924.849	2998
924.956	3272
925.064	3108
925.172	3043
925.279	3127
925.387	3203
925.494	3173
925.602	3367
925.709	3344
925.816	3184
925.924	3291
926.031	3397
926.138	3321
926.245	3363
926.352	3272
926.459	3370
926.566	3473
926.673	3325
926.779	3222
926.886	3253
926.993	3176
927.099	3127
927.206	3116
927.312	3119
927.419	3237
927.525	3233
927.631	3268
927.737	3169
927.843	3119
927.95	3047
928.056	3169
928.162	3180
928.267	3283
928.373	3781
928.479	3317
928.585	3070
928.69	3214
928.796	3241
928.901	3131
929.007	3074
929.112	3214
929.218	3184
929.323	3150
929.428	3154
929.533	3321
929.638	3131
929.743	3150
929.848	3272
929.953	3233
930.058	3150
930.163	2979
930.267	3062
930.372	3203
930.477	3062
930.581	3310
930.685	3169
930.79	3058
930.894	3116
930.998	3085
931.103	3264
931.207	2956
931.311	2914
931.415	2937
931.519	2750
931.623	2815
