Data from test_V78500241_569.txt Node
Date: Fri Mar 25 16:19:08 CST 2022
User: usil
Spectrometer: V785-0024
Trigger mode: 0
Integration Time (sec): 4.000000E-1
Scans to average: 1
Nonlinearity correction enabled: false
Boxcar width: 0
Storing dark spectrum: false
XAxis mode: Wavelengths
Number of Pixels in Spectrum: 1024
>>>>>Begin Spectral Data<<<<<
801.071	2929
801.214	2956
801.356	2857
801.499	2941
801.641	2902
801.783	2918
801.926	3077
802.068	3036
802.211	3005
802.353	3032
802.496	2971
802.638	3032
802.78	3043
802.923	3138
803.065	3024
803.208	2933
803.35	2925
803.492	2963
803.635	2922
803.777	2727
803.919	2819
804.061	3211
804.204	2990
804.346	2883
804.488	2861
804.63	3017
804.773	2845
804.915	2944
805.057	3123
805.199	2922
805.341	3043
805.483	3062
805.626	2998
805.768	3001
805.91	3062
806.052	3108
806.194	3062
806.336	3256
806.478	3036
806.62	2967
806.762	2967
806.904	3077
807.046	3180
807.188	2971
807.33	2956
807.472	3001
807.614	2937
807.756	2956
807.898	2922
808.04	2922
808.182	2979
808.324	2967
808.465	2902
808.607	2876
808.749	2792
808.891	2845
809.033	3001
809.174	3009
809.316	2925
809.458	2902
809.6	2788
809.741	2788
809.883	2788
810.025	2849
810.166	2864
810.308	2853
810.45	2861
810.591	2777
810.733	2788
810.875	2826
811.016	2781
811.158	2739
811.299	2807
811.441	2960
811.582	2918
811.724	2830
811.865	2845
812.007	2933
812.148	2891
812.29	2868
812.431	2880
812.573	2948
812.714	2967
812.855	3047
812.997	3024
813.138	3116
813.279	3032
813.421	2990
813.562	2933
813.703	2857
813.845	2887
813.986	2743
814.127	2724
814.268	2876
814.41	2834
814.551	2834
814.692	2891
814.833	2823
814.974	2925
815.115	2948
815.256	2876
815.397	2788
815.539	2895
815.68	2773
815.821	2781
815.962	2925
816.103	2956
816.244	2891
816.385	2880
816.526	2925
816.666	2902
816.807	2731
816.948	2868
817.089	2883
817.23	2861
817.371	2785
817.512	2766
817.653	2834
817.793	2849
817.934	2883
818.075	2971
818.216	2982
818.356	3020
818.497	2910
818.638	2834
818.778	2807
818.919	2788
819.06	2724
819.2	2845
819.341	2842
819.481	2796
819.622	2963
819.762	3138
819.903	3009
820.043	2922
820.184	2876
820.324	2933
820.465	2990
820.605	2990
820.746	3051
820.886	2933
821.026	3085
821.167	3161
821.307	3226
821.447	3291
821.588	3249
821.728	3226
821.868	3214
822.008	3062
822.149	3237
822.289	3291
822.429	3097
822.569	3085
822.709	3173
822.849	3039
822.99	3104
823.13	3165
823.27	3176
823.41	3104
823.55	3146
823.69	3161
823.83	3233
823.97	3108
824.11	3024
824.25	2994
824.389	3070
824.529	3127
824.669	3077
824.809	3233
824.949	3249
825.089	3256
825.228	3184
825.368	3077
825.508	2994
825.648	2998
825.787	3066
825.927	3036
826.067	3028
826.206	2990
826.346	3089
826.485	3093
826.625	3135
826.765	3298
826.904	3253
827.044	3028
827.183	2960
827.323	2914
827.462	3039
827.601	2998
827.741	2944
827.88	2982
828.02	2880
828.159	3039
828.298	3058
828.437	3104
828.577	3104
828.716	3291
828.855	3104
828.994	2960
829.134	2914
829.273	2952
829.412	2880
829.551	2902
829.69	2918
829.829	3055
829.968	3138
830.107	3055
830.246	3043
830.385	2956
830.524	2914
830.663	2849
830.802	2773
830.941	2735
831.08	2674
831.219	2777
831.357	2807
831.496	2990
831.635	2777
831.774	2648
831.913	2686
832.051	2571
832.19	2587
832.329	2750
832.467	2560
832.606	2503
832.744	2606
832.883	2598
833.022	2663
833.16	2705
833.299	2712
833.437	2735
833.576	2754
833.714	2746
833.852	2830
833.991	2815
834.129	2887
834.267	2849
834.406	2830
834.544	2906
834.682	2937
834.821	2933
834.959	3100
835.097	2918
835.235	3154
835.373	3024
835.511	3036
835.65	2998
835.788	2990
835.926	2872
836.064	2880
836.202	2876
836.34	3131
836.478	3203
836.615	3100
836.753	3169
836.891	3237
837.029	3199
837.167	3131
837.305	3100
837.443	3100
837.58	3036
837.718	3146
837.856	3108
837.993	3066
838.131	3165
838.269	3112
838.406	3112
838.544	3169
838.681	2963
838.819	2929
838.956	2842
839.094	2880
839.231	2922
839.369	3081
839.506	3416
839.643	3237
839.781	3039
839.918	2986
840.055	3112
840.193	3058
840.33	3070
840.467	3138
840.604	3176
840.742	3401
840.879	3077
841.016	3077
841.153	3169
841.29	3367
841.427	3317
841.564	3287
841.701	3370
841.838	3260
841.975	3157
842.112	3237
842.249	3116
842.385	3070
842.522	3306
842.659	3119
842.796	3058
842.933	3146
843.069	3062
843.206	3070
843.343	3207
843.479	3165
843.616	3165
843.752	2956
843.889	2918
844.025	3116
844.162	2929
844.298	3119
844.435	2952
844.571	2929
844.708	3116
844.844	3195
844.98	3291
845.117	3161
845.253	3104
845.389	3024
845.525	3146
845.661	3135
845.798	3024
845.934	3165
846.07	3100
846.206	3268
846.342	3325
846.478	3230
846.614	3123
846.75	3116
846.886	3070
847.022	3310
847.158	3157
847.294	3230
847.429	3306
847.565	3226
847.701	3466
847.837	3070
847.972	3043
848.108	3218
848.244	3169
848.379	3020
848.515	2990
848.65	2914
848.786	2986
848.921	3028
849.057	3135
849.192	3135
849.328	3112
849.463	3104
849.598	3093
849.734	3074
849.869	3020
850.004	2963
850.14	2986
850.275	2948
850.41	2849
850.545	2918
850.68	2948
850.815	2986
850.95	3001
851.085	3214
851.22	3157
851.355	3036
851.49	2982
851.625	3013
851.76	3058
851.895	2956
852.03	2941
852.165	3058
852.299	3146
852.434	3230
852.569	3169
852.703	3188
852.838	3287
852.973	3378
853.107	3367
853.242	3176
853.376	3116
853.511	3001
853.645	3062
853.78	3203
853.914	3157
854.048	3142
854.183	3074
854.317	3214
854.451	3325
854.585	3203
854.72	3058
854.854	3222
854.988	3070
855.122	3119
855.256	2998
855.39	3108
855.524	3279
855.658	3256
855.792	3142
855.926	3226
856.06	3279
856.194	3291
856.327	3165
856.461	3104
856.595	3104
856.729	3119
856.862	3249
856.996	3195
857.13	3249
857.263	3260
857.397	3283
857.53	3154
857.664	3214
857.797	3226
857.931	3264
858.064	3207
858.197	3211
858.331	3180
858.464	3119
858.597	3001
858.731	3097
858.864	3184
858.997	3089
859.13	3188
859.263	3192
859.396	3203
859.529	3119
859.662	3104
859.795	3055
859.928	3154
860.061	3306
860.194	3348
860.327	3165
860.46	3112
860.592	3253
860.725	3260
860.858	3245
860.99	3119
861.123	3100
861.256	3058
861.388	3173
861.521	3724
861.653	3070
861.786	2990
861.918	3051
862.05	3074
862.183	3119
862.315	3154
862.447	3180
862.58	3127
862.712	2963
862.844	2883
862.976	3085
863.108	3024
863.24	3409
863.372	2899
863.504	2990
863.636	2986
863.768	3066
863.9	3013
864.032	2922
864.164	2979
864.296	3036
864.428	3100
864.559	3127
864.691	3085
864.823	3093
864.954	3047
865.086	3047
865.217	3001
865.349	2971
865.48	3028
865.612	3066
865.743	3207
865.875	2963
866.006	2948
866.137	3009
866.269	2929
866.4	2948
866.531	2937
866.662	2906
866.793	2918
866.924	2922
867.055	2956
867.186	2937
867.317	2910
867.448	2861
867.579	2857
867.71	2857
867.841	2834
867.972	2925
868.103	2883
868.233	2891
868.364	2880
868.495	2910
868.625	3093
868.756	3192
868.886	2990
869.017	3036
869.147	3188
869.278	3176
869.408	3051
869.539	3077
869.669	3161
869.799	3074
869.929	3154
870.06	3131
870.19	3344
870.32	3298
870.45	3325
870.58	3359
870.71	3420
870.84	3488
870.97	3325
871.1	3256
871.23	3549
871.36	3481
871.489	3355
871.619	3412
871.749	3477
871.879	3420
872.008	3526
872.138	3382
872.267	3329
872.397	3188
872.526	3142
872.656	3032
872.785	3116
872.915	3268
873.044	3348
873.173	3283
873.303	3253
873.432	3283
873.561	3249
873.69	3180
873.819	3146
873.948	3211
874.077	3150
874.206	3062
874.335	3108
874.464	3199
874.593	3405
874.722	3268
874.851	3454
874.979	3340
875.108	3336
875.237	3203
875.365	3184
875.494	3180
875.623	3279
875.751	3127
875.88	3165
876.008	3207
876.136	3264
876.265	3389
876.393	3542
876.521	3462
876.65	3386
876.778	3367
876.906	3268
877.034	3207
877.162	3237
877.29	3157
877.418	3302
877.546	3264
877.674	3294
877.802	3264
877.93	3260
878.058	3154
878.185	3131
878.313	3222
878.441	3211
878.568	3074
878.696	3154
878.824	3275
878.951	3329
879.079	3492
879.206	3625
879.333	3485
879.461	3355
879.588	3378
879.715	3504
879.842	3625
879.97	3397
880.097	3199
880.224	3097
880.351	3264
880.478	3256
880.605	3218
880.732	3207
880.859	3523
880.986	3325
881.112	3332
881.239	3214
881.366	3135
881.493	3047
881.619	3051
881.746	3066
881.872	3119
881.999	3127
882.125	3161
882.252	3230
882.378	3336
882.505	3405
882.631	3329
882.757	3207
882.883	3233
883.01	3256
883.136	3161
883.262	3108
883.388	3097
883.514	3378
883.64	3363
883.766	3294
883.892	3222
884.018	3237
884.143	3386
884.269	3553
884.395	3222
884.52	3173
884.646	3161
884.772	3135
884.897	3119
885.023	3203
885.148	3367
885.274	3477
885.399	3359
885.524	3245
885.65	3279
885.775	3340
885.9	3283
886.025	3424
886.15	3397
886.275	3313
886.4	3268
886.525	3317
886.65	3283
886.775	3291
886.9	3473
887.025	3629
887.149	3412
887.274	3279
887.399	3241
887.523	3203
887.648	3195
887.773	3222
887.897	3424
888.021	3420
888.146	3344
888.27	3420
888.395	3564
888.519	3469
888.643	3439
888.767	3466
888.891	3313
889.015	3256
889.139	3287
889.263	3306
889.387	3405
889.511	3485
889.635	3454
889.759	3329
889.883	3336
890.006	3405
890.13	3481
890.254	3287
890.377	3355
890.501	3214
890.624	3211
890.748	3298
890.871	3207
890.995	3142
891.118	3108
891.241	3233
891.364	3214
891.488	3329
891.611	3180
891.734	3237
891.857	3313
891.98	3241
892.103	3367
892.226	3256
892.349	3253
892.471	3154
892.594	3245
892.717	3340
892.839	3272
892.962	3260
893.085	3374
893.207	3310
893.33	3146
893.452	3180
893.575	3351
893.697	3268
893.819	3485
893.941	3572
894.064	3454
894.186	3245
894.308	3294
894.43	3500
894.552	3564
894.674	3477
894.796	3302
894.918	3336
895.04	3287
895.161	3492
895.283	3424
895.405	3313
895.526	3370
895.648	3420
895.769	3435
895.891	3443
896.012	3454
896.134	3519
896.255	3401
896.376	3397
896.498	3370
896.619	3443
896.74	3382
896.861	3382
896.982	3720
897.103	3850
897.224	3618
897.345	3515
897.466	3428
897.587	3549
897.708	3606
897.828	3538
897.949	3462
898.07	3367
898.19	3397
898.311	3641
898.431	3431
898.552	3553
898.672	3603
898.792	3584
898.913	3538
899.033	3386
899.153	3325
899.273	3260
899.393	3321
899.513	3351
899.633	3336
899.753	3351
899.873	3332
899.993	3409
900.113	3321
900.232	3370
900.352	3336
900.472	3294
900.591	3218
900.711	3268
900.83	3241
900.95	3393
901.069	3496
901.189	3344
901.308	3253
901.427	3135
901.546	3161
901.665	3287
901.784	3351
901.904	3264
902.023	3146
902.141	3043
902.26	2990
902.379	3207
902.498	3108
902.617	3066
902.735	3222
902.854	3222
902.973	3226
903.091	3032
903.21	3074
903.328	3176
903.446	3104
903.565	3150
903.683	3226
903.801	3146
903.919	3241
904.038	3291
904.156	3195
904.274	3279
904.392	3264
904.51	3291
904.627	3340
904.745	3450
904.863	3507
904.981	3310
905.098	3195
905.216	3226
905.334	3275
905.451	3287
905.569	3321
905.686	3416
905.803	3481
905.921	3287
906.038	3393
906.155	3374
906.272	3313
906.389	3355
906.506	3245
906.623	3264
906.74	3249
906.857	3214
906.974	3256
907.091	3454
907.208	3614
907.324	3485
907.441	3424
907.557	3233
907.674	3256
907.79	3226
907.907	3260
908.023	3386
908.139	3382
908.256	3348
908.372	3401
908.488	3363
908.604	3272
908.72	3272
908.836	3287
908.952	3302
909.068	3363
909.184	3488
909.3	3397
909.415	3462
909.531	3481
909.647	3268
909.762	3294
909.878	3287
909.993	3351
910.108	3329
910.224	3321
910.339	3405
910.454	3351
910.57	3313
910.685	3264
910.8	3591
910.915	3523
911.03	3458
911.145	3272
911.259	3294
911.374	3291
911.489	3287
911.604	3275
911.718	3131
911.833	3150
911.947	2986
912.062	2998
912.176	3188
912.291	3161
912.405	3218
912.519	3439
912.633	3447
912.748	3363
912.862	3294
912.976	3161
913.09	3070
913.204	3119
913.318	3256
913.431	3306
913.545	3329
913.659	3447
913.772	3325
913.886	3256
914	3214
914.113	3355
914.226	3393
914.34	3389
914.453	3245
914.566	3416
914.68	3283
914.793	3310
914.906	3165
915.019	3074
915.132	3028
915.245	3184
915.358	3203
915.47	3245
915.583	3260
915.696	3336
915.809	3370
915.921	3428
916.034	3241
916.146	3256
916.259	3237
916.371	3389
916.483	3386
916.595	3279
916.708	3310
916.82	3344
916.932	3355
917.044	3355
917.156	3344
917.268	3256
917.38	3283
917.491	3317
917.603	3397
917.715	3458
917.826	3477
917.938	3374
918.049	3249
918.161	3447
918.272	3633
918.384	3572
918.495	3473
918.606	3317
918.717	3283
918.828	3420
918.939	3412
919.05	3298
919.161	3351
919.272	3173
919.383	3287
919.494	3515
919.604	3724
919.715	3507
919.826	3420
919.936	3496
920.047	3564
920.157	3534
920.267	3778
920.378	3614
920.488	3564
920.598	3755
920.708	3987
920.818	3785
920.928	3812
921.038	4059
921.148	3975
921.258	3694
921.368	3637
921.477	3572
921.587	3572
921.697	3488
921.806	3614
921.916	3523
922.025	3340
922.134	3351
922.244	3336
922.353	3409
922.462	3245
922.571	3264
922.68	3089
922.789	3097
922.898	3135
923.007	3085
923.116	3192
923.224	3154
923.333	3233
923.442	3089
923.55	3119
923.659	3138
923.767	3214
923.876	3104
923.984	3260
924.092	3112
924.201	3199
924.309	3207
924.417	3253
924.525	3195
924.633	3287
924.741	4010
924.849	3066
924.956	3245
925.064	3100
925.172	3062
925.279	3119
925.387	3207
925.494	3192
925.602	3329
925.709	3374
925.816	3237
925.924	3287
926.031	3405
926.138	3306
926.245	3359
926.352	3237
926.459	3412
926.566	3504
926.673	3340
926.779	3253
926.886	3245
926.993	3195
927.099	3138
927.206	3123
927.312	3154
927.419	3233
927.525	3199
927.631	3233
927.737	3142
927.843	3127
927.95	3032
928.056	3173
928.162	3157
928.267	3245
928.373	3736
928.479	3287
928.585	3058
928.69	3218
928.796	3256
928.901	3180
929.007	3039
929.112	3207
929.218	3184
929.323	3154
929.428	3165
929.533	3291
929.638	3100
929.743	3180
929.848	3291
929.953	3230
930.058	3146
930.163	3005
930.267	3051
930.372	3214
930.477	3024
930.581	3351
930.685	3203
930.79	3051
930.894	3142
930.998	3108
931.103	3283
931.207	2952
931.311	2895
931.415	2929
931.519	2769
931.623	2785
