Data from test_V78500241_923.txt Node
Date: Fri Mar 25 16:21:35 CST 2022
User: usil
Spectrometer: V785-0024
Trigger mode: 0
Integration Time (sec): 4.000000E-1
Scans to average: 1
Nonlinearity correction enabled: false
Boxcar width: 0
Storing dark spectrum: false
XAxis mode: Wavelengths
Number of Pixels in Spectrum: 1024
>>>>>Begin Spectral Data<<<<<
801.071	2933
801.214	2990
801.356	2918
801.499	2910
801.641	2906
801.783	2944
801.926	3104
802.068	3028
802.211	3009
802.353	3051
802.496	2982
802.638	3051
802.78	3055
802.923	3127
803.065	3039
803.208	2929
803.35	2944
803.492	2948
803.635	2948
803.777	2773
803.919	2891
804.061	3222
804.204	2971
804.346	2922
804.488	2872
804.63	2994
804.773	2887
804.915	2925
805.057	3116
805.199	2933
805.341	2975
805.483	3036
805.626	3043
805.768	3005
805.91	3066
806.052	3142
806.194	3055
806.336	3226
806.478	3032
806.62	2986
806.762	2979
806.904	3062
807.046	3218
807.188	2979
807.33	2960
807.472	3020
807.614	2971
807.756	3036
807.898	2929
808.04	2906
808.182	3032
808.324	2967
808.465	2902
808.607	2933
808.749	2796
808.891	2864
809.033	2979
809.174	3020
809.316	2910
809.458	2922
809.6	2785
809.741	2769
809.883	2800
810.025	2849
810.166	2864
810.308	2876
810.45	2887
810.591	2773
810.733	2785
810.875	2872
811.016	2807
811.158	2807
811.299	2842
811.441	2956
811.582	2902
811.724	2842
811.865	2895
812.007	2922
812.148	2876
812.29	2883
812.431	2922
812.573	2944
812.714	2994
812.855	3077
812.997	3093
813.138	3123
813.279	3036
813.421	2956
813.562	2971
813.703	2887
813.845	2902
813.986	2777
814.127	2766
814.268	2830
814.41	2842
814.551	2861
814.692	2861
814.833	2811
814.974	2872
815.115	3001
815.256	2853
815.397	2819
815.539	2895
815.68	2845
815.821	2842
815.962	2960
816.103	2941
816.244	2944
816.385	2868
816.526	2979
816.666	2979
816.807	2792
816.948	2906
817.089	2922
817.23	2887
817.371	2823
817.512	2826
817.653	2876
817.793	2849
817.934	2876
818.075	2994
818.216	3020
818.356	3024
818.497	2872
818.638	2785
818.778	2876
818.919	2834
819.06	2788
819.2	2925
819.341	2838
819.481	2845
819.622	2944
819.762	3116
819.903	3085
820.043	2922
820.184	2925
820.324	2864
820.465	2982
820.605	3028
820.746	3009
820.886	2933
821.026	3127
821.167	3127
821.307	3279
821.447	3275
821.588	3226
821.728	3203
821.868	3226
822.008	3104
822.149	3207
822.289	3283
822.429	3119
822.569	3097
822.709	3146
822.849	3081
822.99	3081
823.13	3161
823.27	3214
823.41	3138
823.55	3108
823.69	3154
823.83	3226
823.97	3104
824.11	3024
824.25	3028
824.389	3077
824.529	3100
824.669	3097
824.809	3173
824.949	3298
825.089	3253
825.228	3218
825.368	2986
825.508	2963
825.648	2929
825.787	3055
825.927	3036
826.067	2963
826.206	2982
826.346	3066
826.485	3074
826.625	3108
826.765	3283
826.904	3260
827.044	3001
827.183	2952
827.323	2891
827.462	2998
827.601	2948
827.741	2933
827.88	2982
828.02	2849
828.159	3028
828.298	2979
828.437	3135
828.577	3058
828.716	3253
828.855	3116
828.994	2925
829.134	2895
829.273	2941
829.412	2910
829.551	2864
829.69	2902
829.829	2998
829.968	3150
830.107	3017
830.246	3039
830.385	2914
830.524	2876
830.663	2819
830.802	2705
830.941	2686
831.08	2674
831.219	2758
831.357	2758
831.496	2971
831.635	2750
831.774	2659
831.913	2678
832.051	2575
832.19	2587
832.329	2697
832.467	2549
832.606	2495
832.744	2606
832.883	2606
833.022	2583
833.16	2686
833.299	2682
833.437	2693
833.576	2731
833.714	2731
833.852	2739
833.991	2746
834.129	2868
834.267	2838
834.406	2823
834.544	2872
834.682	2899
834.821	2910
834.959	3074
835.097	2929
835.235	3081
835.373	3028
835.511	3024
835.65	2925
835.788	2956
835.926	2838
836.064	2838
836.202	2849
836.34	3100
836.478	3165
836.615	3093
836.753	3100
836.891	3214
837.029	3157
837.167	3146
837.305	3077
837.443	3058
837.58	2956
837.718	3146
837.856	3077
837.993	3051
838.131	3112
838.269	3070
838.406	3070
838.544	3097
838.681	2937
838.819	2948
838.956	2838
839.094	2853
839.231	2895
839.369	3055
839.506	3412
839.643	3218
839.781	3001
839.918	2979
840.055	3039
840.193	3062
840.33	3081
840.467	3123
840.604	3142
840.742	3473
840.879	3058
841.016	3081
841.153	3173
841.29	3332
841.427	3329
841.564	3275
841.701	3302
841.838	3268
841.975	3176
842.112	3211
842.249	3085
842.385	3043
842.522	3233
842.659	3116
842.796	3074
842.933	3100
843.069	3024
843.206	3039
843.343	3157
843.479	3116
843.616	3169
843.752	2883
843.889	2883
844.025	3104
844.162	2910
844.298	3085
844.435	2948
844.571	2929
844.708	3097
844.844	3184
844.98	3222
845.117	3230
845.253	3047
845.389	2967
845.525	3127
845.661	3108
845.798	3039
845.934	3135
846.07	3047
846.206	3245
846.342	3313
846.478	3211
846.614	3070
846.75	3097
846.886	3039
847.022	3233
847.158	3142
847.294	3230
847.429	3222
847.565	3218
847.701	3519
847.837	3039
847.972	3020
848.108	3154
848.244	3138
848.379	3001
848.515	2952
848.65	2933
848.786	2967
848.921	2998
849.057	3154
849.192	3142
849.328	3077
849.463	3104
849.598	3093
849.734	3039
849.869	2994
850.004	2929
850.14	2979
850.275	2925
850.41	2849
850.545	2902
850.68	2982
850.815	2960
850.95	2933
851.085	3203
851.22	3100
851.355	3066
851.49	3001
851.625	3043
851.76	3097
851.895	2933
852.03	2925
852.165	3055
852.299	3157
852.434	3207
852.569	3169
852.703	3214
852.838	3275
852.973	3359
853.107	3378
853.242	3199
853.376	3142
853.511	3009
853.645	3051
853.78	3256
853.914	3146
854.048	3138
854.183	3127
854.317	3161
854.451	3313
854.585	3188
854.72	3097
854.854	3241
854.988	3089
855.122	3104
855.256	3001
855.39	3154
855.524	3256
855.658	3184
855.792	3211
855.926	3256
856.06	3256
856.194	3294
856.327	3157
856.461	3116
856.595	3100
856.729	3123
856.862	3249
856.996	3192
857.13	3207
857.263	3245
857.397	3298
857.53	3142
857.664	3222
857.797	3287
857.931	3298
858.064	3192
858.197	3268
858.331	3176
858.464	3142
858.597	3028
858.731	3161
858.864	3154
858.997	3161
859.13	3173
859.263	3230
859.396	3233
859.529	3123
859.662	3066
859.795	3093
859.928	3169
860.061	3310
860.194	3340
860.327	3150
860.46	3154
860.592	3302
860.725	3321
860.858	3272
860.99	3161
861.123	3097
861.256	3089
861.388	3146
861.521	3846
861.653	3058
861.786	3013
861.918	3039
862.05	3097
862.183	3154
862.315	3192
862.447	3226
862.58	3138
862.712	2967
862.844	2895
862.976	3066
863.108	3020
863.24	3332
863.372	2918
863.504	3028
863.636	2944
863.768	3077
863.9	3009
864.032	2960
864.164	2975
864.296	3062
864.428	3119
864.559	3142
864.691	3097
864.823	3146
864.954	3093
865.086	3051
865.217	3032
865.349	2971
865.48	3017
865.612	3062
865.743	3203
865.875	3036
866.006	2975
866.137	3005
866.269	2975
866.4	2944
866.531	2960
866.662	2910
866.793	2929
866.924	2929
867.055	3017
867.186	2971
867.317	2910
867.448	2895
867.579	2910
867.71	2838
867.841	2842
867.972	2937
868.103	2929
868.233	2910
868.364	2914
868.495	2929
868.625	3127
868.756	3211
868.886	2998
869.017	3085
869.147	3180
869.278	3195
869.408	3058
869.539	3070
869.669	3081
869.799	3077
869.929	3176
870.06	3142
870.19	3329
870.32	3310
870.45	3317
870.58	3405
870.71	3481
870.84	3450
870.97	3325
871.1	3275
871.23	3511
871.36	3458
871.489	3370
871.619	3466
871.749	3443
871.879	3477
872.008	3496
872.138	3409
872.267	3310
872.397	3203
872.526	3127
872.656	3055
872.785	3116
872.915	3268
873.044	3336
873.173	3287
873.303	3275
873.432	3302
873.561	3268
873.69	3180
873.819	3150
873.948	3214
874.077	3157
874.206	3070
874.335	3112
874.464	3245
874.593	3370
874.722	3298
874.851	3431
874.979	3409
875.108	3344
875.237	3218
875.365	3192
875.494	3165
875.623	3256
875.751	3150
875.88	3195
876.008	3192
876.136	3249
876.265	3416
876.393	3507
876.521	3431
876.65	3450
876.778	3393
876.906	3291
877.034	3222
877.162	3260
877.29	3222
877.418	3321
877.546	3272
877.674	3249
877.802	3283
877.93	3264
878.058	3180
878.185	3161
878.313	3260
878.441	3184
878.568	3085
878.696	3169
878.824	3351
878.951	3313
879.079	3420
879.206	3675
879.333	3450
879.461	3378
879.588	3374
879.715	3519
879.842	3622
879.97	3405
880.097	3161
880.224	3131
880.351	3192
880.478	3264
880.605	3230
880.732	3199
880.859	3564
880.986	3321
881.112	3321
881.239	3214
881.366	3131
881.493	3081
881.619	3066
881.746	3097
881.872	3131
881.999	3154
882.125	3188
882.252	3306
882.378	3298
882.505	3428
882.631	3313
882.757	3165
882.883	3241
883.01	3272
883.136	3180
883.262	3097
883.388	3112
883.514	3313
883.64	3420
883.766	3348
883.892	3218
884.018	3253
884.143	3428
884.269	3568
884.395	3230
884.52	3199
884.646	3218
884.772	3131
884.897	3131
885.023	3230
885.148	3374
885.274	3450
885.399	3378
885.524	3310
885.65	3291
885.775	3367
885.9	3279
886.025	3447
886.15	3412
886.275	3302
886.4	3249
886.525	3355
886.65	3306
886.775	3325
886.9	3553
887.025	3644
887.149	3424
887.274	3279
887.399	3230
887.523	3199
887.648	3211
887.773	3195
887.897	3370
888.021	3416
888.146	3332
888.27	3447
888.395	3580
888.519	3420
888.643	3454
888.767	3488
888.891	3367
889.015	3268
889.139	3329
889.263	3256
889.387	3420
889.511	3488
889.635	3481
889.759	3275
889.883	3294
890.006	3397
890.13	3477
890.254	3283
890.377	3378
890.501	3207
890.624	3203
890.748	3313
890.871	3180
890.995	3169
891.118	3093
891.241	3245
891.364	3245
891.488	3348
891.611	3211
891.734	3249
891.857	3306
891.98	3230
892.103	3348
892.226	3287
892.349	3291
892.471	3157
892.594	3279
892.717	3344
892.839	3313
892.962	3332
893.085	3378
893.207	3321
893.33	3192
893.452	3199
893.575	3389
893.697	3294
893.819	3504
893.941	3530
894.064	3481
894.186	3298
894.308	3268
894.43	3481
894.552	3587
894.674	3500
894.796	3302
894.918	3321
895.04	3325
895.161	3450
895.283	3431
895.405	3355
895.526	3397
895.648	3435
895.769	3477
895.891	3488
896.012	3507
896.134	3500
896.255	3393
896.376	3405
896.498	3382
896.619	3431
896.74	3382
896.861	3397
896.982	3690
897.103	3869
897.224	3618
897.345	3561
897.466	3450
897.587	3530
897.708	3641
897.828	3591
897.949	3481
898.07	3321
898.19	3431
898.311	3595
898.431	3450
898.552	3530
898.672	3625
898.792	3648
898.913	3530
899.033	3386
899.153	3313
899.273	3268
899.393	3298
899.513	3344
899.633	3340
899.753	3359
899.873	3317
899.993	3405
900.113	3313
900.232	3378
900.352	3340
900.472	3313
900.591	3218
900.711	3310
900.83	3260
900.95	3420
901.069	3526
901.189	3386
901.308	3173
901.427	3184
901.546	3188
901.665	3351
901.784	3370
901.904	3230
902.023	3154
902.141	3074
902.26	3066
902.379	3165
902.498	3077
902.617	3051
902.735	3230
902.854	3253
902.973	3222
903.091	3066
903.21	3097
903.328	3150
903.446	3131
903.565	3116
903.683	3241
903.801	3157
903.919	3260
904.038	3298
904.156	3173
904.274	3310
904.392	3283
904.51	3359
904.627	3359
904.745	3447
904.863	3549
904.981	3256
905.098	3241
905.216	3279
905.334	3317
905.451	3329
905.569	3336
905.686	3511
905.803	3431
905.921	3321
906.038	3439
906.155	3370
906.272	3313
906.389	3355
906.506	3245
906.623	3294
906.74	3291
906.857	3169
906.974	3233
907.091	3481
907.208	3568
907.324	3523
907.441	3370
907.557	3230
907.674	3249
907.79	3211
907.907	3275
908.023	3374
908.139	3378
908.256	3370
908.372	3374
908.488	3382
908.604	3253
908.72	3241
908.836	3306
908.952	3275
909.068	3359
909.184	3511
909.3	3405
909.415	3481
909.531	3447
909.647	3272
909.762	3283
909.878	3253
909.993	3370
910.108	3420
910.224	3378
910.339	3420
910.454	3367
910.57	3329
910.685	3245
910.8	3622
910.915	3515
911.03	3439
911.145	3283
911.259	3260
911.374	3336
911.489	3237
911.604	3207
911.718	3138
911.833	3127
911.947	3043
912.062	2979
912.176	3188
912.291	3214
912.405	3203
912.519	3458
912.633	3488
912.748	3351
912.862	3302
912.976	3173
913.09	3074
913.204	3161
913.318	3237
913.431	3302
913.545	3370
913.659	3458
913.772	3351
913.886	3188
914	3218
914.113	3355
914.226	3393
914.34	3332
914.453	3241
914.566	3428
914.68	3291
914.793	3340
914.906	3180
915.019	3131
915.132	3089
915.245	3222
915.358	3237
915.47	3283
915.583	3306
915.696	3287
915.809	3435
915.921	3450
916.034	3291
916.146	3268
916.259	3230
916.371	3435
916.483	3374
916.595	3245
916.708	3344
916.82	3325
916.932	3336
917.044	3348
917.156	3351
917.268	3264
917.38	3325
917.491	3313
917.603	3382
917.715	3473
917.826	3462
917.938	3374
918.049	3253
918.161	3469
918.272	3549
918.384	3618
918.495	3481
918.606	3374
918.717	3287
918.828	3378
918.939	3420
919.05	3344
919.161	3397
919.272	3157
919.383	3294
919.494	3538
919.604	3694
919.715	3447
919.826	3435
919.936	3477
920.047	3629
920.157	3576
920.267	3785
920.378	3610
920.488	3568
920.598	3789
920.708	3968
920.818	3854
920.928	3846
921.038	4006
921.148	4036
921.258	3740
921.368	3660
921.477	3587
921.587	3568
921.697	3466
921.806	3667
921.916	3504
922.025	3367
922.134	3374
922.244	3359
922.353	3409
922.462	3272
922.571	3260
922.68	3097
922.789	3085
922.898	3150
923.007	3058
923.116	3184
923.224	3173
923.333	3211
923.442	3104
923.55	3131
923.659	3188
923.767	3211
923.876	3127
923.984	3218
924.092	3097
924.201	3154
924.309	3237
924.417	3230
924.525	3203
924.633	3249
924.741	4215
924.849	3055
924.956	3287
925.064	3116
925.172	3032
925.279	3123
925.387	3233
925.494	3203
925.602	3393
925.709	3336
925.816	3195
925.924	3310
926.031	3401
926.138	3370
926.245	3344
926.352	3272
926.459	3435
926.566	3500
926.673	3355
926.779	3253
926.886	3291
926.993	3154
927.099	3157
927.206	3077
927.312	3169
927.419	3275
927.525	3207
927.631	3241
927.737	3203
927.843	3173
927.95	3028
928.056	3138
928.162	3150
928.267	3207
928.373	3903
928.479	3321
928.585	3081
928.69	3233
928.796	3291
928.901	3138
929.007	3077
929.112	3241
929.218	3195
929.323	3161
929.428	3150
929.533	3306
929.638	3127
929.743	3173
929.848	3298
929.953	3237
930.058	3127
930.163	3009
930.267	3024
930.372	3207
930.477	3047
930.581	3321
930.685	3192
930.79	3093
930.894	3116
930.998	3085
931.103	3275
931.207	2971
931.311	2994
931.415	2963
931.519	2781
931.623	2845
