Data from test_V78500241_613.txt Node
Date: Fri Mar 25 16:19:27 CST 2022
User: usil
Spectrometer: V785-0024
Trigger mode: 0
Integration Time (sec): 4.000000E-1
Scans to average: 1
Nonlinearity correction enabled: false
Boxcar width: 0
Storing dark spectrum: false
XAxis mode: Wavelengths
Number of Pixels in Spectrum: 1024
>>>>>Begin Spectral Data<<<<<
801.071	2941
801.214	2998
801.356	2933
801.499	2948
801.641	2899
801.783	2952
801.926	3081
802.068	2998
802.211	3013
802.353	3077
802.496	3001
802.638	3085
802.78	3066
802.923	3074
803.065	3051
803.208	2933
803.35	2902
803.492	2944
803.635	2941
803.777	2781
803.919	2887
804.061	3230
804.204	2918
804.346	2910
804.488	2838
804.63	3009
804.773	2899
804.915	2929
805.057	3100
805.199	2944
805.341	2986
805.483	3066
805.626	3013
805.768	3009
805.91	3112
806.052	3093
806.194	3043
806.336	3249
806.478	3024
806.62	2971
806.762	2982
806.904	3081
807.046	3157
807.188	2979
807.33	2906
807.472	2998
807.614	2895
807.756	2967
807.898	2971
808.04	2891
808.182	2948
808.324	2937
808.465	2883
808.607	2891
808.749	2800
808.891	2876
809.033	3009
809.174	2944
809.316	2864
809.458	2906
809.6	2773
809.741	2769
809.883	2804
810.025	2842
810.166	2891
810.308	2864
810.45	2887
810.591	2781
810.733	2750
810.875	2838
811.016	2796
811.158	2785
811.299	2819
811.441	2914
811.582	2902
811.724	2800
811.865	2849
812.007	2880
812.148	2895
812.29	2853
812.431	2906
812.573	2948
812.714	2975
812.855	3047
812.997	3028
813.138	3108
813.279	3032
813.421	2971
813.562	2994
813.703	2861
813.845	2899
813.986	2788
814.127	2712
814.268	2792
814.41	2864
814.551	2811
814.692	2914
814.833	2830
814.974	2918
815.115	2982
815.256	2845
815.397	2796
815.539	2876
815.68	2781
815.821	2777
815.962	2937
816.103	2929
816.244	2891
816.385	2872
816.526	2979
816.666	2956
816.807	2769
816.948	2880
817.089	2914
817.23	2861
817.371	2781
817.512	2762
817.653	2861
817.793	2834
817.934	2887
818.075	2975
818.216	2960
818.356	3001
818.497	2891
818.638	2796
818.778	2857
818.919	2792
819.06	2781
819.2	2883
819.341	2815
819.481	2785
819.622	2956
819.762	3150
819.903	3028
820.043	2918
820.184	2910
820.324	2891
820.465	3024
820.605	3032
820.746	3036
820.886	2944
821.026	3085
821.167	3169
821.307	3268
821.447	3256
821.588	3260
821.728	3222
821.868	3207
822.008	3093
822.149	3176
822.289	3222
822.429	3108
822.569	3097
822.709	3169
822.849	3036
822.99	3070
823.13	3230
823.27	3233
823.41	3123
823.55	3154
823.69	3154
823.83	3192
823.97	3085
824.11	3005
824.25	3001
824.389	3051
824.529	3127
824.669	3081
824.809	3192
824.949	3253
825.089	3207
825.228	3169
825.368	3013
825.508	2960
825.648	2994
825.787	3020
825.927	3043
826.067	2933
826.206	2998
826.346	3043
826.485	3112
826.625	3157
826.765	3264
826.904	3226
827.044	3024
827.183	2933
827.323	2891
827.462	2971
827.601	2933
827.741	2933
827.88	2986
828.02	2823
828.159	2963
828.298	3051
828.437	3100
828.577	3039
828.716	3218
828.855	3066
828.994	2906
829.134	2883
829.273	2929
829.412	2891
829.551	2876
829.69	2914
829.829	3020
829.968	3135
830.107	2986
830.246	3028
830.385	2929
830.524	2902
830.663	2853
830.802	2746
830.941	2640
831.08	2674
831.219	2762
831.357	2773
831.496	2937
831.635	2720
831.774	2655
831.913	2705
832.051	2575
832.19	2568
832.329	2735
832.467	2541
832.606	2499
832.744	2560
832.883	2629
833.022	2552
833.16	2674
833.299	2712
833.437	2716
833.576	2686
833.714	2712
833.852	2731
833.991	2697
834.129	2826
834.267	2823
834.406	2811
834.544	2849
834.682	2880
834.821	2910
834.959	3081
835.097	2960
835.235	3055
835.373	3009
835.511	3028
835.65	2948
835.788	2971
835.926	2842
836.064	2788
836.202	2891
836.34	3142
836.478	3142
836.615	3036
836.753	3123
836.891	3207
837.029	3131
837.167	3142
837.305	3112
837.443	3039
837.58	2944
837.718	3108
837.856	3055
837.993	3013
838.131	3097
838.269	3097
838.406	3077
838.544	3062
838.681	2967
838.819	2906
838.956	2781
839.094	2853
839.231	2914
839.369	3047
839.506	3340
839.643	3211
839.781	3017
839.918	2975
840.055	3058
840.193	3097
840.33	3051
840.467	3100
840.604	3169
840.742	3397
840.879	3020
841.016	3043
841.153	3127
841.29	3348
841.427	3317
841.564	3260
841.701	3283
841.838	3169
841.975	3173
842.112	3176
842.249	3047
842.385	3028
842.522	3260
842.659	3074
842.796	3085
842.933	3097
843.069	3074
843.206	3047
843.343	3138
843.479	3100
843.616	3112
843.752	2922
843.889	2876
844.025	3051
844.162	2872
844.298	3070
844.435	2960
844.571	2887
844.708	3070
844.844	3176
844.98	3272
845.117	3192
845.253	3070
845.389	3009
845.525	3104
845.661	3100
845.798	3001
845.934	3146
846.07	3066
846.206	3230
846.342	3332
846.478	3207
846.614	3066
846.75	3036
846.886	3024
847.022	3226
847.158	3123
847.294	3188
847.429	3203
847.565	3180
847.701	3477
847.837	3017
847.972	2990
848.108	3108
848.244	3112
848.379	2982
848.515	2922
848.65	2956
848.786	2922
848.921	3020
849.057	3089
849.192	3123
849.328	3074
849.463	3100
849.598	3039
849.734	3013
849.869	2967
850.004	2933
850.14	2963
850.275	2922
850.41	2815
850.545	2899
850.68	2948
850.815	2948
850.95	2956
851.085	3188
851.22	3116
851.355	3047
851.49	2960
851.625	2990
851.76	2986
851.895	2937
852.03	2902
852.165	3009
852.299	3100
852.434	3195
852.569	3127
852.703	3146
852.838	3253
852.973	3336
853.107	3336
853.242	3150
853.376	3058
853.511	3017
853.645	3017
853.78	3237
853.914	3100
854.048	3146
854.183	3100
854.317	3138
854.451	3332
854.585	3142
854.72	3108
854.854	3203
854.988	3017
855.122	3058
855.256	2994
855.39	3142
855.524	3233
855.658	3135
855.792	3154
855.926	3199
856.06	3203
856.194	3279
856.327	3131
856.461	3108
856.595	3055
856.729	3047
856.862	3226
856.996	3146
857.13	3192
857.263	3230
857.397	3291
857.53	3097
857.664	3203
857.797	3245
857.931	3291
858.064	3150
858.197	3203
858.331	3142
858.464	3097
858.597	3001
858.731	3093
858.864	3142
858.997	3074
859.13	3150
859.263	3207
859.396	3165
859.529	3062
859.662	3039
859.795	3039
859.928	3154
860.061	3272
860.194	3279
860.327	3142
860.46	3127
860.592	3279
860.725	3264
860.858	3283
860.99	3077
861.123	3062
861.256	3077
861.388	3131
861.521	3732
861.653	3005
861.786	3013
861.918	3020
862.05	3047
862.183	3108
862.315	3142
862.447	3169
862.58	3119
862.712	2952
862.844	2902
862.976	3009
863.108	2994
863.24	3389
863.372	2902
863.504	2944
863.636	2944
863.768	3024
863.9	2963
864.032	2906
864.164	2906
864.296	2971
864.428	3085
864.559	3116
864.691	3043
864.823	3070
864.954	3024
865.086	3017
865.217	2986
865.349	2960
865.48	3001
865.612	3032
865.743	3161
865.875	3005
866.006	2937
866.137	2963
866.269	2952
866.4	2914
866.531	2929
866.662	2910
866.793	2891
866.924	2910
867.055	2986
867.186	2929
867.317	2899
867.448	2826
867.579	2842
867.71	2838
867.841	2796
867.972	2876
868.103	2880
868.233	2838
868.364	2845
868.495	2918
868.625	3085
868.756	3173
868.886	2956
869.017	2956
869.147	3146
869.278	3123
869.408	3051
869.539	3013
869.669	3112
869.799	3001
869.929	3127
870.06	3081
870.19	3298
870.32	3313
870.45	3306
870.58	3340
870.71	3435
870.84	3439
870.97	3283
871.1	3211
871.23	3473
871.36	3439
871.489	3409
871.619	3405
871.749	3431
871.879	3428
872.008	3477
872.138	3332
872.267	3241
872.397	3173
872.526	3119
872.656	3009
872.785	3085
872.915	3237
873.044	3321
873.173	3233
873.303	3249
873.432	3275
873.561	3241
873.69	3169
873.819	3123
873.948	3222
874.077	3074
874.206	3055
874.335	3074
874.464	3195
874.593	3367
874.722	3222
874.851	3389
874.979	3355
875.108	3294
875.237	3165
875.365	3154
875.494	3180
875.623	3226
875.751	3062
875.88	3108
876.008	3165
876.136	3199
876.265	3355
876.393	3515
876.521	3458
876.65	3359
876.778	3336
876.906	3268
877.034	3192
877.162	3226
877.29	3173
877.418	3249
877.546	3222
877.674	3253
877.802	3195
877.93	3237
878.058	3161
878.185	3119
878.313	3214
878.441	3207
878.568	3055
878.696	3146
878.824	3214
878.951	3291
879.079	3416
879.206	3625
879.333	3443
879.461	3344
879.588	3332
879.715	3458
879.842	3599
879.97	3397
880.097	3142
880.224	3089
880.351	3176
880.478	3245
880.605	3218
880.732	3173
880.859	3504
880.986	3310
881.112	3363
881.239	3188
881.366	3058
881.493	3001
881.619	2994
881.746	3020
881.872	3097
881.999	3108
882.125	3146
882.252	3226
882.378	3310
882.505	3401
882.631	3256
882.757	3157
882.883	3188
883.01	3195
883.136	3131
883.262	3089
883.388	3093
883.514	3329
883.64	3374
883.766	3294
883.892	3157
884.018	3230
884.143	3378
884.269	3523
884.395	3199
884.52	3165
884.646	3203
884.772	3093
884.897	3074
885.023	3226
885.148	3298
885.274	3416
885.399	3332
885.524	3291
885.65	3260
885.775	3321
885.9	3260
886.025	3424
886.15	3386
886.275	3313
886.4	3256
886.525	3325
886.65	3241
886.775	3294
886.9	3496
887.025	3633
887.149	3386
887.274	3214
887.399	3154
887.523	3192
887.648	3173
887.773	3218
887.897	3382
888.021	3386
888.146	3272
888.27	3409
888.395	3523
888.519	3416
888.643	3454
888.767	3435
888.891	3302
889.015	3272
889.139	3329
889.263	3237
889.387	3416
889.511	3523
889.635	3435
889.759	3294
889.883	3272
890.006	3386
890.13	3492
890.254	3241
890.377	3332
890.501	3199
890.624	3207
890.748	3306
890.871	3161
890.995	3097
891.118	3017
891.241	3214
891.364	3207
891.488	3317
891.611	3150
891.734	3192
891.857	3256
891.98	3260
892.103	3370
892.226	3272
892.349	3195
892.471	3112
892.594	3226
892.717	3256
892.839	3233
892.962	3313
893.085	3348
893.207	3268
893.33	3188
893.452	3203
893.575	3370
893.697	3230
893.819	3477
893.941	3515
894.064	3431
894.186	3279
894.308	3302
894.43	3462
894.552	3496
894.674	3466
894.796	3272
894.918	3329
895.04	3294
895.161	3420
895.283	3397
895.405	3321
895.526	3348
895.648	3454
895.769	3431
895.891	3439
896.012	3481
896.134	3466
896.255	3397
896.376	3367
896.498	3359
896.619	3443
896.74	3329
896.861	3412
896.982	3660
897.103	3850
897.224	3614
897.345	3530
897.466	3409
897.587	3492
897.708	3610
897.828	3515
897.949	3409
898.07	3313
898.19	3412
898.311	3572
898.431	3424
898.552	3462
898.672	3591
898.792	3545
898.913	3530
899.033	3412
899.153	3298
899.273	3233
899.393	3325
899.513	3268
899.633	3348
899.753	3351
899.873	3329
899.993	3420
900.113	3332
900.232	3416
900.352	3313
900.472	3253
900.591	3203
900.711	3268
900.83	3211
900.95	3401
901.069	3447
901.189	3367
901.308	3192
901.427	3123
901.546	3180
901.665	3317
901.784	3329
901.904	3188
902.023	3157
902.141	3005
902.26	2971
902.379	3123
902.498	3070
902.617	3070
902.735	3211
902.854	3195
902.973	3135
903.091	3058
903.21	3062
903.328	3131
903.446	3131
903.565	3119
903.683	3169
903.801	3116
903.919	3230
904.038	3279
904.156	3184
904.274	3294
904.392	3279
904.51	3279
904.627	3321
904.745	3462
904.863	3492
904.981	3230
905.098	3123
905.216	3241
905.334	3310
905.451	3275
905.569	3325
905.686	3412
905.803	3412
905.921	3306
906.038	3412
906.155	3336
906.272	3313
906.389	3370
906.506	3226
906.623	3226
906.74	3268
906.857	3199
906.974	3268
907.091	3458
907.208	3553
907.324	3477
907.441	3382
907.557	3222
907.674	3203
907.79	3237
907.907	3253
908.023	3374
908.139	3370
908.256	3325
908.372	3363
908.488	3344
908.604	3253
908.72	3211
908.836	3264
908.952	3291
909.068	3367
909.184	3507
909.3	3397
909.415	3492
909.531	3500
909.647	3313
909.762	3268
909.878	3253
909.993	3344
910.108	3355
910.224	3321
910.339	3412
910.454	3317
910.57	3287
910.685	3237
910.8	3584
910.915	3515
911.03	3409
911.145	3283
911.259	3214
911.374	3329
911.489	3222
911.604	3214
911.718	3116
911.833	3169
911.947	3020
912.062	3001
912.176	3150
912.291	3188
912.405	3176
912.519	3443
912.633	3496
912.748	3313
912.862	3241
912.976	3184
913.09	3047
913.204	3131
913.318	3214
913.431	3321
913.545	3332
913.659	3409
913.772	3325
913.886	3226
914	3176
914.113	3340
914.226	3367
914.34	3351
914.453	3195
914.566	3405
914.68	3302
914.793	3321
914.906	3150
915.019	3097
915.132	3066
915.245	3169
915.358	3199
915.47	3241
915.583	3268
915.696	3275
915.809	3397
915.921	3447
916.034	3249
916.146	3253
916.259	3207
916.371	3386
916.483	3355
916.595	3253
916.708	3329
916.82	3340
916.932	3306
917.044	3340
917.156	3306
917.268	3249
917.38	3237
917.491	3306
917.603	3363
917.715	3450
917.826	3454
917.938	3374
918.049	3272
918.161	3431
918.272	3568
918.384	3561
918.495	3481
918.606	3317
918.717	3268
918.828	3378
918.939	3409
919.05	3298
919.161	3386
919.272	3176
919.383	3272
919.494	3481
919.604	3694
919.715	3485
919.826	3397
919.936	3473
920.047	3610
920.157	3526
920.267	3774
920.378	3606
920.488	3587
920.598	3778
920.708	3991
920.818	3846
920.928	3842
921.038	4048
921.148	3949
921.258	3724
921.368	3671
921.477	3618
921.587	3587
921.697	3462
921.806	3606
921.916	3542
922.025	3348
922.134	3344
922.244	3340
922.353	3393
922.462	3279
922.571	3230
922.68	3138
922.789	3077
922.898	3127
923.007	3116
923.116	3199
923.224	3188
923.333	3180
923.442	3127
923.55	3138
923.659	3165
923.767	3214
923.876	3112
923.984	3230
924.092	3142
924.201	3233
924.309	3203
924.417	3237
924.525	3169
924.633	3230
924.741	4036
924.849	3051
924.956	3260
925.064	3097
925.172	3047
925.279	3104
925.387	3199
925.494	3214
925.602	3351
925.709	3329
925.816	3180
925.924	3279
926.031	3382
926.138	3351
926.245	3367
926.352	3233
926.459	3405
926.566	3462
926.673	3302
926.779	3253
926.886	3226
926.993	3176
927.099	3116
927.206	3127
927.312	3135
927.419	3260
927.525	3218
927.631	3260
927.737	3154
927.843	3169
927.95	3062
928.056	3138
928.162	3180
928.267	3226
928.373	3785
928.479	3348
928.585	3066
928.69	3226
928.796	3291
928.901	3154
929.007	3043
929.112	3180
929.218	3165
929.323	3161
929.428	3127
929.533	3291
929.638	3127
929.743	3180
929.848	3302
929.953	3180
930.058	3112
930.163	3013
930.267	3058
930.372	3233
930.477	3047
930.581	3306
930.685	3165
930.79	3077
930.894	3127
930.998	3081
931.103	3275
931.207	2937
931.311	2929
931.415	2944
931.519	2758
931.623	2807
