Data from test_V78500241_687.txt Node
Date: Fri Mar 25 16:19:57 CST 2022
User: usil
Spectrometer: V785-0024
Trigger mode: 0
Integration Time (sec): 4.000000E-1
Scans to average: 1
Nonlinearity correction enabled: false
Boxcar width: 0
Storing dark spectrum: false
XAxis mode: Wavelengths
Number of Pixels in Spectrum: 1024
>>>>>Begin Spectral Data<<<<<
801.071	2849
801.214	2956
801.356	2876
801.499	2891
801.641	2845
801.783	2937
801.926	3047
802.068	2941
802.211	3024
802.353	2982
802.496	2960
802.638	2998
802.78	3028
802.923	3085
803.065	3009
803.208	2864
803.35	2937
803.492	2956
803.635	2910
803.777	2750
803.919	2876
804.061	3192
804.204	2960
804.346	2902
804.488	2864
804.63	2967
804.773	2872
804.915	2918
805.057	3077
805.199	2914
805.341	2941
805.483	3058
805.626	2998
805.768	2967
805.91	3097
806.052	3119
806.194	3055
806.336	3192
806.478	3039
806.62	2952
806.762	2986
806.904	3055
807.046	3173
807.188	2975
807.33	2944
807.472	2971
807.614	2910
807.756	2986
807.898	2887
808.04	2845
808.182	2982
808.324	2944
808.465	2887
808.607	2842
808.749	2800
808.891	2864
809.033	2952
809.174	2910
809.316	2845
809.458	2880
809.6	2766
809.741	2762
809.883	2777
810.025	2826
810.166	2925
810.308	2845
810.45	2864
810.591	2769
810.733	2746
810.875	2845
811.016	2758
811.158	2773
811.299	2823
811.441	2922
811.582	2899
811.724	2815
811.865	2845
812.007	2918
812.148	2864
812.29	2842
812.431	2857
812.573	2880
812.714	2975
812.855	3024
812.997	3020
813.138	3119
813.279	3017
813.421	2971
813.562	2963
813.703	2883
813.845	2868
813.986	2754
814.127	2682
814.268	2807
814.41	2830
814.551	2804
814.692	2857
814.833	2811
814.974	2902
815.115	2933
815.256	2785
815.397	2807
815.539	2853
815.68	2746
815.821	2785
815.962	2937
816.103	2918
816.244	2887
816.385	2834
816.526	2944
816.666	2918
816.807	2697
816.948	2845
817.089	2922
817.23	2864
817.371	2766
817.512	2788
817.653	2826
817.793	2819
817.934	2891
818.075	2937
818.216	2975
818.356	3058
818.497	2922
818.638	2781
818.778	2830
818.919	2777
819.06	2758
819.2	2861
819.341	2796
819.481	2819
819.622	2918
819.762	3097
819.903	3070
820.043	2941
820.184	2880
820.324	2880
820.465	3024
820.605	3024
820.746	3043
820.886	2944
821.026	3127
821.167	3169
821.307	3283
821.447	3260
821.588	3233
821.728	3154
821.868	3157
822.008	3070
822.149	3169
822.289	3207
822.429	3108
822.569	3100
822.709	3173
822.849	3024
822.99	3074
823.13	3142
823.27	3195
823.41	3100
823.55	3180
823.69	3176
823.83	3199
823.97	3085
824.11	3009
824.25	3001
824.389	3070
824.529	3112
824.669	3047
824.809	3180
824.949	3214
825.089	3226
825.228	3165
825.368	3009
825.508	2963
825.648	2971
825.787	3017
825.927	3028
826.067	2967
826.206	2979
826.346	3066
826.485	3058
826.625	3100
826.765	3249
826.904	3180
827.044	2994
827.183	2910
827.323	2876
827.462	3009
827.601	2872
827.741	2910
827.88	2956
828.02	2845
828.159	2971
828.298	3062
828.437	3135
828.577	3043
828.716	3253
828.855	3062
828.994	2910
829.134	2861
829.273	2899
829.412	2861
829.551	2842
829.69	2880
829.829	2990
829.968	3112
830.107	3017
830.246	2990
830.385	2918
830.524	2891
830.663	2807
830.802	2739
830.941	2621
831.08	2625
831.219	2750
831.357	2766
831.496	2933
831.635	2697
831.774	2640
831.913	2640
832.051	2537
832.19	2560
832.329	2689
832.467	2545
832.606	2484
832.744	2568
832.883	2579
833.022	2564
833.16	2648
833.299	2670
833.437	2689
833.576	2712
833.714	2697
833.852	2743
833.991	2731
834.129	2754
834.267	2781
834.406	2800
834.544	2834
834.682	2868
834.821	2857
834.959	3032
835.097	2918
835.235	3047
835.373	2990
835.511	2975
835.65	2933
835.788	2914
835.926	2804
836.064	2830
836.202	2857
836.34	3097
836.478	3150
836.615	3047
836.753	3116
836.891	3142
837.029	3157
837.167	3093
837.305	3055
837.443	3036
837.58	2990
837.718	3108
837.856	3074
837.993	2986
838.131	3089
838.269	3085
838.406	3081
838.544	3093
838.681	2937
838.819	2910
838.956	2800
839.094	2849
839.231	2910
839.369	2982
839.506	3359
839.643	3195
839.781	2975
839.918	2944
840.055	3058
840.193	3066
840.33	3043
840.467	3077
840.604	3131
840.742	3409
840.879	3020
841.016	3043
841.153	3074
841.29	3351
841.427	3325
841.564	3279
841.701	3298
841.838	3214
841.975	3142
842.112	3161
842.249	3070
842.385	3024
842.522	3226
842.659	3100
842.796	3066
842.933	3127
843.069	3081
843.206	3047
843.343	3207
843.479	3085
843.616	3108
843.752	2902
843.889	2857
844.025	3062
844.162	2910
844.298	3066
844.435	2967
844.571	2918
844.708	3108
844.844	3157
844.98	3214
845.117	3203
845.253	2990
845.389	3005
845.525	3104
845.661	3104
845.798	3028
845.934	3081
846.07	3077
846.206	3192
846.342	3336
846.478	3199
846.614	3077
846.75	3058
846.886	3039
847.022	3260
847.158	3116
847.294	3188
847.429	3245
847.565	3199
847.701	3466
847.837	2998
847.972	2982
848.108	3119
848.244	3150
848.379	2960
848.515	2952
848.65	2906
848.786	2948
848.921	3005
849.057	3089
849.192	3119
849.328	3058
849.463	3100
849.598	3047
849.734	3039
849.869	2975
850.004	2887
850.14	2925
850.275	2883
850.41	2830
850.545	2925
850.68	2922
850.815	2956
850.95	2944
851.085	3192
851.22	3112
851.355	3028
851.49	2998
851.625	2998
851.76	3043
851.895	2925
852.03	2941
852.165	3024
852.299	3131
852.434	3169
852.569	3161
852.703	3131
852.838	3214
852.973	3332
853.107	3336
853.242	3116
853.376	3047
853.511	2982
853.645	3058
853.78	3188
853.914	3104
854.048	3108
854.183	3074
854.317	3146
854.451	3279
854.585	3089
854.72	3062
854.854	3214
854.988	3043
855.122	3097
855.256	2967
855.39	3104
855.524	3233
855.658	3173
855.792	3112
855.926	3138
856.06	3176
856.194	3245
856.327	3100
856.461	3070
856.595	3062
856.729	3074
856.862	3211
856.996	3165
857.13	3214
857.263	3245
857.397	3291
857.53	3108
857.664	3188
857.797	3207
857.931	3256
858.064	3154
858.197	3241
858.331	3108
858.464	3085
858.597	2998
858.731	3123
858.864	3036
858.997	3077
859.13	3154
859.263	3173
859.396	3195
859.529	3085
859.662	3077
859.795	3043
859.928	3112
860.061	3256
860.194	3249
860.327	3123
860.46	3062
860.592	3226
860.725	3207
860.858	3226
860.99	3055
861.123	3017
861.256	3051
861.388	3176
861.521	3922
861.653	3024
861.786	2979
861.918	3005
862.05	3066
862.183	3112
862.315	3116
862.447	3188
862.58	3100
862.712	2922
862.844	2891
862.976	2990
863.108	2982
863.24	3389
863.372	2868
863.504	2937
863.636	2910
863.768	3005
863.9	2937
864.032	2925
864.164	2902
864.296	3013
864.428	3077
864.559	3093
864.691	3074
864.823	3047
864.954	3001
865.086	3024
865.217	2979
865.349	2914
865.48	2963
865.612	2998
865.743	3135
865.875	2990
866.006	2948
866.137	2971
866.269	2937
866.4	2906
866.531	2902
866.662	2895
866.793	2876
866.924	2887
867.055	2967
867.186	2906
867.317	2872
867.448	2807
867.579	2861
867.71	2849
867.841	2800
867.972	2891
868.103	2918
868.233	2876
868.364	2872
868.495	2910
868.625	3074
868.756	3127
868.886	2971
869.017	2979
869.147	3131
869.278	3123
869.408	3013
869.539	3024
869.669	3089
869.799	3028
869.929	3112
870.06	3089
870.19	3310
870.32	3256
870.45	3291
870.58	3370
870.71	3466
870.84	3447
870.97	3268
871.1	3245
871.23	3443
871.36	3473
871.489	3332
871.619	3355
871.749	3405
871.879	3405
872.008	3462
872.138	3336
872.267	3287
872.397	3138
872.526	3093
872.656	2998
872.785	3104
872.915	3173
873.044	3249
873.173	3207
873.303	3222
873.432	3203
873.561	3203
873.69	3157
873.819	3154
873.948	3195
874.077	3093
874.206	3032
874.335	3066
874.464	3188
874.593	3344
874.722	3222
874.851	3363
874.979	3370
875.108	3298
875.237	3146
875.365	3150
875.494	3138
875.623	3203
875.751	3116
875.88	3089
876.008	3161
876.136	3214
876.265	3355
876.393	3500
876.521	3389
876.65	3405
876.778	3317
876.906	3207
877.034	3180
877.162	3245
877.29	3192
877.418	3256
877.546	3268
877.674	3192
877.802	3207
877.93	3222
878.058	3127
878.185	3070
878.313	3192
878.441	3207
878.568	3017
878.696	3116
878.824	3230
878.951	3264
879.079	3386
879.206	3572
879.333	3420
879.461	3336
879.588	3336
879.715	3443
879.842	3576
879.97	3389
880.097	3135
880.224	3146
880.351	3150
880.478	3192
880.605	3142
880.732	3184
880.859	3462
880.986	3264
881.112	3325
881.239	3199
881.366	3108
881.493	3020
881.619	3039
881.746	3058
881.872	3070
881.999	3097
882.125	3135
882.252	3233
882.378	3283
882.505	3424
882.631	3294
882.757	3192
882.883	3230
883.01	3260
883.136	3157
883.262	3112
883.388	3100
883.514	3332
883.64	3393
883.766	3306
883.892	3241
884.018	3264
884.143	3450
884.269	3599
884.395	3272
884.52	3135
884.646	3169
884.772	3146
884.897	3119
885.023	3226
885.148	3344
885.274	3435
885.399	3412
885.524	3317
885.65	3294
885.775	3317
885.9	3317
886.025	3507
886.15	3386
886.275	3329
886.4	3272
886.525	3374
886.65	3313
886.775	3310
886.9	3526
887.025	3656
887.149	3477
887.274	3279
887.399	3195
887.523	3260
887.648	3192
887.773	3203
887.897	3416
888.021	3416
888.146	3332
888.27	3458
888.395	3576
888.519	3466
888.643	3439
888.767	3496
888.891	3374
889.015	3287
889.139	3336
889.263	3245
889.387	3447
889.511	3534
889.635	3488
889.759	3321
889.883	3336
890.006	3401
890.13	3557
890.254	3344
890.377	3370
890.501	3253
890.624	3226
890.748	3329
890.871	3222
890.995	3180
891.118	3089
891.241	3268
891.364	3241
891.488	3363
891.611	3203
891.734	3226
891.857	3294
891.98	3268
892.103	3374
892.226	3321
892.349	3268
892.471	3161
892.594	3279
892.717	3367
892.839	3313
892.962	3302
893.085	3378
893.207	3325
893.33	3211
893.452	3260
893.575	3359
893.697	3256
893.819	3492
893.941	3530
894.064	3485
894.186	3291
894.308	3329
894.43	3507
894.552	3561
894.674	3504
894.796	3317
894.918	3306
895.04	3336
895.161	3488
895.283	3401
895.405	3336
895.526	3397
895.648	3431
895.769	3458
895.891	3500
896.012	3485
896.134	3462
896.255	3447
896.376	3386
896.498	3386
896.619	3458
896.74	3416
896.861	3439
896.982	3740
897.103	3865
897.224	3568
897.345	3542
897.466	3458
897.587	3523
897.708	3644
897.828	3595
897.949	3469
898.07	3367
898.19	3466
898.311	3610
898.431	3473
898.552	3542
898.672	3637
898.792	3625
898.913	3530
899.033	3435
899.153	3359
899.273	3207
899.393	3306
899.513	3313
899.633	3340
899.753	3351
899.873	3340
899.993	3397
900.113	3382
900.232	3435
900.352	3363
900.472	3332
900.591	3203
900.711	3344
900.83	3287
900.95	3420
901.069	3530
901.189	3386
901.308	3211
901.427	3165
901.546	3184
901.665	3310
901.784	3382
901.904	3256
902.023	3199
902.141	3020
902.26	3020
902.379	3176
902.498	3116
902.617	3097
902.735	3222
902.854	3268
902.973	3203
903.091	3127
903.21	3070
903.328	3157
903.446	3146
903.565	3169
903.683	3256
903.801	3146
903.919	3264
904.038	3344
904.156	3195
904.274	3329
904.392	3279
904.51	3306
904.627	3351
904.745	3481
904.863	3523
904.981	3272
905.098	3165
905.216	3253
905.334	3317
905.451	3355
905.569	3359
905.686	3424
905.803	3477
905.921	3329
906.038	3454
906.155	3370
906.272	3306
906.389	3386
906.506	3275
906.623	3241
906.74	3340
906.857	3207
906.974	3325
907.091	3492
907.208	3595
907.324	3504
907.441	3439
907.557	3260
907.674	3245
907.79	3272
907.907	3321
908.023	3378
908.139	3389
908.256	3348
908.372	3412
908.488	3412
908.604	3298
908.72	3245
908.836	3310
908.952	3355
909.068	3370
909.184	3492
909.3	3416
909.415	3523
909.531	3473
909.647	3313
909.762	3325
909.878	3283
909.993	3393
910.108	3367
910.224	3348
910.339	3477
910.454	3359
910.57	3325
910.685	3275
910.8	3622
910.915	3534
911.03	3462
911.145	3268
911.259	3336
911.374	3310
911.489	3268
911.604	3256
911.718	3123
911.833	3176
911.947	3081
912.062	3024
912.176	3207
912.291	3245
912.405	3226
912.519	3496
912.633	3481
912.748	3321
912.862	3275
912.976	3192
913.09	3077
913.204	3195
913.318	3253
913.431	3363
913.545	3351
913.659	3447
913.772	3344
913.886	3218
914	3237
914.113	3363
914.226	3431
914.34	3389
914.453	3256
914.566	3439
914.68	3313
914.793	3336
914.906	3180
915.019	3169
915.132	3077
915.245	3192
915.358	3241
915.47	3291
915.583	3268
915.696	3329
915.809	3435
915.921	3450
916.034	3306
916.146	3306
916.259	3253
916.371	3370
916.483	3386
916.595	3283
916.708	3378
916.82	3370
916.932	3336
917.044	3378
917.156	3340
917.268	3294
917.38	3348
917.491	3329
917.603	3370
917.715	3458
917.826	3504
917.938	3382
918.049	3302
918.161	3424
918.272	3591
918.384	3618
918.495	3488
918.606	3359
918.717	3313
918.828	3386
918.939	3450
919.05	3367
919.161	3386
919.272	3237
919.383	3317
919.494	3523
919.604	3720
919.715	3523
919.826	3428
919.936	3477
920.047	3622
920.157	3587
920.267	3778
920.378	3591
920.488	3553
920.598	3774
920.708	3949
920.818	3842
920.928	3835
921.038	4025
921.148	3987
921.258	3690
921.368	3648
921.477	3568
921.587	3580
921.697	3481
921.806	3671
921.916	3564
922.025	3378
922.134	3401
922.244	3340
922.353	3450
922.462	3306
922.571	3256
922.68	3127
922.789	3077
922.898	3150
923.007	3131
923.116	3237
923.224	3218
923.333	3203
923.442	3100
923.55	3127
923.659	3161
923.767	3233
923.876	3116
923.984	3283
924.092	3100
924.201	3226
924.309	3241
924.417	3268
924.525	3241
924.633	3253
924.741	4055
924.849	3093
924.956	3306
925.064	3104
925.172	3093
925.279	3119
925.387	3241
925.494	3180
925.602	3386
925.709	3359
925.816	3195
925.924	3291
926.031	3424
926.138	3382
926.245	3359
926.352	3245
926.459	3450
926.566	3469
926.673	3359
926.779	3268
926.886	3275
926.993	3180
927.099	3161
927.206	3138
927.312	3146
927.419	3272
927.525	3226
927.631	3306
927.737	3150
927.843	3173
927.95	3085
928.056	3123
928.162	3176
928.267	3260
928.373	3922
928.479	3313
928.585	3116
928.69	3203
928.796	3306
928.901	3180
929.007	3058
929.112	3218
929.218	3211
929.323	3131
929.428	3199
929.533	3336
929.638	3112
929.743	3180
929.848	3256
929.953	3230
930.058	3176
930.163	3020
930.267	3036
930.372	3272
930.477	3085
930.581	3363
930.685	3207
930.79	3062
930.894	3119
930.998	3135
931.103	3306
931.207	2986
931.311	2948
931.415	2937
931.519	2792
931.623	2845
