Data from test_V78500241_1801.txt Node
Date: Fri Mar 25 16:27:40 CST 2022
User: usil
Spectrometer: V785-0024
Trigger mode: 0
Integration Time (sec): 4.000000E-1
Scans to average: 1
Nonlinearity correction enabled: false
Boxcar width: 0
Storing dark spectrum: false
XAxis mode: Wavelengths
Number of Pixels in Spectrum: 1024
>>>>>Begin Spectral Data<<<<<
801.071	2910
801.214	2933
801.356	2853
801.499	2883
801.641	2853
801.783	2956
801.926	3066
802.068	2971
802.211	3017
802.353	3020
802.496	2963
802.638	2994
802.78	3070
802.923	3066
803.065	3001
803.208	2864
803.35	2929
803.492	2895
803.635	2963
803.777	2758
803.919	2849
804.061	3157
804.204	2948
804.346	2933
804.488	2883
804.63	2998
804.773	2868
804.915	2960
805.057	3047
805.199	2941
805.341	2967
805.483	3047
805.626	2986
805.768	2979
805.91	3093
806.052	3116
806.194	3013
806.336	3207
806.478	2979
806.62	2963
806.762	3017
806.904	3024
807.046	3184
807.188	2963
807.33	2933
807.472	2998
807.614	2899
807.756	2990
807.898	2906
808.04	2853
808.182	2944
808.324	2963
808.465	2883
808.607	2887
808.749	2781
808.891	2849
809.033	2971
809.174	2979
809.316	2891
809.458	2895
809.6	2796
809.741	2769
809.883	2762
810.025	2883
810.166	2880
810.308	2807
810.45	2838
810.591	2758
810.733	2769
810.875	2849
811.016	2792
811.158	2750
811.299	2804
811.441	2967
811.582	2922
811.724	2845
811.865	2792
812.007	2876
812.148	2887
812.29	2868
812.431	2891
812.573	2956
812.714	2963
812.855	3024
812.997	3024
813.138	3112
813.279	2990
813.421	3009
813.562	2922
813.703	2887
813.845	2883
813.986	2750
814.127	2731
814.268	2792
814.41	2842
814.551	2811
814.692	2895
814.833	2785
814.974	2887
815.115	2952
815.256	2811
815.397	2857
815.539	2842
815.68	2731
815.821	2819
815.962	2902
816.103	2910
816.244	2864
816.385	2853
816.526	2967
816.666	2910
816.807	2727
816.948	2918
817.089	2902
817.23	2872
817.371	2777
817.512	2785
817.653	2853
817.793	2834
817.934	2910
818.075	2971
818.216	2982
818.356	3001
818.497	2914
818.638	2815
818.778	2826
818.919	2792
819.06	2727
819.2	2872
819.341	2815
819.481	2819
819.622	2918
819.762	3089
819.903	3032
820.043	2899
820.184	2883
820.324	2853
820.465	3032
820.605	3032
820.746	3024
820.886	2941
821.026	3119
821.167	3173
821.307	3218
821.447	3237
821.588	3241
821.728	3195
821.868	3154
822.008	3028
822.149	3184
822.289	3214
822.429	3093
822.569	3085
822.709	3211
822.849	3028
822.99	3070
823.13	3142
823.27	3211
823.41	3093
823.55	3142
823.69	3116
823.83	3207
823.97	3047
824.11	2982
824.25	3005
824.389	3074
824.529	3100
824.669	3058
824.809	3199
824.949	3268
825.089	3222
825.228	3131
825.368	2986
825.508	2956
825.648	2975
825.787	3001
825.927	2982
826.067	2982
826.206	2967
826.346	3066
826.485	3028
826.625	3119
826.765	3272
826.904	3199
827.044	2960
827.183	2952
827.323	2853
827.462	2994
827.601	2925
827.741	2944
827.88	2979
828.02	2861
828.159	2960
828.298	3043
828.437	3100
828.577	3020
828.716	3188
828.855	3070
828.994	2914
829.134	2910
829.273	2883
829.412	2849
829.551	2838
829.69	2864
829.829	2971
829.968	3146
830.107	2990
830.246	2998
830.385	2891
830.524	2853
830.663	2819
830.802	2766
830.941	2651
831.08	2663
831.219	2766
831.357	2731
831.496	2960
831.635	2716
831.774	2670
831.913	2629
832.051	2492
832.19	2583
832.329	2705
832.467	2526
832.606	2461
832.744	2575
832.883	2598
833.022	2610
833.16	2655
833.299	2678
833.437	2674
833.576	2682
833.714	2708
833.852	2731
833.991	2777
834.129	2838
834.267	2826
834.406	2788
834.544	2880
834.682	2834
834.821	2845
834.959	3058
835.097	2906
835.235	3024
835.373	3005
835.511	2998
835.65	2941
835.788	2956
835.926	2815
836.064	2781
836.202	2891
836.34	3089
836.478	3135
836.615	3028
836.753	3100
836.891	3157
837.029	3131
837.167	3123
837.305	3077
837.443	3055
837.58	2975
837.718	3116
837.856	3062
837.993	3013
838.131	3116
838.269	3093
838.406	3116
838.544	3089
838.681	2944
838.819	2906
838.956	2826
839.094	2830
839.231	2872
839.369	2967
839.506	3359
839.643	3222
839.781	3013
839.918	2952
840.055	3047
840.193	3036
840.33	3093
840.467	3066
840.604	3150
840.742	3401
840.879	3058
841.016	3047
841.153	3112
841.29	3317
841.427	3272
841.564	3291
841.701	3302
841.838	3218
841.975	3161
842.112	3233
842.249	3089
842.385	3039
842.522	3279
842.659	3070
842.796	3036
842.933	3032
843.069	2994
843.206	3020
843.343	3169
843.479	3123
843.616	3138
843.752	2891
843.889	2861
844.025	3077
844.162	2830
844.298	3036
844.435	2944
844.571	2910
844.708	3058
844.844	3199
844.98	3203
845.117	3192
845.253	3043
845.389	2971
845.525	3093
845.661	3123
845.798	2994
845.934	3131
846.07	3058
846.206	3203
846.342	3359
846.478	3237
846.614	3123
846.75	3043
846.886	3017
847.022	3214
847.158	3165
847.294	3222
847.429	3207
847.565	3207
847.701	3481
847.837	3017
847.972	2990
848.108	3154
848.244	3135
848.379	2982
848.515	2952
848.65	2910
848.786	2914
848.921	2990
849.057	3074
849.192	3154
849.328	3074
849.463	3135
849.598	3062
849.734	3028
849.869	2990
850.004	2914
850.14	2925
850.275	2872
850.41	2838
850.545	2868
850.68	2941
850.815	2918
850.95	2975
851.085	3176
851.22	3085
851.355	3017
851.49	2963
851.625	3009
851.76	2990
851.895	2906
852.03	2895
852.165	3009
852.299	3131
852.434	3192
852.569	3180
852.703	3146
852.838	3245
852.973	3348
853.107	3302
853.242	3161
853.376	3104
853.511	2963
853.645	2982
853.78	3180
853.914	3062
854.048	3123
854.183	3070
854.317	3154
854.451	3332
854.585	3142
854.72	3097
854.854	3203
854.988	3043
855.122	3074
855.256	2979
855.39	3119
855.524	3207
855.658	3146
855.792	3154
855.926	3188
856.06	3211
856.194	3253
856.327	3161
856.461	3058
856.595	3074
856.729	3093
856.862	3180
856.996	3161
857.13	3195
857.263	3237
857.397	3241
857.53	3104
857.664	3192
857.797	3207
857.931	3275
858.064	3161
858.197	3222
858.331	3131
858.464	3112
858.597	2986
858.731	3112
858.864	3116
858.997	3066
859.13	3169
859.263	3176
859.396	3150
859.529	3066
859.662	3066
859.795	3051
859.928	3165
860.061	3260
860.194	3291
860.327	3123
860.46	3058
860.592	3218
860.725	3253
860.858	3226
860.99	3108
861.123	3055
861.256	3032
861.388	3142
861.521	3842
861.653	3005
861.786	2948
861.918	2982
862.05	3020
862.183	3070
862.315	3161
862.447	3188
862.58	3085
862.712	2887
862.844	2830
862.976	3024
863.108	3032
863.24	3386
863.372	2876
863.504	2948
863.636	2952
863.768	3009
863.9	2941
864.032	2883
864.164	2956
864.296	3013
864.428	3051
864.559	3112
864.691	3058
864.823	3043
864.954	2998
865.086	3028
865.217	3001
865.349	2941
865.48	2971
865.612	3020
865.743	3123
865.875	2971
866.006	2941
866.137	2937
866.269	2929
866.4	2944
866.531	2906
866.662	2937
866.793	2872
866.924	2914
867.055	2979
867.186	2956
867.317	2933
867.448	2834
867.579	2834
867.71	2849
867.841	2815
867.972	2891
868.103	2853
868.233	2861
868.364	2883
868.495	2906
868.625	3074
868.756	3157
868.886	2979
869.017	3001
869.147	3176
869.278	3188
869.408	3055
869.539	3013
869.669	3097
869.799	3001
869.929	3127
870.06	3077
870.19	3325
870.32	3291
870.45	3302
870.58	3386
870.71	3496
870.84	3454
870.97	3287
871.1	3188
871.23	3473
871.36	3462
871.489	3332
871.619	3386
871.749	3397
871.879	3420
872.008	3469
872.138	3374
872.267	3264
872.397	3154
872.526	3123
872.656	3001
872.785	3104
872.915	3260
873.044	3302
873.173	3188
873.303	3253
873.432	3222
873.561	3245
873.69	3169
873.819	3108
873.948	3146
874.077	3089
874.206	3028
874.335	3070
874.464	3173
874.593	3344
874.722	3237
874.851	3439
874.979	3348
875.108	3302
875.237	3211
875.365	3169
875.494	3176
875.623	3233
875.751	3066
875.88	3100
876.008	3192
876.136	3260
876.265	3367
876.393	3469
876.521	3409
876.65	3386
876.778	3359
876.906	3211
877.034	3195
877.162	3245
877.29	3138
877.418	3199
877.546	3245
877.674	3233
877.802	3214
877.93	3222
878.058	3108
878.185	3100
878.313	3211
878.441	3207
878.568	3066
878.696	3161
878.824	3233
878.951	3317
879.079	3431
879.206	3610
879.333	3401
879.461	3302
879.588	3344
879.715	3485
879.842	3576
879.97	3363
880.097	3173
880.224	3135
880.351	3211
880.478	3241
880.605	3188
880.732	3192
880.859	3534
880.986	3340
881.112	3359
881.239	3203
881.366	3116
881.493	3013
881.619	2990
881.746	3066
881.872	3074
881.999	3119
882.125	3142
882.252	3249
882.378	3302
882.505	3401
882.631	3260
882.757	3146
882.883	3207
883.01	3245
883.136	3165
883.262	3066
883.388	3131
883.514	3344
883.64	3370
883.766	3298
883.892	3180
884.018	3237
884.143	3443
884.269	3519
884.395	3203
884.52	3138
884.646	3131
884.772	3150
884.897	3089
885.023	3165
885.148	3355
885.274	3409
885.399	3393
885.524	3233
885.65	3253
885.775	3291
885.9	3268
886.025	3401
886.15	3332
886.275	3279
886.4	3260
886.525	3237
886.65	3294
886.775	3245
886.9	3542
887.025	3610
887.149	3359
887.274	3272
887.399	3154
887.523	3218
887.648	3211
887.773	3184
887.897	3405
888.021	3420
888.146	3291
888.27	3450
888.395	3534
888.519	3435
888.643	3454
888.767	3428
888.891	3321
889.015	3272
889.139	3291
889.263	3249
889.387	3405
889.511	3534
889.635	3424
889.759	3298
889.883	3332
890.006	3374
890.13	3447
890.254	3268
890.377	3355
890.501	3203
890.624	3192
890.748	3302
890.871	3161
890.995	3089
891.118	3085
891.241	3184
891.364	3222
891.488	3279
891.611	3207
891.734	3237
891.857	3268
891.98	3211
892.103	3294
892.226	3283
892.349	3195
892.471	3097
892.594	3214
892.717	3272
892.839	3249
892.962	3302
893.085	3367
893.207	3302
893.33	3161
893.452	3199
893.575	3275
893.697	3245
893.819	3450
893.941	3492
894.064	3469
894.186	3199
894.308	3214
894.43	3447
894.552	3519
894.674	3469
894.796	3256
894.918	3340
895.04	3260
895.161	3435
895.283	3374
895.405	3306
895.526	3363
895.648	3409
895.769	3409
895.891	3439
896.012	3466
896.134	3409
896.255	3416
896.376	3393
896.498	3348
896.619	3420
896.74	3359
896.861	3389
896.982	3671
897.103	3789
897.224	3545
897.345	3504
897.466	3397
897.587	3469
897.708	3595
897.828	3530
897.949	3469
898.07	3374
898.19	3382
898.311	3599
898.431	3435
898.552	3557
898.672	3614
898.792	3538
898.913	3504
899.033	3386
899.153	3260
899.273	3218
899.393	3279
899.513	3310
899.633	3325
899.753	3306
899.873	3268
899.993	3374
900.113	3332
900.232	3431
900.352	3340
900.472	3313
900.591	3157
900.711	3294
900.83	3214
900.95	3412
901.069	3496
901.189	3378
901.308	3173
901.427	3157
901.546	3211
901.665	3291
901.784	3336
901.904	3154
902.023	3131
902.141	2994
902.26	2986
902.379	3146
902.498	3089
902.617	3066
902.735	3226
902.854	3207
902.973	3195
903.091	3036
903.21	3104
903.328	3157
903.446	3116
903.565	3074
903.683	3207
903.801	3146
903.919	3237
904.038	3310
904.156	3173
904.274	3272
904.392	3233
904.51	3298
904.627	3325
904.745	3443
904.863	3488
904.981	3249
905.098	3188
905.216	3188
905.334	3283
905.451	3313
905.569	3317
905.686	3424
905.803	3397
905.921	3268
906.038	3435
906.155	3317
906.272	3310
906.389	3325
906.506	3211
906.623	3279
906.74	3291
906.857	3142
906.974	3241
907.091	3420
907.208	3557
907.324	3473
907.441	3367
907.557	3230
907.674	3237
907.79	3169
907.907	3287
908.023	3355
908.139	3336
908.256	3313
908.372	3378
908.488	3355
908.604	3294
908.72	3253
908.836	3275
908.952	3275
909.068	3340
909.184	3477
909.3	3374
909.415	3473
909.531	3473
909.647	3313
909.762	3310
909.878	3264
909.993	3344
910.108	3332
910.224	3298
910.339	3431
910.454	3348
910.57	3275
910.685	3260
910.8	3557
910.915	3553
911.03	3439
911.145	3222
911.259	3310
911.374	3291
911.489	3241
911.604	3253
911.718	3097
911.833	3154
911.947	3028
912.062	2986
912.176	3176
912.291	3226
912.405	3180
912.519	3424
912.633	3447
912.748	3336
912.862	3268
912.976	3180
913.09	3066
913.204	3112
913.318	3199
913.431	3344
913.545	3329
913.659	3409
913.772	3321
913.886	3199
914	3184
914.113	3370
914.226	3386
914.34	3386
914.453	3203
914.566	3409
914.68	3268
914.793	3313
914.906	3146
915.019	3123
915.132	3070
915.245	3146
915.358	3188
915.47	3199
915.583	3249
915.696	3264
915.809	3420
915.921	3409
916.034	3245
916.146	3245
916.259	3207
916.371	3389
916.483	3348
916.595	3268
916.708	3313
916.82	3329
916.932	3306
917.044	3386
917.156	3355
917.268	3268
917.38	3336
917.491	3313
917.603	3355
917.715	3466
917.826	3450
917.938	3386
918.049	3275
918.161	3401
918.272	3576
918.384	3580
918.495	3454
918.606	3317
918.717	3256
918.828	3386
918.939	3370
919.05	3302
919.161	3351
919.272	3176
919.383	3256
919.494	3511
919.604	3690
919.715	3492
919.826	3428
919.936	3473
920.047	3603
920.157	3557
920.267	3751
920.378	3625
920.488	3542
920.598	3785
920.708	3983
920.818	3823
920.928	3869
921.038	4017
921.148	3960
921.258	3709
921.368	3618
921.477	3576
921.587	3523
921.697	3466
921.806	3641
921.916	3504
922.025	3344
922.134	3336
922.244	3313
922.353	3420
922.462	3310
922.571	3214
922.68	3135
922.789	3055
922.898	3097
923.007	3154
923.116	3142
923.224	3176
923.333	3157
923.442	3104
923.55	3097
923.659	3161
923.767	3199
923.876	3108
923.984	3237
924.092	3085
924.201	3180
924.309	3222
924.417	3241
924.525	3169
924.633	3203
924.741	3998
924.849	3055
924.956	3336
925.064	3089
925.172	3051
925.279	3085
925.387	3165
925.494	3188
925.602	3370
925.709	3329
925.816	3131
925.924	3268
926.031	3378
926.138	3306
926.245	3359
926.352	3237
926.459	3374
926.566	3466
926.673	3313
926.779	3260
926.886	3256
926.993	3146
927.099	3093
927.206	3123
927.312	3104
927.419	3230
927.525	3192
927.631	3279
927.737	3157
927.843	3116
927.95	3028
928.056	3127
928.162	3165
928.267	3291
928.373	3747
928.479	3321
928.585	3043
928.69	3188
928.796	3264
928.901	3138
929.007	3043
929.112	3195
929.218	3169
929.323	3116
929.428	3150
929.533	3298
929.638	3150
929.743	3154
929.848	3233
929.953	3199
930.058	3169
930.163	2990
930.267	3043
930.372	3176
930.477	3043
930.581	3294
930.685	3173
930.79	3017
930.894	3119
930.998	3066
931.103	3272
931.207	2971
931.311	2963
931.415	2937
931.519	2750
931.623	2804
