Data from test_V78500241_846.txt Node
Date: Fri Mar 25 16:21:03 CST 2022
User: usil
Spectrometer: V785-0024
Trigger mode: 0
Integration Time (sec): 4.000000E-1
Scans to average: 1
Nonlinearity correction enabled: false
Boxcar width: 0
Storing dark spectrum: false
XAxis mode: Wavelengths
Number of Pixels in Spectrum: 1024
>>>>>Begin Spectral Data<<<<<
801.071	2914
801.214	2963
801.356	2876
801.499	2872
801.641	2857
801.783	2864
801.926	3043
802.068	2982
802.211	2990
802.353	2998
802.496	2967
802.638	2937
802.78	3039
802.923	3058
803.065	3013
803.208	2899
803.35	2918
803.492	2925
803.635	2918
803.777	2762
803.919	2842
804.061	3188
804.204	2971
804.346	2891
804.488	2819
804.63	2963
804.773	2887
804.915	2914
805.057	3081
805.199	2929
805.341	2982
805.483	3032
805.626	3013
805.768	2933
805.91	3043
806.052	3085
806.194	2994
806.336	3192
806.478	3005
806.62	2914
806.762	2956
806.904	3032
807.046	3180
807.188	2948
807.33	2902
807.472	2960
807.614	2872
807.756	2986
807.898	2960
808.04	2906
808.182	2979
808.324	2967
808.465	2876
808.607	2883
808.749	2785
808.891	2853
809.033	2948
809.174	2952
809.316	2883
809.458	2872
809.6	2739
809.741	2788
809.883	2739
810.025	2823
810.166	2868
810.308	2842
810.45	2849
810.591	2766
810.733	2735
810.875	2838
811.016	2796
811.158	2785
811.299	2823
811.441	2891
811.582	2887
811.724	2792
811.865	2804
812.007	2891
812.148	2864
812.29	2861
812.431	2887
812.573	2937
812.714	2956
812.855	3036
812.997	3017
813.138	3112
813.279	3013
813.421	3001
813.562	2933
813.703	2838
813.845	2876
813.986	2773
814.127	2727
814.268	2796
814.41	2830
814.551	2830
814.692	2868
814.833	2781
814.974	2880
815.115	2922
815.256	2845
815.397	2773
815.539	2872
815.68	2758
815.821	2769
815.962	2944
816.103	2906
816.244	2861
816.385	2853
816.526	2956
816.666	2933
816.807	2769
816.948	2883
817.089	2880
817.23	2834
817.371	2804
817.512	2754
817.653	2826
817.793	2792
817.934	2857
818.075	2967
818.216	2941
818.356	3013
818.497	2906
818.638	2819
818.778	2807
818.919	2758
819.06	2758
819.2	2910
819.341	2792
819.481	2800
819.622	2914
819.762	3070
819.903	3055
820.043	2937
820.184	2902
820.324	2914
820.465	2971
820.605	3005
820.746	3013
820.886	2910
821.026	3070
821.167	3135
821.307	3241
821.447	3291
821.588	3226
821.728	3214
821.868	3157
822.008	3062
822.149	3203
822.289	3218
822.429	3081
822.569	3074
822.709	3173
822.849	3017
822.99	3085
823.13	3131
823.27	3203
823.41	3066
823.55	3097
823.69	3146
823.83	3157
823.97	3108
824.11	3017
824.25	3009
824.389	3047
824.529	3077
824.669	3081
824.809	3222
824.949	3264
825.089	3207
825.228	3176
825.368	2982
825.508	2971
825.648	2963
825.787	2975
825.927	3028
826.067	2956
826.206	2975
826.346	3051
826.485	3074
826.625	3112
826.765	3268
826.904	3192
827.044	2960
827.183	2910
827.323	2834
827.462	3020
827.601	2906
827.741	2895
827.88	2982
828.02	2830
828.159	2967
828.298	3001
828.437	3097
828.577	3055
828.716	3226
828.855	3077
828.994	2864
829.134	2849
829.273	2944
829.412	2872
829.551	2868
829.69	2842
829.829	2960
829.968	3097
830.107	3024
830.246	3013
830.385	2895
830.524	2849
830.663	2796
830.802	2727
830.941	2655
831.08	2670
831.219	2750
831.357	2785
831.496	2948
831.635	2731
831.774	2655
831.913	2625
832.051	2507
832.19	2549
832.329	2686
832.467	2522
832.606	2480
832.744	2575
832.883	2560
833.022	2598
833.16	2663
833.299	2640
833.437	2670
833.576	2724
833.714	2697
833.852	2689
833.991	2750
834.129	2819
834.267	2773
834.406	2766
834.544	2864
834.682	2872
834.821	2876
834.959	3017
835.097	2887
835.235	3047
835.373	2967
835.511	3017
835.65	2982
835.788	2967
835.926	2853
836.064	2830
836.202	2861
836.34	3089
836.478	3169
836.615	3070
836.753	3093
836.891	3203
837.029	3165
837.167	3070
837.305	3055
837.443	3055
837.58	2948
837.718	3150
837.856	3097
837.993	3009
838.131	3104
838.269	3093
838.406	3093
838.544	3089
838.681	2918
838.819	2899
838.956	2788
839.094	2823
839.231	2906
839.369	3001
839.506	3351
839.643	3207
839.781	2994
839.918	2941
840.055	3089
840.193	3036
840.33	3055
840.467	3062
840.604	3127
840.742	3374
840.879	3032
841.016	3062
841.153	3093
841.29	3310
841.427	3294
841.564	3237
841.701	3298
841.838	3203
841.975	3165
842.112	3188
842.249	3089
842.385	2971
842.522	3214
842.659	3039
842.796	3070
842.933	3146
843.069	3039
843.206	3020
843.343	3154
843.479	3104
843.616	3097
843.752	2910
843.889	2876
844.025	3062
844.162	2899
844.298	3104
844.435	2990
844.571	2937
844.708	3081
844.844	3188
844.98	3207
845.117	3173
845.253	3051
845.389	2994
845.525	3108
845.661	3058
845.798	3020
845.934	3119
846.07	3024
846.206	3184
846.342	3294
846.478	3218
846.614	3062
846.75	3058
846.886	2975
847.022	3218
847.158	3119
847.294	3203
847.429	3203
847.565	3150
847.701	3485
847.837	2998
847.972	3024
848.108	3127
848.244	3195
848.379	2975
848.515	2963
848.65	2941
848.786	2910
848.921	3009
849.057	3074
849.192	3165
849.328	3017
849.463	3116
849.598	3051
849.734	2994
849.869	2948
850.004	2899
850.14	2952
850.275	2883
850.41	2826
850.545	2838
850.68	2906
850.815	2883
850.95	2929
851.085	3195
851.22	3077
851.355	3051
851.49	2967
851.625	3013
851.76	2998
851.895	2883
852.03	2906
852.165	3024
852.299	3055
852.434	3192
852.569	3131
852.703	3127
852.838	3184
852.973	3313
853.107	3287
853.242	3150
853.376	3104
853.511	2967
853.645	3013
853.78	3203
853.914	3131
854.048	3104
854.183	3058
854.317	3123
854.451	3302
854.585	3146
854.72	3108
854.854	3173
854.988	3062
855.122	3089
855.256	2948
855.39	3093
855.524	3253
855.658	3192
855.792	3142
855.926	3165
856.06	3203
856.194	3275
856.327	3157
856.461	3097
856.595	3131
856.729	3066
856.862	3199
856.996	3119
857.13	3176
857.263	3226
857.397	3230
857.53	3135
857.664	3188
857.797	3249
857.931	3256
858.064	3188
858.197	3237
858.331	3180
858.464	3089
858.597	3005
858.731	3131
858.864	3142
858.997	3081
859.13	3165
859.263	3214
859.396	3237
859.529	3119
859.662	3112
859.795	3089
859.928	3150
860.061	3310
860.194	3283
860.327	3161
860.46	3077
860.592	3275
860.725	3298
860.858	3302
860.99	3165
861.123	3089
861.256	3077
861.388	3192
861.521	3934
861.653	3081
861.786	3001
861.918	3074
862.05	3112
862.183	3154
862.315	3192
862.447	3226
862.58	3131
862.712	3013
862.844	2895
862.976	3047
863.108	3039
863.24	3359
863.372	2914
863.504	2990
863.636	2960
863.768	3058
863.9	3032
864.032	2956
864.164	2994
864.296	3024
864.428	3104
864.559	3127
864.691	3154
864.823	3100
864.954	3077
865.086	3070
865.217	3051
865.349	2986
865.48	3009
865.612	3077
865.743	3207
865.875	3017
866.006	2960
866.137	3036
866.269	2998
866.4	2982
866.531	2990
866.662	2941
866.793	2982
866.924	2929
867.055	3020
867.186	2944
867.317	2952
867.448	2872
867.579	2895
867.71	2899
867.841	2857
867.972	2967
868.103	2925
868.233	2914
868.364	2861
868.495	2937
868.625	3135
868.756	3176
868.886	3013
869.017	3024
869.147	3218
869.278	3180
869.408	3062
869.539	3017
869.669	3100
869.799	3070
869.929	3154
870.06	3119
870.19	3367
870.32	3313
870.45	3332
870.58	3428
870.71	3485
870.84	3450
870.97	3291
871.1	3325
871.23	3504
871.36	3477
871.489	3397
871.619	3416
871.749	3462
871.879	3504
872.008	3538
872.138	3424
872.267	3340
872.397	3165
872.526	3116
872.656	3036
872.785	3127
872.915	3249
873.044	3344
873.173	3249
873.303	3294
873.432	3230
873.561	3249
873.69	3188
873.819	3169
873.948	3214
874.077	3131
874.206	3077
874.335	3116
874.464	3253
874.593	3370
874.722	3245
874.851	3401
874.979	3382
875.108	3332
875.237	3253
875.365	3203
875.494	3173
875.623	3272
875.751	3123
875.88	3154
876.008	3207
876.136	3275
876.265	3313
876.393	3515
876.521	3477
876.65	3412
876.778	3378
876.906	3268
877.034	3214
877.162	3279
877.29	3207
877.418	3283
877.546	3283
877.674	3268
877.802	3226
877.93	3207
878.058	3169
878.185	3097
878.313	3222
878.441	3237
878.568	3116
878.696	3161
878.824	3253
878.951	3325
879.079	3504
879.206	3667
879.333	3462
879.461	3363
879.588	3420
879.715	3519
879.842	3603
879.97	3458
880.097	3180
880.224	3169
880.351	3226
880.478	3253
880.605	3230
880.732	3222
880.859	3511
880.986	3325
881.112	3340
881.239	3218
881.366	3135
881.493	3081
881.619	3020
881.746	3093
881.872	3131
881.999	3146
882.125	3173
882.252	3287
882.378	3332
882.505	3485
882.631	3302
882.757	3161
882.883	3256
883.01	3233
883.136	3241
883.262	3093
883.388	3169
883.514	3325
883.64	3409
883.766	3355
883.892	3184
884.018	3283
884.143	3458
884.269	3572
884.395	3241
884.52	3207
884.646	3237
884.772	3146
884.897	3112
885.023	3226
885.148	3367
885.274	3469
885.399	3424
885.524	3268
885.65	3291
885.775	3359
885.9	3275
886.025	3447
886.15	3389
886.275	3340
886.4	3249
886.525	3367
886.65	3283
886.775	3283
886.9	3538
887.025	3656
887.149	3447
887.274	3253
887.399	3222
887.523	3211
887.648	3199
887.773	3279
887.897	3370
888.021	3409
888.146	3291
888.27	3450
888.395	3526
888.519	3504
888.643	3481
888.767	3492
888.891	3389
889.015	3317
889.139	3287
889.263	3207
889.387	3435
889.511	3515
889.635	3492
889.759	3302
889.883	3294
890.006	3405
890.13	3523
890.254	3317
890.377	3374
890.501	3192
890.624	3199
890.748	3317
890.871	3226
890.995	3100
891.118	3093
891.241	3226
891.364	3218
891.488	3336
891.611	3199
891.734	3245
891.857	3310
891.98	3268
892.103	3329
892.226	3291
892.349	3268
892.471	3142
892.594	3241
892.717	3294
892.839	3325
892.962	3336
893.085	3389
893.207	3298
893.33	3150
893.452	3253
893.575	3317
893.697	3283
893.819	3454
893.941	3519
894.064	3450
894.186	3287
894.308	3302
894.43	3458
894.552	3595
894.674	3511
894.796	3291
894.918	3306
895.04	3340
895.161	3443
895.283	3397
895.405	3340
895.526	3382
895.648	3477
895.769	3458
895.891	3435
896.012	3492
896.134	3473
896.255	3428
896.376	3409
896.498	3382
896.619	3454
896.74	3420
896.861	3458
896.982	3717
897.103	3816
897.224	3595
897.345	3561
897.466	3462
897.587	3530
897.708	3679
897.828	3576
897.949	3469
898.07	3321
898.19	3412
898.311	3614
898.431	3443
898.552	3545
898.672	3591
898.792	3606
898.913	3526
899.033	3386
899.153	3306
899.273	3264
899.393	3294
899.513	3351
899.633	3332
899.753	3367
899.873	3332
899.993	3416
900.113	3367
900.232	3386
900.352	3348
900.472	3317
900.591	3256
900.711	3348
900.83	3249
900.95	3412
901.069	3496
901.189	3370
901.308	3165
901.427	3195
901.546	3188
901.665	3344
901.784	3374
901.904	3218
902.023	3169
902.141	3020
902.26	3001
902.379	3169
902.498	3100
902.617	3066
902.735	3241
902.854	3241
902.973	3249
903.091	3066
903.21	3112
903.328	3150
903.446	3100
903.565	3116
903.683	3218
903.801	3157
903.919	3256
904.038	3294
904.156	3180
904.274	3291
904.392	3302
904.51	3317
904.627	3325
904.745	3473
904.863	3549
904.981	3253
905.098	3176
905.216	3230
905.334	3298
905.451	3287
905.569	3344
905.686	3435
905.803	3450
905.921	3313
906.038	3481
906.155	3355
906.272	3291
906.389	3378
906.506	3230
906.623	3279
906.74	3279
906.857	3211
906.974	3241
907.091	3485
907.208	3633
907.324	3504
907.441	3435
907.557	3256
907.674	3249
907.79	3233
907.907	3294
908.023	3386
908.139	3374
908.256	3351
908.372	3401
908.488	3386
908.604	3275
908.72	3230
908.836	3306
908.952	3317
909.068	3344
909.184	3500
909.3	3382
909.415	3561
909.531	3526
909.647	3253
909.762	3344
909.878	3287
909.993	3367
910.108	3348
910.224	3325
910.339	3447
910.454	3351
910.57	3321
910.685	3237
910.8	3599
910.915	3591
911.03	3500
911.145	3302
911.259	3260
911.374	3332
911.489	3272
911.604	3237
911.718	3108
911.833	3157
911.947	3062
912.062	3013
912.176	3184
912.291	3226
912.405	3241
912.519	3473
912.633	3496
912.748	3359
912.862	3317
912.976	3192
913.09	3036
913.204	3195
913.318	3222
913.431	3329
913.545	3313
913.659	3428
913.772	3344
913.886	3226
914	3188
914.113	3378
914.226	3435
914.34	3386
914.453	3222
914.566	3431
914.68	3245
914.793	3344
914.906	3142
915.019	3142
915.132	3085
915.245	3184
915.358	3192
915.47	3260
915.583	3283
915.696	3340
915.809	3420
915.921	3447
916.034	3264
916.146	3279
916.259	3222
916.371	3393
916.483	3374
916.595	3302
916.708	3351
916.82	3359
916.932	3359
917.044	3351
917.156	3359
917.268	3230
917.38	3336
917.491	3302
917.603	3416
917.715	3447
917.826	3481
917.938	3374
918.049	3283
918.161	3439
918.272	3606
918.384	3557
918.495	3488
918.606	3363
918.717	3291
918.828	3409
918.939	3389
919.05	3329
919.161	3378
919.272	3199
919.383	3302
919.494	3534
919.604	3717
919.715	3507
919.826	3431
919.936	3481
920.047	3633
920.157	3538
920.267	3808
920.378	3614
920.488	3603
920.598	3755
920.708	3949
920.818	3835
920.928	3842
921.038	4036
921.148	3983
921.258	3751
921.368	3603
921.477	3587
921.587	3511
921.697	3458
921.806	3618
921.916	3576
922.025	3374
922.134	3355
922.244	3291
922.353	3409
922.462	3298
922.571	3249
922.68	3127
922.789	3085
922.898	3146
923.007	3104
923.116	3211
923.224	3203
923.333	3203
923.442	3077
923.55	3093
923.659	3104
923.767	3211
923.876	3112
923.984	3268
924.092	3085
924.201	3203
924.309	3184
924.417	3249
924.525	3214
924.633	3279
924.741	4082
924.849	3062
924.956	3264
925.064	3093
925.172	3062
925.279	3058
925.387	3165
925.494	3256
925.602	3409
925.709	3367
925.816	3207
925.924	3294
926.031	3382
926.138	3367
926.245	3386
926.352	3264
926.459	3435
926.566	3504
926.673	3325
926.779	3294
926.886	3317
926.993	3157
927.099	3150
927.206	3142
927.312	3146
927.419	3249
927.525	3226
927.631	3321
927.737	3165
927.843	3142
927.95	3077
928.056	3135
928.162	3237
928.267	3264
928.373	3797
928.479	3386
928.585	3138
928.69	3233
928.796	3298
928.901	3226
929.007	3123
929.112	3237
929.218	3214
929.323	3192
929.428	3214
929.533	3340
929.638	3195
929.743	3222
929.848	3317
929.953	3253
930.058	3176
930.163	3039
930.267	3119
930.372	3260
930.477	3066
930.581	3329
930.685	3237
930.79	3089
930.894	3154
930.998	3154
931.103	3325
931.207	3013
931.311	2956
931.415	2952
931.519	2845
931.623	2872
