Data from test_V78500241_1649.txt Node
Date: Fri Mar 25 16:26:37 CST 2022
User: usil
Spectrometer: V785-0024
Trigger mode: 0
Integration Time (sec): 4.000000E-1
Scans to average: 1
Nonlinearity correction enabled: false
Boxcar width: 0
Storing dark spectrum: false
XAxis mode: Wavelengths
Number of Pixels in Spectrum: 1024
>>>>>Begin Spectral Data<<<<<
801.071	2902
801.214	2906
801.356	2853
801.499	2883
801.641	2849
801.783	2883
801.926	3066
802.068	2967
802.211	3017
802.353	3024
802.496	2975
802.638	3009
802.78	3051
802.923	3100
803.065	2998
803.208	2883
803.35	2922
803.492	2925
803.635	2922
803.777	2769
803.919	2849
804.061	3230
804.204	2963
804.346	2925
804.488	2834
804.63	2956
804.773	2849
804.915	2895
805.057	3100
805.199	2933
805.341	2944
805.483	3028
805.626	2998
805.768	2963
805.91	3097
806.052	3089
806.194	3066
806.336	3222
806.478	3005
806.62	2975
806.762	2960
806.904	3093
807.046	3154
807.188	2975
807.33	2944
807.472	2937
807.614	2902
807.756	2990
807.898	2941
808.04	2902
808.182	2971
808.324	2933
808.465	2891
808.607	2872
808.749	2807
808.891	2838
809.033	2990
809.174	2967
809.316	2929
809.458	2899
809.6	2746
809.741	2754
809.883	2746
810.025	2838
810.166	2857
810.308	2845
810.45	2868
810.591	2788
810.733	2762
810.875	2838
811.016	2777
811.158	2792
811.299	2804
811.441	2895
811.582	2902
811.724	2796
811.865	2826
812.007	2929
812.148	2906
812.29	2830
812.431	2880
812.573	2952
812.714	2986
812.855	3062
812.997	3043
813.138	3127
813.279	2998
813.421	2986
813.562	2937
813.703	2849
813.845	2880
813.986	2766
814.127	2724
814.268	2815
814.41	2826
814.551	2830
814.692	2868
814.833	2800
814.974	2864
815.115	2952
815.256	2861
815.397	2823
815.539	2883
815.68	2766
815.821	2769
815.962	2933
816.103	2929
816.244	2864
816.385	2876
816.526	2933
816.666	2899
816.807	2743
816.948	2864
817.089	2891
817.23	2853
817.371	2792
817.512	2785
817.653	2807
817.793	2842
817.934	2845
818.075	2952
818.216	2963
818.356	3009
818.497	2880
818.638	2785
818.778	2815
818.919	2796
819.06	2788
819.2	2845
819.341	2796
819.481	2777
819.622	2891
819.762	3089
819.903	3055
820.043	2899
820.184	2895
820.324	2895
820.465	3024
820.605	3005
820.746	2994
820.886	2914
821.026	3070
821.167	3154
821.307	3256
821.447	3268
821.588	3173
821.728	3207
821.868	3207
822.008	3055
822.149	3173
822.289	3249
822.429	3066
822.569	3100
822.709	3180
822.849	3051
822.99	3051
823.13	3138
823.27	3173
823.41	3100
823.55	3135
823.69	3123
823.83	3188
823.97	3119
824.11	2967
824.25	2982
824.389	3058
824.529	3119
824.669	3055
824.809	3218
824.949	3245
825.089	3233
825.228	3131
825.368	3005
825.508	2963
825.648	2952
825.787	3020
825.927	2998
826.067	2990
826.206	2963
826.346	3028
826.485	3051
826.625	3131
826.765	3249
826.904	3180
827.044	2982
827.183	2933
827.323	2868
827.462	3001
827.601	2895
827.741	2922
827.88	2960
828.02	2830
828.159	2963
828.298	3077
828.437	3116
828.577	3020
828.716	3222
828.855	3100
828.994	2925
829.134	2906
829.273	2956
829.412	2842
829.551	2857
829.69	2906
829.829	2956
829.968	3127
830.107	3028
830.246	3013
830.385	2922
830.524	2857
830.663	2819
830.802	2701
830.941	2613
831.08	2625
831.219	2762
831.357	2766
831.496	2971
831.635	2693
831.774	2644
831.913	2659
832.051	2545
832.19	2594
832.329	2678
832.467	2518
832.606	2495
832.744	2575
832.883	2541
833.022	2587
833.16	2674
833.299	2678
833.437	2701
833.576	2678
833.714	2705
833.852	2731
833.991	2766
834.129	2811
834.267	2796
834.406	2788
834.544	2872
834.682	2876
834.821	2857
834.959	3047
835.097	2883
835.235	3058
835.373	2998
835.511	2975
835.65	2956
835.788	2944
835.926	2849
836.064	2815
836.202	2823
836.34	3085
836.478	3119
836.615	3043
836.753	3100
836.891	3264
837.029	3173
837.167	3127
837.305	3085
837.443	3066
837.58	2967
837.718	3138
837.856	3047
837.993	3036
838.131	3116
838.269	3119
838.406	3070
838.544	3100
838.681	2960
838.819	2918
838.956	2781
839.094	2842
839.231	2925
839.369	3009
839.506	3389
839.643	3214
839.781	3017
839.918	2963
840.055	3039
840.193	3062
840.33	3032
840.467	3081
840.604	3142
840.742	3393
840.879	3055
841.016	3047
841.153	3119
841.29	3344
841.427	3279
841.564	3287
841.701	3264
841.838	3173
841.975	3180
842.112	3203
842.249	3062
842.385	3055
842.522	3275
842.659	3085
842.796	3017
842.933	3116
843.069	3005
843.206	3017
843.343	3180
843.479	3100
843.616	3146
843.752	2902
843.889	2880
844.025	3062
844.162	2853
844.298	3062
844.435	2941
844.571	2883
844.708	3043
844.844	3157
844.98	3218
845.117	3180
845.253	3066
845.389	2982
845.525	3085
845.661	3051
845.798	2971
845.934	3150
846.07	3032
846.206	3203
846.342	3298
846.478	3207
846.614	3093
846.75	3051
846.886	3020
847.022	3249
847.158	3108
847.294	3192
847.429	3226
847.565	3218
847.701	3447
847.837	3058
847.972	2960
848.108	3184
848.244	3131
848.379	3001
848.515	2910
848.65	2922
848.786	2922
848.921	3005
849.057	3077
849.192	3146
849.328	3070
849.463	3097
849.598	3066
849.734	3055
849.869	2963
850.004	2929
850.14	2963
850.275	2941
850.41	2834
850.545	2918
850.68	2914
850.815	2948
850.95	2933
851.085	3138
851.22	3089
851.355	3024
851.49	2941
851.625	2979
851.76	2963
851.895	2895
852.03	2868
852.165	3005
852.299	3081
852.434	3173
852.569	3165
852.703	3180
852.838	3218
852.973	3310
853.107	3340
853.242	3176
853.376	3066
853.511	2963
853.645	2998
853.78	3218
853.914	3093
854.048	3070
854.183	3074
854.317	3135
854.451	3321
854.585	3119
854.72	3070
854.854	3199
854.988	3028
855.122	3070
855.256	2990
855.39	3119
855.524	3241
855.658	3173
855.792	3116
855.926	3165
856.06	3199
856.194	3237
856.327	3161
856.461	3066
856.595	3074
856.729	3093
856.862	3176
856.996	3154
857.13	3192
857.263	3237
857.397	3310
857.53	3142
857.664	3211
857.797	3249
857.931	3241
858.064	3138
858.197	3157
858.331	3119
858.464	3093
858.597	2986
858.731	3097
858.864	3119
858.997	3077
859.13	3161
859.263	3169
859.396	3180
859.529	3055
859.662	3089
859.795	3074
859.928	3116
860.061	3268
860.194	3233
860.327	3119
860.46	3100
860.592	3222
860.725	3253
860.858	3268
860.99	3112
861.123	3039
861.256	3047
861.388	3116
861.521	3854
861.653	2971
861.786	2982
861.918	2982
862.05	3058
862.183	3074
862.315	3112
862.447	3203
862.58	3112
862.712	2956
862.844	2902
862.976	3032
863.108	2979
863.24	3409
863.372	2880
863.504	2941
863.636	2982
863.768	2994
863.9	2967
864.032	2922
864.164	2937
864.296	3005
864.428	3047
864.559	3104
864.691	3085
864.823	3058
864.954	3036
865.086	3047
865.217	2998
865.349	2914
865.48	2998
865.612	3001
865.743	3150
865.875	3017
866.006	2967
866.137	2960
866.269	2960
866.4	2933
866.531	2914
866.662	2929
866.793	2864
866.924	2861
867.055	2944
867.186	2922
867.317	2864
867.448	2842
867.579	2849
867.71	2804
867.841	2826
867.972	2883
868.103	2895
868.233	2830
868.364	2899
868.495	2880
868.625	3097
868.756	3176
868.886	2986
869.017	3062
869.147	3173
869.278	3142
869.408	3024
869.539	3036
869.669	3085
869.799	2998
869.929	3135
870.06	3097
870.19	3359
870.32	3291
870.45	3348
870.58	3355
870.71	3439
870.84	3447
870.97	3294
871.1	3207
871.23	3485
871.36	3401
871.489	3359
871.619	3393
871.749	3420
871.879	3416
872.008	3485
872.138	3359
872.267	3272
872.397	3119
872.526	3081
872.656	3017
872.785	3093
872.915	3249
873.044	3332
873.173	3222
873.303	3233
873.432	3218
873.561	3226
873.69	3169
873.819	3127
873.948	3150
874.077	3047
874.206	3032
874.335	3077
874.464	3165
874.593	3321
874.722	3214
874.851	3393
874.979	3351
875.108	3310
875.237	3184
875.365	3123
875.494	3184
875.623	3260
875.751	3070
875.88	3108
876.008	3192
876.136	3249
876.265	3370
876.393	3530
876.521	3409
876.65	3382
876.778	3344
876.906	3256
877.034	3169
877.162	3161
877.29	3146
877.418	3218
877.546	3256
877.674	3233
877.802	3226
877.93	3230
878.058	3119
878.185	3104
878.313	3161
878.441	3222
878.568	3043
878.696	3154
878.824	3253
878.951	3310
879.079	3450
879.206	3564
879.333	3450
879.461	3359
879.588	3351
879.715	3481
879.842	3545
879.97	3409
880.097	3176
880.224	3100
880.351	3165
880.478	3230
880.605	3142
880.732	3173
880.859	3477
880.986	3249
881.112	3329
881.239	3203
881.366	3112
881.493	3032
881.619	3024
881.746	3074
881.872	3085
881.999	3081
882.125	3123
882.252	3184
882.378	3233
882.505	3397
882.631	3302
882.757	3169
882.883	3192
883.01	3192
883.136	3176
883.262	3070
883.388	3112
883.514	3313
883.64	3367
883.766	3298
883.892	3157
884.018	3233
884.143	3428
884.269	3481
884.395	3184
884.52	3131
884.646	3150
884.772	3104
884.897	3081
885.023	3195
885.148	3325
885.274	3389
885.399	3317
885.524	3264
885.65	3249
885.775	3317
885.9	3245
886.025	3409
886.15	3332
886.275	3310
886.4	3233
886.525	3268
886.65	3272
886.775	3249
886.9	3504
887.025	3641
887.149	3397
887.274	3249
887.399	3161
887.523	3188
887.648	3203
887.773	3173
887.897	3340
888.021	3378
888.146	3275
888.27	3435
888.395	3526
888.519	3443
888.643	3424
888.767	3431
888.891	3287
889.015	3245
889.139	3275
889.263	3226
889.387	3370
889.511	3576
889.635	3435
889.759	3291
889.883	3275
890.006	3374
890.13	3454
890.254	3264
890.377	3302
890.501	3222
890.624	3192
890.748	3332
890.871	3173
890.995	3119
891.118	3017
891.241	3180
891.364	3226
891.488	3310
891.611	3157
891.734	3199
891.857	3283
891.98	3256
892.103	3363
892.226	3298
892.349	3192
892.471	3108
892.594	3241
892.717	3279
892.839	3294
892.962	3325
893.085	3401
893.207	3256
893.33	3116
893.452	3211
893.575	3359
893.697	3268
893.819	3488
893.941	3511
894.064	3469
894.186	3287
894.308	3272
894.43	3424
894.552	3549
894.674	3511
894.796	3325
894.918	3317
895.04	3313
895.161	3477
895.283	3424
895.405	3332
895.526	3389
895.648	3420
895.769	3481
895.891	3462
896.012	3530
896.134	3466
896.255	3416
896.376	3416
896.498	3374
896.619	3454
896.74	3382
896.861	3428
896.982	3728
897.103	3876
897.224	3633
897.345	3526
897.466	3477
897.587	3526
897.708	3644
897.828	3625
897.949	3447
898.07	3401
898.19	3431
898.311	3660
898.431	3492
898.552	3542
898.672	3663
898.792	3610
898.913	3526
899.033	3492
899.153	3344
899.273	3245
899.393	3306
899.513	3340
899.633	3332
899.753	3374
899.873	3359
899.993	3431
900.113	3386
900.232	3393
900.352	3363
900.472	3317
900.591	3226
900.711	3351
900.83	3294
900.95	3462
901.069	3526
901.189	3389
901.308	3253
901.427	3169
901.546	3218
901.665	3275
901.784	3382
901.904	3230
902.023	3154
902.141	3066
902.26	2979
902.379	3180
902.498	3127
902.617	3100
902.735	3226
902.854	3268
902.973	3218
903.091	3066
903.21	3104
903.328	3173
903.446	3127
903.565	3173
903.683	3222
903.801	3180
903.919	3275
904.038	3340
904.156	3188
904.274	3351
904.392	3294
904.51	3306
904.627	3359
904.745	3469
904.863	3542
904.981	3283
905.098	3241
905.216	3268
905.334	3317
905.451	3332
905.569	3306
905.686	3447
905.803	3492
905.921	3294
906.038	3447
906.155	3348
906.272	3279
906.389	3412
906.506	3211
906.623	3298
906.74	3294
906.857	3222
906.974	3268
907.091	3519
907.208	3545
907.324	3485
907.441	3469
907.557	3260
907.674	3222
907.79	3237
907.907	3348
908.023	3409
908.139	3367
908.256	3355
908.372	3405
908.488	3378
908.604	3287
908.72	3245
908.836	3298
908.952	3344
909.068	3389
909.184	3526
909.3	3397
909.415	3515
909.531	3504
909.647	3310
909.762	3306
909.878	3294
909.993	3359
910.108	3363
910.224	3370
910.339	3447
910.454	3348
910.57	3332
910.685	3256
910.8	3629
910.915	3534
911.03	3409
911.145	3287
911.259	3310
911.374	3336
911.489	3287
911.604	3291
911.718	3146
911.833	3192
911.947	3077
912.062	3043
912.176	3203
912.291	3241
912.405	3207
912.519	3466
912.633	3496
912.748	3374
912.862	3291
912.976	3230
913.09	3100
913.204	3161
913.318	3245
913.431	3393
913.545	3355
913.659	3443
913.772	3370
913.886	3256
914	3203
914.113	3374
914.226	3443
914.34	3405
914.453	3268
914.566	3450
914.68	3313
914.793	3344
914.906	3180
915.019	3169
915.132	3104
915.245	3192
915.358	3253
915.47	3260
915.583	3260
915.696	3363
915.809	3428
915.921	3447
916.034	3268
916.146	3298
916.259	3249
916.371	3466
916.483	3374
916.595	3260
916.708	3355
916.82	3401
916.932	3382
917.044	3355
917.156	3405
917.268	3306
917.38	3336
917.491	3298
917.603	3424
917.715	3462
917.826	3500
917.938	3443
918.049	3279
918.161	3469
918.272	3584
918.384	3580
918.495	3507
918.606	3370
918.717	3321
918.828	3405
918.939	3428
919.05	3264
919.161	3397
919.272	3207
919.383	3291
919.494	3530
919.604	3709
919.715	3553
919.826	3428
919.936	3504
920.047	3618
920.157	3572
920.267	3781
920.378	3599
920.488	3564
920.598	3793
920.708	3987
920.818	3850
920.928	3846
921.038	4040
921.148	4025
921.258	3747
921.368	3652
921.477	3606
921.587	3572
921.697	3515
921.806	3625
921.916	3580
922.025	3428
922.134	3401
922.244	3325
922.353	3469
922.462	3272
922.571	3283
922.68	3154
922.789	3089
922.898	3123
923.007	3119
923.116	3245
923.224	3203
923.333	3192
923.442	3081
923.55	3135
923.659	3165
923.767	3249
923.876	3188
923.984	3275
924.092	3199
924.201	3218
924.309	3249
924.417	3264
924.525	3245
924.633	3313
924.741	4169
924.849	3062
924.956	3279
925.064	3138
925.172	3043
925.279	3138
925.387	3203
925.494	3203
925.602	3370
925.709	3325
925.816	3218
925.924	3313
926.031	3378
926.138	3397
926.245	3363
926.352	3256
926.459	3443
926.566	3462
926.673	3340
926.779	3268
926.886	3279
926.993	3169
927.099	3154
927.206	3131
927.312	3135
927.419	3241
927.525	3214
927.631	3306
927.737	3176
927.843	3138
927.95	3028
928.056	3142
928.162	3211
928.267	3268
928.373	3800
928.479	3294
928.585	3074
928.69	3260
928.796	3321
928.901	3218
929.007	3085
929.112	3253
929.218	3207
929.323	3173
929.428	3150
929.533	3344
929.638	3142
929.743	3199
929.848	3291
929.953	3214
930.058	3184
930.163	3001
930.267	3081
930.372	3218
930.477	3093
930.581	3367
930.685	3176
930.79	3074
930.894	3138
930.998	3116
931.103	3302
931.207	3005
931.311	2979
931.415	2929
931.519	2800
931.623	2864
