Data from test_V78500241_448.txt Node
Date: Fri Mar 25 16:18:18 CST 2022
User: usil
Spectrometer: V785-0024
Trigger mode: 0
Integration Time (sec): 4.000000E-1
Scans to average: 1
Nonlinearity correction enabled: false
Boxcar width: 0
Storing dark spectrum: false
XAxis mode: Wavelengths
Number of Pixels in Spectrum: 1024
>>>>>Begin Spectral Data<<<<<
801.071	2864
801.214	2998
801.356	2891
801.499	2883
801.641	2899
801.783	2941
801.926	3028
802.068	2925
802.211	3013
802.353	3013
802.496	2937
802.638	3005
802.78	3058
802.923	3051
803.065	2994
803.208	2880
803.35	2876
803.492	2929
803.635	2944
803.777	2746
803.919	2861
804.061	3169
804.204	2941
804.346	2872
804.488	2842
804.63	3005
804.773	2853
804.915	2929
805.057	3070
805.199	2918
805.341	2960
805.483	3036
805.626	2982
805.768	2967
805.91	3077
806.052	3097
806.194	3024
806.336	3211
806.478	3020
806.62	2956
806.762	2933
806.904	3058
807.046	3131
807.188	2994
807.33	2895
807.472	2971
807.614	2887
807.756	2971
807.898	2910
808.04	2895
808.182	2929
808.324	2914
808.465	2857
808.607	2872
808.749	2796
808.891	2849
809.033	2941
809.174	2948
809.316	2891
809.458	2887
809.6	2754
809.741	2773
809.883	2811
810.025	2830
810.166	2872
810.308	2834
810.45	2857
810.591	2777
810.733	2754
810.875	2842
811.016	2785
811.158	2773
811.299	2807
811.441	2902
811.582	2891
811.724	2819
811.865	2830
812.007	2922
812.148	2853
812.29	2842
812.431	2891
812.573	2933
812.714	2971
812.855	3047
812.997	3043
813.138	3138
813.279	3017
813.421	2979
813.562	2986
813.703	2880
813.845	2899
813.986	2762
814.127	2743
814.268	2823
814.41	2826
814.551	2762
814.692	2864
814.833	2830
814.974	2895
815.115	2937
815.256	2857
815.397	2781
815.539	2830
815.68	2762
815.821	2777
815.962	2975
816.103	2914
816.244	2883
816.385	2872
816.526	2963
816.666	2944
816.807	2739
816.948	2922
817.089	2948
817.23	2868
817.371	2766
817.512	2788
817.653	2830
817.793	2788
817.934	2876
818.075	2944
818.216	2994
818.356	3013
818.497	2861
818.638	2792
818.778	2845
818.919	2819
819.06	2746
819.2	2861
819.341	2811
819.481	2769
819.622	2880
819.762	3104
819.903	3043
820.043	2925
820.184	2895
820.324	2891
820.465	3017
820.605	3028
820.746	3036
820.886	2914
821.026	3039
821.167	3131
821.307	3268
821.447	3291
821.588	3256
821.728	3161
821.868	3192
822.008	3081
822.149	3176
822.289	3192
822.429	3100
822.569	3058
822.709	3135
822.849	3036
822.99	3074
823.13	3161
823.27	3199
823.41	3070
823.55	3135
823.69	3154
823.83	3176
823.97	3089
824.11	3005
824.25	2963
824.389	3058
824.529	3097
824.669	3051
824.809	3188
824.949	3218
825.089	3199
825.228	3146
825.368	2960
825.508	2975
825.648	2967
825.787	2986
825.927	3047
826.067	2971
826.206	2967
826.346	3009
826.485	3058
826.625	3093
826.765	3298
826.904	3218
827.044	2933
827.183	2944
827.323	2857
827.462	2990
827.601	2906
827.741	2902
827.88	2975
828.02	2830
828.159	2975
828.298	3020
828.437	3150
828.577	3028
828.716	3287
828.855	3085
828.994	2941
829.134	2876
829.273	2899
829.412	2830
829.551	2887
829.69	2876
829.829	2941
829.968	3131
830.107	3047
830.246	2994
830.385	2910
830.524	2864
830.663	2834
830.802	2735
830.941	2651
831.08	2636
831.219	2758
831.357	2735
831.496	2925
831.635	2720
831.774	2644
831.913	2625
832.051	2575
832.19	2545
832.329	2663
832.467	2488
832.606	2476
832.744	2537
832.883	2583
833.022	2564
833.16	2644
833.299	2682
833.437	2682
833.576	2693
833.714	2720
833.852	2724
833.991	2746
834.129	2781
834.267	2842
834.406	2811
834.544	2834
834.682	2887
834.821	2845
834.959	3024
835.097	2883
835.235	3070
835.373	2998
835.511	3028
835.65	2971
835.788	2967
835.926	2815
836.064	2811
836.202	2834
836.34	3100
836.478	3142
836.615	3036
836.753	3112
836.891	3192
837.029	3142
837.167	3089
837.305	3055
837.443	3005
837.58	2944
837.718	3100
837.856	3074
837.993	3051
838.131	3157
838.269	3093
838.406	3066
838.544	3104
838.681	2914
838.819	2899
838.956	2785
839.094	2811
839.231	2899
839.369	3017
839.506	3332
839.643	3241
839.781	3032
839.918	2929
840.055	3070
840.193	3039
840.33	3055
840.467	3089
840.604	3112
840.742	3389
840.879	3043
841.016	3039
841.153	3100
841.29	3306
841.427	3321
841.564	3264
841.701	3298
841.838	3199
841.975	3165
842.112	3154
842.249	3089
842.385	3020
842.522	3256
842.659	3081
842.796	3070
842.933	3062
843.069	3036
843.206	3058
843.343	3173
843.479	3093
843.616	3108
843.752	2899
843.889	2857
844.025	3100
844.162	2887
844.298	3047
844.435	2941
844.571	2922
844.708	3039
844.844	3195
844.98	3233
845.117	3199
845.253	3032
845.389	2975
845.525	3119
845.661	3100
845.798	3043
845.934	3123
846.07	3066
846.206	3195
846.342	3272
846.478	3218
846.614	3089
846.75	3024
846.886	2998
847.022	3241
847.158	3081
847.294	3154
847.429	3207
847.565	3207
847.701	3526
847.837	2994
847.972	2998
848.108	3150
848.244	3135
848.379	2979
848.515	2956
848.65	2914
848.786	2952
848.921	2994
849.057	3108
849.192	3157
849.328	3077
849.463	3104
849.598	3051
849.734	3017
849.869	2963
850.004	2910
850.14	2963
850.275	2948
850.41	2830
850.545	2861
850.68	2895
850.815	2941
850.95	2956
851.085	3222
851.22	3093
851.355	2971
851.49	2960
851.625	3013
851.76	3017
851.895	2929
852.03	2876
852.165	2998
852.299	3089
852.434	3188
852.569	3135
852.703	3154
852.838	3253
852.973	3374
853.107	3302
853.242	3135
853.376	3077
853.511	2998
853.645	3055
853.78	3264
853.914	3112
854.048	3104
854.183	3097
854.317	3138
854.451	3275
854.585	3108
854.72	3081
854.854	3214
854.988	3055
855.122	3077
855.256	2948
855.39	3070
855.524	3241
855.658	3192
855.792	3161
855.926	3146
856.06	3226
856.194	3264
856.327	3173
856.461	3058
856.595	3081
856.729	3047
856.862	3218
856.996	3119
857.13	3169
857.263	3222
857.397	3279
857.53	3116
857.664	3199
857.797	3214
857.931	3260
858.064	3157
858.197	3214
858.331	3116
858.464	3116
858.597	2990
858.731	3131
858.864	3131
858.997	3051
859.13	3173
859.263	3161
859.396	3203
859.529	3085
859.662	3070
859.795	3070
859.928	3146
860.061	3302
860.194	3283
860.327	3104
860.46	3070
860.592	3249
860.725	3249
860.858	3211
860.99	3116
861.123	3020
861.256	3043
861.388	3161
861.521	3983
861.653	3001
861.786	2975
861.918	2975
862.05	3058
862.183	3085
862.315	3116
862.447	3188
862.58	3089
862.712	2933
862.844	2883
862.976	2990
863.108	3028
863.24	3386
863.372	2891
863.504	2960
863.636	2929
863.768	3028
863.9	2963
864.032	2883
864.164	2914
864.296	3020
864.428	3043
864.559	3081
864.691	3062
864.823	3051
864.954	3036
865.086	3047
865.217	2963
865.349	2952
865.48	2941
865.612	2998
865.743	3150
865.875	2982
866.006	2929
866.137	2971
866.269	2922
866.4	2922
866.531	2914
866.662	2891
866.793	2891
866.924	2929
867.055	2971
867.186	2914
867.317	2883
867.448	2815
867.579	2842
867.71	2868
867.841	2796
867.972	2914
868.103	2906
868.233	2861
868.364	2857
868.495	2902
868.625	3066
868.756	3150
868.886	2956
869.017	2971
869.147	3135
869.278	3119
869.408	3028
869.539	3017
869.669	3104
869.799	3047
869.929	3131
870.06	3142
870.19	3336
870.32	3268
870.45	3264
870.58	3340
870.71	3412
870.84	3401
870.97	3306
871.1	3256
871.23	3477
871.36	3428
871.489	3313
871.619	3382
871.749	3389
871.879	3412
872.008	3511
872.138	3374
872.267	3253
872.397	3165
872.526	3112
872.656	3028
872.785	3093
872.915	3230
873.044	3294
873.173	3230
873.303	3226
873.432	3245
873.561	3230
873.69	3142
873.819	3085
873.948	3199
874.077	3089
874.206	3005
874.335	3089
874.464	3195
874.593	3351
874.722	3249
874.851	3389
874.979	3332
875.108	3294
875.237	3192
875.365	3146
875.494	3154
875.623	3226
875.751	3077
875.88	3138
876.008	3188
876.136	3218
876.265	3363
876.393	3492
876.521	3409
876.65	3378
876.778	3332
876.906	3245
877.034	3192
877.162	3192
877.29	3161
877.418	3245
877.546	3237
877.674	3237
877.802	3222
877.93	3184
878.058	3154
878.185	3123
878.313	3233
878.441	3199
878.568	3039
878.696	3165
878.824	3249
878.951	3310
879.079	3409
879.206	3603
879.333	3416
879.461	3332
879.588	3378
879.715	3504
879.842	3595
879.97	3374
880.097	3142
880.224	3127
880.351	3184
880.478	3188
880.605	3180
880.732	3222
880.859	3458
880.986	3302
881.112	3351
881.239	3230
881.366	3058
881.493	3055
881.619	2998
881.746	3085
881.872	3116
881.999	3119
882.125	3127
882.252	3222
882.378	3313
882.505	3416
882.631	3283
882.757	3165
882.883	3249
883.01	3180
883.136	3176
883.262	3119
883.388	3104
883.514	3321
883.64	3367
883.766	3287
883.892	3230
884.018	3214
884.143	3439
884.269	3530
884.395	3199
884.52	3157
884.646	3188
884.772	3138
884.897	3116
885.023	3165
885.148	3310
885.274	3435
885.399	3332
885.524	3256
885.65	3275
885.775	3317
885.9	3279
886.025	3428
886.15	3351
886.275	3294
886.4	3211
886.525	3340
886.65	3291
886.775	3279
886.9	3473
887.025	3644
887.149	3420
887.274	3302
887.399	3192
887.523	3188
887.648	3173
887.773	3173
887.897	3378
888.021	3428
888.146	3291
888.27	3447
888.395	3549
888.519	3424
888.643	3435
888.767	3447
888.891	3291
889.015	3245
889.139	3241
889.263	3253
889.387	3409
889.511	3488
889.635	3439
889.759	3264
889.883	3264
890.006	3386
890.13	3450
890.254	3291
890.377	3291
890.501	3165
890.624	3165
890.748	3313
890.871	3188
890.995	3062
891.118	3039
891.241	3211
891.364	3211
891.488	3294
891.611	3188
891.734	3169
891.857	3268
891.98	3241
892.103	3313
892.226	3241
892.349	3203
892.471	3097
892.594	3245
892.717	3275
892.839	3268
892.962	3264
893.085	3344
893.207	3287
893.33	3157
893.452	3211
893.575	3302
893.697	3233
893.819	3405
893.941	3534
894.064	3420
894.186	3237
894.308	3275
894.43	3409
894.552	3511
894.674	3469
894.796	3264
894.918	3310
895.04	3268
895.161	3447
895.283	3382
895.405	3294
895.526	3351
895.648	3405
895.769	3401
895.891	3409
896.012	3458
896.134	3439
896.255	3386
896.376	3386
896.498	3367
896.619	3382
896.74	3393
896.861	3412
896.982	3694
897.103	3804
897.224	3595
897.345	3492
897.466	3439
897.587	3526
897.708	3599
897.828	3519
897.949	3477
898.07	3344
898.19	3393
898.311	3599
898.431	3458
898.552	3538
898.672	3625
898.792	3545
898.913	3485
899.033	3401
899.153	3268
899.273	3199
899.393	3256
899.513	3313
899.633	3298
899.753	3336
899.873	3351
899.993	3374
900.113	3283
900.232	3363
900.352	3351
900.472	3310
900.591	3195
900.711	3279
900.83	3222
900.95	3412
901.069	3447
901.189	3359
901.308	3169
901.427	3108
901.546	3192
901.665	3283
901.784	3348
901.904	3199
902.023	3157
902.141	3009
902.26	2986
902.379	3135
902.498	3085
902.617	3024
902.735	3207
902.854	3237
902.973	3142
903.091	3020
903.21	3062
903.328	3123
903.446	3089
903.565	3108
903.683	3188
903.801	3146
903.919	3218
904.038	3313
904.156	3154
904.274	3298
904.392	3272
904.51	3260
904.627	3302
904.745	3409
904.863	3507
904.981	3226
905.098	3161
905.216	3237
905.334	3283
905.451	3298
905.569	3329
905.686	3409
905.803	3492
905.921	3313
906.038	3435
906.155	3344
906.272	3268
906.389	3367
906.506	3272
906.623	3211
906.74	3241
906.857	3176
906.974	3268
907.091	3424
907.208	3530
907.324	3458
907.441	3363
907.557	3192
907.674	3214
907.79	3241
907.907	3245
908.023	3348
908.139	3344
908.256	3287
908.372	3370
908.488	3336
908.604	3211
908.72	3249
908.836	3291
908.952	3283
909.068	3321
909.184	3454
909.3	3359
909.415	3488
909.531	3412
909.647	3253
909.762	3256
909.878	3230
909.993	3374
910.108	3325
910.224	3321
910.339	3420
910.454	3298
910.57	3241
910.685	3237
910.8	3564
910.915	3561
911.03	3428
911.145	3237
911.259	3272
911.374	3351
911.489	3253
911.604	3218
911.718	3100
911.833	3127
911.947	3028
912.062	3001
912.176	3150
912.291	3157
912.405	3230
912.519	3428
912.633	3454
912.748	3351
912.862	3253
912.976	3146
913.09	3032
913.204	3104
913.318	3180
913.431	3367
913.545	3313
913.659	3401
913.772	3302
913.886	3199
914	3169
914.113	3344
914.226	3420
914.34	3367
914.453	3157
914.566	3412
914.68	3287
914.793	3325
914.906	3154
915.019	3116
915.132	3055
915.245	3116
915.358	3192
915.47	3218
915.583	3245
915.696	3287
915.809	3416
915.921	3458
916.034	3237
916.146	3272
916.259	3226
916.371	3348
916.483	3378
916.595	3302
916.708	3382
916.82	3397
916.932	3355
917.044	3374
917.156	3409
917.268	3283
917.38	3306
917.491	3325
917.603	3424
917.715	3454
917.826	3496
917.938	3374
918.049	3329
918.161	3473
918.272	3576
918.384	3591
918.495	3526
918.606	3363
918.717	3291
918.828	3416
918.939	3447
919.05	3310
919.161	3420
919.272	3199
919.383	3344
919.494	3507
919.604	3736
919.715	3511
919.826	3462
919.936	3485
920.047	3614
920.157	3610
920.267	3770
920.378	3633
920.488	3564
920.598	3823
920.708	4013
920.818	3903
920.928	3876
921.038	4059
921.148	4013
921.258	3740
921.368	3679
921.477	3618
921.587	3542
921.697	3481
921.806	3675
921.916	3561
922.025	3424
922.134	3389
922.244	3340
922.353	3500
922.462	3302
922.571	3275
922.68	3161
922.789	3119
922.898	3169
923.007	3127
923.116	3264
923.224	3226
923.333	3207
923.442	3142
923.55	3127
923.659	3226
923.767	3253
923.876	3169
923.984	3279
924.092	3138
924.201	3237
924.309	3272
924.417	3302
924.525	3237
924.633	3268
924.741	4086
924.849	3093
924.956	3294
925.064	3138
925.172	3058
925.279	3123
925.387	3222
925.494	3249
925.602	3405
925.709	3367
925.816	3233
925.924	3340
926.031	3424
926.138	3321
926.245	3424
926.352	3264
926.459	3473
926.566	3492
926.673	3325
926.779	3272
926.886	3264
926.993	3195
927.099	3135
927.206	3157
927.312	3154
927.419	3283
927.525	3245
927.631	3268
927.737	3176
927.843	3169
927.95	3066
928.056	3161
928.162	3188
928.267	3291
928.373	3800
928.479	3294
928.585	3104
928.69	3245
928.796	3294
928.901	3233
929.007	3085
929.112	3272
929.218	3226
929.323	3161
929.428	3211
929.533	3321
929.638	3131
929.743	3188
929.848	3325
929.953	3233
930.058	3135
930.163	3058
930.267	3036
930.372	3233
930.477	3077
930.581	3306
930.685	3222
930.79	3085
930.894	3150
930.998	3142
931.103	3325
931.207	3005
931.311	3001
931.415	2967
931.519	2800
931.623	2868
