Data from test_V78500241_862.txt Node
Date: Fri Mar 25 16:21:10 CST 2022
User: usil
Spectrometer: V785-0024
Trigger mode: 0
Integration Time (sec): 4.000000E-1
Scans to average: 1
Nonlinearity correction enabled: false
Boxcar width: 0
Storing dark spectrum: false
XAxis mode: Wavelengths
Number of Pixels in Spectrum: 1024
>>>>>Begin Spectral Data<<<<<
801.071	2883
801.214	2952
801.356	2876
801.499	2864
801.641	2891
801.783	2922
801.926	3066
802.068	2956
802.211	2967
802.353	3055
802.496	2975
802.638	3055
802.78	3058
802.923	3085
803.065	2990
803.208	2845
803.35	2918
803.492	2906
803.635	2883
803.777	2758
803.919	2823
804.061	3199
804.204	2944
804.346	2922
804.488	2853
804.63	2967
804.773	2857
804.915	2887
805.057	3085
805.199	2933
805.341	2952
805.483	3051
805.626	3013
805.768	2952
805.91	3116
806.052	3116
806.194	3024
806.336	3199
806.478	2982
806.62	2929
806.762	2952
806.904	3028
807.046	3169
807.188	2990
807.33	2883
807.472	2986
807.614	2864
807.756	2952
807.898	2868
808.04	2868
808.182	3001
808.324	2918
808.465	2876
808.607	2868
808.749	2785
808.891	2853
809.033	2960
809.174	2956
809.316	2887
809.458	2880
809.6	2746
809.741	2758
809.883	2769
810.025	2834
810.166	2838
810.308	2857
810.45	2868
810.591	2781
810.733	2788
810.875	2804
811.016	2724
811.158	2739
811.299	2815
811.441	2941
811.582	2876
811.724	2804
811.865	2800
812.007	2902
812.148	2849
812.29	2815
812.431	2845
812.573	2891
812.714	2963
812.855	3085
812.997	3020
813.138	3074
813.279	3001
813.421	2960
813.562	2944
813.703	2864
813.845	2891
813.986	2788
814.127	2731
814.268	2842
814.41	2811
814.551	2800
814.692	2845
814.833	2823
814.974	2838
815.115	2929
815.256	2830
815.397	2807
815.539	2853
815.68	2739
815.821	2769
815.962	2922
816.103	2914
816.244	2849
816.385	2880
816.526	2956
816.666	2895
816.807	2712
816.948	2857
817.089	2906
817.23	2819
817.371	2792
817.512	2727
817.653	2804
817.793	2777
817.934	2857
818.075	2952
818.216	3013
818.356	2960
818.497	2902
818.638	2796
818.778	2777
818.919	2796
819.06	2743
819.2	2880
819.341	2796
819.481	2800
819.622	2902
819.762	3100
819.903	3009
820.043	2914
820.184	2925
820.324	2922
820.465	2998
820.605	2975
820.746	3024
820.886	2933
821.026	3070
821.167	3127
821.307	3253
821.447	3256
821.588	3241
821.728	3165
821.868	3199
822.008	3070
822.149	3150
822.289	3233
822.429	3085
822.569	3066
822.709	3131
822.849	2986
822.99	3055
823.13	3123
823.27	3142
823.41	3089
823.55	3112
823.69	3169
823.83	3169
823.97	3104
824.11	2986
824.25	2948
824.389	3028
824.529	3085
824.669	3028
824.809	3150
824.949	3268
825.089	3184
825.228	3138
825.368	2990
825.508	2941
825.648	2960
825.787	3005
825.927	3028
826.067	2971
826.206	2925
826.346	3020
826.485	3089
826.625	3093
826.765	3302
826.904	3214
827.044	3013
827.183	2922
827.323	2880
827.462	3001
827.601	2906
827.741	2967
827.88	2925
828.02	2868
828.159	2975
828.298	3062
828.437	3138
828.577	3032
828.716	3256
828.855	3116
828.994	2929
829.134	2906
829.273	2960
829.412	2864
829.551	2876
829.69	2918
829.829	3009
829.968	3100
830.107	3020
830.246	3070
830.385	2933
830.524	2883
830.663	2842
830.802	2762
830.941	2693
831.08	2644
831.219	2800
831.357	2788
831.496	2963
831.635	2762
831.774	2705
831.913	2697
832.051	2575
832.19	2590
832.329	2735
832.467	2579
832.606	2526
832.744	2621
832.883	2594
833.022	2606
833.16	2678
833.299	2746
833.437	2743
833.576	2731
833.714	2750
833.852	2788
833.991	2826
834.129	2880
834.267	2853
834.406	2845
834.544	2906
834.682	2899
834.821	2902
834.959	3089
835.097	2941
835.235	3081
835.373	3058
835.511	3074
835.65	2998
835.788	2971
835.926	2842
836.064	2834
836.202	2914
836.34	3146
836.478	3211
836.615	3116
836.753	3150
836.891	3230
837.029	3199
837.167	3150
837.305	3074
837.443	3097
837.58	3017
837.718	3195
837.856	3104
837.993	3043
838.131	3131
838.269	3119
838.406	3116
838.544	3123
838.681	3013
838.819	2971
838.956	2849
839.094	2883
839.231	2963
839.369	3062
839.506	3382
839.643	3237
839.781	3039
839.918	2967
840.055	3081
840.193	3100
840.33	3097
840.467	3127
840.604	3161
840.742	3477
840.879	3077
841.016	3066
841.153	3146
841.29	3397
841.427	3313
841.564	3245
841.701	3329
841.838	3207
841.975	3211
842.112	3214
842.249	3085
842.385	3074
842.522	3294
842.659	3173
842.796	3089
842.933	3112
843.069	3043
843.206	3100
843.343	3188
843.479	3089
843.616	3154
843.752	2914
843.889	2899
844.025	3077
844.162	2895
844.298	3112
844.435	2960
844.571	2922
844.708	3112
844.844	3192
844.98	3256
845.117	3203
845.253	3066
845.389	3020
845.525	3127
845.661	3104
845.798	3047
845.934	3165
846.07	3093
846.206	3264
846.342	3340
846.478	3275
846.614	3142
846.75	3077
846.886	3043
847.022	3275
847.158	3157
847.294	3230
847.429	3253
847.565	3245
847.701	3515
847.837	3074
847.972	3024
848.108	3184
848.244	3195
848.379	3017
848.515	2948
848.65	2952
848.786	2975
848.921	3058
849.057	3138
849.192	3184
849.328	3097
849.463	3142
849.598	3074
849.734	3077
849.869	3001
850.004	2922
850.14	2963
850.275	2960
850.41	2861
850.545	2880
850.68	2979
850.815	2990
850.95	2994
851.085	3253
851.22	3157
851.355	3066
851.49	3020
851.625	3032
851.76	2998
851.895	2948
852.03	2948
852.165	3074
852.299	3142
852.434	3214
852.569	3214
852.703	3222
852.838	3253
852.973	3374
853.107	3348
853.242	3203
853.376	3108
853.511	3005
853.645	3097
853.78	3241
853.914	3146
854.048	3150
854.183	3154
854.317	3195
854.451	3325
854.585	3116
854.72	3116
854.854	3249
854.988	3043
855.122	3097
855.256	3032
855.39	3173
855.524	3268
855.658	3233
855.792	3188
855.926	3226
856.06	3260
856.194	3275
856.327	3154
856.461	3104
856.595	3077
856.729	3100
856.862	3203
856.996	3138
857.13	3226
857.263	3203
857.397	3279
857.53	3169
857.664	3211
857.797	3287
857.931	3287
858.064	3173
858.197	3214
858.331	3142
858.464	3093
858.597	3024
858.731	3127
858.864	3138
858.997	3089
859.13	3165
859.263	3188
859.396	3173
859.529	3089
859.662	3100
859.795	3081
859.928	3104
860.061	3310
860.194	3317
860.327	3154
860.46	3119
860.592	3260
860.725	3287
860.858	3268
860.99	3123
861.123	3116
861.256	3047
861.388	3173
861.521	3808
861.653	3024
861.786	3020
861.918	3009
862.05	3066
862.183	3127
862.315	3184
862.447	3249
862.58	3093
862.712	2941
862.844	2880
862.976	3036
863.108	3047
863.24	3329
863.372	2891
863.504	2963
863.636	2975
863.768	3032
863.9	3024
864.032	2960
864.164	2979
864.296	3024
864.428	3127
864.559	3131
864.691	3077
864.823	3081
864.954	3066
865.086	3051
865.217	3024
865.349	2956
865.48	2998
865.612	3074
865.743	3192
865.875	3032
866.006	2998
866.137	2994
866.269	2960
866.4	2967
866.531	2925
866.662	2922
866.793	2872
866.924	2944
867.055	2990
867.186	2925
867.317	2944
867.448	2872
867.579	2872
867.71	2883
867.841	2853
867.972	2922
868.103	2910
868.233	2899
868.364	2918
868.495	2941
868.625	3123
868.756	3142
868.886	2979
869.017	3047
869.147	3214
869.278	3192
869.408	3074
869.539	3047
869.669	3104
869.799	3058
869.929	3169
870.06	3127
870.19	3363
870.32	3275
870.45	3321
870.58	3389
870.71	3496
870.84	3473
870.97	3363
871.1	3233
871.23	3504
871.36	3488
871.489	3367
871.619	3428
871.749	3416
871.879	3431
872.008	3485
872.138	3340
872.267	3275
872.397	3169
872.526	3108
872.656	2990
872.785	3097
872.915	3226
873.044	3321
873.173	3237
873.303	3268
873.432	3249
873.561	3272
873.69	3192
873.819	3157
873.948	3218
874.077	3100
874.206	3070
874.335	3055
874.464	3264
874.593	3344
874.722	3260
874.851	3363
874.979	3397
875.108	3306
875.237	3199
875.365	3233
875.494	3176
875.623	3272
875.751	3093
875.88	3104
876.008	3203
876.136	3256
876.265	3355
876.393	3545
876.521	3431
876.65	3416
876.778	3351
876.906	3279
877.034	3203
877.162	3237
877.29	3184
877.418	3268
877.546	3283
877.674	3272
877.802	3230
877.93	3275
878.058	3173
878.185	3093
878.313	3226
878.441	3188
878.568	3097
878.696	3169
878.824	3279
878.951	3283
879.079	3450
879.206	3637
879.333	3443
879.461	3348
879.588	3386
879.715	3504
879.842	3637
879.97	3397
880.097	3203
880.224	3146
880.351	3249
880.478	3222
880.605	3192
880.732	3218
880.859	3504
880.986	3313
881.112	3351
881.239	3218
881.366	3131
881.493	3055
881.619	3070
881.746	3062
881.872	3112
881.999	3100
882.125	3146
882.252	3256
882.378	3317
882.505	3416
882.631	3283
882.757	3169
882.883	3195
883.01	3249
883.136	3203
883.262	3119
883.388	3089
883.514	3340
883.64	3374
883.766	3325
883.892	3180
884.018	3272
884.143	3469
884.269	3542
884.395	3233
884.52	3188
884.646	3230
884.772	3108
884.897	3138
885.023	3226
885.148	3359
885.274	3401
885.399	3435
885.524	3298
885.65	3279
885.775	3340
885.9	3340
886.025	3466
886.15	3397
886.275	3298
886.4	3275
886.525	3302
886.65	3249
886.775	3306
886.9	3534
887.025	3641
887.149	3412
887.274	3272
887.399	3184
887.523	3180
887.648	3188
887.773	3195
887.897	3428
888.021	3412
888.146	3306
888.27	3439
888.395	3545
888.519	3447
888.643	3469
888.767	3485
888.891	3336
889.015	3249
889.139	3298
889.263	3264
889.387	3428
889.511	3534
889.635	3458
889.759	3351
889.883	3321
890.006	3393
890.13	3485
890.254	3275
890.377	3340
890.501	3192
890.624	3199
890.748	3268
890.871	3222
890.995	3089
891.118	3077
891.241	3199
891.364	3237
891.488	3363
891.611	3150
891.734	3260
891.857	3348
891.98	3233
892.103	3325
892.226	3317
892.349	3203
892.471	3135
892.594	3291
892.717	3344
892.839	3222
892.962	3298
893.085	3367
893.207	3325
893.33	3161
893.452	3211
893.575	3382
893.697	3260
893.819	3515
893.941	3462
894.064	3454
894.186	3287
894.308	3256
894.43	3416
894.552	3564
894.674	3515
894.796	3294
894.918	3329
895.04	3340
895.161	3412
895.283	3420
895.405	3321
895.526	3351
895.648	3466
895.769	3420
895.891	3504
896.012	3466
896.134	3492
896.255	3424
896.376	3412
896.498	3370
896.619	3462
896.74	3374
896.861	3443
896.982	3682
897.103	3846
897.224	3564
897.345	3511
897.466	3462
897.587	3530
897.708	3671
897.828	3580
897.949	3428
898.07	3310
898.19	3420
898.311	3618
898.431	3439
898.552	3530
898.672	3606
898.792	3595
898.913	3523
899.033	3428
899.153	3329
899.273	3176
899.393	3302
899.513	3294
899.633	3374
899.753	3340
899.873	3329
899.993	3397
900.113	3348
900.232	3405
900.352	3409
900.472	3317
900.591	3214
900.711	3317
900.83	3214
900.95	3420
901.069	3500
901.189	3355
901.308	3218
901.427	3146
901.546	3188
901.665	3310
901.784	3310
901.904	3199
902.023	3154
902.141	3028
902.26	3020
902.379	3173
902.498	3066
902.617	3081
902.735	3188
902.854	3226
902.973	3211
903.091	3039
903.21	3062
903.328	3142
903.446	3123
903.565	3097
903.683	3245
903.801	3138
903.919	3264
904.038	3298
904.156	3108
904.274	3306
904.392	3275
904.51	3291
904.627	3367
904.745	3443
904.863	3549
904.981	3275
905.098	3165
905.216	3264
905.334	3287
905.451	3241
905.569	3302
905.686	3443
905.803	3401
905.921	3264
906.038	3466
906.155	3332
906.272	3253
906.389	3321
906.506	3245
906.623	3233
906.74	3287
906.857	3161
906.974	3222
907.091	3435
907.208	3561
907.324	3485
907.441	3374
907.557	3230
907.674	3298
907.79	3237
907.907	3283
908.023	3412
908.139	3416
908.256	3340
908.372	3409
908.488	3329
908.604	3241
908.72	3245
908.836	3272
908.952	3310
909.068	3344
909.184	3515
909.3	3389
909.415	3530
909.531	3496
909.647	3260
909.762	3302
909.878	3268
909.993	3340
910.108	3340
910.224	3340
910.339	3382
910.454	3359
910.57	3256
910.685	3268
910.8	3610
910.915	3538
911.03	3447
911.145	3249
911.259	3283
911.374	3298
911.489	3226
911.604	3226
911.718	3154
911.833	3135
911.947	3039
912.062	3005
912.176	3199
912.291	3214
912.405	3195
912.519	3428
912.633	3492
912.748	3313
912.862	3302
912.976	3165
913.09	3097
913.204	3161
913.318	3211
913.431	3306
913.545	3336
913.659	3412
913.772	3351
913.886	3237
914	3165
914.113	3351
914.226	3412
914.34	3344
914.453	3211
914.566	3424
914.68	3275
914.793	3344
914.906	3146
915.019	3089
915.132	3108
915.245	3188
915.358	3226
915.47	3241
915.583	3279
915.696	3291
915.809	3420
915.921	3450
916.034	3241
916.146	3256
916.259	3218
916.371	3431
916.483	3336
916.595	3287
916.708	3344
916.82	3351
916.932	3359
917.044	3370
917.156	3367
917.268	3245
917.38	3268
917.491	3306
917.603	3363
917.715	3447
917.826	3496
917.938	3378
918.049	3310
918.161	3412
918.272	3557
918.384	3576
918.495	3458
918.606	3329
918.717	3310
918.828	3389
918.939	3386
919.05	3359
919.161	3386
919.272	3195
919.383	3313
919.494	3488
919.604	3709
919.715	3485
919.826	3409
919.936	3435
920.047	3595
920.157	3553
920.267	3736
920.378	3614
920.488	3576
920.598	3781
920.708	3945
920.818	3812
920.928	3838
921.038	4048
921.148	3975
921.258	3720
921.368	3629
921.477	3564
921.587	3557
921.697	3447
921.806	3633
921.916	3534
922.025	3351
922.134	3359
922.244	3306
922.353	3428
922.462	3249
922.571	3260
922.68	3127
922.789	3112
922.898	3108
923.007	3104
923.116	3222
923.224	3173
923.333	3195
923.442	3097
923.55	3116
923.659	3146
923.767	3230
923.876	3108
923.984	3226
924.092	3104
924.201	3203
924.309	3218
924.417	3256
924.525	3146
924.633	3256
924.741	4200
924.849	3039
924.956	3268
925.064	3112
925.172	3062
925.279	3157
925.387	3154
925.494	3195
925.602	3389
925.709	3336
925.816	3233
925.924	3287
926.031	3393
926.138	3283
926.245	3344
926.352	3268
926.459	3393
926.566	3462
926.673	3310
926.779	3230
926.886	3264
926.993	3146
927.099	3146
927.206	3081
927.312	3104
927.419	3237
927.525	3226
927.631	3245
927.737	3199
927.843	3131
927.95	3020
928.056	3135
928.162	3161
928.267	3253
928.373	3774
928.479	3310
928.585	3089
928.69	3195
928.796	3291
928.901	3169
929.007	3043
929.112	3218
929.218	3165
929.323	3150
929.428	3142
929.533	3317
929.638	3108
929.743	3157
929.848	3207
929.953	3222
930.058	3123
930.163	2982
930.267	3062
930.372	3180
930.477	3028
930.581	3291
930.685	3188
930.79	3081
930.894	3097
930.998	3089
931.103	3306
931.207	2902
931.311	2902
931.415	2922
931.519	2758
931.623	2819
