Data from test_V78500241_242.txt Node
Date: Fri Mar 25 16:16:52 CST 2022
User: usil
Spectrometer: V785-0024
Trigger mode: 0
Integration Time (sec): 4.000000E-1
Scans to average: 1
Nonlinearity correction enabled: false
Boxcar width: 0
Storing dark spectrum: false
XAxis mode: Wavelengths
Number of Pixels in Spectrum: 1024
>>>>>Begin Spectral Data<<<<<
801.071	2906
801.214	2944
801.356	2906
801.499	2899
801.641	2895
801.783	2899
801.926	3097
802.068	2948
802.211	3009
802.353	3005
802.496	2998
802.638	3001
802.78	3055
802.923	3085
803.065	3017
803.208	2876
803.35	2941
803.492	2944
803.635	2979
803.777	2788
803.919	2880
804.061	3173
804.204	2960
804.346	2918
804.488	2842
804.63	3024
804.773	2872
804.915	2914
805.057	3089
805.199	2914
805.341	2979
805.483	3032
805.626	3013
805.768	2971
805.91	3089
806.052	3123
806.194	2986
806.336	3233
806.478	3047
806.62	2963
806.762	2956
806.904	3032
807.046	3157
807.188	2971
807.33	2899
807.472	3032
807.614	2887
807.756	2979
807.898	2960
808.04	2883
808.182	2982
808.324	2944
808.465	2899
808.607	2861
808.749	2830
808.891	2872
809.033	2967
809.174	2982
809.316	2872
809.458	2857
809.6	2750
809.741	2800
809.883	2788
810.025	2872
810.166	2891
810.308	2845
810.45	2910
810.591	2758
810.733	2781
810.875	2864
811.016	2788
811.158	2792
811.299	2800
811.441	2918
811.582	2872
811.724	2849
811.865	2838
812.007	2933
812.148	2845
812.29	2815
812.431	2902
812.573	2948
812.714	2941
812.855	3047
812.997	3047
813.138	3138
813.279	3020
813.421	2944
813.562	2998
813.703	2861
813.845	2922
813.986	2807
814.127	2720
814.268	2834
814.41	2857
814.551	2785
814.692	2883
814.833	2815
814.974	2902
815.115	2982
815.256	2815
815.397	2807
815.539	2864
815.68	2800
815.821	2777
815.962	2933
816.103	2906
816.244	2902
816.385	2864
816.526	2971
816.666	2929
816.807	2773
816.948	2876
817.089	2876
817.23	2864
817.371	2766
817.512	2743
817.653	2838
817.793	2815
817.934	2876
818.075	2956
818.216	3001
818.356	3005
818.497	2910
818.638	2807
818.778	2853
818.919	2773
819.06	2766
819.2	2872
819.341	2788
819.481	2807
819.622	2914
819.762	3112
819.903	3028
820.043	2937
820.184	2887
820.324	2891
820.465	3024
820.605	3032
820.746	3013
820.886	2918
821.026	3089
821.167	3161
821.307	3275
821.447	3268
821.588	3253
821.728	3192
821.868	3230
822.008	3085
822.149	3199
822.289	3241
822.429	3123
822.569	3112
822.709	3184
822.849	2998
822.99	3085
823.13	3165
823.27	3237
823.41	3154
823.55	3154
823.69	3150
823.83	3192
823.97	3112
824.11	2990
824.25	2982
824.389	3093
824.529	3116
824.669	3093
824.809	3176
824.949	3241
825.089	3192
825.228	3127
825.368	2975
825.508	2979
825.648	2963
825.787	3013
825.927	3005
826.067	3009
826.206	2982
826.346	3062
826.485	3081
826.625	3123
826.765	3264
826.904	3241
827.044	3013
827.183	2937
827.323	2845
827.462	3001
827.601	2933
827.741	2937
827.88	2925
828.02	2849
828.159	2963
828.298	3066
828.437	3123
828.577	3074
828.716	3218
828.855	3089
828.994	2929
829.134	2895
829.273	2933
829.412	2861
829.551	2876
829.69	2899
829.829	2979
829.968	3157
830.107	3036
830.246	3028
830.385	2895
830.524	2914
830.663	2815
830.802	2697
830.941	2644
831.08	2636
831.219	2716
831.357	2804
831.496	2975
831.635	2727
831.774	2640
831.913	2632
832.051	2541
832.19	2587
832.329	2670
832.467	2533
832.606	2507
832.744	2579
832.883	2590
833.022	2610
833.16	2648
833.299	2670
833.437	2693
833.576	2670
833.714	2743
833.852	2769
833.991	2739
834.129	2868
834.267	2823
834.406	2785
834.544	2887
834.682	2857
834.821	2868
834.959	3051
835.097	2899
835.235	3017
835.373	2998
835.511	3028
835.65	2952
835.788	2963
835.926	2845
836.064	2796
836.202	2834
836.34	3085
836.478	3123
836.615	3051
836.753	3097
836.891	3195
837.029	3176
837.167	3100
837.305	3043
837.443	3039
837.58	2952
837.718	3119
837.856	3070
837.993	3020
838.131	3089
838.269	3146
838.406	3138
838.544	3081
838.681	2922
838.819	2925
838.956	2830
839.094	2788
839.231	2929
839.369	3032
839.506	3409
839.643	3233
839.781	3009
839.918	2967
840.055	3074
840.193	3043
840.33	3070
840.467	3112
840.604	3165
840.742	3382
840.879	3058
841.016	3062
841.153	3070
841.29	3378
841.427	3302
841.564	3275
841.701	3306
841.838	3211
841.975	3199
842.112	3176
842.249	3070
842.385	3070
842.522	3283
842.659	3138
842.796	3055
842.933	3112
843.069	3058
843.206	3055
843.343	3188
843.479	3085
843.616	3138
843.752	2902
843.889	2910
844.025	3077
844.162	2883
844.298	3062
844.435	2986
844.571	2910
844.708	3077
844.844	3211
844.98	3222
845.117	3165
845.253	3062
845.389	3024
845.525	3112
845.661	3127
845.798	2986
845.934	3127
846.07	3062
846.206	3218
846.342	3287
846.478	3253
846.614	3112
846.75	3058
846.886	3013
847.022	3256
847.158	3119
847.294	3207
847.429	3256
847.565	3218
847.701	3469
847.837	3074
847.972	2986
848.108	3169
848.244	3146
848.379	2994
848.515	2967
848.65	2914
848.786	2971
848.921	2982
849.057	3127
849.192	3127
849.328	3093
849.463	3116
849.598	3055
849.734	3039
849.869	2990
850.004	2883
850.14	2971
850.275	2941
850.41	2819
850.545	2887
850.68	2933
850.815	2952
850.95	2994
851.085	3203
851.22	3066
851.355	3039
851.49	3017
851.625	3005
851.76	2998
851.895	2960
852.03	2883
852.165	3032
852.299	3123
852.434	3184
852.569	3150
852.703	3199
852.838	3249
852.973	3389
853.107	3313
853.242	3169
853.376	3100
853.511	2933
853.645	3028
853.78	3233
853.914	3112
854.048	3119
854.183	3104
854.317	3127
854.451	3298
854.585	3116
854.72	3142
854.854	3218
854.988	3047
855.122	3089
855.256	2986
855.39	3123
855.524	3260
855.658	3154
855.792	3131
855.926	3188
856.06	3192
856.194	3241
856.327	3150
856.461	3085
856.595	3058
856.729	3100
856.862	3195
856.996	3188
857.13	3195
857.263	3230
857.397	3245
857.53	3089
857.664	3173
857.797	3237
857.931	3268
858.064	3188
858.197	3211
858.331	3142
858.464	3100
858.597	2990
858.731	3127
858.864	3131
858.997	3093
859.13	3161
859.263	3161
859.396	3218
859.529	3112
859.662	3066
859.795	3036
859.928	3157
860.061	3298
860.194	3268
860.327	3100
860.46	3085
860.592	3253
860.725	3222
860.858	3302
860.99	3104
861.123	3039
861.256	3081
861.388	3176
861.521	3865
861.653	3005
861.786	2963
861.918	2960
862.05	3085
862.183	3093
862.315	3195
862.447	3173
862.58	3108
862.712	2929
862.844	2899
862.976	3017
863.108	2994
863.24	3321
863.372	2929
863.504	2986
863.636	2982
863.768	3036
863.9	2971
864.032	2948
864.164	2952
864.296	3017
864.428	3066
864.559	3085
864.691	3066
864.823	3074
864.954	3043
865.086	3066
865.217	2960
865.349	2960
865.48	2986
865.612	3009
865.743	3169
865.875	2994
866.006	2948
866.137	2982
866.269	2952
866.4	2944
866.531	2899
866.662	2880
866.793	2914
866.924	2880
867.055	2998
867.186	2922
867.317	2872
867.448	2838
867.579	2830
867.71	2872
867.841	2838
867.972	2910
868.103	2857
868.233	2872
868.364	2864
868.495	2891
868.625	3077
868.756	3173
868.886	2975
869.017	3020
869.147	3192
869.278	3173
869.408	3047
869.539	3017
869.669	3123
869.799	3047
869.929	3085
870.06	3097
870.19	3283
870.32	3283
870.45	3287
870.58	3389
870.71	3450
870.84	3504
870.97	3351
871.1	3211
871.23	3511
871.36	3454
871.489	3344
871.619	3393
871.749	3424
871.879	3431
872.008	3500
872.138	3382
872.267	3283
872.397	3150
872.526	3146
872.656	3028
872.785	3119
872.915	3260
873.044	3359
873.173	3218
873.303	3272
873.432	3249
873.561	3260
873.69	3195
873.819	3146
873.948	3188
874.077	3131
874.206	3074
874.335	3093
874.464	3218
874.593	3332
874.722	3230
874.851	3397
874.979	3359
875.108	3332
875.237	3218
875.365	3173
875.494	3138
875.623	3233
875.751	3112
875.88	3161
876.008	3195
876.136	3275
876.265	3348
876.393	3511
876.521	3435
876.65	3409
876.778	3321
876.906	3226
877.034	3203
877.162	3226
877.29	3188
877.418	3245
877.546	3264
877.674	3253
877.802	3268
877.93	3233
878.058	3142
878.185	3112
878.313	3192
878.441	3176
878.568	3077
878.696	3154
878.824	3275
878.951	3279
879.079	3469
879.206	3648
879.333	3431
879.461	3332
879.588	3367
879.715	3507
879.842	3606
879.97	3393
880.097	3173
880.224	3116
880.351	3203
880.478	3256
880.605	3184
880.732	3176
880.859	3473
880.986	3321
881.112	3355
881.239	3192
881.366	3097
881.493	3024
881.619	3028
881.746	3097
881.872	3093
881.999	3131
882.125	3146
882.252	3241
882.378	3283
882.505	3416
882.631	3275
882.757	3192
882.883	3199
883.01	3241
883.136	3154
883.262	3116
883.388	3127
883.514	3367
883.64	3359
883.766	3310
883.892	3165
884.018	3226
884.143	3416
884.269	3530
884.395	3230
884.52	3173
884.646	3199
884.772	3135
884.897	3085
885.023	3207
885.148	3386
885.274	3386
885.399	3363
885.524	3317
885.65	3294
885.775	3344
885.9	3279
886.025	3416
886.15	3389
886.275	3279
886.4	3218
886.525	3279
886.65	3272
886.775	3268
886.9	3542
887.025	3660
887.149	3382
887.274	3249
887.399	3184
887.523	3211
887.648	3169
887.773	3192
887.897	3386
888.021	3416
888.146	3317
888.27	3409
888.395	3538
888.519	3443
888.643	3450
888.767	3473
888.891	3317
889.015	3275
889.139	3256
889.263	3268
889.387	3424
889.511	3507
889.635	3443
889.759	3287
889.883	3256
890.006	3409
890.13	3473
890.254	3260
890.377	3348
890.501	3222
890.624	3184
890.748	3294
890.871	3199
890.995	3119
891.118	3070
891.241	3157
891.364	3222
891.488	3256
891.611	3169
891.734	3218
891.857	3310
891.98	3233
892.103	3340
892.226	3310
892.349	3264
892.471	3123
892.594	3275
892.717	3306
892.839	3279
892.962	3317
893.085	3374
893.207	3279
893.33	3169
893.452	3165
893.575	3340
893.697	3226
893.819	3473
893.941	3496
894.064	3462
894.186	3237
894.308	3272
894.43	3458
894.552	3511
894.674	3496
894.796	3253
894.918	3367
895.04	3298
895.161	3439
895.283	3374
895.405	3298
895.526	3355
895.648	3439
895.769	3420
895.891	3466
896.012	3454
896.134	3515
896.255	3435
896.376	3363
896.498	3374
896.619	3412
896.74	3367
896.861	3409
896.982	3663
897.103	3857
897.224	3610
897.345	3500
897.466	3443
897.587	3485
897.708	3625
897.828	3584
897.949	3454
898.07	3344
898.19	3435
898.311	3644
898.431	3443
898.552	3549
898.672	3599
898.792	3561
898.913	3553
899.033	3458
899.153	3317
899.273	3249
899.393	3260
899.513	3302
899.633	3321
899.753	3332
899.873	3279
899.993	3416
900.113	3332
900.232	3370
900.352	3336
900.472	3279
900.591	3237
900.711	3310
900.83	3226
900.95	3386
901.069	3477
901.189	3355
901.308	3192
901.427	3142
901.546	3195
901.665	3256
901.784	3317
901.904	3184
902.023	3146
902.141	3020
902.26	3020
902.379	3138
902.498	3081
902.617	3062
902.735	3195
902.854	3192
902.973	3192
903.091	3062
903.21	3081
903.328	3112
903.446	3104
903.565	3116
903.683	3214
903.801	3127
903.919	3279
904.038	3245
904.156	3173
904.274	3291
904.392	3256
904.51	3313
904.627	3355
904.745	3450
904.863	3507
904.981	3298
905.098	3157
905.216	3222
905.334	3310
905.451	3302
905.569	3321
905.686	3431
905.803	3458
905.921	3294
906.038	3443
906.155	3351
906.272	3272
906.389	3359
906.506	3226
906.623	3287
906.74	3279
906.857	3207
906.974	3226
907.091	3454
907.208	3568
907.324	3477
907.441	3370
907.557	3222
907.674	3237
907.79	3230
907.907	3294
908.023	3424
908.139	3370
908.256	3348
908.372	3355
908.488	3325
908.604	3237
908.72	3253
908.836	3313
908.952	3245
909.068	3321
909.184	3507
909.3	3405
909.415	3523
909.531	3481
909.647	3298
909.762	3287
909.878	3233
909.993	3378
910.108	3340
910.224	3321
910.339	3420
910.454	3340
910.57	3298
910.685	3230
910.8	3564
910.915	3538
911.03	3443
911.145	3298
911.259	3279
911.374	3294
911.489	3237
911.604	3268
911.718	3127
911.833	3123
911.947	3039
912.062	2975
912.176	3184
912.291	3222
912.405	3214
912.519	3420
912.633	3507
912.748	3275
912.862	3291
912.976	3142
913.09	3055
913.204	3112
913.318	3211
913.431	3336
913.545	3348
913.659	3428
913.772	3329
913.886	3184
914	3192
914.113	3359
914.226	3428
914.34	3351
914.453	3249
914.566	3405
914.68	3294
914.793	3306
914.906	3154
915.019	3108
915.132	3081
915.245	3195
915.358	3222
915.47	3237
915.583	3283
915.696	3313
915.809	3416
915.921	3424
916.034	3264
916.146	3237
916.259	3275
916.371	3374
916.483	3348
916.595	3264
916.708	3344
916.82	3310
916.932	3321
917.044	3351
917.156	3332
917.268	3291
917.38	3302
917.491	3264
917.603	3340
917.715	3473
917.826	3496
917.938	3393
918.049	3291
918.161	3409
918.272	3568
918.384	3591
918.495	3511
918.606	3306
918.717	3260
918.828	3374
918.939	3397
919.05	3302
919.161	3382
919.272	3176
919.383	3310
919.494	3519
919.604	3675
919.715	3458
919.826	3420
919.936	3450
920.047	3610
920.157	3580
920.267	3785
920.378	3610
920.488	3599
920.598	3793
920.708	3968
920.818	3846
920.928	3823
921.038	3983
921.148	3972
921.258	3732
921.368	3637
921.477	3603
921.587	3545
921.697	3500
921.806	3576
921.916	3526
922.025	3359
922.134	3344
922.244	3294
922.353	3424
922.462	3264
922.571	3264
922.68	3119
922.789	3077
922.898	3138
923.007	3108
923.116	3192
923.224	3146
923.333	3214
923.442	3104
923.55	3131
923.659	3165
923.767	3230
923.876	3123
923.984	3226
924.092	3081
924.201	3195
924.309	3245
924.417	3268
924.525	3203
924.633	3256
924.741	4192
924.849	3036
924.956	3279
925.064	3127
925.172	3036
925.279	3093
925.387	3249
925.494	3192
925.602	3351
925.709	3336
925.816	3173
925.924	3268
926.031	3370
926.138	3310
926.245	3409
926.352	3245
926.459	3374
926.566	3477
926.673	3336
926.779	3291
926.886	3233
926.993	3169
927.099	3176
927.206	3119
927.312	3116
927.419	3233
927.525	3237
927.631	3260
927.737	3157
927.843	3146
927.95	3032
928.056	3135
928.162	3165
928.267	3253
928.373	3880
928.479	3332
928.585	3097
928.69	3226
928.796	3279
928.901	3211
929.007	3047
929.112	3203
929.218	3211
929.323	3154
929.428	3161
929.533	3272
929.638	3142
929.743	3165
929.848	3264
929.953	3233
930.058	3161
930.163	3017
930.267	3081
930.372	3195
930.477	3051
930.581	3306
930.685	3188
930.79	3077
930.894	3135
930.998	3131
931.103	3313
931.207	2979
931.311	2956
931.415	2952
931.519	2785
931.623	2830
