Data from test_V78500241_1433.txt Node
Date: Fri Mar 25 16:25:07 CST 2022
User: usil
Spectrometer: V785-0024
Trigger mode: 0
Integration Time (sec): 4.000000E-1
Scans to average: 1
Nonlinearity correction enabled: false
Boxcar width: 0
Storing dark spectrum: false
XAxis mode: Wavelengths
Number of Pixels in Spectrum: 1024
>>>>>Begin Spectral Data<<<<<
801.071	2906
801.214	2944
801.356	2864
801.499	2895
801.641	2883
801.783	2902
801.926	3028
802.068	2941
802.211	2975
802.353	2994
802.496	2998
802.638	3039
802.78	3051
802.923	3066
803.065	2986
803.208	2914
803.35	2902
803.492	2910
803.635	2922
803.777	2769
803.919	2849
804.061	3180
804.204	2895
804.346	2922
804.488	2864
804.63	2937
804.773	2849
804.915	2902
805.057	3085
805.199	2895
805.341	2956
805.483	3055
805.626	2952
805.768	2952
805.91	3058
806.052	3112
806.194	2998
806.336	3211
806.478	3020
806.62	2914
806.762	2982
806.904	3085
807.046	3150
807.188	2994
807.33	2895
807.472	2944
807.614	2876
807.756	2971
807.898	2883
808.04	2880
808.182	2952
808.324	2944
808.465	2895
808.607	2876
808.749	2769
808.891	2842
809.033	2979
809.174	2967
809.316	2883
809.458	2868
809.6	2769
809.741	2739
809.883	2773
810.025	2815
810.166	2849
810.308	2819
810.45	2876
810.591	2781
810.733	2762
810.875	2830
811.016	2785
811.158	2785
811.299	2800
811.441	2906
811.582	2922
811.724	2800
811.865	2823
812.007	2883
812.148	2861
812.29	2880
812.431	2872
812.573	2914
812.714	2967
812.855	3017
812.997	3039
813.138	3097
813.279	3047
813.421	2998
813.562	2982
813.703	2906
813.845	2880
813.986	2811
814.127	2724
814.268	2796
814.41	2868
814.551	2815
814.692	2864
814.833	2811
814.974	2887
815.115	2952
815.256	2819
815.397	2792
815.539	2864
815.68	2739
815.821	2807
815.962	2925
816.103	2910
816.244	2902
816.385	2887
816.526	2922
816.666	2880
816.807	2750
816.948	2883
817.089	2868
817.23	2842
817.371	2838
817.512	2807
817.653	2842
817.793	2792
817.934	2880
818.075	2941
818.216	2952
818.356	3039
818.497	2861
818.638	2781
818.778	2823
818.919	2800
819.06	2781
819.2	2876
819.341	2815
819.481	2781
819.622	2899
819.762	3123
819.903	3062
820.043	2891
820.184	2902
820.324	2902
820.465	3005
820.605	2990
820.746	3028
820.886	2967
821.026	3074
821.167	3142
821.307	3245
821.447	3279
821.588	3237
821.728	3207
821.868	3165
822.008	3085
822.149	3165
822.289	3207
822.429	3116
822.569	3074
822.709	3169
822.849	3017
822.99	3062
823.13	3173
823.27	3199
823.41	3123
823.55	3135
823.69	3165
823.83	3146
823.97	3058
824.11	2975
824.25	2967
824.389	3070
824.529	3131
824.669	3093
824.809	3195
824.949	3268
825.089	3230
825.228	3161
825.368	3013
825.508	2937
825.648	3013
825.787	3020
825.927	2986
826.067	2967
826.206	2929
826.346	3036
826.485	3089
826.625	3119
826.765	3268
826.904	3184
827.044	3024
827.183	2925
827.323	2880
827.462	2982
827.601	2914
827.741	2944
827.88	2937
828.02	2838
828.159	2963
828.298	3085
828.437	3093
828.577	3024
828.716	3230
828.855	3077
828.994	2902
829.134	2914
829.273	2895
829.412	2838
829.551	2838
829.69	2876
829.829	3005
829.968	3119
830.107	3024
830.246	3047
830.385	2929
830.524	2887
830.663	2781
830.802	2689
830.941	2644
831.08	2651
831.219	2708
831.357	2724
831.496	2925
831.635	2701
831.774	2594
831.913	2640
832.051	2545
832.19	2549
832.329	2686
832.467	2522
832.606	2473
832.744	2575
832.883	2598
833.022	2571
833.16	2644
833.299	2727
833.437	2686
833.576	2674
833.714	2712
833.852	2735
833.991	2758
834.129	2819
834.267	2788
834.406	2773
834.544	2853
834.682	2861
834.821	2861
834.959	3051
835.097	2891
835.235	3074
835.373	2990
835.511	3039
835.65	2941
835.788	2979
835.926	2815
836.064	2811
836.202	2861
836.34	3081
836.478	3154
836.615	3043
836.753	3127
836.891	3173
837.029	3154
837.167	3097
837.305	3070
837.443	3005
837.58	2967
837.718	3123
837.856	3062
837.993	3028
838.131	3108
838.269	3112
838.406	3066
838.544	3058
838.681	2910
838.819	2876
838.956	2796
839.094	2800
839.231	2929
839.369	3009
839.506	3386
839.643	3233
839.781	2990
839.918	2986
840.055	3043
840.193	3028
840.33	3039
840.467	3066
840.604	3176
840.742	3420
840.879	3036
841.016	3028
841.153	3093
841.29	3310
841.427	3287
841.564	3291
841.701	3272
841.838	3230
841.975	3142
842.112	3222
842.249	3062
842.385	3058
842.522	3302
842.659	3081
842.796	3020
842.933	3123
843.069	3024
843.206	3032
843.343	3192
843.479	3074
843.616	3135
843.752	2914
843.889	2902
844.025	3112
844.162	2876
844.298	3089
844.435	2933
844.571	2891
844.708	3093
844.844	3184
844.98	3249
845.117	3195
845.253	3009
845.389	3005
845.525	3085
845.661	3093
845.798	2982
845.934	3135
846.07	3055
846.206	3222
846.342	3291
846.478	3264
846.614	3081
846.75	3020
846.886	3024
847.022	3249
847.158	3142
847.294	3199
847.429	3287
847.565	3211
847.701	3473
847.837	3028
847.972	2975
848.108	3165
848.244	3119
848.379	3001
848.515	2914
848.65	2902
848.786	2960
848.921	3028
849.057	3093
849.192	3146
849.328	3074
849.463	3104
849.598	3043
849.734	3017
849.869	2994
850.004	2910
850.14	2982
850.275	2876
850.41	2807
850.545	2883
850.68	2933
850.815	2925
850.95	2963
851.085	3199
851.22	3097
851.355	3028
851.49	3009
851.625	3039
851.76	3001
851.895	2948
852.03	2910
852.165	3009
852.299	3116
852.434	3165
852.569	3142
852.703	3165
852.838	3226
852.973	3351
853.107	3310
853.242	3104
853.376	3097
853.511	2990
853.645	3020
853.78	3226
853.914	3100
854.048	3089
854.183	3070
854.317	3123
854.451	3302
854.585	3116
854.72	3039
854.854	3256
854.988	3017
855.122	3055
855.256	2937
855.39	3085
855.524	3230
855.658	3188
855.792	3146
855.926	3176
856.06	3195
856.194	3260
856.327	3150
856.461	3036
856.595	3062
856.729	3070
856.862	3195
856.996	3176
857.13	3214
857.263	3195
857.397	3291
857.53	3123
857.664	3169
857.797	3207
857.931	3272
858.064	3146
858.197	3207
858.331	3119
858.464	3085
858.597	3020
858.731	3104
858.864	3150
858.997	3051
859.13	3138
859.263	3165
859.396	3214
859.529	3047
859.662	3043
859.795	3020
859.928	3150
860.061	3291
860.194	3287
860.327	3123
860.46	3097
860.592	3226
860.725	3237
860.858	3199
860.99	3116
861.123	3017
861.256	3058
861.388	3131
861.521	3869
861.653	3017
861.786	2990
861.918	3009
862.05	3058
862.183	3081
862.315	3135
862.447	3226
862.58	3123
862.712	2933
862.844	2883
862.976	3051
863.108	3013
863.24	3321
863.372	2872
863.504	2956
863.636	2960
863.768	3020
863.9	2963
864.032	2922
864.164	2967
864.296	3024
864.428	3066
864.559	3119
864.691	3020
864.823	3051
864.954	3051
865.086	3032
865.217	2990
865.349	2925
865.48	2975
865.612	2998
865.743	3150
865.875	2982
866.006	2929
866.137	2956
866.269	2944
866.4	2948
866.531	2906
866.662	2876
866.793	2868
866.924	2872
867.055	2956
867.186	2899
867.317	2887
867.448	2845
867.579	2830
867.71	2838
867.841	2800
867.972	2849
868.103	2910
868.233	2864
868.364	2849
868.495	2864
868.625	3093
868.756	3176
868.886	2971
869.017	3009
869.147	3184
869.278	3157
869.408	3039
869.539	3032
869.669	3055
869.799	3013
869.929	3135
870.06	3119
870.19	3332
870.32	3272
870.45	3279
870.58	3355
870.71	3466
870.84	3458
870.97	3294
871.1	3264
871.23	3500
871.36	3428
871.489	3310
871.619	3401
871.749	3378
871.879	3462
872.008	3488
872.138	3363
872.267	3233
872.397	3119
872.526	3085
872.656	3017
872.785	3055
872.915	3218
873.044	3340
873.173	3218
873.303	3260
873.432	3264
873.561	3264
873.69	3150
873.819	3119
873.948	3203
874.077	3104
874.206	3036
874.335	3032
874.464	3245
874.593	3351
874.722	3211
874.851	3351
874.979	3348
875.108	3260
875.237	3180
875.365	3154
875.494	3169
875.623	3226
875.751	3066
875.88	3093
876.008	3176
876.136	3207
876.265	3355
876.393	3538
876.521	3393
876.65	3412
876.778	3302
876.906	3264
877.034	3176
877.162	3203
877.29	3165
877.418	3253
877.546	3214
877.674	3275
877.802	3233
877.93	3230
878.058	3142
878.185	3085
878.313	3226
878.441	3211
878.568	3062
878.696	3119
878.824	3260
878.951	3287
879.079	3416
879.206	3622
879.333	3454
879.461	3351
879.588	3355
879.715	3462
879.842	3584
879.97	3340
880.097	3173
880.224	3131
880.351	3161
880.478	3230
880.605	3184
880.732	3161
880.859	3504
880.986	3317
881.112	3310
881.239	3230
881.366	3077
881.493	3001
881.619	3005
881.746	3089
881.872	3066
881.999	3066
882.125	3097
882.252	3207
882.378	3256
882.505	3420
882.631	3287
882.757	3146
882.883	3241
883.01	3222
883.136	3150
883.262	3135
883.388	3112
883.514	3302
883.64	3348
883.766	3370
883.892	3203
884.018	3249
884.143	3420
884.269	3557
884.395	3176
884.52	3146
884.646	3176
884.772	3093
884.897	3089
885.023	3218
885.148	3313
885.274	3401
885.399	3367
885.524	3264
885.65	3222
885.775	3325
885.9	3256
886.025	3409
886.15	3401
886.275	3329
886.4	3169
886.525	3294
886.65	3279
886.775	3291
886.9	3477
887.025	3625
887.149	3393
887.274	3264
887.399	3199
887.523	3180
887.648	3199
887.773	3157
887.897	3386
888.021	3355
888.146	3287
888.27	3409
888.395	3572
888.519	3435
888.643	3443
888.767	3401
888.891	3302
889.015	3233
889.139	3287
889.263	3230
889.387	3409
889.511	3519
889.635	3409
889.759	3306
889.883	3302
890.006	3367
890.13	3469
890.254	3260
890.377	3310
890.501	3176
890.624	3154
890.748	3264
890.871	3169
890.995	3081
891.118	3036
891.241	3176
891.364	3203
891.488	3298
891.611	3207
891.734	3218
891.857	3279
891.98	3241
892.103	3336
892.226	3264
892.349	3173
892.471	3116
892.594	3203
892.717	3298
892.839	3237
892.962	3294
893.085	3336
893.207	3317
893.33	3184
893.452	3195
893.575	3329
893.697	3241
893.819	3492
893.941	3473
894.064	3466
894.186	3260
894.308	3264
894.43	3454
894.552	3523
894.674	3450
894.796	3241
894.918	3313
895.04	3291
895.161	3389
895.283	3424
895.405	3306
895.526	3344
895.648	3424
895.769	3424
895.891	3458
896.012	3481
896.134	3431
896.255	3431
896.376	3378
896.498	3329
896.619	3424
896.74	3389
896.861	3409
896.982	3698
897.103	3835
897.224	3576
897.345	3519
897.466	3439
897.587	3496
897.708	3599
897.828	3542
897.949	3397
898.07	3310
898.19	3405
898.311	3603
898.431	3466
898.552	3488
898.672	3595
898.792	3595
898.913	3473
899.033	3416
899.153	3264
899.273	3218
899.393	3298
899.513	3329
899.633	3279
899.753	3310
899.873	3321
899.993	3409
900.113	3321
900.232	3374
900.352	3325
900.472	3279
900.591	3176
900.711	3302
900.83	3218
900.95	3431
901.069	3488
901.189	3344
901.308	3173
901.427	3127
901.546	3188
901.665	3283
901.784	3329
901.904	3195
902.023	3119
902.141	2982
902.26	2963
902.379	3138
902.498	3058
902.617	3017
902.735	3180
902.854	3233
902.973	3173
903.091	3062
903.21	3051
903.328	3157
903.446	3135
903.565	3100
903.683	3192
903.801	3085
903.919	3230
904.038	3264
904.156	3146
904.274	3245
904.392	3218
904.51	3291
904.627	3310
904.745	3443
904.863	3469
904.981	3237
905.098	3146
905.216	3241
905.334	3291
905.451	3291
905.569	3321
905.686	3409
905.803	3481
905.921	3256
906.038	3412
906.155	3332
906.272	3241
906.389	3336
906.506	3222
906.623	3306
906.74	3253
906.857	3176
906.974	3233
907.091	3431
907.208	3584
907.324	3462
907.441	3359
907.557	3241
907.674	3207
907.79	3222
907.907	3249
908.023	3359
908.139	3355
908.256	3321
908.372	3363
908.488	3340
908.604	3230
908.72	3245
908.836	3256
908.952	3260
909.068	3310
909.184	3492
909.3	3340
909.415	3504
909.531	3431
909.647	3283
909.762	3306
909.878	3256
909.993	3310
910.108	3306
910.224	3351
910.339	3435
910.454	3336
910.57	3291
910.685	3214
910.8	3511
910.915	3523
911.03	3450
911.145	3264
911.259	3306
911.374	3313
911.489	3241
911.604	3211
911.718	3119
911.833	3146
911.947	3017
912.062	2979
912.176	3150
912.291	3161
912.405	3214
912.519	3405
912.633	3447
912.748	3317
912.862	3260
912.976	3135
913.09	3055
913.204	3154
913.318	3207
913.431	3310
913.545	3332
913.659	3405
913.772	3348
913.886	3203
914	3214
914.113	3332
914.226	3443
914.34	3313
914.453	3207
914.566	3378
914.68	3249
914.793	3283
914.906	3138
915.019	3112
915.132	3062
915.245	3127
915.358	3195
915.47	3195
915.583	3253
915.696	3302
915.809	3439
915.921	3374
916.034	3245
916.146	3237
916.259	3199
916.371	3420
916.483	3348
916.595	3287
916.708	3321
916.82	3279
916.932	3317
917.044	3317
917.156	3302
917.268	3222
917.38	3279
917.491	3294
917.603	3306
917.715	3454
917.826	3469
917.938	3370
918.049	3291
918.161	3428
918.272	3557
918.384	3553
918.495	3496
918.606	3321
918.717	3291
918.828	3359
918.939	3367
919.05	3291
919.161	3363
919.272	3195
919.383	3283
919.494	3511
919.604	3644
919.715	3477
919.826	3447
919.936	3431
920.047	3572
920.157	3580
920.267	3819
920.378	3599
920.488	3538
920.598	3740
920.708	3949
920.818	3819
920.928	3880
921.038	4013
921.148	4036
921.258	3751
921.368	3652
921.477	3606
921.587	3568
921.697	3485
921.806	3648
921.916	3584
922.025	3367
922.134	3401
922.244	3329
922.353	3488
922.462	3336
922.571	3272
922.68	3135
922.789	3108
922.898	3169
923.007	3127
923.116	3256
923.224	3203
923.333	3192
923.442	3157
923.55	3127
923.659	3207
923.767	3291
923.876	3135
923.984	3332
924.092	3131
924.201	3245
924.309	3275
924.417	3275
924.525	3214
924.633	3272
924.741	4211
924.849	3077
924.956	3283
925.064	3123
925.172	3070
925.279	3188
925.387	3214
925.494	3222
925.602	3389
925.709	3348
925.816	3253
925.924	3332
926.031	3447
926.138	3416
926.245	3420
926.352	3272
926.459	3443
926.566	3545
926.673	3367
926.779	3268
926.886	3264
926.993	3150
927.099	3165
927.206	3154
927.312	3127
927.419	3241
927.525	3226
927.631	3294
927.737	3188
927.843	3138
927.95	3036
928.056	3176
928.162	3233
928.267	3279
928.373	3854
928.479	3332
928.585	3112
928.69	3245
928.796	3291
928.901	3203
929.007	3085
929.112	3245
929.218	3218
929.323	3195
929.428	3180
929.533	3317
929.638	3165
929.743	3199
929.848	3287
929.953	3256
930.058	3199
930.163	3036
930.267	3104
930.372	3233
930.477	3062
930.581	3359
930.685	3203
930.79	3104
930.894	3184
930.998	3097
931.103	3325
931.207	2994
931.311	2979
931.415	2948
931.519	2815
931.623	2834
