Data from test_V78500241_816.txt Node
Date: Fri Mar 25 16:20:51 CST 2022
User: usil
Spectrometer: V785-0024
Trigger mode: 0
Integration Time (sec): 4.000000E-1
Scans to average: 1
Nonlinearity correction enabled: false
Boxcar width: 0
Storing dark spectrum: false
XAxis mode: Wavelengths
Number of Pixels in Spectrum: 1024
>>>>>Begin Spectral Data<<<<<
801.071	2902
801.214	2960
801.356	2876
801.499	2883
801.641	2830
801.783	2922
801.926	3062
802.068	2975
802.211	2994
802.353	2986
802.496	2922
802.638	3032
802.78	3024
802.923	3062
803.065	3001
803.208	2887
803.35	2922
803.492	2933
803.635	2918
803.777	2758
803.919	2891
804.061	3237
804.204	2971
804.346	2899
804.488	2864
804.63	2979
804.773	2880
804.915	2944
805.057	3066
805.199	2910
805.341	2971
805.483	3020
805.626	3036
805.768	2952
805.91	3081
806.052	3104
806.194	3032
806.336	3279
806.478	3047
806.62	2956
806.762	3017
806.904	3062
807.046	3161
807.188	3020
807.33	2876
807.472	2944
807.614	2941
807.756	3005
807.898	2944
808.04	2872
808.182	2979
808.324	2971
808.465	2876
808.607	2933
808.749	2792
808.891	2845
809.033	2979
809.174	3005
809.316	2880
809.458	2883
809.6	2796
809.741	2766
809.883	2788
810.025	2838
810.166	2864
810.308	2849
810.45	2887
810.591	2735
810.733	2777
810.875	2838
811.016	2788
811.158	2796
811.299	2781
811.441	2922
811.582	2861
811.724	2823
811.865	2842
812.007	2914
812.148	2899
812.29	2887
812.431	2876
812.573	2922
812.714	3001
812.855	3024
812.997	3077
813.138	3100
813.279	3013
813.421	2990
813.562	2960
813.703	2883
813.845	2914
813.986	2792
814.127	2731
814.268	2823
814.41	2845
814.551	2815
814.692	2883
814.833	2819
814.974	2891
815.115	2948
815.256	2826
815.397	2826
815.539	2868
815.68	2762
815.821	2773
815.962	2929
816.103	2914
816.244	2883
816.385	2849
816.526	3001
816.666	2929
816.807	2746
816.948	2895
817.089	2902
817.23	2853
817.371	2739
817.512	2807
817.653	2804
817.793	2834
817.934	2864
818.075	2998
818.216	2998
818.356	2986
818.497	2895
818.638	2788
818.778	2792
818.919	2788
819.06	2743
819.2	2849
819.341	2800
819.481	2769
819.622	2925
819.762	3074
819.903	3032
820.043	2941
820.184	2925
820.324	2906
820.465	3013
820.605	2982
820.746	3028
820.886	2929
821.026	3100
821.167	3184
821.307	3230
821.447	3298
821.588	3249
821.728	3207
821.868	3188
822.008	3112
822.149	3195
822.289	3211
822.429	3104
822.569	3062
822.709	3241
822.849	3039
822.99	3074
823.13	3142
823.27	3233
823.41	3108
823.55	3157
823.69	3123
823.83	3192
823.97	3097
824.11	3001
824.25	3009
824.389	3039
824.529	3100
824.669	3047
824.809	3180
824.949	3245
825.089	3230
825.228	3150
825.368	3020
825.508	2963
825.648	2937
825.787	2998
825.927	3024
826.067	2941
826.206	2952
826.346	3020
826.485	3123
826.625	3100
826.765	3268
826.904	3207
827.044	2994
827.183	2933
827.323	2804
827.462	2986
827.601	2906
827.741	2937
827.88	2975
828.02	2842
828.159	2960
828.298	3032
828.437	3154
828.577	3043
828.716	3214
828.855	3100
828.994	2941
829.134	2876
829.273	2918
829.412	2891
829.551	2891
829.69	2910
829.829	2979
829.968	3116
830.107	3024
830.246	3024
830.385	2902
830.524	2876
830.663	2838
830.802	2720
830.941	2659
831.08	2663
831.219	2766
831.357	2766
831.496	2933
831.635	2727
831.774	2632
831.913	2610
832.051	2568
832.19	2598
832.329	2678
832.467	2492
832.606	2476
832.744	2568
832.883	2564
833.022	2571
833.16	2648
833.299	2674
833.437	2705
833.576	2727
833.714	2693
833.852	2720
833.991	2739
834.129	2842
834.267	2838
834.406	2766
834.544	2861
834.682	2876
834.821	2864
834.959	3043
835.097	2899
835.235	3032
835.373	3013
835.511	3001
835.65	2967
835.788	2937
835.926	2811
836.064	2796
836.202	2880
836.34	3085
836.478	3100
836.615	3062
836.753	3157
836.891	3192
837.029	3161
837.167	3116
837.305	3058
837.443	3058
837.58	2910
837.718	3127
837.856	3077
837.993	3062
838.131	3146
838.269	3138
838.406	3100
838.544	3093
838.681	2952
838.819	2933
838.956	2845
839.094	2838
839.231	2925
839.369	3017
839.506	3393
839.643	3207
839.781	3009
839.918	2948
840.055	3020
840.193	3070
840.33	3070
840.467	3062
840.604	3150
840.742	3378
840.879	3077
841.016	3074
841.153	3131
841.29	3340
841.427	3313
841.564	3226
841.701	3283
841.838	3218
841.975	3173
842.112	3176
842.249	3100
842.385	3043
842.522	3199
842.659	3058
842.796	3043
842.933	3093
843.069	3017
843.206	3020
843.343	3176
843.479	3116
843.616	3116
843.752	2868
843.889	2899
844.025	3085
844.162	2902
844.298	3108
844.435	2918
844.571	2910
844.708	3070
844.844	3195
844.98	3214
845.117	3176
845.253	3058
845.389	3055
845.525	3093
845.661	3074
845.798	3020
845.934	3150
846.07	3039
846.206	3211
846.342	3287
846.478	3226
846.614	3093
846.75	3043
846.886	3047
847.022	3253
847.158	3127
847.294	3173
847.429	3233
847.565	3245
847.701	3511
847.837	3028
847.972	2967
848.108	3146
848.244	3127
848.379	2986
848.515	2937
848.65	2944
848.786	2994
848.921	3005
849.057	3074
849.192	3123
849.328	3039
849.463	3104
849.598	3062
849.734	3036
849.869	2967
850.004	2906
850.14	2960
850.275	2883
850.41	2842
850.545	2876
850.68	2937
850.815	2963
850.95	2986
851.085	3142
851.22	3108
851.355	3028
851.49	2956
851.625	3017
851.76	3024
851.895	2922
852.03	2891
852.165	2982
852.299	3093
852.434	3184
852.569	3138
852.703	3146
852.838	3272
852.973	3359
853.107	3329
853.242	3180
853.376	3070
853.511	2986
853.645	3017
853.78	3218
853.914	3135
854.048	3097
854.183	3066
854.317	3176
854.451	3306
854.585	3081
854.72	3081
854.854	3165
854.988	3017
855.122	3081
855.256	2975
855.39	3089
855.524	3256
855.658	3214
855.792	3165
855.926	3214
856.06	3195
856.194	3214
856.327	3142
856.461	3058
856.595	3070
856.729	3093
856.862	3218
856.996	3150
857.13	3154
857.263	3264
857.397	3283
857.53	3100
857.664	3195
857.797	3237
857.931	3272
858.064	3138
858.197	3184
858.331	3123
858.464	3062
858.597	3013
858.731	3074
858.864	3108
858.997	3112
859.13	3135
859.263	3157
859.396	3180
859.529	3112
859.662	3081
859.795	3013
859.928	3138
860.061	3249
860.194	3310
860.327	3131
860.46	3097
860.592	3237
860.725	3253
860.858	3260
860.99	3097
861.123	3077
861.256	3043
861.388	3127
861.521	3937
861.653	3009
861.786	2956
861.918	2998
862.05	3074
862.183	3097
862.315	3131
862.447	3222
862.58	3062
862.712	2941
862.844	2849
862.976	3009
863.108	2990
863.24	3317
863.372	2872
863.504	2937
863.636	2941
863.768	3005
863.9	2998
864.032	2925
864.164	2956
864.296	3032
864.428	3055
864.559	3123
864.691	3047
864.823	3070
864.954	3085
865.086	3036
865.217	2982
865.349	2914
865.48	2971
865.612	3009
865.743	3154
865.875	2952
866.006	2941
866.137	2990
866.269	2929
866.4	2933
866.531	2944
866.662	2883
866.793	2864
866.924	2868
867.055	2960
867.186	2944
867.317	2838
867.448	2815
867.579	2842
867.71	2842
867.841	2853
867.972	2887
868.103	2922
868.233	2902
868.364	2868
868.495	2868
868.625	3097
868.756	3123
868.886	2975
869.017	3028
869.147	3154
869.278	3154
869.408	3051
869.539	3066
869.669	3127
869.799	3036
869.929	3104
870.06	3097
870.19	3317
870.32	3313
870.45	3287
870.58	3374
870.71	3405
870.84	3447
870.97	3275
871.1	3237
871.23	3462
871.36	3416
871.489	3359
871.619	3389
871.749	3428
871.879	3481
872.008	3450
872.138	3363
872.267	3241
872.397	3146
872.526	3085
872.656	3009
872.785	3146
872.915	3237
873.044	3268
873.173	3199
873.303	3230
873.432	3211
873.561	3222
873.69	3142
873.819	3146
873.948	3173
874.077	3089
874.206	3058
874.335	3036
874.464	3214
874.593	3359
874.722	3264
874.851	3355
874.979	3321
875.108	3306
875.237	3222
875.365	3157
875.494	3127
875.623	3249
875.751	3089
875.88	3097
876.008	3142
876.136	3237
876.265	3363
876.393	3526
876.521	3416
876.65	3405
876.778	3313
876.906	3218
877.034	3241
877.162	3195
877.29	3176
877.418	3237
877.546	3233
877.674	3218
877.802	3226
877.93	3214
878.058	3150
878.185	3127
878.313	3195
878.441	3207
878.568	3062
878.696	3138
878.824	3233
878.951	3302
879.079	3435
879.206	3629
879.333	3454
879.461	3317
879.588	3359
879.715	3477
879.842	3564
879.97	3359
880.097	3176
880.224	3154
880.351	3188
880.478	3207
880.605	3207
880.732	3188
880.859	3462
880.986	3279
881.112	3313
881.239	3230
881.366	3097
881.493	3036
881.619	3028
881.746	3093
881.872	3108
881.999	3108
882.125	3138
882.252	3279
882.378	3294
882.505	3447
882.631	3302
882.757	3112
882.883	3237
883.01	3218
883.136	3165
883.262	3085
883.388	3081
883.514	3348
883.64	3359
883.766	3272
883.892	3214
884.018	3253
884.143	3405
884.269	3515
884.395	3203
884.52	3165
884.646	3173
884.772	3108
884.897	3100
885.023	3203
885.148	3332
885.274	3389
885.399	3336
885.524	3291
885.65	3222
885.775	3336
885.9	3287
886.025	3424
886.15	3355
886.275	3275
886.4	3264
886.525	3317
886.65	3245
886.775	3310
886.9	3485
887.025	3610
887.149	3450
887.274	3211
887.399	3203
887.523	3203
887.648	3214
887.773	3226
887.897	3374
888.021	3374
888.146	3329
888.27	3420
888.395	3523
888.519	3424
888.643	3416
888.767	3458
888.891	3256
889.015	3207
889.139	3313
889.263	3245
889.387	3409
889.511	3507
889.635	3450
889.759	3260
889.883	3306
890.006	3363
890.13	3507
890.254	3260
890.377	3325
890.501	3218
890.624	3192
890.748	3287
890.871	3173
890.995	3112
891.118	3055
891.241	3207
891.364	3211
891.488	3317
891.611	3180
891.734	3230
891.857	3287
891.98	3222
892.103	3340
892.226	3241
892.349	3245
892.471	3100
892.594	3203
892.717	3275
892.839	3264
892.962	3291
893.085	3359
893.207	3294
893.33	3127
893.452	3184
893.575	3317
893.697	3268
893.819	3492
893.941	3507
894.064	3435
894.186	3275
894.308	3294
894.43	3454
894.552	3557
894.674	3473
894.796	3245
894.918	3294
895.04	3249
895.161	3458
895.283	3412
895.405	3294
895.526	3370
895.648	3401
895.769	3389
895.891	3458
896.012	3485
896.134	3462
896.255	3389
896.376	3374
896.498	3359
896.619	3424
896.74	3351
896.861	3409
896.982	3637
897.103	3861
897.224	3572
897.345	3488
897.466	3466
897.587	3496
897.708	3603
897.828	3595
897.949	3374
898.07	3321
898.19	3424
898.311	3603
898.431	3443
898.552	3561
898.672	3557
898.792	3580
898.913	3492
899.033	3447
899.153	3325
899.273	3237
899.393	3310
899.513	3370
899.633	3317
899.753	3348
899.873	3321
899.993	3424
900.113	3348
900.232	3420
900.352	3336
900.472	3302
900.591	3199
900.711	3298
900.83	3237
900.95	3374
901.069	3553
901.189	3344
901.308	3173
901.427	3108
901.546	3199
901.665	3279
901.784	3378
901.904	3207
902.023	3154
902.141	3005
902.26	2998
902.379	3123
902.498	3039
902.617	3070
902.735	3218
902.854	3268
902.973	3207
903.091	3043
903.21	3058
903.328	3119
903.446	3119
903.565	3100
903.683	3195
903.801	3116
903.919	3249
904.038	3291
904.156	3161
904.274	3275
904.392	3241
904.51	3279
904.627	3336
904.745	3447
904.863	3481
904.981	3241
905.098	3165
905.216	3199
905.334	3291
905.451	3249
905.569	3272
905.686	3447
905.803	3450
905.921	3272
906.038	3435
906.155	3351
906.272	3298
906.389	3336
906.506	3192
906.623	3260
906.74	3313
906.857	3203
906.974	3253
907.091	3462
907.208	3538
907.324	3458
907.441	3412
907.557	3218
907.674	3245
907.79	3214
907.907	3264
908.023	3370
908.139	3336
908.256	3348
908.372	3348
908.488	3340
908.604	3253
908.72	3188
908.836	3287
908.952	3275
909.068	3370
909.184	3492
909.3	3367
909.415	3542
909.531	3469
909.647	3298
909.762	3272
909.878	3268
909.993	3363
910.108	3329
910.224	3378
910.339	3389
910.454	3317
910.57	3310
910.685	3283
910.8	3564
910.915	3572
911.03	3416
911.145	3287
911.259	3294
911.374	3325
911.489	3211
911.604	3184
911.718	3089
911.833	3131
911.947	3043
912.062	2967
912.176	3146
912.291	3176
912.405	3203
912.519	3496
912.633	3450
912.748	3336
912.862	3298
912.976	3173
913.09	3024
913.204	3127
913.318	3241
913.431	3351
913.545	3317
913.659	3378
913.772	3355
913.886	3207
914	3245
914.113	3325
914.226	3405
914.34	3351
914.453	3249
914.566	3420
914.68	3264
914.793	3329
914.906	3112
915.019	3104
915.132	3074
915.245	3176
915.358	3173
915.47	3253
915.583	3268
915.696	3298
915.809	3393
915.921	3416
916.034	3230
916.146	3260
916.259	3222
916.371	3393
916.483	3329
916.595	3253
916.708	3329
916.82	3321
916.932	3317
917.044	3374
917.156	3359
917.268	3256
917.38	3302
917.491	3298
917.603	3367
917.715	3443
917.826	3454
917.938	3405
918.049	3283
918.161	3424
918.272	3599
918.384	3576
918.495	3469
918.606	3317
918.717	3306
918.828	3367
918.939	3424
919.05	3302
919.161	3348
919.272	3211
919.383	3294
919.494	3450
919.604	3667
919.715	3485
919.826	3454
919.936	3416
920.047	3614
920.157	3561
920.267	3736
920.378	3606
920.488	3584
920.598	3740
920.708	3930
920.818	3797
920.928	3861
921.038	4036
921.148	3991
921.258	3690
921.368	3656
921.477	3545
921.587	3523
921.697	3481
921.806	3610
921.916	3534
922.025	3367
922.134	3382
922.244	3294
922.353	3401
922.462	3222
922.571	3241
922.68	3100
922.789	3085
922.898	3150
923.007	3077
923.116	3218
923.224	3161
923.333	3176
923.442	3116
923.55	3100
923.659	3188
923.767	3211
923.876	3123
923.984	3237
924.092	3108
924.201	3165
924.309	3207
924.417	3245
924.525	3173
924.633	3253
924.741	4177
924.849	3039
924.956	3237
925.064	3089
925.172	3009
925.279	3112
925.387	3226
925.494	3180
925.602	3397
925.709	3355
925.816	3157
925.924	3329
926.031	3386
926.138	3325
926.245	3370
926.352	3264
926.459	3393
926.566	3462
926.673	3332
926.779	3237
926.886	3211
926.993	3127
927.099	3135
927.206	3131
927.312	3165
927.419	3226
927.525	3199
927.631	3302
927.737	3146
927.843	3142
927.95	3043
928.056	3173
928.162	3176
928.267	3241
928.373	3762
928.479	3329
928.585	3104
928.69	3214
928.796	3279
928.901	3138
929.007	3058
929.112	3203
929.218	3165
929.323	3104
929.428	3176
929.533	3298
929.638	3131
929.743	3146
929.848	3275
929.953	3241
930.058	3108
930.163	3017
930.267	3058
930.372	3165
930.477	3047
930.581	3317
930.685	3195
930.79	3043
930.894	3131
930.998	3112
931.103	3298
931.207	2971
931.311	2963
931.415	2922
931.519	2788
931.623	2785
