Data from test_V78500241_1724.txt Node
Date: Fri Mar 25 16:27:08 CST 2022
User: usil
Spectrometer: V785-0024
Trigger mode: 0
Integration Time (sec): 4.000000E-1
Scans to average: 1
Nonlinearity correction enabled: false
Boxcar width: 0
Storing dark spectrum: false
XAxis mode: Wavelengths
Number of Pixels in Spectrum: 1024
>>>>>Begin Spectral Data<<<<<
801.071	2899
801.214	2929
801.356	2834
801.499	2910
801.641	2887
801.783	2941
801.926	3013
802.068	2967
802.211	2975
802.353	3013
802.496	2948
802.638	2979
802.78	3066
802.923	3043
803.065	2998
803.208	2864
803.35	2922
803.492	2941
803.635	2910
803.777	2769
803.919	2864
804.061	3165
804.204	2918
804.346	2887
804.488	2823
804.63	2975
804.773	2823
804.915	2887
805.057	3104
805.199	2895
805.341	2990
805.483	3020
805.626	3028
805.768	2963
805.91	3089
806.052	3131
806.194	3039
806.336	3256
806.478	3005
806.62	2944
806.762	3001
806.904	3058
807.046	3146
807.188	3009
807.33	2910
807.472	2982
807.614	2899
807.756	2979
807.898	2929
808.04	2929
808.182	2956
808.324	2937
808.465	2868
808.607	2891
808.749	2788
808.891	2826
809.033	2990
809.174	2944
809.316	2902
809.458	2880
809.6	2766
809.741	2758
809.883	2796
810.025	2849
810.166	2849
810.308	2819
810.45	2849
810.591	2792
810.733	2769
810.875	2819
811.016	2739
811.158	2754
811.299	2807
811.441	2944
811.582	2876
811.724	2830
811.865	2815
812.007	2910
812.148	2880
812.29	2876
812.431	2902
812.573	2937
812.714	2967
812.855	3081
812.997	3009
813.138	3142
813.279	3036
813.421	2982
813.562	2960
813.703	2910
813.845	2922
813.986	2766
814.127	2712
814.268	2857
814.41	2861
814.551	2792
814.692	2876
814.833	2823
814.974	2876
815.115	2956
815.256	2842
815.397	2826
815.539	2845
815.68	2785
815.821	2792
815.962	2902
816.103	2922
816.244	2895
816.385	2864
816.526	2944
816.666	2899
816.807	2735
816.948	2857
817.089	2895
817.23	2883
817.371	2769
817.512	2807
817.653	2861
817.793	2819
817.934	2883
818.075	2948
818.216	3020
818.356	3066
818.497	2876
818.638	2781
818.778	2777
818.919	2800
819.06	2750
819.2	2883
819.341	2788
819.481	2815
819.622	2906
819.762	3119
819.903	3070
820.043	2929
820.184	2891
820.324	2899
820.465	3001
820.605	3001
820.746	2998
820.886	2929
821.026	3116
821.167	3142
821.307	3264
821.447	3294
821.588	3211
821.728	3165
821.868	3218
822.008	3104
822.149	3199
822.289	3222
822.429	3085
822.569	3062
822.709	3180
822.849	2994
822.99	3036
823.13	3127
823.27	3173
823.41	3085
823.55	3157
823.69	3173
823.83	3211
823.97	3131
824.11	3009
824.25	2956
824.389	3085
824.529	3138
824.669	3062
824.809	3207
824.949	3253
825.089	3233
825.228	3146
825.368	2982
825.508	2960
825.648	3667
825.787	4421
825.927	3001
826.067	2982
826.206	2967
826.346	3055
826.485	3066
826.625	3085
826.765	3249
826.904	3214
827.044	3013
827.183	2941
827.323	2883
827.462	2956
827.601	2895
827.741	2941
827.88	2937
828.02	2883
828.159	2986
828.298	2994
828.437	3077
828.577	3039
828.716	3199
828.855	3062
828.994	2910
829.134	2902
829.273	2914
829.412	2838
829.551	2804
829.69	2910
829.829	2986
829.968	3131
830.107	2982
830.246	3009
830.385	2906
830.524	2891
830.663	2807
830.802	2705
830.941	2648
831.08	2651
831.219	2769
831.357	2724
831.496	2929
831.635	2708
831.774	2636
831.913	2632
832.051	2511
832.19	2560
832.329	2674
832.467	2541
832.606	2473
832.744	2560
832.883	2598
833.022	2590
833.16	2636
833.299	2667
833.437	2686
833.576	2686
833.714	2705
833.852	2724
833.991	2762
834.129	2819
834.267	2845
834.406	2792
834.544	2857
834.682	2864
834.821	2845
834.959	3066
835.097	2891
835.235	3077
835.373	3055
835.511	3013
835.65	2956
835.788	2944
835.926	2826
836.064	2826
836.202	2830
836.34	3077
836.478	3150
836.615	3043
836.753	3089
836.891	3192
837.029	3211
837.167	3058
837.305	3089
837.443	3043
837.58	2979
837.718	3150
837.856	3074
837.993	3017
838.131	3097
838.269	3100
838.406	3116
838.544	3058
838.681	2925
838.819	2937
838.956	2826
839.094	2845
839.231	2883
839.369	2975
839.506	3344
839.643	3142
839.781	2963
839.918	2925
840.055	3062
840.193	3017
840.33	3051
840.467	3108
840.604	3135
840.742	3378
840.879	3058
841.016	3032
841.153	3116
841.29	3329
841.427	3279
841.564	3260
841.701	3294
841.838	3214
841.975	3180
842.112	3199
842.249	3055
842.385	3039
842.522	3245
842.659	3085
842.796	3055
842.933	3055
843.069	3039
843.206	3009
843.343	3188
843.479	3062
843.616	3180
843.752	2883
843.889	2845
844.025	3055
844.162	2861
844.298	3051
844.435	2887
844.571	2922
844.708	3066
844.844	3203
844.98	3207
845.117	3161
845.253	3051
845.389	2986
845.525	3081
845.661	3089
845.798	2994
845.934	3119
846.07	3085
846.206	3211
846.342	3294
846.478	3272
846.614	3119
846.75	3070
846.886	3036
847.022	3245
847.158	3142
847.294	3176
847.429	3237
847.565	3218
847.701	3469
847.837	3017
847.972	2971
848.108	3123
848.244	3142
848.379	2944
848.515	2914
848.65	2929
848.786	2922
848.921	3001
849.057	3077
849.192	3108
849.328	3085
849.463	3104
849.598	3047
849.734	3020
849.869	2998
850.004	2864
850.14	2948
850.275	2918
850.41	2845
850.545	2876
850.68	2906
850.815	2944
850.95	2956
851.085	3199
851.22	3093
851.355	3017
851.49	2960
851.625	2971
851.76	3001
851.895	2906
852.03	2887
852.165	3036
852.299	3100
852.434	3131
852.569	3142
852.703	3123
852.838	3237
852.973	3336
853.107	3310
853.242	3165
853.376	3036
853.511	2979
853.645	3032
853.78	3226
853.914	3104
854.048	3131
854.183	3089
854.317	3131
854.451	3294
854.585	3142
854.72	3104
854.854	3207
854.988	3058
855.122	3051
855.256	2952
855.39	3116
855.524	3245
855.658	3138
855.792	3112
855.926	3138
856.06	3214
856.194	3253
856.327	3131
856.461	3039
856.595	3055
856.729	3097
856.862	3195
856.996	3146
857.13	3218
857.263	3226
857.397	3294
857.53	3135
857.664	3192
857.797	3260
857.931	3268
858.064	3157
858.197	3203
858.331	3127
858.464	3070
858.597	2982
858.731	3135
858.864	3127
858.997	3093
859.13	3138
859.263	3165
859.396	3184
859.529	3085
859.662	3058
859.795	3024
859.928	3119
860.061	3237
860.194	3275
860.327	3116
860.46	3097
860.592	3253
860.725	3241
860.858	3230
860.99	3077
861.123	3062
861.256	3036
861.388	3135
861.521	3945
861.653	2994
861.786	2941
861.918	2990
862.05	3043
862.183	3116
862.315	3142
862.447	3230
862.58	3066
862.712	2922
862.844	2857
862.976	3043
863.108	2971
863.24	3279
863.372	2876
863.504	2963
863.636	2994
863.768	2994
863.9	2994
864.032	2902
864.164	2933
864.296	2986
864.428	3055
864.559	3104
864.691	3058
864.823	3070
864.954	3001
865.086	3036
865.217	2952
865.349	2918
865.48	2982
865.612	3005
865.743	3150
865.875	2971
866.006	2918
866.137	2986
866.269	2922
866.4	2925
866.531	2902
866.662	2887
866.793	2853
866.924	2872
867.055	2956
867.186	2941
867.317	2883
867.448	2826
867.579	2830
867.71	2853
867.841	2826
867.972	2899
868.103	2910
868.233	2876
868.364	2883
868.495	2910
868.625	3062
868.756	3161
868.886	2971
869.017	2998
869.147	3157
869.278	3150
869.408	3051
869.539	3036
869.669	3085
869.799	3032
869.929	3119
870.06	3108
870.19	3291
870.32	3291
870.45	3298
870.58	3370
870.71	3454
870.84	3439
870.97	3298
871.1	3214
871.23	3492
871.36	3450
871.489	3329
871.619	3416
871.749	3416
871.879	3450
872.008	3458
872.138	3329
872.267	3272
872.397	3131
872.526	3112
872.656	3047
872.785	3085
872.915	3237
873.044	3325
873.173	3211
873.303	3256
873.432	3256
873.561	3207
873.69	3184
873.819	3116
873.948	3180
874.077	3062
874.206	3024
874.335	3104
874.464	3180
874.593	3325
874.722	3253
874.851	3416
874.979	3317
875.108	3287
875.237	3184
875.365	3154
875.494	3169
875.623	3237
875.751	3089
875.88	3089
876.008	3138
876.136	3241
876.265	3367
876.393	3477
876.521	3393
876.65	3370
876.778	3313
876.906	3230
877.034	3207
877.162	3222
877.29	3161
877.418	3272
877.546	3256
877.674	3241
877.802	3222
877.93	3211
878.058	3135
878.185	3062
878.313	3195
878.441	3184
878.568	3024
878.696	3161
878.824	3260
878.951	3313
879.079	3447
879.206	3625
879.333	3397
879.461	3317
879.588	3382
879.715	3481
879.842	3595
879.97	3378
880.097	3165
880.224	3146
880.351	3173
880.478	3222
880.605	3188
880.732	3180
880.859	3488
880.986	3313
881.112	3317
881.239	3165
881.366	3070
881.493	3005
881.619	3020
881.746	3047
881.872	3119
881.999	3020
882.125	3142
882.252	3207
882.378	3272
882.505	3435
882.631	3279
882.757	3165
882.883	3253
883.01	3195
883.136	3157
883.262	3066
883.388	3089
883.514	3370
883.64	3386
883.766	3268
883.892	3188
884.018	3207
884.143	3416
884.269	3530
884.395	3207
884.52	3142
884.646	3154
884.772	3157
884.897	3051
885.023	3180
885.148	3317
885.274	3416
885.399	3344
885.524	3272
885.65	3279
885.775	3298
885.9	3264
886.025	3458
886.15	3355
886.275	3291
886.4	3188
886.525	3279
886.65	3272
886.775	3264
886.9	3507
887.025	3625
887.149	3397
887.274	3275
887.399	3135
887.523	3180
887.648	3188
887.773	3150
887.897	3389
888.021	3420
888.146	3306
888.27	3435
888.395	3534
888.519	3439
888.643	3428
888.767	3458
888.891	3340
889.015	3230
889.139	3298
889.263	3211
889.387	3409
889.511	3545
889.635	3416
889.759	3321
889.883	3279
890.006	3386
890.13	3454
890.254	3268
890.377	3367
890.501	3188
890.624	3176
890.748	3310
890.871	3180
890.995	3074
891.118	3074
891.241	3176
891.364	3195
891.488	3302
891.611	3161
891.734	3245
891.857	3287
891.98	3207
892.103	3287
892.226	3283
892.349	3245
892.471	3112
892.594	3241
892.717	3313
892.839	3233
892.962	3302
893.085	3355
893.207	3283
893.33	3138
893.452	3173
893.575	3374
893.697	3233
893.819	3420
893.941	3477
894.064	3462
894.186	3260
894.308	3249
894.43	3443
894.552	3519
894.674	3424
894.796	3253
894.918	3321
895.04	3283
895.161	3431
895.283	3374
895.405	3298
895.526	3355
895.648	3431
895.769	3424
895.891	3443
896.012	3496
896.134	3492
896.255	3450
896.376	3348
896.498	3363
896.619	3435
896.74	3359
896.861	3359
896.982	3694
897.103	3800
897.224	3553
897.345	3496
897.466	3454
897.587	3496
897.708	3610
897.828	3561
897.949	3466
898.07	3310
898.19	3412
898.311	3603
898.431	3462
898.552	3492
898.672	3564
898.792	3538
898.913	3534
899.033	3409
899.153	3298
899.273	3211
899.393	3306
899.513	3237
899.633	3329
899.753	3332
899.873	3264
899.993	3340
900.113	3298
900.232	3416
900.352	3306
900.472	3298
900.591	3199
900.711	3310
900.83	3245
900.95	3389
901.069	3511
901.189	3336
901.308	3146
901.427	3104
901.546	3150
901.665	3249
901.784	3306
901.904	3230
902.023	3138
902.141	3028
902.26	2963
902.379	3089
902.498	3089
902.617	3051
902.735	3226
902.854	3214
902.973	3192
903.091	3047
903.21	3043
903.328	3135
903.446	3104
903.565	3123
903.683	3195
903.801	3135
903.919	3245
904.038	3294
904.156	3165
904.274	3306
904.392	3268
904.51	3306
904.627	3313
904.745	3409
904.863	3500
904.981	3283
905.098	3176
905.216	3253
905.334	3340
905.451	3306
905.569	3287
905.686	3428
905.803	3466
905.921	3264
906.038	3386
906.155	3332
906.272	3245
906.389	3329
906.506	3211
906.623	3241
906.74	3249
906.857	3157
906.974	3233
907.091	3466
907.208	3591
907.324	3488
907.441	3359
907.557	3222
907.674	3226
907.79	3195
907.907	3272
908.023	3386
908.139	3336
908.256	3321
908.372	3359
908.488	3378
908.604	3256
908.72	3237
908.836	3325
908.952	3272
909.068	3332
909.184	3450
909.3	3420
909.415	3523
909.531	3458
909.647	3272
909.762	3302
909.878	3279
909.993	3370
910.108	3351
910.224	3306
910.339	3420
910.454	3336
910.57	3306
910.685	3256
910.8	3599
910.915	3545
911.03	3374
911.145	3268
911.259	3268
911.374	3321
911.489	3230
911.604	3233
911.718	3131
911.833	3161
911.947	3055
912.062	2960
912.176	3146
912.291	3184
912.405	3188
912.519	3443
912.633	3458
912.748	3329
912.862	3260
912.976	3146
913.09	3028
913.204	3157
913.318	3173
913.431	3367
913.545	3317
913.659	3431
913.772	3317
913.886	3180
914	3207
914.113	3374
914.226	3363
914.34	3382
914.453	3222
914.566	3428
914.68	3272
914.793	3317
914.906	3150
915.019	3097
915.132	3055
915.245	3199
915.358	3176
915.47	3245
915.583	3249
915.696	3298
915.809	3374
915.921	3397
916.034	3264
916.146	3245
916.259	3195
916.371	3378
916.483	3378
916.595	3279
916.708	3287
916.82	3310
916.932	3344
917.044	3340
917.156	3424
917.268	3287
917.38	3275
917.491	3279
917.603	3393
917.715	3397
917.826	3485
917.938	3336
918.049	3268
918.161	3435
918.272	3500
918.384	3595
918.495	3511
918.606	3325
918.717	3283
918.828	3412
918.939	3431
919.05	3287
919.161	3382
919.272	3161
919.383	3272
919.494	3477
919.604	3644
919.715	3488
919.826	3435
919.936	3462
920.047	3606
920.157	3549
920.267	3720
920.378	3580
920.488	3534
920.598	3751
920.708	3975
920.818	3846
920.928	3842
921.038	4021
921.148	3983
921.258	3660
921.368	3629
921.477	3580
921.587	3526
921.697	3466
921.806	3682
921.916	3526
922.025	3340
922.134	3374
922.244	3340
922.353	3416
922.462	3272
922.571	3230
922.68	3077
922.789	3074
922.898	3154
923.007	3085
923.116	3161
923.224	3154
923.333	3154
923.442	3119
923.55	3062
923.659	3150
923.767	3237
923.876	3108
923.984	3256
924.092	3112
924.201	3192
924.309	3184
924.417	3264
924.525	3165
924.633	3222
924.741	3960
924.849	3066
924.956	3226
925.064	3081
925.172	3055
925.279	3062
925.387	3180
925.494	3188
925.602	3348
925.709	3340
925.816	3169
925.924	3249
926.031	3355
926.138	3313
926.245	3340
926.352	3203
926.459	3386
926.566	3439
926.673	3344
926.779	3283
926.886	3237
926.993	3135
927.099	3131
927.206	3085
927.312	3135
927.419	3230
927.525	3180
927.631	3264
927.737	3100
927.843	3142
927.95	2998
928.056	3142
928.162	3165
928.267	3253
928.373	3892
928.479	3313
928.585	3062
928.69	3222
928.796	3272
928.901	3180
929.007	3032
929.112	3192
929.218	3161
929.323	3146
929.428	3142
929.533	3321
929.638	3127
929.743	3199
929.848	3230
929.953	3230
930.058	3131
930.163	3001
930.267	3032
930.372	3195
930.477	2998
930.581	3329
930.685	3188
930.79	3074
930.894	3116
930.998	3108
931.103	3256
931.207	2963
931.311	2899
931.415	2922
931.519	2788
931.623	2826
