Data from test_V78500241_724.txt Node
Date: Fri Mar 25 16:20:13 CST 2022
User: usil
Spectrometer: V785-0024
Trigger mode: 0
Integration Time (sec): 4.000000E-1
Scans to average: 1
Nonlinearity correction enabled: false
Boxcar width: 0
Storing dark spectrum: false
XAxis mode: Wavelengths
Number of Pixels in Spectrum: 1024
>>>>>Begin Spectral Data<<<<<
801.071	2952
801.214	3001
801.356	2956
801.499	2925
801.641	2872
801.783	2960
801.926	3119
802.068	3005
802.211	2998
802.353	3104
802.496	3043
802.638	3077
802.78	3077
802.923	3138
803.065	3051
803.208	2937
803.35	2979
803.492	2990
803.635	2944
803.777	2773
803.919	2899
804.061	3268
804.204	2971
804.346	2933
804.488	2914
804.63	3051
804.773	2910
804.915	2922
805.057	3127
805.199	2967
805.341	2994
805.483	3070
805.626	3024
805.768	3009
805.91	3089
806.052	3127
806.194	3085
806.336	3287
806.478	3074
806.62	2956
806.762	2979
806.904	3093
807.046	3230
807.188	3024
807.33	2902
807.472	2990
807.614	2952
807.756	3024
807.898	2963
808.04	2937
808.182	2982
808.324	2944
808.465	2910
808.607	2902
808.749	2811
808.891	2853
809.033	2994
809.174	3017
809.316	2967
809.458	2872
809.6	2781
809.741	2807
809.883	2777
810.025	2895
810.166	2899
810.308	2872
810.45	2853
810.591	2811
810.733	2781
810.875	2883
811.016	2796
811.158	2762
811.299	2845
811.441	2914
811.582	2887
811.724	2853
811.865	2845
812.007	2918
812.148	2895
812.29	2876
812.431	2918
812.573	2963
812.714	3005
812.855	3062
812.997	3085
813.138	3131
813.279	3020
813.421	2971
813.562	3013
813.703	2887
813.845	2922
813.986	2788
814.127	2766
814.268	2857
814.41	2883
814.551	2857
814.692	2883
814.833	2853
814.974	2918
815.115	2994
815.256	2819
815.397	2823
815.539	2887
815.68	2819
815.821	2796
815.962	2971
816.103	2948
816.244	2880
816.385	2887
816.526	3009
816.666	2941
816.807	2746
816.948	2914
817.089	2941
817.23	2868
817.371	2785
817.512	2826
817.653	2861
817.793	2861
817.934	2910
818.075	2975
818.216	2990
818.356	3085
818.497	2872
818.638	2807
818.778	2876
818.919	2815
819.06	2758
819.2	2895
819.341	2819
819.481	2804
819.622	2937
819.762	3142
819.903	3085
820.043	2956
820.184	2906
820.324	2933
820.465	2990
820.605	3070
820.746	3047
820.886	2891
821.026	3112
821.167	3165
821.307	3287
821.447	3272
821.588	3260
821.728	3268
821.868	3218
822.008	3104
822.149	3188
822.289	3233
822.429	3127
822.569	3123
822.709	3195
822.849	3047
822.99	3085
823.13	3207
823.27	3211
823.41	3085
823.55	3123
823.69	3176
823.83	3214
823.97	3112
824.11	3024
824.25	3005
824.389	3093
824.529	3123
824.669	3108
824.809	3222
824.949	3245
825.089	3214
825.228	3165
825.368	2998
825.508	2971
825.648	2998
825.787	3051
825.927	2990
826.067	3001
826.206	2998
826.346	3074
826.485	3070
826.625	3165
826.765	3264
826.904	3245
827.044	3036
827.183	2986
827.323	2887
827.462	3013
827.601	2929
827.741	2948
827.88	2956
828.02	2868
828.159	2990
828.298	3036
828.437	3135
828.577	3055
828.716	3287
828.855	3089
828.994	2933
829.134	2880
829.273	2914
829.412	2868
829.551	2899
829.69	2906
829.829	3005
829.968	3150
830.107	3036
830.246	3032
830.385	2941
830.524	2868
830.663	2811
830.802	2750
830.941	2678
831.08	2663
831.219	2769
831.357	2781
831.496	2967
831.635	2708
831.774	2678
831.913	2689
832.051	2575
832.19	2552
832.329	2693
832.467	2537
832.606	2526
832.744	2587
832.883	2590
833.022	2587
833.16	2655
833.299	2712
833.437	2705
833.576	2735
833.714	2727
833.852	2743
833.991	2762
834.129	2872
834.267	2807
834.406	2750
834.544	2914
834.682	2853
834.821	2891
834.959	3058
835.097	2971
835.235	3055
835.373	3020
835.511	3036
835.65	2990
835.788	2956
835.926	2842
836.064	2845
836.202	2864
836.34	3085
836.478	3165
836.615	3032
836.753	3161
836.891	3222
837.029	3211
837.167	3085
837.305	3077
837.443	3047
837.58	2967
837.718	3161
837.856	3062
837.993	3039
838.131	3127
838.269	3138
838.406	3081
838.544	3097
838.681	2937
838.819	2929
838.956	2819
839.094	2834
839.231	2906
839.369	3036
839.506	3382
839.643	3226
839.781	3028
839.918	2982
840.055	3051
840.193	3074
840.33	3066
840.467	3138
840.604	3176
840.742	3420
840.879	3051
841.016	3093
841.153	3104
841.29	3378
841.427	3268
841.564	3260
841.701	3321
841.838	3192
841.975	3161
842.112	3253
842.249	3081
842.385	3047
842.522	3245
842.659	3119
842.796	3058
842.933	3165
843.069	3074
843.206	3020
843.343	3184
843.479	3123
843.616	3176
843.752	2929
843.889	2925
844.025	3066
844.162	2861
844.298	3074
844.435	2948
844.571	2925
844.708	3089
844.844	3192
844.98	3241
845.117	3211
845.253	3024
845.389	3005
845.525	3123
845.661	3112
845.798	3028
845.934	3146
846.07	3066
846.206	3195
846.342	3275
846.478	3218
846.614	3077
846.75	3066
846.886	3020
847.022	3253
847.158	3150
847.294	3222
847.429	3279
847.565	3233
847.701	3458
847.837	3009
847.972	3017
848.108	3180
848.244	3150
848.379	3017
848.515	2944
848.65	2952
848.786	2982
848.921	3028
849.057	3093
849.192	3161
849.328	3097
849.463	3127
849.598	3062
849.734	3032
849.869	2982
850.004	2937
850.14	3013
850.275	2937
850.41	2834
850.545	2887
850.68	2929
850.815	2963
850.95	3024
851.085	3199
851.22	3131
851.355	3070
851.49	3001
851.625	3032
851.76	3017
851.895	2971
852.03	2891
852.165	3070
852.299	3097
852.434	3165
852.569	3116
852.703	3199
852.838	3264
852.973	3367
853.107	3321
853.242	3176
853.376	3077
853.511	2982
853.645	3047
853.78	3233
853.914	3112
854.048	3081
854.183	3077
854.317	3127
854.451	3272
854.585	3169
854.72	3085
854.854	3218
854.988	3058
855.122	3070
855.256	2994
855.39	3131
855.524	3272
855.658	3195
855.792	3184
855.926	3184
856.06	3218
856.194	3249
856.327	3157
856.461	3093
856.595	3081
856.729	3119
856.862	3226
856.996	3169
857.13	3195
857.263	3230
857.397	3264
857.53	3100
857.664	3180
857.797	3233
857.931	3317
858.064	3161
858.197	3233
858.331	3154
858.464	3066
858.597	3020
858.731	3119
858.864	3116
858.997	3119
859.13	3180
859.263	3157
859.396	3173
859.529	3077
859.662	3074
859.795	3062
859.928	3169
860.061	3291
860.194	3291
860.327	3123
860.46	3131
860.592	3249
860.725	3245
860.858	3249
860.99	3089
861.123	3077
861.256	3036
861.388	3127
861.521	3918
861.653	2982
861.786	2994
861.918	3013
862.05	3074
862.183	3089
862.315	3138
862.447	3214
862.58	3077
862.712	2975
862.844	2887
862.976	3051
863.108	2998
863.24	3393
863.372	2883
863.504	2979
863.636	2944
863.768	2998
863.9	2986
864.032	2918
864.164	2922
864.296	3028
864.428	3070
864.559	3077
864.691	3074
864.823	3051
864.954	3013
865.086	3047
865.217	2998
865.349	2941
865.48	2998
865.612	3017
865.743	3142
865.875	2975
866.006	2975
866.137	2982
866.269	2956
866.4	2925
866.531	2952
866.662	2906
866.793	2895
866.924	2922
867.055	2963
867.186	2929
867.317	2883
867.448	2830
867.579	2830
867.71	2849
867.841	2842
867.972	2922
868.103	2918
868.233	2910
868.364	2864
868.495	2895
868.625	3077
868.756	3135
868.886	2960
869.017	3036
869.147	3142
869.278	3184
869.408	3108
869.539	3039
869.669	3112
869.799	3036
869.929	3142
870.06	3127
870.19	3306
870.32	3306
870.45	3329
870.58	3321
870.71	3420
870.84	3420
870.97	3279
871.1	3264
871.23	3485
871.36	3462
871.489	3370
871.619	3439
871.749	3397
871.879	3443
872.008	3519
872.138	3382
872.267	3283
872.397	3165
872.526	3097
872.656	3001
872.785	3097
872.915	3249
873.044	3336
873.173	3214
873.303	3249
873.432	3249
873.561	3207
873.69	3135
873.819	3138
873.948	3218
874.077	3100
874.206	3055
874.335	3085
874.464	3188
874.593	3287
874.722	3233
874.851	3378
874.979	3389
875.108	3317
875.237	3195
875.365	3195
875.494	3180
875.623	3264
875.751	3070
875.88	3070
876.008	3192
876.136	3203
876.265	3409
876.393	3488
876.521	3378
876.65	3382
876.778	3348
876.906	3207
877.034	3214
877.162	3203
877.29	3176
877.418	3256
877.546	3233
877.674	3241
877.802	3211
877.93	3211
878.058	3165
878.185	3119
878.313	3218
878.441	3203
878.568	3074
878.696	3192
878.824	3218
878.951	3332
879.079	3469
879.206	3591
879.333	3409
879.461	3283
879.588	3344
879.715	3477
879.842	3576
879.97	3439
880.097	3157
880.224	3108
880.351	3233
880.478	3222
880.605	3184
880.732	3161
880.859	3477
880.986	3272
881.112	3317
881.239	3195
881.366	3066
881.493	3013
881.619	3039
881.746	3043
881.872	3074
881.999	3112
882.125	3127
882.252	3249
882.378	3298
882.505	3439
882.631	3283
882.757	3123
882.883	3211
883.01	3176
883.136	3150
883.262	3104
883.388	3097
883.514	3313
883.64	3378
883.766	3302
883.892	3195
884.018	3222
884.143	3431
884.269	3530
884.395	3184
884.52	3173
884.646	3188
884.772	3089
884.897	3146
885.023	3184
885.148	3317
885.274	3431
885.399	3348
885.524	3233
885.65	3291
885.775	3302
885.9	3268
886.025	3428
886.15	3393
886.275	3310
886.4	3230
886.525	3317
886.65	3253
886.775	3256
886.9	3469
887.025	3625
887.149	3416
887.274	3192
887.399	3192
887.523	3176
887.648	3218
887.773	3192
887.897	3374
888.021	3389
888.146	3294
888.27	3439
888.395	3538
888.519	3439
888.643	3443
888.767	3477
888.891	3283
889.015	3249
889.139	3294
889.263	3211
889.387	3382
889.511	3507
889.635	3435
889.759	3272
889.883	3279
890.006	3409
890.13	3481
890.254	3268
890.377	3359
890.501	3211
890.624	3157
890.748	3291
890.871	3173
890.995	3093
891.118	3043
891.241	3192
891.364	3249
891.488	3313
891.611	3173
891.734	3237
891.857	3245
891.98	3222
892.103	3321
892.226	3260
892.349	3226
892.471	3138
892.594	3249
892.717	3329
892.839	3268
892.962	3260
893.085	3363
893.207	3279
893.33	3127
893.452	3214
893.575	3351
893.697	3233
893.819	3466
893.941	3462
894.064	3447
894.186	3264
894.308	3256
894.43	3443
894.552	3515
894.674	3481
894.796	3253
894.918	3310
895.04	3310
895.161	3401
895.283	3386
895.405	3306
895.526	3336
895.648	3431
895.769	3431
895.891	3462
896.012	3488
896.134	3450
896.255	3386
896.376	3378
896.498	3378
896.619	3420
896.74	3351
896.861	3382
896.982	3682
897.103	3846
897.224	3603
897.345	3515
897.466	3420
897.587	3492
897.708	3656
897.828	3519
897.949	3439
898.07	3310
898.19	3409
898.311	3595
898.431	3412
898.552	3492
898.672	3629
898.792	3553
898.913	3549
899.033	3428
899.153	3256
899.273	3237
899.393	3291
899.513	3348
899.633	3329
899.753	3317
899.873	3340
899.993	3382
900.113	3344
900.232	3447
900.352	3367
900.472	3268
900.591	3165
900.711	3325
900.83	3264
900.95	3435
901.069	3450
901.189	3325
901.308	3169
901.427	3112
901.546	3188
901.665	3275
901.784	3321
901.904	3199
902.023	3138
902.141	3036
902.26	2982
902.379	3150
902.498	3055
902.617	3043
902.735	3188
902.854	3207
902.973	3195
903.091	3032
903.21	3085
903.328	3157
903.446	3093
903.565	3150
903.683	3173
903.801	3131
903.919	3272
904.038	3287
904.156	3180
904.274	3298
904.392	3275
904.51	3298
904.627	3302
904.745	3450
904.863	3485
904.981	3256
905.098	3127
905.216	3253
905.334	3294
905.451	3291
905.569	3329
905.686	3450
905.803	3477
905.921	3283
906.038	3409
906.155	3351
906.272	3260
906.389	3367
906.506	3233
906.623	3287
906.74	3283
906.857	3192
906.974	3256
907.091	3439
907.208	3538
907.324	3488
907.441	3405
907.557	3245
907.674	3230
907.79	3157
907.907	3253
908.023	3325
908.139	3355
908.256	3306
908.372	3393
908.488	3336
908.604	3237
908.72	3260
908.836	3279
908.952	3313
909.068	3310
909.184	3473
909.3	3363
909.415	3507
909.531	3469
909.647	3287
909.762	3268
909.878	3233
909.993	3359
910.108	3332
910.224	3340
910.339	3424
910.454	3348
910.57	3283
910.685	3268
910.8	3545
910.915	3549
911.03	3435
911.145	3283
911.259	3268
911.374	3306
911.489	3287
911.604	3211
911.718	3138
911.833	3173
911.947	3032
912.062	2982
912.176	3142
912.291	3192
912.405	3180
912.519	3450
912.633	3454
912.748	3348
912.862	3283
912.976	3203
913.09	3051
913.204	3127
913.318	3237
913.431	3374
913.545	3306
913.659	3409
913.772	3355
913.886	3226
914	3176
914.113	3363
914.226	3412
914.34	3340
914.453	3173
914.566	3393
914.68	3283
914.793	3298
914.906	3150
915.019	3112
915.132	3089
915.245	3188
915.358	3207
915.47	3199
915.583	3256
915.696	3264
915.809	3412
915.921	3431
916.034	3253
916.146	3275
916.259	3268
916.371	3378
916.483	3378
916.595	3256
916.708	3321
916.82	3332
916.932	3329
917.044	3317
917.156	3340
917.268	3237
917.38	3298
917.491	3272
917.603	3336
917.715	3454
917.826	3428
917.938	3340
918.049	3260
918.161	3439
918.272	3603
918.384	3580
918.495	3481
918.606	3359
918.717	3268
918.828	3340
918.939	3397
919.05	3283
919.161	3359
919.272	3154
919.383	3287
919.494	3504
919.604	3690
919.715	3504
919.826	3428
919.936	3454
920.047	3549
920.157	3587
920.267	3743
920.378	3614
920.488	3614
920.598	3831
920.708	3945
920.818	3838
920.928	3869
921.038	4082
921.148	4021
921.258	3743
921.368	3690
921.477	3568
921.587	3515
921.697	3485
921.806	3625
921.916	3507
922.025	3374
922.134	3374
922.244	3287
922.353	3439
922.462	3245
922.571	3214
922.68	3066
922.789	3104
922.898	3150
923.007	3108
923.116	3218
923.224	3176
923.333	3195
923.442	3081
923.55	3070
923.659	3116
923.767	3237
923.876	3138
923.984	3218
924.092	3116
924.201	3157
924.309	3214
924.417	3268
924.525	3169
924.633	3192
924.741	4147
924.849	3058
924.956	3264
925.064	3097
925.172	3024
925.279	3108
925.387	3195
925.494	3214
925.602	3351
925.709	3325
925.816	3180
925.924	3306
926.031	3389
926.138	3310
926.245	3348
926.352	3214
926.459	3359
926.566	3473
926.673	3294
926.779	3241
926.886	3230
926.993	3127
927.099	3123
927.206	3100
927.312	3169
927.419	3203
927.525	3146
927.631	3256
927.737	3131
927.843	3116
927.95	3017
928.056	3131
928.162	3192
928.267	3245
928.373	3857
928.479	3313
928.585	3047
928.69	3226
928.796	3275
928.901	3161
929.007	3039
929.112	3226
929.218	3195
929.323	3127
929.428	3127
929.533	3313
929.638	3135
929.743	3169
929.848	3298
929.953	3218
930.058	3138
930.163	3024
930.267	3047
930.372	3176
930.477	2990
930.581	3340
930.685	3173
930.79	3024
930.894	3108
930.998	3131
931.103	3249
931.207	2933
931.311	2941
931.415	2933
931.519	2785
931.623	2826
