Data from test_V78500241_1343.txt Node
Date: Fri Mar 25 16:24:30 CST 2022
User: usil
Spectrometer: V785-0024
Trigger mode: 0
Integration Time (sec): 4.000000E-1
Scans to average: 1
Nonlinearity correction enabled: false
Boxcar width: 0
Storing dark spectrum: false
XAxis mode: Wavelengths
Number of Pixels in Spectrum: 1024
>>>>>Begin Spectral Data<<<<<
801.071	2899
801.214	2929
801.356	2861
801.499	2887
801.641	2861
801.783	2933
801.926	3028
802.068	2944
802.211	2975
802.353	3028
802.496	2941
802.638	3017
802.78	2998
802.923	3085
803.065	2967
803.208	2902
803.35	2925
803.492	2952
803.635	2880
803.777	2758
803.919	2861
804.061	3142
804.204	2922
804.346	2895
804.488	2826
804.63	2956
804.773	2868
804.915	2891
805.057	3058
805.199	2933
805.341	2948
805.483	3009
805.626	2994
805.768	2944
805.91	3100
806.052	3085
806.194	3028
806.336	3253
806.478	3009
806.62	2906
806.762	2967
806.904	3058
807.046	3161
807.188	2952
807.33	2906
807.472	2990
807.614	2883
807.756	2971
807.898	2941
808.04	2872
808.182	2963
808.324	2925
808.465	2883
808.607	2910
808.749	2766
808.891	2849
809.033	2956
809.174	2937
809.316	2864
809.458	2899
809.6	2781
809.741	2739
809.883	2743
810.025	2823
810.166	2876
810.308	2830
810.45	2838
810.591	2796
810.733	2766
810.875	2807
811.016	2743
811.158	2743
811.299	2777
811.441	2918
811.582	2887
811.724	2819
811.865	2807
812.007	2910
812.148	2876
812.29	2842
812.431	2899
812.573	2937
812.714	2960
812.855	3036
812.997	3039
813.138	3093
813.279	3047
813.421	2963
813.562	2906
813.703	2887
813.845	2864
813.986	2792
814.127	2708
814.268	2781
814.41	2842
814.551	2853
814.692	2868
814.833	2807
814.974	2895
815.115	2925
815.256	2849
815.397	2826
815.539	2868
815.68	2781
815.821	2785
815.962	2929
816.103	2937
816.244	2849
816.385	2872
816.526	2937
816.666	2925
816.807	2773
816.948	2902
817.089	2895
817.23	2830
817.371	2781
817.512	2758
817.653	2823
817.793	2826
817.934	2868
818.075	2918
818.216	2952
818.356	3017
818.497	2906
818.638	2773
818.778	2785
818.919	2788
819.06	2731
819.2	2830
819.341	2792
819.481	2758
819.622	2918
819.762	3097
819.903	3070
820.043	2910
820.184	2922
820.324	2876
820.465	3039
820.605	2982
820.746	3017
820.886	2910
821.026	3104
821.167	3138
821.307	3245
821.447	3283
821.588	3222
821.728	3169
821.868	3214
822.008	3108
822.149	3150
822.289	3218
822.429	3077
822.569	3085
822.709	3203
822.849	3051
822.99	3112
823.13	3165
823.27	3150
823.41	3097
823.55	3154
823.69	3176
823.83	3180
823.97	3108
824.11	2994
824.25	2982
824.389	3066
824.529	3112
824.669	3051
824.809	3188
824.949	3222
825.089	3253
825.228	3116
825.368	2967
825.508	2956
825.648	3009
825.787	2971
825.927	3020
826.067	2971
826.206	2933
826.346	3032
826.485	3039
826.625	3108
826.765	3214
826.904	3241
827.044	2944
827.183	2918
827.323	2826
827.462	2952
827.601	2918
827.741	2883
827.88	2895
828.02	2830
828.159	2952
828.298	3055
828.437	3085
828.577	3024
828.716	3218
828.855	3116
828.994	2887
829.134	2868
829.273	2891
829.412	2887
829.551	2864
829.69	2922
829.829	2975
829.968	3112
830.107	3005
830.246	2967
830.385	2906
830.524	2861
830.663	2804
830.802	2724
830.941	2621
831.08	2636
831.219	2739
831.357	2769
831.496	2918
831.635	2716
831.774	2632
831.913	2648
832.051	2526
832.19	2549
832.329	2640
832.467	2522
832.606	2446
832.744	2598
832.883	2568
833.022	2560
833.16	2632
833.299	2648
833.437	2693
833.576	2708
833.714	2708
833.852	2724
833.991	2750
834.129	2792
834.267	2811
834.406	2766
834.544	2849
834.682	2864
834.821	2853
834.959	3085
835.097	2876
835.235	3066
835.373	3005
835.511	3013
835.65	2979
835.788	2925
835.926	2785
836.064	2807
836.202	2842
836.34	3081
836.478	3150
836.615	3028
836.753	3154
836.891	3195
837.029	3173
837.167	3077
837.305	3058
837.443	3066
837.58	2941
837.718	3123
837.856	3058
837.993	3028
838.131	3097
838.269	3112
838.406	3070
838.544	3089
838.681	2902
838.819	2922
838.956	2796
839.094	2853
839.231	2880
839.369	2998
839.506	3344
839.643	3180
839.781	3001
839.918	2944
840.055	3001
840.193	3032
840.33	3074
840.467	3089
840.604	3123
840.742	3405
840.879	3081
841.016	3020
841.153	3097
841.29	3317
841.427	3268
841.564	3214
841.701	3279
841.838	3226
841.975	3157
842.112	3188
842.249	3062
842.385	3032
842.522	3249
842.659	3051
842.796	3043
842.933	3100
843.069	3032
843.206	3032
843.343	3184
843.479	3108
843.616	3131
843.752	2883
843.889	2853
844.025	3039
844.162	2883
844.298	3070
844.435	2979
844.571	2891
844.708	3036
844.844	3146
844.98	3203
845.117	3169
845.253	3051
845.389	3013
845.525	3051
845.661	3062
845.798	2990
845.934	3119
846.07	3055
846.206	3203
846.342	3279
846.478	3214
846.614	3074
846.75	3047
846.886	3001
847.022	3264
847.158	3157
847.294	3207
847.429	3222
847.565	3203
847.701	3485
847.837	3024
847.972	3036
848.108	3184
848.244	3176
848.379	2998
848.515	2929
848.65	2971
848.786	2971
848.921	3024
849.057	3119
849.192	3142
849.328	3104
849.463	3176
849.598	3116
849.734	3112
849.869	3024
850.004	2948
850.14	3005
850.275	2952
850.41	2872
850.545	2922
850.68	2960
850.815	3013
850.95	2998
851.085	3226
851.22	3150
851.355	3081
851.49	3013
851.625	3028
851.76	3058
851.895	2990
852.03	2952
852.165	3074
852.299	3161
852.434	3222
852.569	3192
852.703	3218
852.838	3302
852.973	3393
853.107	3393
853.242	3211
853.376	3131
853.511	3005
853.645	3104
853.78	3279
853.914	3131
854.048	3142
854.183	3119
854.317	3180
854.451	3332
854.585	3165
854.72	3131
854.854	3233
854.988	3093
855.122	3135
855.256	3043
855.39	3138
855.524	3245
855.658	3192
855.792	3218
855.926	3180
856.06	3268
856.194	3298
856.327	3161
856.461	3123
856.595	3108
856.729	3154
856.862	3222
856.996	3180
857.13	3237
857.263	3291
857.397	3313
857.53	3138
857.664	3253
857.797	3264
857.931	3268
858.064	3195
858.197	3283
858.331	3165
858.464	3119
858.597	3020
858.731	3104
858.864	3146
858.997	3119
859.13	3173
859.263	3207
859.396	3218
859.529	3131
859.662	3100
859.795	3097
859.928	3142
860.061	3249
860.194	3325
860.327	3154
860.46	3104
860.592	3294
860.725	3272
860.858	3279
860.99	3161
861.123	3093
861.256	3085
861.388	3157
861.521	3705
861.653	3032
861.786	2986
861.918	3017
862.05	3104
862.183	3150
862.315	3165
862.447	3233
862.58	3108
862.712	2963
862.844	2948
862.976	3058
863.108	3001
863.24	3294
863.372	2883
863.504	2960
863.636	2979
863.768	3066
863.9	2998
864.032	2963
864.164	2963
864.296	3039
864.428	3127
864.559	3146
864.691	3085
864.823	3058
864.954	3074
865.086	3066
865.217	2994
865.349	2986
865.48	3001
865.612	3074
865.743	3188
865.875	3043
866.006	2956
866.137	3001
866.269	2979
866.4	2975
866.531	2902
866.662	2941
866.793	2922
866.924	2941
867.055	2982
867.186	2933
867.317	2887
867.448	2872
867.579	2864
867.71	2872
867.841	2823
867.972	2933
868.103	2948
868.233	2922
868.364	2906
868.495	2948
868.625	3108
868.756	3222
868.886	2990
869.017	3055
869.147	3211
869.278	3173
869.408	3074
869.539	3020
869.669	3127
869.799	3032
869.929	3188
870.06	3154
870.19	3344
870.32	3329
870.45	3329
870.58	3374
870.71	3477
870.84	3473
870.97	3370
871.1	3275
871.23	3519
871.36	3466
871.489	3412
871.619	3431
871.749	3412
871.879	3485
872.008	3454
872.138	3351
872.267	3329
872.397	3188
872.526	3157
872.656	3047
872.785	3135
872.915	3260
873.044	3344
873.173	3226
873.303	3287
873.432	3260
873.561	3279
873.69	3207
873.819	3173
873.948	3260
874.077	3123
874.206	3093
874.335	3089
874.464	3226
874.593	3367
874.722	3298
874.851	3412
874.979	3374
875.108	3370
875.237	3233
875.365	3154
875.494	3184
875.623	3245
875.751	3085
875.88	3112
876.008	3230
876.136	3211
876.265	3409
876.393	3523
876.521	3462
876.65	3431
876.778	3329
876.906	3302
877.034	3222
877.162	3264
877.29	3249
877.418	3260
877.546	3287
877.674	3268
877.802	3268
877.93	3237
878.058	3169
878.185	3135
878.313	3237
878.441	3233
878.568	3062
878.696	3169
878.824	3256
878.951	3306
879.079	3462
879.206	3625
879.333	3481
879.461	3389
879.588	3382
879.715	3530
879.842	3584
879.97	3397
880.097	3169
880.224	3131
880.351	3233
880.478	3268
880.605	3222
880.732	3203
880.859	3538
880.986	3325
881.112	3344
881.239	3176
881.366	3127
881.493	3097
881.619	3039
881.746	3116
881.872	3097
881.999	3112
882.125	3192
882.252	3313
882.378	3302
882.505	3450
882.631	3291
882.757	3199
882.883	3211
883.01	3233
883.136	3188
883.262	3135
883.388	3104
883.514	3306
883.64	3389
883.766	3313
883.892	3222
884.018	3241
884.143	3454
884.269	3603
884.395	3203
884.52	3180
884.646	3241
884.772	3131
884.897	3100
885.023	3253
885.148	3332
885.274	3412
885.399	3382
885.524	3317
885.65	3256
885.775	3313
885.9	3275
886.025	3439
886.15	3317
886.275	3332
886.4	3268
886.525	3351
886.65	3302
886.775	3253
886.9	3519
887.025	3610
887.149	3443
887.274	3294
887.399	3195
887.523	3199
887.648	3207
887.773	3211
887.897	3412
888.021	3447
888.146	3321
888.27	3439
888.395	3530
888.519	3435
888.643	3466
888.767	3454
888.891	3351
889.015	3264
889.139	3359
889.263	3287
889.387	3382
889.511	3561
889.635	3485
889.759	3317
889.883	3283
890.006	3374
890.13	3545
890.254	3329
890.377	3367
890.501	3214
890.624	3214
890.748	3298
890.871	3184
890.995	3123
891.118	3108
891.241	3176
891.364	3268
891.488	3336
891.611	3188
891.734	3253
891.857	3283
891.98	3313
892.103	3340
892.226	3275
892.349	3233
892.471	3108
892.594	3272
892.717	3294
892.839	3294
892.962	3306
893.085	3351
893.207	3291
893.33	3173
893.452	3222
893.575	3363
893.697	3264
893.819	3485
893.941	3507
894.064	3447
894.186	3306
894.308	3302
894.43	3462
894.552	3557
894.674	3481
894.796	3272
894.918	3351
895.04	3310
895.161	3405
895.283	3393
895.405	3344
895.526	3367
895.648	3420
895.769	3401
895.891	3507
896.012	3473
896.134	3496
896.255	3466
896.376	3386
896.498	3329
896.619	3481
896.74	3367
896.861	3454
896.982	3698
897.103	3854
897.224	3610
897.345	3507
897.466	3450
897.587	3507
897.708	3629
897.828	3553
897.949	3409
898.07	3325
898.19	3431
898.311	3637
898.431	3454
898.552	3523
898.672	3629
898.792	3591
898.913	3530
899.033	3428
899.153	3325
899.273	3214
899.393	3313
899.513	3310
899.633	3313
899.753	3351
899.873	3359
899.993	3405
900.113	3389
900.232	3447
900.352	3329
900.472	3264
900.591	3230
900.711	3317
900.83	3272
900.95	3466
901.069	3507
901.189	3355
901.308	3188
901.427	3146
901.546	3188
901.665	3264
901.784	3348
901.904	3199
902.023	3184
902.141	3036
902.26	2998
902.379	3157
902.498	3112
902.617	3055
902.735	3218
902.854	3260
902.973	3211
903.091	3066
903.21	3055
903.328	3165
903.446	3138
903.565	3169
903.683	3214
903.801	3184
903.919	3230
904.038	3287
904.156	3173
904.274	3279
904.392	3272
904.51	3283
904.627	3355
904.745	3439
904.863	3515
904.981	3294
905.098	3188
905.216	3245
905.334	3313
905.451	3321
905.569	3351
905.686	3469
905.803	3462
905.921	3283
906.038	3424
906.155	3374
906.272	3283
906.389	3340
906.506	3256
906.623	3291
906.74	3279
906.857	3161
906.974	3291
907.091	3450
907.208	3595
907.324	3481
907.441	3378
907.557	3230
907.674	3241
907.79	3184
907.907	3317
908.023	3340
908.139	3409
908.256	3355
908.372	3397
908.488	3363
908.604	3317
908.72	3272
908.836	3302
908.952	3287
909.068	3367
909.184	3473
909.3	3397
909.415	3492
909.531	3485
909.647	3313
909.762	3275
909.878	3256
909.993	3382
910.108	3363
910.224	3355
910.339	3393
910.454	3321
910.57	3268
910.685	3233
910.8	3553
910.915	3568
911.03	3405
911.145	3268
911.259	3325
911.374	3291
911.489	3268
911.604	3253
911.718	3100
911.833	3169
911.947	3020
912.062	3051
912.176	3188
912.291	3214
912.405	3222
912.519	3439
912.633	3488
912.748	3310
912.862	3310
912.976	3161
913.09	3081
913.204	3154
913.318	3222
913.431	3317
913.545	3317
913.659	3389
913.772	3344
913.886	3260
914	3237
914.113	3382
914.226	3397
914.34	3374
914.453	3203
914.566	3443
914.68	3329
914.793	3313
914.906	3138
915.019	3135
915.132	3077
915.245	3154
915.358	3211
915.47	3218
915.583	3294
915.696	3329
915.809	3405
915.921	3450
916.034	3272
916.146	3291
916.259	3249
916.371	3439
916.483	3367
916.595	3291
916.708	3348
916.82	3370
916.932	3363
917.044	3409
917.156	3359
917.268	3294
917.38	3321
917.491	3329
917.603	3435
917.715	3507
917.826	3469
917.938	3424
918.049	3313
918.161	3462
918.272	3618
918.384	3606
918.495	3530
918.606	3351
918.717	3310
918.828	3424
918.939	3477
919.05	3344
919.161	3466
919.272	3218
919.383	3332
919.494	3580
919.604	3759
919.715	3557
919.826	3454
919.936	3492
920.047	3591
920.157	3614
920.267	3804
920.378	3652
920.488	3618
920.598	3804
920.708	4017
920.818	3899
920.928	3911
921.038	4067
921.148	4086
921.258	3724
921.368	3698
921.477	3625
921.587	3584
921.697	3492
921.806	3690
921.916	3557
922.025	3389
922.134	3405
922.244	3344
922.353	3443
922.462	3294
922.571	3249
922.68	3157
922.789	3142
922.898	3226
923.007	3116
923.116	3249
923.224	3226
923.333	3241
923.442	3146
923.55	3112
923.659	3237
923.767	3264
923.876	3150
923.984	3264
924.092	3157
924.201	3256
924.309	3264
924.417	3302
924.525	3207
924.633	3283
924.741	4025
924.849	3097
924.956	3287
925.064	3093
925.172	3081
925.279	3173
925.387	3245
925.494	3214
925.602	3428
925.709	3351
925.816	3226
925.924	3351
926.031	3431
926.138	3351
926.245	3389
926.352	3291
926.459	3492
926.566	3485
926.673	3363
926.779	3321
926.886	3260
926.993	3211
927.099	3176
927.206	3157
927.312	3142
927.419	3256
927.525	3237
927.631	3313
927.737	3195
927.843	3138
927.95	3055
928.056	3188
928.162	3222
928.267	3291
928.373	3873
928.479	3370
928.585	3104
928.69	3233
928.796	3310
928.901	3199
929.007	3058
929.112	3237
929.218	3226
929.323	3169
929.428	3165
929.533	3348
929.638	3154
929.743	3260
929.848	3294
929.953	3237
930.058	3169
930.163	3058
930.267	3100
930.372	3207
930.477	3089
930.581	3382
930.685	3230
930.79	3112
930.894	3169
930.998	3127
931.103	3344
931.207	3009
931.311	2975
931.415	2922
931.519	2796
931.623	2849
