Data from test_V78500241_1208.txt Node
Date: Fri Mar 25 16:23:34 CST 2022
User: usil
Spectrometer: V785-0024
Trigger mode: 0
Integration Time (sec): 4.000000E-1
Scans to average: 1
Nonlinearity correction enabled: false
Boxcar width: 0
Storing dark spectrum: false
XAxis mode: Wavelengths
Number of Pixels in Spectrum: 1024
>>>>>Begin Spectral Data<<<<<
801.071	2922
801.214	2948
801.356	2910
801.499	2899
801.641	2864
801.783	2941
801.926	3066
802.068	2979
802.211	3028
802.353	3070
802.496	2990
802.638	3009
802.78	3070
802.923	3097
803.065	3009
803.208	2883
803.35	2925
803.492	2922
803.635	2979
803.777	2788
803.919	2887
804.061	3184
804.204	2948
804.346	2944
804.488	2838
804.63	3013
804.773	2857
804.915	2922
805.057	3074
805.199	2952
805.341	2982
805.483	3028
805.626	3047
805.768	2944
805.91	3089
806.052	3116
806.194	3020
806.336	3260
806.478	3009
806.62	2963
806.762	2960
806.904	3058
807.046	3173
807.188	3005
807.33	2902
807.472	2979
807.614	2925
807.756	2975
807.898	2922
808.04	2880
808.182	2941
808.324	2979
808.465	2899
808.607	2891
808.749	2807
808.891	2853
809.033	2990
809.174	2971
809.316	2842
809.458	2883
809.6	2777
809.741	2762
809.883	2758
810.025	2815
810.166	2823
810.308	2849
810.45	2834
810.591	2796
810.733	2769
810.875	2849
811.016	2781
811.158	2792
811.299	2781
811.441	2925
811.582	2910
811.724	2807
811.865	2823
812.007	2895
812.148	2864
812.29	2864
812.431	2857
812.573	2910
812.714	2925
812.855	3066
812.997	3043
813.138	3127
813.279	3024
813.421	2967
813.562	2937
813.703	2834
813.845	2887
813.986	2792
814.127	2724
814.268	2804
814.41	2857
814.551	2830
814.692	2880
814.833	2830
814.974	2880
815.115	2979
815.256	2796
815.397	2823
815.539	2819
815.68	2739
815.821	2819
815.962	2922
816.103	2906
816.244	2880
816.385	2876
816.526	2986
816.666	2902
816.807	2785
816.948	2891
817.089	2902
817.23	2853
817.371	2781
817.512	2800
817.653	2830
817.793	2815
817.934	2876
818.075	2960
818.216	3009
818.356	3017
818.497	2925
818.638	2788
818.778	2830
818.919	2830
819.06	2727
819.2	2880
819.341	2807
819.481	2811
819.622	2929
819.762	3089
819.903	3036
820.043	2906
820.184	2838
820.324	2883
820.465	3028
820.605	2994
820.746	3009
820.886	2914
821.026	3089
821.167	3161
821.307	3233
821.447	3279
821.588	3249
821.728	3169
821.868	3146
822.008	3070
822.149	3203
822.289	3203
822.429	3081
822.569	3051
822.709	3142
822.849	3039
822.99	3070
823.13	3173
823.27	3184
823.41	3116
823.55	3135
823.69	3104
823.83	3211
823.97	3074
824.11	3024
824.25	2952
824.389	3074
824.529	3108
824.669	3089
824.809	3176
824.949	3218
825.089	3188
825.228	3138
825.368	2960
825.508	2941
825.648	2952
825.787	2998
825.927	2998
826.067	2956
826.206	2956
826.346	3039
826.485	3085
826.625	3119
826.765	3283
826.904	3233
827.044	2994
827.183	2925
827.323	2868
827.462	2952
827.601	2914
827.741	2937
827.88	2956
828.02	2887
828.159	2952
828.298	3024
828.437	3108
828.577	3055
828.716	3233
828.855	3070
828.994	2914
829.134	2872
829.273	2925
829.412	2876
829.551	2876
829.69	2906
829.829	3020
829.968	3127
830.107	3036
830.246	3039
830.385	2948
830.524	2899
830.663	2868
830.802	2727
830.941	2701
831.08	2640
831.219	2819
831.357	2785
831.496	2963
831.635	2724
831.774	2701
831.913	2667
832.051	2583
832.19	2594
832.329	2720
832.467	2568
832.606	2530
832.744	2598
832.883	2621
833.022	2621
833.16	2686
833.299	2689
833.437	2727
833.576	2743
833.714	2743
833.852	2785
833.991	2792
834.129	2857
834.267	2857
834.406	2811
834.544	2887
834.682	2929
834.821	2902
834.959	3100
835.097	2937
835.235	3058
835.373	3005
835.511	3039
835.65	2994
835.788	2971
835.926	2857
836.064	2796
836.202	2906
836.34	3138
836.478	3173
836.615	3116
836.753	3184
836.891	3226
837.029	3226
837.167	3135
837.305	3081
837.443	3085
837.58	2994
837.718	3203
837.856	3055
837.993	3074
838.131	3150
838.269	3093
838.406	3138
838.544	3127
838.681	2998
838.819	2941
838.956	2834
839.094	2834
839.231	2994
839.369	3081
839.506	3389
839.643	3264
839.781	3032
839.918	2990
840.055	3097
840.193	3070
840.33	3123
840.467	3150
840.604	3154
840.742	3435
840.879	3070
841.016	3100
841.153	3123
841.29	3359
841.427	3313
841.564	3325
841.701	3332
841.838	3275
841.975	3176
842.112	3218
842.249	3097
842.385	3066
842.522	3310
842.659	3116
842.796	3089
842.933	3150
843.069	3093
843.206	3058
843.343	3207
843.479	3127
843.616	3169
843.752	2918
843.889	2925
844.025	3089
844.162	2906
844.298	3085
844.435	2982
844.571	2982
844.708	3100
844.844	3214
844.98	3233
845.117	3211
845.253	3093
845.389	3043
845.525	3108
845.661	3135
845.798	3043
845.934	3157
846.07	3070
846.206	3253
846.342	3348
846.478	3218
846.614	3097
846.75	3039
846.886	3047
847.022	3283
847.158	3150
847.294	3207
847.429	3256
847.565	3233
847.701	3496
847.837	3043
847.972	3024
848.108	3142
848.244	3184
848.379	3020
848.515	2971
848.65	2941
848.786	2998
848.921	3043
849.057	3131
849.192	3165
849.328	3062
849.463	3123
849.598	3066
849.734	3043
849.869	3013
850.004	2925
850.14	2990
850.275	2960
850.41	2857
850.545	2925
850.68	2960
850.815	2979
850.95	3001
851.085	3214
851.22	3119
851.355	3055
851.49	2979
851.625	3043
851.76	3047
851.895	2967
852.03	2982
852.165	3032
852.299	3123
852.434	3245
852.569	3169
852.703	3199
852.838	3302
852.973	3386
853.107	3321
853.242	3150
853.376	3161
853.511	2990
853.645	3028
853.78	3268
853.914	3146
854.048	3131
854.183	3131
854.317	3131
854.451	3313
854.585	3165
854.72	3127
854.854	3233
854.988	3070
855.122	3157
855.256	3005
855.39	3138
855.524	3237
855.658	3180
855.792	3169
855.926	3241
856.06	3226
856.194	3279
856.327	3169
856.461	3131
856.595	3104
856.729	3123
856.862	3268
856.996	3176
857.13	3237
857.263	3214
857.397	3287
857.53	3127
857.664	3233
857.797	3233
857.931	3298
858.064	3195
858.197	3230
858.331	3108
858.464	3135
858.597	3077
858.731	3138
858.864	3173
858.997	3131
859.13	3169
859.263	3218
859.396	3218
859.529	3074
859.662	3119
859.795	3089
859.928	3176
860.061	3272
860.194	3325
860.327	3150
860.46	3097
860.592	3245
860.725	3256
860.858	3245
860.99	3135
861.123	3085
861.256	3081
861.388	3150
861.521	3759
861.653	3077
861.786	3005
861.918	3020
862.05	3062
862.183	3108
862.315	3161
862.447	3260
862.58	3108
862.712	3001
862.844	2914
862.976	3066
863.108	3028
863.24	3477
863.372	2933
863.504	2998
863.636	2956
863.768	3043
863.9	3043
864.032	2918
864.164	2982
864.296	3017
864.428	3123
864.559	3104
864.691	3062
864.823	3077
864.954	3077
865.086	3077
865.217	3017
865.349	2994
865.48	3047
865.612	3039
865.743	3165
865.875	3001
866.006	2948
866.137	2998
866.269	2952
866.4	2952
866.531	2933
866.662	2883
866.793	2925
866.924	2918
867.055	2994
867.186	2944
867.317	2883
867.448	2872
867.579	2868
867.71	2906
867.841	2834
867.972	2925
868.103	2872
868.233	2861
868.364	2906
868.495	2914
868.625	3138
868.756	3214
868.886	3017
869.017	3020
869.147	3195
869.278	3188
869.408	3055
869.539	3051
869.669	3104
869.799	3036
869.929	3123
870.06	3108
870.19	3302
870.32	3291
870.45	3306
870.58	3405
870.71	3496
870.84	3439
870.97	3283
871.1	3287
871.23	3496
871.36	3431
871.489	3397
871.619	3416
871.749	3473
871.879	3447
872.008	3485
872.138	3382
872.267	3268
872.397	3169
872.526	3116
872.656	3051
872.785	3146
872.915	3272
873.044	3344
873.173	3249
873.303	3291
873.432	3256
873.561	3275
873.69	3195
873.819	3154
873.948	3226
874.077	3116
874.206	3024
874.335	3089
874.464	3241
874.593	3359
874.722	3260
874.851	3378
874.979	3374
875.108	3321
875.237	3264
875.365	3192
875.494	3161
875.623	3272
875.751	3135
875.88	3131
876.008	3195
876.136	3256
876.265	3348
876.393	3568
876.521	3431
876.65	3401
876.778	3389
876.906	3294
877.034	3199
877.162	3291
877.29	3192
877.418	3272
877.546	3253
877.674	3268
877.802	3241
877.93	3222
878.058	3176
878.185	3074
878.313	3272
878.441	3226
878.568	3081
878.696	3157
878.824	3272
878.951	3332
879.079	3431
879.206	3644
879.333	3409
879.461	3355
879.588	3393
879.715	3511
879.842	3564
879.97	3382
880.097	3195
880.224	3157
880.351	3218
880.478	3230
880.605	3249
880.732	3176
880.859	3504
880.986	3321
881.112	3336
881.239	3207
881.366	3104
881.493	3089
881.619	3024
881.746	3108
881.872	3119
881.999	3123
882.125	3127
882.252	3275
882.378	3298
882.505	3405
882.631	3245
882.757	3150
882.883	3230
883.01	3256
883.136	3203
883.262	3108
883.388	3127
883.514	3317
883.64	3382
883.766	3313
883.892	3154
884.018	3268
884.143	3409
884.269	3603
884.395	3253
884.52	3161
884.646	3192
884.772	3154
884.897	3081
885.023	3275
885.148	3355
885.274	3435
885.399	3351
885.524	3313
885.65	3279
885.775	3340
885.9	3260
886.025	3443
886.15	3359
886.275	3306
886.4	3302
886.525	3313
886.65	3275
886.775	3260
886.9	3504
887.025	3637
887.149	3428
887.274	3287
887.399	3180
887.523	3195
887.648	3184
887.773	3214
887.897	3393
888.021	3431
888.146	3336
888.27	3454
888.395	3504
888.519	3435
888.643	3424
888.767	3458
888.891	3298
889.015	3253
889.139	3325
889.263	3268
889.387	3428
889.511	3561
889.635	3469
889.759	3310
889.883	3298
890.006	3389
890.13	3511
890.254	3287
890.377	3351
890.501	3241
890.624	3195
890.748	3332
890.871	3195
890.995	3150
891.118	3112
891.241	3203
891.364	3222
891.488	3317
891.611	3195
891.734	3241
891.857	3306
891.98	3272
892.103	3355
892.226	3291
892.349	3218
892.471	3100
892.594	3256
892.717	3321
892.839	3279
892.962	3351
893.085	3344
893.207	3283
893.33	3146
893.452	3195
893.575	3355
893.697	3260
893.819	3485
893.941	3526
894.064	3424
894.186	3275
894.308	3279
894.43	3469
894.552	3530
894.674	3473
894.796	3256
894.918	3329
895.04	3310
895.161	3454
895.283	3431
895.405	3313
895.526	3348
895.648	3431
895.769	3435
895.891	3462
896.012	3462
896.134	3485
896.255	3424
896.376	3401
896.498	3393
896.619	3428
896.74	3363
896.861	3389
896.982	3671
897.103	3842
897.224	3637
897.345	3523
897.466	3409
897.587	3443
897.708	3648
897.828	3580
897.949	3435
898.07	3359
898.19	3428
898.311	3603
898.431	3473
898.552	3496
898.672	3618
898.792	3599
898.913	3500
899.033	3420
899.153	3306
899.273	3222
899.393	3313
899.513	3298
899.633	3321
899.753	3336
899.873	3325
899.993	3412
900.113	3393
900.232	3355
900.352	3321
900.472	3332
900.591	3207
900.711	3306
900.83	3283
900.95	3409
901.069	3500
901.189	3405
901.308	3230
901.427	3097
901.546	3138
901.665	3294
901.784	3336
901.904	3264
902.023	3154
902.141	3032
902.26	3032
902.379	3135
902.498	3058
902.617	3085
902.735	3249
902.854	3272
902.973	3207
903.091	3066
903.21	3108
903.328	3157
903.446	3135
903.565	3142
903.683	3211
903.801	3131
903.919	3214
904.038	3313
904.156	3157
904.274	3256
904.392	3272
904.51	3291
904.627	3313
904.745	3454
904.863	3473
904.981	3256
905.098	3192
905.216	3256
905.334	3283
905.451	3287
905.569	3310
905.686	3447
905.803	3435
905.921	3306
906.038	3431
906.155	3359
906.272	3291
906.389	3325
906.506	3245
906.623	3317
906.74	3287
906.857	3176
906.974	3264
907.091	3466
907.208	3557
907.324	3481
907.441	3443
907.557	3241
907.674	3233
907.79	3222
907.907	3310
908.023	3412
908.139	3367
908.256	3306
908.372	3367
908.488	3393
908.604	3233
908.72	3245
908.836	3249
908.952	3294
909.068	3348
909.184	3450
909.3	3424
909.415	3511
909.531	3477
909.647	3260
909.762	3310
909.878	3245
909.993	3340
910.108	3359
910.224	3355
910.339	3401
910.454	3336
910.57	3306
910.685	3264
910.8	3549
910.915	3553
911.03	3454
911.145	3272
911.259	3275
911.374	3351
911.489	3249
911.604	3203
911.718	3146
911.833	3146
911.947	3020
912.062	3028
912.176	3169
912.291	3176
912.405	3214
912.519	3477
912.633	3466
912.748	3348
912.862	3287
912.976	3173
913.09	3085
913.204	3142
913.318	3195
913.431	3325
913.545	3336
913.659	3454
913.772	3355
913.886	3199
914	3214
914.113	3348
914.226	3401
914.34	3355
914.453	3214
914.566	3428
914.68	3283
914.793	3291
914.906	3112
915.019	3081
915.132	3100
915.245	3157
915.358	3199
915.47	3230
915.583	3249
915.696	3302
915.809	3420
915.921	3428
916.034	3245
916.146	3230
916.259	3256
916.371	3420
916.483	3363
916.595	3306
916.708	3359
916.82	3370
916.932	3344
917.044	3359
917.156	3355
917.268	3264
917.38	3298
917.491	3313
917.603	3336
917.715	3443
917.826	3450
917.938	3393
918.049	3260
918.161	3435
918.272	3545
918.384	3553
918.495	3492
918.606	3359
918.717	3306
918.828	3401
918.939	3378
919.05	3329
919.161	3340
919.272	3218
919.383	3294
919.494	3515
919.604	3732
919.715	3500
919.826	3355
919.936	3473
920.047	3622
920.157	3515
920.267	3770
920.378	3610
920.488	3587
920.598	3770
920.708	3983
920.818	3804
920.928	3831
921.038	4006
921.148	4036
921.258	3713
921.368	3641
921.477	3568
921.587	3545
921.697	3469
921.806	3652
921.916	3504
922.025	3340
922.134	3386
922.244	3306
922.353	3405
922.462	3306
922.571	3226
922.68	3081
922.789	3077
922.898	3150
923.007	3081
923.116	3226
923.224	3165
923.333	3207
923.442	3108
923.55	3112
923.659	3142
923.767	3222
923.876	3135
923.984	3218
924.092	3100
924.201	3207
924.309	3237
924.417	3268
924.525	3218
924.633	3218
924.741	4021
924.849	3032
924.956	3268
925.064	3119
925.172	3051
925.279	3119
925.387	3188
925.494	3199
925.602	3359
925.709	3351
925.816	3199
925.924	3298
926.031	3363
926.138	3340
926.245	3336
926.352	3275
926.459	3382
926.566	3473
926.673	3336
926.779	3268
926.886	3253
926.993	3154
927.099	3142
927.206	3127
927.312	3131
927.419	3245
927.525	3173
927.631	3264
927.737	3165
927.843	3104
927.95	3020
928.056	3146
928.162	3142
928.267	3214
928.373	3915
928.479	3348
928.585	3108
928.69	3249
928.796	3237
928.901	3199
929.007	3051
929.112	3176
929.218	3169
929.323	3154
929.428	3119
929.533	3279
929.638	3093
929.743	3192
929.848	3272
929.953	3214
930.058	3150
930.163	2982
930.267	3070
930.372	3226
930.477	3066
930.581	3325
930.685	3180
930.79	3039
930.894	3112
930.998	3100
931.103	3291
931.207	2929
931.311	2952
931.415	2914
931.519	2769
931.623	2788
