Data from test_V78500241_745.txt Node
Date: Fri Mar 25 16:20:21 CST 2022
User: usil
Spectrometer: V785-0024
Trigger mode: 0
Integration Time (sec): 4.000000E-1
Scans to average: 1
Nonlinearity correction enabled: false
Boxcar width: 0
Storing dark spectrum: false
XAxis mode: Wavelengths
Number of Pixels in Spectrum: 1024
>>>>>Begin Spectral Data<<<<<
801.071	2891
801.214	2910
801.356	2864
801.499	2857
801.641	2857
801.783	2914
801.926	3066
802.068	2986
802.211	2975
802.353	3020
802.496	2944
802.638	3024
802.78	3020
802.923	3036
803.065	2967
803.208	2914
803.35	2914
803.492	2944
803.635	2902
803.777	2792
803.919	2880
804.061	3180
804.204	2944
804.346	2937
804.488	2830
804.63	2998
804.773	2857
804.915	2899
805.057	3100
805.199	2891
805.341	2971
805.483	3032
805.626	2986
805.768	2971
805.91	3081
806.052	3085
806.194	3024
806.336	3214
806.478	3043
806.62	2944
806.762	2994
806.904	3043
807.046	3138
807.188	2975
807.33	2925
807.472	3001
807.614	2948
807.756	2998
807.898	2906
808.04	2868
808.182	2971
808.324	2948
808.465	2861
808.607	2872
808.749	2804
808.891	2830
809.033	2963
809.174	2986
809.316	2906
809.458	2891
809.6	2773
809.741	2735
809.883	2773
810.025	2823
810.166	2842
810.308	2796
810.45	2826
810.591	2777
810.733	2785
810.875	2853
811.016	2788
811.158	2746
811.299	2800
811.441	2944
811.582	2899
811.724	2853
811.865	2807
812.007	2887
812.148	2880
812.29	2834
812.431	2872
812.573	2925
812.714	2960
812.855	3062
812.997	3039
813.138	3100
813.279	3020
813.421	2990
813.562	2956
813.703	2883
813.845	2887
813.986	2769
814.127	2701
814.268	2815
814.41	2872
814.551	2788
814.692	2880
814.833	2819
814.974	2880
815.115	2906
815.256	2792
815.397	2834
815.539	2861
815.68	2754
815.821	2796
815.962	2933
816.103	2960
816.244	2880
816.385	2853
816.526	2979
816.666	2910
816.807	2758
816.948	2918
817.089	2906
817.23	2857
817.371	2815
817.512	2773
817.653	2853
817.793	2792
817.934	2906
818.075	2941
818.216	2990
818.356	3017
818.497	2849
818.638	2762
818.778	2826
818.919	2785
819.06	2731
819.2	2864
819.341	2845
819.481	2762
819.622	2948
819.762	3108
819.903	3043
820.043	2922
820.184	2883
820.324	2906
820.465	3032
820.605	3055
820.746	3051
820.886	2895
821.026	3089
821.167	3173
821.307	3245
821.447	3264
821.588	3180
821.728	3176
821.868	3173
822.008	3100
822.149	3226
822.289	3249
822.429	3070
822.569	3032
822.709	3157
822.849	3032
822.99	3036
823.13	3131
823.27	3157
823.41	3135
823.55	3157
823.69	3165
823.83	3150
823.97	3119
824.11	3017
824.25	2982
824.389	3062
824.529	3123
824.669	3089
824.809	3192
824.949	3249
825.089	3192
825.228	3157
825.368	3005
825.508	2948
825.648	2975
825.787	3043
825.927	3028
826.067	2937
826.206	2948
826.346	3043
826.485	3070
826.625	3097
826.765	3268
826.904	3199
827.044	2994
827.183	2891
827.323	2864
827.462	2971
827.601	2887
827.741	2937
827.88	2948
828.02	2864
828.159	2960
828.298	3005
828.437	3066
828.577	3051
828.716	3241
828.855	3070
828.994	2887
829.134	2906
829.273	2914
829.412	2838
829.551	2880
829.69	2887
829.829	2952
829.968	3154
830.107	3001
830.246	3028
830.385	2922
830.524	2868
830.663	2788
830.802	2720
830.941	2632
831.08	2689
831.219	2724
831.357	2766
831.496	2986
831.635	2705
831.774	2648
831.913	2667
832.051	2530
832.19	2560
832.329	2693
832.467	2530
832.606	2476
832.744	2598
832.883	2545
833.022	2590
833.16	2667
833.299	2701
833.437	2686
833.576	2670
833.714	2727
833.852	2727
833.991	2758
834.129	2826
834.267	2849
834.406	2788
834.544	2861
834.682	2853
834.821	2861
834.959	3058
835.097	2895
835.235	3055
835.373	2998
835.511	3005
835.65	2994
835.788	2963
835.926	2804
836.064	2777
836.202	2823
836.34	3066
836.478	3112
836.615	3047
836.753	3127
836.891	3180
837.029	3165
837.167	3093
837.305	3005
837.443	3020
837.58	2967
837.718	3119
837.856	3062
837.993	3036
838.131	3104
838.269	3100
838.406	3104
838.544	3039
838.681	2922
838.819	2929
838.956	2777
839.094	2849
839.231	2902
839.369	3017
839.506	3386
839.643	3161
839.781	3017
839.918	2910
840.055	3013
840.193	3036
840.33	3066
840.467	3085
840.604	3135
840.742	3393
840.879	3070
841.016	3051
841.153	3058
841.29	3336
841.427	3253
841.564	3253
841.701	3287
841.838	3249
841.975	3165
842.112	3222
842.249	3058
842.385	2998
842.522	3264
842.659	3085
842.796	3039
842.933	3112
843.069	3043
843.206	3017
843.343	3173
843.479	3116
843.616	3135
843.752	2891
843.889	2861
844.025	3081
844.162	2880
844.298	3074
844.435	2929
844.571	2899
844.708	3051
844.844	3169
844.98	3249
845.117	3203
845.253	3043
845.389	2998
845.525	3123
845.661	3119
845.798	3005
845.934	3108
846.07	3074
846.206	3218
846.342	3313
846.478	3214
846.614	3055
846.75	3070
846.886	3009
847.022	3256
847.158	3085
847.294	3211
847.429	3199
847.565	3199
847.701	3447
847.837	3047
847.972	2944
848.108	3195
848.244	3131
848.379	3039
848.515	2937
848.65	2899
848.786	2952
848.921	3028
849.057	3089
849.192	3104
849.328	3043
849.463	3074
849.598	3009
849.734	3013
849.869	2963
850.004	2906
850.14	2948
850.275	2883
850.41	2834
850.545	2880
850.68	2933
850.815	2971
850.95	2967
851.085	3161
851.22	3119
851.355	2979
851.49	2948
851.625	2941
851.76	3017
851.895	2918
852.03	2906
852.165	3036
852.299	3089
852.434	3199
852.569	3131
852.703	3165
852.838	3214
852.973	3329
853.107	3359
853.242	3112
853.376	3085
853.511	2948
853.645	3039
853.78	3188
853.914	3135
854.048	3116
854.183	3062
854.317	3123
854.451	3279
854.585	3100
854.72	3104
854.854	3241
854.988	3009
855.122	3100
855.256	2990
855.39	3089
855.524	3222
855.658	3180
855.792	3150
855.926	3157
856.06	3214
856.194	3264
856.327	3131
856.461	3062
856.595	3085
856.729	3093
856.862	3173
856.996	3142
857.13	3203
857.263	3237
857.397	3253
857.53	3146
857.664	3176
857.797	3203
857.931	3233
858.064	3154
858.197	3218
858.331	3100
858.464	3108
858.597	2956
858.731	3081
858.864	3138
858.997	3123
859.13	3142
859.263	3176
859.396	3176
859.529	3074
859.662	3097
859.795	3009
859.928	3127
860.061	3272
860.194	3245
860.327	3131
860.46	3081
860.592	3226
860.725	3249
860.858	3237
860.99	3070
861.123	2990
861.256	3039
861.388	3150
861.521	3884
861.653	2998
861.786	2990
861.918	2941
862.05	3058
862.183	3104
862.315	3127
862.447	3165
862.58	3074
862.712	2941
862.844	2868
862.976	3001
863.108	2960
863.24	3424
863.372	2842
863.504	2937
863.636	2960
863.768	2975
863.9	2986
864.032	2910
864.164	2895
864.296	3005
864.428	3074
864.559	3070
864.691	3085
864.823	3047
864.954	3017
865.086	3020
865.217	2979
865.349	2960
865.48	2982
865.612	3020
865.743	3169
865.875	2986
866.006	3001
866.137	2971
866.269	2925
866.4	2899
866.531	2902
866.662	2872
866.793	2910
866.924	2895
867.055	2979
867.186	2933
867.317	2910
867.448	2826
867.579	2845
867.71	2830
867.841	2815
867.972	2899
868.103	2891
868.233	2864
868.364	2880
868.495	2880
868.625	3085
868.756	3169
868.886	2971
869.017	3017
869.147	3165
869.278	3176
869.408	3028
869.539	3032
869.669	3093
869.799	3013
869.929	3150
870.06	3100
870.19	3317
870.32	3264
870.45	3287
870.58	3344
870.71	3443
870.84	3409
870.97	3291
871.1	3226
871.23	3462
871.36	3447
871.489	3344
871.619	3374
871.749	3386
871.879	3443
872.008	3466
872.138	3344
872.267	3279
872.397	3165
872.526	3093
872.656	3005
872.785	3070
872.915	3237
873.044	3283
873.173	3218
873.303	3264
873.432	3230
873.561	3283
873.69	3146
873.819	3112
873.948	3165
874.077	3116
874.206	3055
874.335	3085
874.464	3192
874.593	3329
874.722	3256
874.851	3412
874.979	3329
875.108	3291
875.237	3184
875.365	3184
875.494	3142
875.623	3233
875.751	3089
875.88	3089
876.008	3165
876.136	3249
876.265	3351
876.393	3507
876.521	3370
876.65	3431
876.778	3344
876.906	3230
877.034	3184
877.162	3173
877.29	3176
877.418	3245
877.546	3260
877.674	3222
877.802	3218
877.93	3218
878.058	3142
878.185	3104
878.313	3184
878.441	3195
878.568	3028
878.696	3135
878.824	3214
878.951	3268
879.079	3405
879.206	3580
879.333	3401
879.461	3340
879.588	3351
879.715	3511
879.842	3599
879.97	3367
880.097	3127
880.224	3131
880.351	3192
880.478	3218
880.605	3165
880.732	3161
880.859	3473
880.986	3302
881.112	3317
881.239	3199
881.366	3093
881.493	3028
881.619	2998
881.746	3070
881.872	3104
881.999	3032
882.125	3138
882.252	3214
882.378	3294
882.505	3401
882.631	3287
882.757	3154
882.883	3226
883.01	3199
883.136	3142
883.262	3097
883.388	3112
883.514	3306
883.64	3401
883.766	3306
883.892	3180
884.018	3241
884.143	3435
884.269	3542
884.395	3176
884.52	3150
884.646	3180
884.772	3131
884.897	3058
885.023	3241
885.148	3336
885.274	3443
885.399	3355
885.524	3275
885.65	3233
885.775	3291
885.9	3268
886.025	3435
886.15	3367
886.275	3260
886.4	3222
886.525	3310
886.65	3256
886.775	3317
886.9	3515
887.025	3629
887.149	3420
887.274	3249
887.399	3169
887.523	3173
887.648	3169
887.773	3192
887.897	3393
888.021	3409
888.146	3291
888.27	3397
888.395	3523
888.519	3386
888.643	3439
888.767	3431
888.891	3291
889.015	3226
889.139	3291
889.263	3272
889.387	3397
889.511	3519
889.635	3458
889.759	3321
889.883	3260
890.006	3351
890.13	3492
890.254	3237
890.377	3325
890.501	3173
890.624	3199
890.748	3310
890.871	3176
890.995	3081
891.118	3074
891.241	3207
891.364	3230
891.488	3302
891.611	3154
891.734	3214
891.857	3294
891.98	3233
892.103	3291
892.226	3203
892.349	3207
892.471	3077
892.594	3211
892.717	3272
892.839	3264
892.962	3275
893.085	3355
893.207	3321
893.33	3123
893.452	3207
893.575	3325
893.697	3195
893.819	3435
893.941	3504
894.064	3447
894.186	3230
894.308	3256
894.43	3389
894.552	3507
894.674	3462
894.796	3294
894.918	3256
895.04	3332
895.161	3409
895.283	3370
895.405	3325
895.526	3397
895.648	3416
895.769	3428
895.891	3424
896.012	3526
896.134	3488
896.255	3409
896.376	3370
896.498	3374
896.619	3409
896.74	3332
896.861	3401
896.982	3682
897.103	3831
897.224	3587
897.345	3477
897.466	3443
897.587	3485
897.708	3595
897.828	3511
897.949	3439
898.07	3321
898.19	3378
898.311	3603
898.431	3405
898.552	3507
898.672	3591
898.792	3584
898.913	3530
899.033	3428
899.153	3294
899.273	3203
899.393	3294
899.513	3313
899.633	3279
899.753	3348
899.873	3275
899.993	3382
900.113	3370
900.232	3393
900.352	3344
900.472	3294
900.591	3157
900.711	3306
900.83	3226
900.95	3420
901.069	3504
901.189	3325
901.308	3169
901.427	3127
901.546	3165
901.665	3245
901.784	3294
901.904	3222
902.023	3127
902.141	3032
902.26	2982
902.379	3135
902.498	3070
902.617	3062
902.735	3218
902.854	3195
902.973	3169
903.091	3039
903.21	3039
903.328	3146
903.446	3089
903.565	3074
903.683	3180
903.801	3100
903.919	3283
904.038	3256
904.156	3180
904.274	3283
904.392	3245
904.51	3245
904.627	3359
904.745	3447
904.863	3454
904.981	3233
905.098	3176
905.216	3207
905.334	3283
905.451	3272
905.569	3321
905.686	3424
905.803	3428
905.921	3253
906.038	3439
906.155	3348
906.272	3268
906.389	3325
906.506	3203
906.623	3222
906.74	3256
906.857	3165
906.974	3241
907.091	3466
907.208	3568
907.324	3496
907.441	3386
907.557	3214
907.674	3226
907.79	3218
907.907	3241
908.023	3382
908.139	3359
908.256	3329
908.372	3367
908.488	3351
908.604	3237
908.72	3245
908.836	3298
908.952	3279
909.068	3355
909.184	3488
909.3	3374
909.415	3504
909.531	3469
909.647	3313
909.762	3268
909.878	3245
909.993	3344
910.108	3294
910.224	3382
910.339	3431
910.454	3325
910.57	3313
910.685	3237
910.8	3568
910.915	3511
911.03	3428
911.145	3298
911.259	3253
911.374	3302
911.489	3195
911.604	3222
911.718	3116
911.833	3165
911.947	3024
912.062	2982
912.176	3165
912.291	3207
912.405	3180
912.519	3443
912.633	3473
912.748	3325
912.862	3241
912.976	3165
913.09	3085
913.204	3119
913.318	3230
913.431	3317
913.545	3332
913.659	3447
913.772	3348
913.886	3214
914	3195
914.113	3340
914.226	3397
914.34	3355
914.453	3165
914.566	3397
914.68	3325
914.793	3306
914.906	3112
915.019	3070
915.132	3047
915.245	3188
915.358	3222
915.47	3226
915.583	3298
915.696	3241
915.809	3401
915.921	3428
916.034	3249
916.146	3233
916.259	3222
916.371	3389
916.483	3359
916.595	3310
916.708	3313
916.82	3332
916.932	3310
917.044	3355
917.156	3355
917.268	3237
917.38	3283
917.491	3260
917.603	3389
917.715	3443
917.826	3469
917.938	3359
918.049	3253
918.161	3409
918.272	3572
918.384	3568
918.495	3492
918.606	3302
918.717	3249
918.828	3374
918.939	3389
919.05	3260
919.161	3386
919.272	3199
919.383	3260
919.494	3462
919.604	3682
919.715	3485
919.826	3412
919.936	3416
920.047	3561
920.157	3572
920.267	3774
920.378	3576
920.488	3553
920.598	3804
920.708	3915
920.818	3793
920.928	3804
921.038	4029
921.148	3975
921.258	3732
921.368	3599
921.477	3572
921.587	3564
921.697	3477
921.806	3625
921.916	3515
922.025	3351
922.134	3382
922.244	3306
922.353	3412
922.462	3268
922.571	3207
922.68	3097
922.789	3070
922.898	3119
923.007	3100
923.116	3188
923.224	3165
923.333	3180
923.442	3032
923.55	3104
923.659	3154
923.767	3203
923.876	3074
923.984	3226
924.092	3047
924.201	3192
924.309	3233
924.417	3203
924.525	3176
924.633	3195
924.741	4158
924.849	3020
924.956	3241
925.064	3093
925.172	3036
925.279	3089
925.387	3233
925.494	3222
925.602	3370
925.709	3336
925.816	3169
925.924	3272
926.031	3355
926.138	3317
926.245	3359
926.352	3253
926.459	3389
926.566	3492
926.673	3321
926.779	3233
926.886	3218
926.993	3157
927.099	3112
927.206	3077
927.312	3081
927.419	3233
927.525	3199
927.631	3287
927.737	3157
927.843	3108
927.95	3024
928.056	3112
928.162	3157
928.267	3256
928.373	3869
928.479	3291
928.585	3085
928.69	3245
928.796	3321
928.901	3165
929.007	3024
929.112	3214
929.218	3184
929.323	3146
929.428	3169
929.533	3344
929.638	3154
929.743	3195
929.848	3253
929.953	3207
930.058	3165
930.163	3028
930.267	3093
930.372	3264
930.477	3051
930.581	3340
930.685	3180
930.79	3108
930.894	3176
930.998	3154
931.103	3306
931.207	2990
931.311	2963
931.415	2941
931.519	2777
931.623	2868
