Data from test_V78500241_356.txt Node
Date: Fri Mar 25 16:17:40 CST 2022
User: usil
Spectrometer: V785-0024
Trigger mode: 0
Integration Time (sec): 4.000000E-1
Scans to average: 1
Nonlinearity correction enabled: false
Boxcar width: 0
Storing dark spectrum: false
XAxis mode: Wavelengths
Number of Pixels in Spectrum: 1024
>>>>>Begin Spectral Data<<<<<
801.071	2914
801.214	2922
801.356	2880
801.499	2883
801.641	2876
801.783	2895
801.926	3039
802.068	2967
802.211	3017
802.353	3039
802.496	2975
802.638	3020
802.78	3032
802.923	3097
803.065	2982
803.208	2910
803.35	2891
803.492	2933
803.635	2906
803.777	2766
803.919	2861
804.061	3161
804.204	2929
804.346	2899
804.488	2861
804.63	2960
804.773	2868
804.915	2922
805.057	3070
805.199	2922
805.341	2937
805.483	3039
805.626	2975
805.768	2990
805.91	3104
806.052	3077
806.194	3032
806.336	3230
806.478	2994
806.62	2933
806.762	2963
806.904	3039
807.046	3157
807.188	2975
807.33	2902
807.472	2990
807.614	2902
807.756	2971
807.898	2922
808.04	2887
808.182	2990
808.324	2914
808.465	2853
808.607	2861
808.749	2796
808.891	2838
809.033	2937
809.174	2960
809.316	2902
809.458	2845
809.6	2777
809.741	2766
809.883	2785
810.025	2819
810.166	2864
810.308	2845
810.45	2845
810.591	2777
810.733	2781
810.875	2807
811.016	2762
811.158	2743
811.299	2811
811.441	2891
811.582	2872
811.724	2845
811.865	2849
812.007	2861
812.148	2861
812.29	2838
812.431	2929
812.573	2952
812.714	2967
812.855	3055
812.997	3089
813.138	3135
813.279	3009
813.421	2990
813.562	2956
813.703	2842
813.845	2895
813.986	2762
814.127	2731
814.268	2800
814.41	2838
814.551	2792
814.692	2853
814.833	2777
814.974	2891
815.115	2941
815.256	2838
815.397	2800
815.539	2857
815.68	2785
815.821	2785
815.962	2922
816.103	2891
816.244	2872
816.385	2910
816.526	2941
816.666	2899
816.807	2743
816.948	2891
817.089	2944
817.23	2834
817.371	2754
817.512	2773
817.653	2830
817.793	2815
817.934	2876
818.075	2929
818.216	2971
818.356	3036
818.497	2876
818.638	2781
818.778	2834
818.919	2807
819.06	2754
819.2	2902
819.341	2796
819.481	2849
819.622	2868
819.762	3081
819.903	3036
820.043	2895
820.184	2929
820.324	2891
820.465	3020
820.605	3017
820.746	3024
820.886	2963
821.026	3077
821.167	3150
821.307	3214
821.447	3272
821.588	3230
821.728	3146
821.868	3195
822.008	3062
822.149	3192
822.289	3207
822.429	3066
822.569	3104
822.709	3184
822.849	3055
822.99	3020
823.13	3161
823.27	3195
823.41	3077
823.55	3135
823.69	3123
823.83	3192
823.97	3074
824.11	2986
824.25	2998
824.389	3043
824.529	3081
824.669	3093
824.809	3180
824.949	3249
825.089	3192
825.228	3150
825.368	2982
825.508	2960
825.648	2971
825.787	3001
825.927	3028
826.067	2960
826.206	2899
826.346	3077
826.485	3112
826.625	3077
826.765	3230
826.904	3173
827.044	2975
827.183	2899
827.323	2868
827.462	2975
827.601	2914
827.741	2948
827.88	2952
828.02	2838
828.159	2956
828.298	3013
828.437	3138
828.577	3024
828.716	3222
828.855	3074
828.994	2899
829.134	2876
829.273	2899
829.412	2845
829.551	2838
829.69	2880
829.829	2990
829.968	3165
830.107	2998
830.246	3024
830.385	2902
830.524	2883
830.663	2826
830.802	2739
830.941	2640
831.08	2640
831.219	2754
831.357	2727
831.496	2944
831.635	2712
831.774	2644
831.913	2644
832.051	2533
832.19	2579
832.329	2659
832.467	2499
832.606	2427
832.744	2575
832.883	2590
833.022	2583
833.16	2667
833.299	2659
833.437	2667
833.576	2689
833.714	2750
833.852	2708
833.991	2739
834.129	2853
834.267	2804
834.406	2788
834.544	2880
834.682	2830
834.821	2872
834.959	3024
835.097	2914
835.235	3039
835.373	2967
835.511	3020
835.65	2918
835.788	2956
835.926	2842
836.064	2807
836.202	2830
836.34	3051
836.478	3142
836.615	3043
836.753	3089
836.891	3180
837.029	3161
837.167	3100
837.305	3100
837.443	3024
837.58	2956
837.718	3119
837.856	3051
837.993	2975
838.131	3112
838.269	3055
838.406	3081
838.544	3024
838.681	2944
838.819	2910
838.956	2826
839.094	2853
839.231	2880
839.369	3005
839.506	3336
839.643	3237
839.781	3013
839.918	2944
840.055	3058
840.193	3062
840.33	3028
840.467	3062
840.604	3131
840.742	3389
840.879	3024
841.016	3024
841.153	3131
841.29	3336
841.427	3283
841.564	3260
841.701	3287
841.838	3176
841.975	3173
842.112	3207
842.249	3074
842.385	3028
842.522	3241
842.659	3077
842.796	3024
842.933	3066
843.069	3074
843.206	3047
843.343	3131
843.479	3100
843.616	3093
843.752	2899
843.889	2864
844.025	3043
844.162	2864
844.298	3055
844.435	2925
844.571	2891
844.708	3077
844.844	3180
844.98	3226
845.117	3184
845.253	3032
845.389	2982
845.525	3074
845.661	3104
845.798	2975
845.934	3100
846.07	3058
846.206	3222
846.342	3313
846.478	3150
846.614	3047
846.75	3036
846.886	3005
847.022	3211
847.158	3104
847.294	3150
847.429	3241
847.565	3184
847.701	3466
847.837	3032
847.972	3020
848.108	3085
848.244	3146
848.379	2948
848.515	2891
848.65	2891
848.786	2952
848.921	3036
849.057	3116
849.192	3119
849.328	3119
849.463	3116
849.598	3043
849.734	3062
849.869	2960
850.004	2914
850.14	3013
850.275	2937
850.41	2811
850.545	2948
850.68	2952
850.815	2918
850.95	2986
851.085	3199
851.22	3093
851.355	3055
851.49	2998
851.625	3028
851.76	3055
851.895	2944
852.03	2922
852.165	3020
852.299	3138
852.434	3180
852.569	3142
852.703	3195
852.838	3291
852.973	3351
853.107	3378
853.242	3188
853.376	3116
853.511	2986
853.645	3070
853.78	3233
853.914	3165
854.048	3146
854.183	3131
854.317	3192
854.451	3325
854.585	3150
854.72	3119
854.854	3256
854.988	3119
855.122	3135
855.256	2986
855.39	3157
855.524	3268
855.658	3226
855.792	3199
855.926	3165
856.06	3260
856.194	3313
856.327	3192
856.461	3093
856.595	3119
856.729	3135
856.862	3268
856.996	3188
857.13	3256
857.263	3249
857.397	3363
857.53	3165
857.664	3222
857.797	3226
857.931	3317
858.064	3188
858.197	3237
858.331	3157
858.464	3169
858.597	3032
858.731	3192
858.864	3207
858.997	3146
859.13	3192
859.263	3188
859.396	3222
859.529	3142
859.662	3100
859.795	3077
859.928	3176
860.061	3329
860.194	3321
860.327	3180
860.46	3089
860.592	3268
860.725	3294
860.858	3287
860.99	3131
861.123	3093
861.256	3058
861.388	3180
861.521	3797
861.653	3058
861.786	2994
861.918	3062
862.05	3093
862.183	3085
862.315	3176
862.447	3249
862.58	3146
862.712	2967
862.844	2887
862.976	3047
863.108	3036
863.24	3401
863.372	2933
863.504	3020
863.636	2994
863.768	3058
863.9	3005
864.032	2967
864.164	2998
864.296	3024
864.428	3123
864.559	3131
864.691	3112
864.823	3093
864.954	3085
865.086	3055
865.217	3020
865.349	2982
865.48	2975
865.612	3112
865.743	3230
865.875	2948
866.006	2902
866.137	3024
866.269	2941
866.4	2941
866.531	2929
866.662	2944
866.793	2891
866.924	2906
867.055	2979
867.186	2979
867.317	2922
867.448	2880
867.579	2887
867.71	2914
867.841	2845
867.972	2925
868.103	2979
868.233	2910
868.364	2887
868.495	2994
868.625	3112
868.756	3211
868.886	3005
869.017	3039
869.147	3173
869.278	3176
869.408	3047
869.539	3051
869.669	3112
869.799	3077
869.929	3154
870.06	3123
870.19	3302
870.32	3298
870.45	3287
870.58	3389
870.71	3477
870.84	3500
870.97	3374
871.1	3260
871.23	3488
871.36	3447
871.489	3374
871.619	3454
871.749	3435
871.879	3424
872.008	3485
872.138	3382
872.267	3287
872.397	3214
872.526	3154
872.656	3043
872.785	3157
872.915	3298
873.044	3367
873.173	3256
873.303	3245
873.432	3253
873.561	3275
873.69	3203
873.819	3192
873.948	3233
874.077	3150
874.206	3062
874.335	3085
874.464	3268
874.593	3348
874.722	3279
874.851	3424
874.979	3370
875.108	3359
875.237	3249
875.365	3188
875.494	3184
875.623	3302
875.751	3108
875.88	3123
876.008	3233
876.136	3245
876.265	3359
876.393	3530
876.521	3428
876.65	3443
876.778	3344
876.906	3268
877.034	3241
877.162	3268
877.29	3218
877.418	3302
877.546	3256
877.674	3253
877.802	3268
877.93	3241
878.058	3150
878.185	3173
878.313	3241
878.441	3218
878.568	3093
878.696	3188
878.824	3302
878.951	3332
879.079	3458
879.206	3652
879.333	3458
879.461	3378
879.588	3370
879.715	3519
879.842	3663
879.97	3420
880.097	3173
880.224	3142
880.351	3203
880.478	3237
880.605	3199
880.732	3260
880.859	3507
880.986	3332
881.112	3340
881.239	3249
881.366	3135
881.493	3047
881.619	3081
881.746	3089
881.872	3138
881.999	3077
882.125	3154
882.252	3272
882.378	3359
882.505	3481
882.631	3321
882.757	3207
882.883	3222
883.01	3241
883.136	3214
883.262	3135
883.388	3138
883.514	3348
883.64	3428
883.766	3340
883.892	3214
884.018	3264
884.143	3454
884.269	3557
884.395	3241
884.52	3154
884.646	3226
884.772	3142
884.897	3161
885.023	3207
885.148	3329
885.274	3458
885.399	3397
885.524	3313
885.65	3283
885.775	3348
885.9	3275
886.025	3481
886.15	3389
886.275	3329
886.4	3241
886.525	3329
886.65	3294
886.775	3294
886.9	3538
887.025	3656
887.149	3424
887.274	3264
887.399	3207
887.523	3199
887.648	3199
887.773	3230
887.897	3397
888.021	3431
888.146	3329
888.27	3462
888.395	3580
888.519	3458
888.643	3450
888.767	3466
888.891	3317
889.015	3272
889.139	3355
889.263	3264
889.387	3416
889.511	3534
889.635	3469
889.759	3306
889.883	3348
890.006	3401
890.13	3511
890.254	3275
890.377	3378
890.501	3233
890.624	3214
890.748	3306
890.871	3230
890.995	3135
891.118	3043
891.241	3199
891.364	3260
891.488	3344
891.611	3195
891.734	3256
891.857	3291
891.98	3241
892.103	3386
892.226	3302
892.349	3222
892.471	3127
892.594	3268
892.717	3313
892.839	3321
892.962	3317
893.085	3378
893.207	3298
893.33	3169
893.452	3245
893.575	3310
893.697	3291
893.819	3454
893.941	3564
894.064	3454
894.186	3275
894.308	3264
894.43	3435
894.552	3557
894.674	3473
894.796	3291
894.918	3336
895.04	3329
895.161	3439
895.283	3447
895.405	3348
895.526	3374
895.648	3431
895.769	3424
895.891	3458
896.012	3515
896.134	3462
896.255	3439
896.376	3393
896.498	3389
896.619	3481
896.74	3435
896.861	3477
896.982	3660
897.103	3865
897.224	3595
897.345	3534
897.466	3416
897.587	3496
897.708	3622
897.828	3610
897.949	3450
898.07	3351
898.19	3447
898.311	3633
898.431	3454
898.552	3553
898.672	3618
898.792	3584
898.913	3561
899.033	3420
899.153	3294
899.273	3253
899.393	3287
899.513	3310
899.633	3321
899.753	3355
899.873	3325
899.993	3424
900.113	3359
900.232	3439
900.352	3351
900.472	3351
900.591	3222
900.711	3351
900.83	3294
900.95	3431
901.069	3488
901.189	3386
901.308	3226
901.427	3142
901.546	3192
901.665	3317
901.784	3348
901.904	3256
902.023	3188
902.141	3070
902.26	3020
902.379	3135
902.498	3085
902.617	3062
902.735	3218
902.854	3272
902.973	3230
903.091	3093
903.21	3074
903.328	3150
903.446	3116
903.565	3100
903.683	3233
903.801	3154
903.919	3283
904.038	3287
904.156	3207
904.274	3325
904.392	3317
904.51	3329
904.627	3348
904.745	3462
904.863	3492
904.981	3272
905.098	3195
905.216	3249
905.334	3332
905.451	3317
905.569	3321
905.686	3454
905.803	3458
905.921	3355
906.038	3454
906.155	3370
906.272	3294
906.389	3336
906.506	3268
906.623	3279
906.74	3256
906.857	3192
906.974	3275
907.091	3450
907.208	3591
907.324	3485
907.441	3431
907.557	3249
907.674	3233
907.79	3241
907.907	3340
908.023	3386
908.139	3378
908.256	3351
908.372	3409
908.488	3363
908.604	3325
908.72	3253
908.836	3275
908.952	3302
909.068	3378
909.184	3507
909.3	3409
909.415	3469
909.531	3488
909.647	3298
909.762	3294
909.878	3291
909.993	3386
910.108	3340
910.224	3329
910.339	3428
910.454	3294
910.57	3329
910.685	3211
910.8	3584
910.915	3542
911.03	3435
911.145	3298
911.259	3298
911.374	3306
911.489	3260
911.604	3233
911.718	3100
911.833	3131
911.947	3055
912.062	3009
912.176	3138
912.291	3199
912.405	3237
912.519	3458
912.633	3492
912.748	3332
912.862	3241
912.976	3203
913.09	3081
913.204	3154
913.318	3195
913.431	3374
913.545	3325
913.659	3393
913.772	3344
913.886	3195
914	3184
914.113	3348
914.226	3416
914.34	3386
914.453	3211
914.566	3401
914.68	3321
914.793	3329
914.906	3146
915.019	3142
915.132	3070
915.245	3135
915.358	3253
915.47	3245
915.583	3279
915.696	3279
915.809	3431
915.921	3420
916.034	3245
916.146	3245
916.259	3233
916.371	3386
916.483	3367
916.595	3298
916.708	3382
916.82	3321
916.932	3348
917.044	3336
917.156	3363
917.268	3226
917.38	3332
917.491	3348
917.603	3363
917.715	3458
917.826	3481
917.938	3409
918.049	3310
918.161	3473
918.272	3538
918.384	3591
918.495	3477
918.606	3313
918.717	3283
918.828	3389
918.939	3416
919.05	3317
919.161	3393
919.272	3173
919.383	3306
919.494	3511
919.604	3701
919.715	3542
919.826	3416
919.936	3458
920.047	3637
920.157	3587
920.267	3755
920.378	3644
920.488	3618
920.598	3816
920.708	3983
920.818	3915
920.928	3857
921.038	4055
921.148	4036
921.258	3766
921.368	3694
921.477	3622
921.587	3568
921.697	3511
921.806	3660
921.916	3599
922.025	3416
922.134	3439
922.244	3393
922.353	3477
922.462	3302
922.571	3253
922.68	3173
922.789	3093
922.898	3192
923.007	3169
923.116	3287
923.224	3249
923.333	3233
923.442	3138
923.55	3150
923.659	3207
923.767	3245
923.876	3165
923.984	3283
924.092	3176
924.201	3253
924.309	3260
924.417	3283
924.525	3264
924.633	3283
924.741	4227
924.849	3085
924.956	3321
925.064	3135
925.172	3081
925.279	3157
925.387	3245
925.494	3260
925.602	3401
925.709	3344
925.816	3203
925.924	3344
926.031	3454
926.138	3336
926.245	3378
926.352	3291
926.459	3420
926.566	3526
926.673	3355
926.779	3245
926.886	3298
926.993	3188
927.099	3173
927.206	3161
927.312	3180
927.419	3302
927.525	3233
927.631	3310
927.737	3184
927.843	3222
927.95	3081
928.056	3207
928.162	3230
928.267	3321
928.373	3934
928.479	3348
928.585	3070
928.69	3275
928.796	3332
928.901	3245
929.007	3058
929.112	3253
929.218	3188
929.323	3176
929.428	3192
929.533	3355
929.638	3154
929.743	3188
929.848	3298
929.953	3249
930.058	3150
930.163	3055
930.267	3112
930.372	3233
930.477	3116
930.581	3378
930.685	3180
930.79	3085
930.894	3184
930.998	3127
931.103	3313
931.207	3005
931.311	2990
931.415	2956
931.519	2788
931.623	2804
