Data from test_V78500241_1850.txt Node
Date: Fri Mar 25 16:28:01 CST 2022
User: usil
Spectrometer: V785-0024
Trigger mode: 0
Integration Time (sec): 4.000000E-1
Scans to average: 1
Nonlinearity correction enabled: false
Boxcar width: 0
Storing dark spectrum: false
XAxis mode: Wavelengths
Number of Pixels in Spectrum: 1024
>>>>>Begin Spectral Data<<<<<
801.071	2933
801.214	2979
801.356	2872
801.499	2925
801.641	2922
801.783	2952
801.926	3085
802.068	3001
802.211	2994
802.353	3085
802.496	2979
802.638	3024
802.78	3043
802.923	3085
803.065	2986
803.208	2906
803.35	2952
803.492	2963
803.635	2937
803.777	2777
803.919	2895
804.061	3218
804.204	2967
804.346	2876
804.488	2853
804.63	2998
804.773	2876
804.915	2933
805.057	3077
805.199	2922
805.341	2986
805.483	3055
805.626	3013
805.768	2975
805.91	3089
806.052	3097
806.194	3020
806.336	3264
806.478	3036
806.62	2956
806.762	2994
806.904	3043
807.046	3184
807.188	2971
807.33	2887
807.472	3043
807.614	2883
807.756	3009
807.898	2948
808.04	2906
808.182	3020
808.324	2982
808.465	2883
808.607	2880
808.749	2800
808.891	2845
809.033	2990
809.174	2979
809.316	2887
809.458	2876
809.6	2781
809.741	2815
809.883	2762
810.025	2830
810.166	2906
810.308	2880
810.45	2872
810.591	2773
810.733	2773
810.875	2826
811.016	2785
811.158	2769
811.299	2819
811.441	2941
811.582	2895
811.724	2819
811.865	2853
812.007	2883
812.148	2857
812.29	2826
812.431	2918
812.573	2956
812.714	2941
812.855	3066
812.997	3051
813.138	3150
813.279	3017
813.421	2982
813.562	2979
813.703	2891
813.845	2887
813.986	2796
814.127	2716
814.268	2826
814.41	2861
814.551	2830
814.692	2883
814.833	2796
814.974	2887
815.115	2952
815.256	2819
815.397	2792
815.539	2861
815.68	2796
815.821	2796
815.962	2952
816.103	2944
816.244	2891
816.385	2864
816.526	2941
816.666	2902
816.807	2746
816.948	2868
817.089	2937
817.23	2845
817.371	2785
817.512	2792
817.653	2842
817.793	2826
817.934	2842
818.075	2979
818.216	2998
818.356	3055
818.497	2880
818.638	2750
818.778	2811
818.919	2823
819.06	2769
819.2	2910
819.341	2807
819.481	2796
819.622	2895
819.762	3074
819.903	3036
820.043	2910
820.184	2883
820.324	2891
820.465	3020
820.605	3028
820.746	3020
820.886	2948
821.026	3097
821.167	3142
821.307	3245
821.447	3310
821.588	3245
821.728	3195
821.868	3199
822.008	3100
822.149	3169
822.289	3226
822.429	3093
822.569	3077
822.709	3176
822.849	3032
822.99	3051
823.13	3169
823.27	3192
823.41	3116
823.55	3142
823.69	3146
823.83	3169
823.97	3097
824.11	2998
824.25	3009
824.389	3047
824.529	3108
824.669	3062
824.809	3195
824.949	3222
825.089	3226
825.228	3176
825.368	3028
825.508	2956
825.648	2990
825.787	3001
825.927	3032
826.067	2994
826.206	2967
826.346	3036
826.485	3066
826.625	3085
826.765	3294
826.904	3207
827.044	2960
827.183	2944
827.323	2849
827.462	2967
827.601	2899
827.741	2883
827.88	2975
828.02	2861
828.159	2963
828.298	3017
828.437	3146
828.577	3013
828.716	3211
828.855	3077
828.994	2922
829.134	2861
829.273	2918
829.412	2868
829.551	2910
829.69	2887
829.829	2948
829.968	3112
830.107	3028
830.246	3036
830.385	2914
830.524	2872
830.663	2766
830.802	2693
830.941	2617
831.08	2663
831.219	2750
831.357	2750
831.496	2925
831.635	2663
831.774	2648
831.913	2655
832.051	2530
832.19	2575
832.329	2682
832.467	2533
832.606	2511
832.744	2594
832.883	2564
833.022	2583
833.16	2686
833.299	2674
833.437	2682
833.576	2689
833.714	2686
833.852	2727
833.991	2720
834.129	2861
834.267	2804
834.406	2785
834.544	2872
834.682	2864
834.821	2853
834.959	3062
835.097	2895
835.235	3074
835.373	3005
835.511	3028
835.65	2960
835.788	2906
835.926	2804
836.064	2830
836.202	2872
836.34	3119
836.478	3100
836.615	3062
836.753	3154
836.891	3192
837.029	3146
837.167	3116
837.305	3047
837.443	3039
837.58	2986
837.718	3123
837.856	3112
837.993	3036
838.131	3127
838.269	3116
838.406	3051
838.544	3077
838.681	2948
838.819	2899
838.956	2834
839.094	2785
839.231	2914
839.369	3039
839.506	3393
839.643	3260
839.781	2967
839.918	2967
840.055	3062
840.193	3036
840.33	3051
840.467	3116
840.604	3161
840.742	3363
840.879	3032
841.016	3036
841.153	3097
841.29	3321
841.427	3291
841.564	3275
841.701	3321
841.838	3192
841.975	3135
842.112	3184
842.249	3028
842.385	3028
842.522	3260
842.659	3108
842.796	3066
842.933	3127
843.069	3032
843.206	3032
843.343	3203
843.479	3127
843.616	3104
843.752	2902
843.889	2891
844.025	3070
844.162	2902
844.298	3066
844.435	2975
844.571	2906
844.708	3085
844.844	3123
844.98	3233
845.117	3230
845.253	2990
845.389	3005
845.525	3123
845.661	3100
845.798	3039
845.934	3123
846.07	3028
846.206	3169
846.342	3370
846.478	3222
846.614	3089
846.75	3055
846.886	3005
847.022	3264
847.158	3100
847.294	3192
847.429	3279
847.565	3233
847.701	3485
847.837	3055
847.972	2990
848.108	3146
848.244	3127
848.379	3009
848.515	2910
848.65	2910
848.786	2975
848.921	2986
849.057	3112
849.192	3180
849.328	3093
849.463	3138
849.598	3097
849.734	3062
849.869	2986
850.004	2910
850.14	2937
850.275	2952
850.41	2830
850.545	2941
850.68	2906
850.815	2948
850.95	2960
851.085	3180
851.22	3104
851.355	3039
851.49	2960
851.625	2994
851.76	3028
851.895	2941
852.03	2914
852.165	3036
852.299	3097
852.434	3195
852.569	3146
852.703	3180
852.838	3253
852.973	3348
853.107	3313
853.242	3138
853.376	3104
853.511	2982
853.645	3062
853.78	3218
853.914	3131
854.048	3104
854.183	3062
854.317	3150
854.451	3272
854.585	3119
854.72	3112
854.854	3218
854.988	3036
855.122	3116
855.256	2979
855.39	3085
855.524	3226
855.658	3165
855.792	3131
855.926	3165
856.06	3214
856.194	3245
856.327	3108
856.461	3058
856.595	3051
856.729	3062
856.862	3203
856.996	3157
857.13	3180
857.263	3214
857.397	3275
857.53	3131
857.664	3199
857.797	3218
857.931	3245
858.064	3173
858.197	3222
858.331	3127
858.464	3100
858.597	2990
858.731	3104
858.864	3123
858.997	3074
859.13	3161
859.263	3135
859.396	3203
859.529	3100
859.662	3062
859.795	3055
859.928	3112
860.061	3226
860.194	3294
860.327	3093
860.46	3108
860.592	3207
860.725	3226
860.858	3268
860.99	3058
861.123	3039
861.256	3043
861.388	3097
861.521	3793
861.653	3001
861.786	2979
861.918	2979
862.05	3032
862.183	3100
862.315	3157
862.447	3184
862.58	3074
862.712	2937
862.844	2895
862.976	2994
863.108	3005
863.24	3428
863.372	2872
863.504	2979
863.636	2941
863.768	3020
863.9	2963
864.032	2864
864.164	2937
864.296	3005
864.428	3119
864.559	3062
864.691	3077
864.823	3055
864.954	3020
865.086	3036
865.217	2998
865.349	2952
865.48	2982
865.612	3005
865.743	3123
865.875	2956
866.006	2918
866.137	2960
866.269	2952
866.4	2944
866.531	2910
866.662	2864
866.793	2880
866.924	2872
867.055	2982
867.186	2899
867.317	2864
867.448	2838
867.579	2830
867.71	2815
867.841	2842
867.972	2880
868.103	2891
868.233	2876
868.364	2876
868.495	2883
868.625	3081
868.756	3131
868.886	2944
869.017	3009
869.147	3184
869.278	3165
869.408	3058
869.539	3024
869.669	3066
869.799	2994
869.929	3157
870.06	3116
870.19	3287
870.32	3310
870.45	3313
870.58	3359
870.71	3462
870.84	3439
870.97	3268
871.1	3218
871.23	3462
871.36	3469
871.489	3332
871.619	3397
871.749	3412
871.879	3431
872.008	3492
872.138	3340
872.267	3272
872.397	3142
872.526	3100
872.656	3005
872.785	3077
872.915	3287
873.044	3310
873.173	3233
873.303	3230
873.432	3203
873.561	3211
873.69	3135
873.819	3127
873.948	3230
874.077	3066
874.206	3028
874.335	3055
874.464	3211
874.593	3351
874.722	3272
874.851	3374
874.979	3351
875.108	3317
875.237	3180
875.365	3119
875.494	3154
875.623	3233
875.751	3036
875.88	3112
876.008	3184
876.136	3237
876.265	3386
876.393	3507
876.521	3389
876.65	3382
876.778	3321
876.906	3241
877.034	3176
877.162	3176
877.29	3184
877.418	3264
877.546	3241
877.674	3230
877.802	3207
877.93	3214
878.058	3127
878.185	3085
878.313	3169
878.441	3199
878.568	3055
878.696	3188
878.824	3264
878.951	3317
879.079	3477
879.206	3599
879.333	3450
879.461	3329
879.588	3344
879.715	3439
879.842	3599
879.97	3363
880.097	3138
880.224	3154
880.351	3161
880.478	3192
880.605	3249
880.732	3184
880.859	3466
880.986	3321
881.112	3332
881.239	3233
881.366	3081
881.493	3024
881.619	2998
881.746	3066
881.872	3058
881.999	3085
882.125	3165
882.252	3226
882.378	3275
882.505	3416
882.631	3287
882.757	3138
882.883	3230
883.01	3233
883.136	3161
883.262	3104
883.388	3104
883.514	3294
883.64	3378
883.766	3310
883.892	3180
884.018	3241
884.143	3393
884.269	3561
884.395	3195
884.52	3184
884.646	3169
884.772	3123
884.897	3062
885.023	3176
885.148	3363
885.274	3424
885.399	3355
885.524	3279
885.65	3253
885.775	3294
885.9	3291
886.025	3450
886.15	3272
886.275	3317
886.4	3241
886.525	3298
886.65	3287
886.775	3287
886.9	3496
887.025	3606
887.149	3393
887.274	3218
887.399	3138
887.523	3199
887.648	3211
887.773	3169
887.897	3359
888.021	3382
888.146	3317
888.27	3416
888.395	3549
888.519	3378
888.643	3492
888.767	3443
888.891	3306
889.015	3230
889.139	3298
889.263	3230
889.387	3397
889.511	3530
889.635	3462
889.759	3302
889.883	3291
890.006	3332
890.13	3526
890.254	3272
890.377	3332
890.501	3195
890.624	3154
890.748	3302
890.871	3199
890.995	3093
891.118	3055
891.241	3180
891.364	3230
891.488	3287
891.611	3184
891.734	3233
891.857	3272
891.98	3218
892.103	3317
892.226	3249
892.349	3180
892.471	3104
892.594	3256
892.717	3264
892.839	3264
892.962	3306
893.085	3329
893.207	3264
893.33	3127
893.452	3230
893.575	3313
893.697	3272
893.819	3447
893.941	3477
894.064	3424
894.186	3287
894.308	3302
894.43	3420
894.552	3526
894.674	3473
894.796	3275
894.918	3313
895.04	3245
895.161	3386
895.283	3370
895.405	3294
895.526	3344
895.648	3439
895.769	3435
895.891	3401
896.012	3462
896.134	3492
896.255	3386
896.376	3363
896.498	3367
896.619	3420
896.74	3340
896.861	3374
896.982	3675
897.103	3800
897.224	3629
897.345	3458
897.466	3462
897.587	3507
897.708	3603
897.828	3553
897.949	3485
898.07	3332
898.19	3431
898.311	3599
898.431	3435
898.552	3523
898.672	3568
898.792	3568
898.913	3473
899.033	3412
899.153	3275
899.273	3222
899.393	3287
899.513	3374
899.633	3340
899.753	3298
899.873	3313
899.993	3389
900.113	3332
900.232	3382
900.352	3321
900.472	3317
900.591	3211
900.711	3321
900.83	3230
900.95	3393
901.069	3477
901.189	3325
901.308	3222
901.427	3093
901.546	3161
901.665	3268
901.784	3351
901.904	3184
902.023	3100
902.141	2982
902.26	3005
902.379	3108
902.498	3089
902.617	3047
902.735	3184
902.854	3214
902.973	3237
903.091	3070
903.21	3051
903.328	3108
903.446	3123
903.565	3070
903.683	3184
903.801	3119
903.919	3195
904.038	3302
904.156	3146
904.274	3256
904.392	3214
904.51	3241
904.627	3302
904.745	3378
904.863	3504
904.981	3287
905.098	3131
905.216	3199
905.334	3287
905.451	3348
905.569	3298
905.686	3439
905.803	3439
905.921	3302
906.038	3393
906.155	3336
906.272	3253
906.389	3329
906.506	3245
906.623	3264
906.74	3233
906.857	3180
906.974	3230
907.091	3466
907.208	3561
907.324	3439
907.441	3393
907.557	3253
907.674	3237
907.79	3195
907.907	3317
908.023	3382
908.139	3367
908.256	3321
908.372	3359
908.488	3378
908.604	3253
908.72	3260
908.836	3253
908.952	3245
909.068	3329
909.184	3492
909.3	3378
909.415	3526
909.531	3435
909.647	3287
909.762	3279
909.878	3207
909.993	3317
910.108	3397
910.224	3329
910.339	3370
910.454	3332
910.57	3260
910.685	3230
910.8	3564
910.915	3542
911.03	3496
911.145	3245
911.259	3241
911.374	3329
911.489	3256
911.604	3211
911.718	3085
911.833	3135
911.947	3043
912.062	2956
912.176	3127
912.291	3203
912.405	3192
912.519	3428
912.633	3488
912.748	3332
912.862	3291
912.976	3184
913.09	3074
913.204	3119
913.318	3237
913.431	3332
913.545	3298
913.659	3378
913.772	3310
913.886	3173
914	3176
914.113	3348
914.226	3397
914.34	3389
914.453	3188
914.566	3378
914.68	3279
914.793	3317
914.906	3138
915.019	3127
915.132	3074
915.245	3135
915.358	3180
915.47	3195
915.583	3226
915.696	3283
915.809	3370
915.921	3420
916.034	3222
916.146	3241
916.259	3192
916.371	3359
916.483	3355
916.595	3298
916.708	3340
916.82	3351
916.932	3332
917.044	3317
917.156	3340
917.268	3275
917.38	3294
917.491	3279
917.603	3359
917.715	3488
917.826	3458
917.938	3340
918.049	3241
918.161	3431
918.272	3614
918.384	3580
918.495	3477
918.606	3386
918.717	3306
918.828	3359
918.939	3431
919.05	3329
919.161	3389
919.272	3222
919.383	3298
919.494	3530
919.604	3747
919.715	3473
919.826	3435
919.936	3462
920.047	3625
920.157	3599
920.267	3793
920.378	3633
920.488	3572
920.598	3835
920.708	3972
920.818	3873
920.928	3930
921.038	4086
921.148	4067
921.258	3778
921.368	3675
921.477	3614
921.587	3576
921.697	3477
921.806	3660
921.916	3557
922.025	3405
922.134	3409
922.244	3370
922.353	3500
922.462	3298
922.571	3294
922.68	3146
922.789	3119
922.898	3146
923.007	3161
923.116	3260
923.224	3188
923.333	3264
923.442	3138
923.55	3169
923.659	3192
923.767	3279
923.876	3154
923.984	3283
924.092	3097
924.201	3222
924.309	3260
924.417	3272
924.525	3233
924.633	3294
924.741	4090
924.849	3062
924.956	3294
925.064	3131
925.172	3077
925.279	3123
925.387	3253
925.494	3287
925.602	3409
925.709	3344
925.816	3230
925.924	3329
926.031	3412
926.138	3351
926.245	3363
926.352	3298
926.459	3450
926.566	3519
926.673	3351
926.779	3283
926.886	3245
926.993	3157
927.099	3157
927.206	3176
927.312	3176
927.419	3249
927.525	3237
927.631	3332
927.737	3173
927.843	3150
927.95	3062
928.056	3161
928.162	3207
928.267	3283
928.373	3762
928.479	3348
928.585	3127
928.69	3283
928.796	3275
928.901	3199
929.007	3093
929.112	3249
929.218	3195
929.323	3169
929.428	3146
929.533	3386
929.638	3116
929.743	3195
929.848	3279
929.953	3272
930.058	3138
930.163	3066
930.267	3058
930.372	3237
930.477	3039
930.581	3355
930.685	3188
930.79	3074
930.894	3127
930.998	3116
931.103	3329
931.207	2982
931.311	2994
931.415	2960
931.519	2788
931.623	2842
