Data from test_V78500241_280.txt Node
Date: Fri Mar 25 16:17:08 CST 2022
User: usil
Spectrometer: V785-0024
Trigger mode: 0
Integration Time (sec): 4.000000E-1
Scans to average: 1
Nonlinearity correction enabled: false
Boxcar width: 0
Storing dark spectrum: false
XAxis mode: Wavelengths
Number of Pixels in Spectrum: 1024
>>>>>Begin Spectral Data<<<<<
801.071	2887
801.214	2952
801.356	2899
801.499	2876
801.641	2845
801.783	2902
801.926	3039
802.068	2990
802.211	2998
802.353	3009
802.496	2952
802.638	3047
802.78	3017
802.923	3070
803.065	3005
803.208	2895
803.35	2914
803.492	2975
803.635	2937
803.777	2792
803.919	2887
804.061	3203
804.204	2960
804.346	2902
804.488	2842
804.63	3005
804.773	2842
804.915	2891
805.057	3093
805.199	2944
805.341	2971
805.483	3036
805.626	3017
805.768	2986
805.91	3077
806.052	3104
806.194	3036
806.336	3192
806.478	3013
806.62	2960
806.762	2960
806.904	3074
807.046	3211
807.188	3024
807.33	2944
807.472	2952
807.614	2895
807.756	2998
807.898	2902
808.04	2876
808.182	2979
808.324	2971
808.465	2891
808.607	2853
808.749	2792
808.891	2864
809.033	2963
809.174	3009
809.316	2876
809.458	2864
809.6	2773
809.741	2762
809.883	2807
810.025	2842
810.166	2842
810.308	2830
810.45	2864
810.591	2746
810.733	2766
810.875	2819
811.016	2777
811.158	2735
811.299	2823
811.441	2906
811.582	2902
811.724	2872
811.865	2826
812.007	2914
812.148	2899
812.29	2826
812.431	2895
812.573	2918
812.714	2933
812.855	3055
812.997	3039
813.138	3138
813.279	3024
813.421	2982
813.562	2952
813.703	2868
813.845	2880
813.986	2807
814.127	2739
814.268	2796
814.41	2864
814.551	2838
814.692	2868
814.833	2811
814.974	2868
815.115	2925
815.256	2861
815.397	2815
815.539	2838
815.68	2792
815.821	2754
815.962	2948
816.103	2925
816.244	2887
816.385	2849
816.526	2925
816.666	2887
816.807	2762
816.948	2902
817.089	2922
817.23	2868
817.371	2758
817.512	2800
817.653	2861
817.793	2838
817.934	2918
818.075	2971
818.216	2975
818.356	2986
818.497	2872
818.638	2807
818.778	2845
818.919	2796
819.06	2777
819.2	2914
819.341	2823
819.481	2800
819.622	2902
819.762	3138
819.903	3024
820.043	2944
820.184	2899
820.324	2914
820.465	3036
820.605	2998
820.746	3009
820.886	2948
821.026	3123
821.167	3195
821.307	3306
821.447	3298
821.588	3230
821.728	3230
821.868	3184
822.008	3100
822.149	3184
822.289	3218
822.429	3066
822.569	3085
822.709	3192
822.849	2979
822.99	3112
823.13	3180
823.27	3233
823.41	3093
823.55	3131
823.69	3119
823.83	3199
823.97	3100
824.11	2986
824.25	2990
824.389	3020
824.529	3085
824.669	3058
824.809	3211
824.949	3245
825.089	3226
825.228	3176
825.368	3020
825.508	2982
825.648	2979
825.787	3028
825.927	3039
826.067	2956
826.206	2937
826.346	3024
826.485	3081
826.625	3081
826.765	3272
826.904	3184
827.044	3001
827.183	2948
827.323	2868
827.462	2963
827.601	2944
827.741	2895
827.88	2944
828.02	2849
828.159	2979
828.298	3017
828.437	3119
828.577	3005
828.716	3249
828.855	3070
828.994	2895
829.134	2902
829.273	2918
829.412	2838
829.551	2826
829.69	2868
829.829	2994
829.968	3142
830.107	2979
830.246	2979
830.385	2929
830.524	2895
830.663	2842
830.802	2716
830.941	2644
831.08	2629
831.219	2727
831.357	2754
831.496	2956
831.635	2727
831.774	2655
831.913	2682
832.051	2545
832.19	2537
832.329	2667
832.467	2526
832.606	2492
832.744	2575
832.883	2552
833.022	2560
833.16	2610
833.299	2648
833.437	2689
833.576	2689
833.714	2712
833.852	2727
833.991	2743
834.129	2872
834.267	2872
834.406	2750
834.544	2842
834.682	2887
834.821	2876
834.959	3028
835.097	2880
835.235	3024
835.373	2960
835.511	2990
835.65	2975
835.788	2952
835.926	2807
836.064	2792
836.202	2864
836.34	3097
836.478	3157
836.615	3051
836.753	3112
836.891	3214
837.029	3142
837.167	3127
837.305	3062
837.443	3051
837.58	2956
837.718	3131
837.856	3058
837.993	3005
838.131	3093
838.269	3062
838.406	3093
838.544	3077
838.681	2944
838.819	2899
838.956	2834
839.094	2826
839.231	2952
839.369	3017
839.506	3386
839.643	3245
839.781	2990
839.918	2982
840.055	3051
840.193	3047
840.33	3043
840.467	3108
840.604	3161
840.742	3412
840.879	3055
841.016	3001
841.153	3077
841.29	3370
841.427	3321
841.564	3287
841.701	3329
841.838	3211
841.975	3150
842.112	3222
842.249	3055
842.385	3055
842.522	3230
842.659	3100
842.796	3062
842.933	3081
843.069	3017
843.206	3013
843.343	3184
843.479	3089
843.616	3157
843.752	2941
843.889	2891
844.025	3131
844.162	2872
844.298	3081
844.435	2979
844.571	2899
844.708	3047
844.844	3180
844.98	3214
845.117	3207
845.253	3077
845.389	3020
845.525	3157
845.661	3085
845.798	3020
845.934	3116
846.07	3036
846.206	3260
846.342	3287
846.478	3268
846.614	3081
846.75	3051
846.886	3047
847.022	3253
847.158	3150
847.294	3211
847.429	3226
847.565	3199
847.701	3481
847.837	3055
847.972	2998
848.108	3157
848.244	3180
848.379	3005
848.515	2963
848.65	2944
848.786	2937
848.921	3028
849.057	3093
849.192	3173
849.328	3039
849.463	3108
849.598	3055
849.734	3028
849.869	2925
850.004	2895
850.14	2975
850.275	2914
850.41	2838
850.545	2861
850.68	2952
850.815	2952
850.95	2967
851.085	3222
851.22	3093
851.355	2986
851.49	2986
851.625	2990
851.76	3009
851.895	2910
852.03	2948
852.165	3043
852.299	3112
852.434	3176
852.569	3104
852.703	3211
852.838	3237
852.973	3336
853.107	3325
853.242	3135
853.376	3100
853.511	2975
853.645	3043
853.78	3214
853.914	3089
854.048	3135
854.183	3077
854.317	3165
854.451	3287
854.585	3123
854.72	3093
854.854	3214
854.988	3051
855.122	3062
855.256	2986
855.39	3135
855.524	3249
855.658	3199
855.792	3138
855.926	3184
856.06	3192
856.194	3264
856.327	3161
856.461	3116
856.595	3100
856.729	3062
856.862	3214
856.996	3161
857.13	3203
857.263	3203
857.397	3237
857.53	3116
857.664	3192
857.797	3222
857.931	3233
858.064	3176
858.197	3188
858.331	3085
858.464	3077
858.597	2975
858.731	3131
858.864	3108
858.997	3081
859.13	3176
859.263	3173
859.396	3233
859.529	3051
859.662	3058
859.795	3051
859.928	3173
860.061	3275
860.194	3294
860.327	3127
860.46	3100
860.592	3211
860.725	3245
860.858	3226
860.99	3116
861.123	3081
861.256	3047
861.388	3161
861.521	3842
861.653	3001
861.786	2979
861.918	2967
862.05	3058
862.183	3100
862.315	3108
862.447	3169
862.58	3047
862.712	2933
862.844	2857
862.976	2982
863.108	3020
863.24	3275
863.372	2861
863.504	2963
863.636	2952
863.768	3039
863.9	2952
864.032	2887
864.164	2918
864.296	3058
864.428	3062
864.559	3104
864.691	3070
864.823	3066
864.954	3058
865.086	3028
865.217	3017
865.349	2956
865.48	2979
865.612	3001
865.743	3142
865.875	2963
866.006	2925
866.137	2971
866.269	2922
866.4	2929
866.531	2876
866.662	2910
866.793	2883
866.924	2872
867.055	3001
867.186	2887
867.317	2834
867.448	2830
867.579	2868
867.71	2823
867.841	2826
867.972	2883
868.103	2872
868.233	2902
868.364	2872
868.495	2899
868.625	3055
868.756	3146
868.886	2952
869.017	2994
869.147	3138
869.278	3180
869.408	3047
869.539	3013
869.669	3093
869.799	3043
869.929	3150
870.06	3089
870.19	3313
870.32	3230
870.45	3294
870.58	3359
870.71	3469
870.84	3416
870.97	3264
871.1	3230
871.23	3534
871.36	3447
871.489	3340
871.619	3382
871.749	3420
871.879	3431
872.008	3481
872.138	3317
872.267	3291
872.397	3104
872.526	3055
872.656	2994
872.785	3119
872.915	3233
873.044	3310
873.173	3214
873.303	3214
873.432	3241
873.561	3214
873.69	3154
873.819	3131
873.948	3199
874.077	3119
874.206	3051
874.335	3039
874.464	3241
874.593	3351
874.722	3222
874.851	3386
874.979	3336
875.108	3355
875.237	3184
875.365	3131
875.494	3135
875.623	3260
875.751	3047
875.88	3070
876.008	3165
876.136	3245
876.265	3340
876.393	3519
876.521	3389
876.65	3401
876.778	3275
876.906	3218
877.034	3233
877.162	3218
877.29	3180
877.418	3241
877.546	3291
877.674	3222
877.802	3199
877.93	3188
878.058	3131
878.185	3104
878.313	3157
878.441	3180
878.568	3070
878.696	3150
878.824	3279
878.951	3287
879.079	3469
879.206	3637
879.333	3450
879.461	3344
879.588	3363
879.715	3466
879.842	3603
879.97	3389
880.097	3211
880.224	3138
880.351	3237
880.478	3272
880.605	3237
880.732	3188
880.859	3507
880.986	3302
881.112	3351
881.239	3237
881.366	3108
881.493	3070
881.619	3047
881.746	3093
881.872	3123
881.999	3127
882.125	3188
882.252	3237
882.378	3321
882.505	3485
882.631	3302
882.757	3195
882.883	3249
883.01	3256
883.136	3207
883.262	3089
883.388	3142
883.514	3386
883.64	3359
883.766	3336
883.892	3214
884.018	3264
884.143	3431
884.269	3584
884.395	3203
884.52	3211
884.646	3203
884.772	3173
884.897	3146
885.023	3218
885.148	3405
885.274	3485
885.399	3424
885.524	3313
885.65	3306
885.775	3378
885.9	3298
886.025	3458
886.15	3386
886.275	3325
886.4	3275
886.525	3336
886.65	3313
886.775	3321
886.9	3519
887.025	3694
887.149	3458
887.274	3287
887.399	3211
887.523	3222
887.648	3192
887.773	3249
887.897	3443
888.021	3424
888.146	3313
888.27	3507
888.395	3549
888.519	3458
888.643	3511
888.767	3504
888.891	3359
889.015	3256
889.139	3317
889.263	3287
889.387	3458
889.511	3568
889.635	3469
889.759	3348
889.883	3317
890.006	3416
890.13	3523
890.254	3298
890.377	3355
890.501	3256
890.624	3241
890.748	3325
890.871	3214
890.995	3161
891.118	3131
891.241	3233
891.364	3230
891.488	3336
891.611	3237
891.734	3272
891.857	3329
891.98	3256
892.103	3382
892.226	3321
892.349	3245
892.471	3123
892.594	3291
892.717	3302
892.839	3332
892.962	3302
893.085	3405
893.207	3348
893.33	3199
893.452	3245
893.575	3397
893.697	3302
893.819	3469
893.941	3545
894.064	3507
894.186	3283
894.308	3283
894.43	3473
894.552	3534
894.674	3473
894.796	3306
894.918	3344
895.04	3329
895.161	3466
895.283	3416
895.405	3351
895.526	3405
895.648	3458
895.769	3435
895.891	3496
896.012	3488
896.134	3496
896.255	3420
896.376	3458
896.498	3374
896.619	3439
896.74	3378
896.861	3409
896.982	3759
897.103	3911
897.224	3568
897.345	3542
897.466	3458
897.587	3530
897.708	3641
897.828	3553
897.949	3496
898.07	3340
898.19	3431
898.311	3667
898.431	3443
898.552	3538
898.672	3622
898.792	3648
898.913	3545
899.033	3431
899.153	3306
899.273	3241
899.393	3294
899.513	3351
899.633	3351
899.753	3389
899.873	3332
899.993	3405
900.113	3370
900.232	3420
900.352	3382
900.472	3310
900.591	3214
900.711	3306
900.83	3253
900.95	3435
901.069	3549
901.189	3412
901.308	3233
901.427	3150
901.546	3256
901.665	3355
901.784	3374
901.904	3233
902.023	3188
902.141	3013
902.26	3036
902.379	3142
902.498	3112
902.617	3097
902.735	3214
902.854	3264
902.973	3260
903.091	3070
903.21	3085
903.328	3195
903.446	3127
903.565	3154
903.683	3237
903.801	3146
903.919	3272
904.038	3359
904.156	3226
904.274	3351
904.392	3332
904.51	3310
904.627	3332
904.745	3462
904.863	3519
904.981	3294
905.098	3233
905.216	3253
905.334	3348
905.451	3302
905.569	3355
905.686	3420
905.803	3435
905.921	3317
906.038	3481
906.155	3374
906.272	3279
906.389	3382
906.506	3260
906.623	3306
906.74	3317
906.857	3283
906.974	3306
907.091	3485
907.208	3591
907.324	3526
907.441	3389
907.557	3298
907.674	3272
907.79	3237
907.907	3317
908.023	3389
908.139	3405
908.256	3370
908.372	3382
908.488	3428
908.604	3348
908.72	3264
908.836	3310
908.952	3310
909.068	3363
909.184	3485
909.3	3416
909.415	3523
909.531	3534
909.647	3336
909.762	3306
909.878	3287
909.993	3359
910.108	3351
910.224	3370
910.339	3428
910.454	3401
910.57	3344
910.685	3245
910.8	3652
910.915	3530
911.03	3454
911.145	3298
911.259	3310
911.374	3306
911.489	3279
911.604	3260
911.718	3142
911.833	3157
911.947	3066
912.062	3070
912.176	3192
912.291	3249
912.405	3230
912.519	3458
912.633	3515
912.748	3344
912.862	3283
912.976	3211
913.09	3085
913.204	3135
913.318	3233
913.431	3378
913.545	3378
913.659	3477
913.772	3378
913.886	3226
914	3260
914.113	3412
914.226	3435
914.34	3401
914.453	3253
914.566	3454
914.68	3336
914.793	3355
914.906	3142
915.019	3135
915.132	3077
915.245	3207
915.358	3218
915.47	3268
915.583	3283
915.696	3336
915.809	3412
915.921	3454
916.034	3302
916.146	3268
916.259	3256
916.371	3439
916.483	3424
916.595	3279
916.708	3336
916.82	3363
916.932	3420
917.044	3363
917.156	3420
917.268	3294
917.38	3294
917.491	3348
917.603	3409
917.715	3481
917.826	3485
917.938	3416
918.049	3336
918.161	3443
918.272	3644
918.384	3610
918.495	3519
918.606	3363
918.717	3313
918.828	3409
918.939	3466
919.05	3329
919.161	3386
919.272	3218
919.383	3317
919.494	3519
919.604	3694
919.715	3515
919.826	3466
919.936	3496
920.047	3618
920.157	3561
920.267	3808
920.378	3603
920.488	3591
920.598	3789
920.708	3937
920.818	3854
920.928	3838
921.038	4017
921.148	4044
921.258	3713
921.368	3652
921.477	3610
921.587	3568
921.697	3492
921.806	3690
921.916	3500
922.025	3374
922.134	3378
922.244	3370
922.353	3435
922.462	3329
922.571	3275
922.68	3119
922.789	3116
922.898	3184
923.007	3119
923.116	3245
923.224	3195
923.333	3214
923.442	3150
923.55	3104
923.659	3176
923.767	3256
923.876	3119
923.984	3287
924.092	3116
924.201	3226
924.309	3264
924.417	3317
924.525	3245
924.633	3272
924.741	4238
924.849	3077
924.956	3287
925.064	3127
925.172	3100
925.279	3131
925.387	3249
925.494	3230
925.602	3370
925.709	3374
925.816	3218
925.924	3340
926.031	3450
926.138	3367
926.245	3389
926.352	3260
926.459	3450
926.566	3466
926.673	3370
926.779	3241
926.886	3264
926.993	3165
927.099	3150
927.206	3173
927.312	3146
927.419	3302
927.525	3245
927.631	3264
927.737	3169
927.843	3150
927.95	3036
928.056	3142
928.162	3180
928.267	3264
928.373	3888
928.479	3348
928.585	3104
928.69	3237
928.796	3283
928.901	3203
929.007	3081
929.112	3203
929.218	3188
929.323	3207
929.428	3192
929.533	3344
929.638	3142
929.743	3188
929.848	3291
929.953	3241
930.058	3176
930.163	2975
930.267	3089
930.372	3222
930.477	3047
930.581	3374
930.685	3203
930.79	3074
930.894	3165
930.998	3135
931.103	3298
931.207	3005
931.311	2971
931.415	2918
931.519	2796
931.623	2819
