Data from test_V78500241_1584.txt Node
Date: Fri Mar 25 16:26:10 CST 2022
User: usil
Spectrometer: V785-0024
Trigger mode: 0
Integration Time (sec): 4.000000E-1
Scans to average: 1
Nonlinearity correction enabled: false
Boxcar width: 0
Storing dark spectrum: false
XAxis mode: Wavelengths
Number of Pixels in Spectrum: 1024
>>>>>Begin Spectral Data<<<<<
801.071	2960
801.214	2979
801.356	2891
801.499	2925
801.641	2883
801.783	2906
801.926	3081
802.068	3001
802.211	2994
802.353	3085
802.496	2975
802.638	3020
802.78	3058
802.923	3081
803.065	3024
803.208	2902
803.35	2899
803.492	2941
803.635	2967
803.777	2758
803.919	2891
804.061	3207
804.204	2910
804.346	2967
804.488	2876
804.63	3017
804.773	2849
804.915	2956
805.057	3127
805.199	2956
805.341	2990
805.483	3051
805.626	3009
805.768	3009
805.91	3123
806.052	3165
806.194	3039
806.336	3253
806.478	3081
806.62	2982
806.762	2998
806.904	3081
807.046	3214
807.188	2998
807.33	2948
807.472	3013
807.614	2914
807.756	3013
807.898	2986
808.04	2922
808.182	2990
808.324	2967
808.465	2868
808.607	2899
808.749	2849
808.891	2883
809.033	3013
809.174	3032
809.316	2918
809.458	2925
809.6	2807
809.741	2804
809.883	2796
810.025	2899
810.166	2891
810.308	2819
810.45	2895
810.591	2777
810.733	2800
810.875	2845
811.016	2807
811.158	2807
811.299	2864
811.441	2960
811.582	2910
811.724	2876
811.865	2830
812.007	2887
812.148	2941
812.29	2872
812.431	2906
812.573	2918
812.714	2998
812.855	3104
812.997	3077
813.138	3146
813.279	3055
813.421	2982
813.562	2979
813.703	2876
813.845	2864
813.986	2766
814.127	2758
814.268	2838
814.41	2876
814.551	2830
814.692	2887
814.833	2872
814.974	2937
815.115	2975
815.256	2868
815.397	2819
815.539	2861
815.68	2796
815.821	2826
815.962	2925
816.103	2937
816.244	2891
816.385	2887
816.526	2956
816.666	2922
816.807	2750
816.948	2883
817.089	2929
817.23	2864
817.371	2792
817.512	2796
817.653	2857
817.793	2857
817.934	2906
818.075	2960
818.216	3013
818.356	3066
818.497	2868
818.638	2781
818.778	2830
818.919	2849
819.06	2785
819.2	2899
819.341	2826
819.481	2830
819.622	2918
819.762	3123
819.903	3036
820.043	2937
820.184	2933
820.324	2906
820.465	3024
820.605	3039
820.746	3062
820.886	2910
821.026	3104
821.167	3192
821.307	3298
821.447	3348
821.588	3233
821.728	3237
821.868	3188
822.008	3100
822.149	3226
822.289	3241
822.429	3123
822.569	3131
822.709	3192
822.849	3028
822.99	3085
823.13	3176
823.27	3150
823.41	3150
823.55	3165
823.69	3146
823.83	3233
823.97	3100
824.11	3043
824.25	3036
824.389	3100
824.529	3131
824.669	3089
824.809	3245
824.949	3268
825.089	3253
825.228	3169
825.368	3047
825.508	2979
825.648	2971
825.787	3005
825.927	3001
826.067	2963
826.206	2986
826.346	3028
826.485	3081
826.625	3154
826.765	3283
826.904	3207
827.044	3036
827.183	2933
827.323	2887
827.462	2979
827.601	2933
827.741	2933
827.88	2994
828.02	2872
828.159	2990
828.298	3066
828.437	3131
828.577	3047
828.716	3260
828.855	3116
828.994	2956
829.134	2956
829.273	2933
829.412	2880
829.551	2876
829.69	2922
829.829	3013
829.968	3100
830.107	3020
830.246	3009
830.385	2910
830.524	2906
830.663	2853
830.802	2739
830.941	2686
831.08	2632
831.219	2769
831.357	2788
831.496	2960
831.635	2701
831.774	2667
831.913	2663
832.051	2560
832.19	2579
832.329	2663
832.467	2571
832.606	2480
832.744	2625
832.883	2598
833.022	2621
833.16	2659
833.299	2724
833.437	2712
833.576	2720
833.714	2701
833.852	2720
833.991	2777
834.129	2842
834.267	2861
834.406	2781
834.544	2864
834.682	2902
834.821	2910
834.959	3089
835.097	2914
835.235	3062
835.373	3020
835.511	3028
835.65	2982
835.788	2941
835.926	2876
836.064	2849
836.202	2861
836.34	3116
836.478	3131
836.615	3058
836.753	3142
836.891	3253
837.029	3161
837.167	3150
837.305	3097
837.443	3047
837.58	2952
837.718	3127
837.856	3062
837.993	3055
838.131	3104
838.269	3089
838.406	3093
838.544	3112
838.681	2967
838.819	2937
838.956	2845
839.094	2842
839.231	2910
839.369	3039
839.506	3386
839.643	3249
839.781	3043
839.918	2986
840.055	3074
840.193	3047
840.33	3047
840.467	3146
840.604	3131
840.742	3416
840.879	3051
841.016	3047
841.153	3150
841.29	3340
841.427	3283
841.564	3287
841.701	3298
841.838	3222
841.975	3214
842.112	3207
842.249	3077
842.385	3047
842.522	3218
842.659	3066
842.796	3070
842.933	3100
843.069	3070
843.206	3036
843.343	3192
843.479	3135
843.616	3142
843.752	2914
843.889	2899
844.025	3077
844.162	2845
844.298	3013
844.435	2971
844.571	2925
844.708	3085
844.844	3169
844.98	3245
845.117	3214
845.253	3043
845.389	2986
845.525	3108
845.661	3077
845.798	2998
845.934	3108
846.07	3043
846.206	3245
846.342	3321
846.478	3230
846.614	3097
846.75	3058
846.886	3047
847.022	3291
847.158	3146
847.294	3207
847.429	3245
847.565	3222
847.701	3500
847.837	3036
847.972	3017
848.108	3154
848.244	3157
848.379	3013
848.515	2937
848.65	2960
848.786	2979
848.921	3017
849.057	3100
849.192	3161
849.328	3077
849.463	3138
849.598	3070
849.734	3077
849.869	3017
850.004	2952
850.14	2990
850.275	2925
850.41	2872
850.545	2872
850.68	2967
850.815	2967
850.95	3024
851.085	3253
851.22	3119
851.355	3066
851.49	2998
851.625	3017
851.76	3020
851.895	2944
852.03	2922
852.165	3081
852.299	3146
852.434	3226
852.569	3157
852.703	3188
852.838	3245
852.973	3378
853.107	3382
853.242	3218
853.376	3123
853.511	3043
853.645	3081
853.78	3298
853.914	3173
854.048	3112
854.183	3112
854.317	3222
854.451	3332
854.585	3142
854.72	3127
854.854	3249
854.988	3112
855.122	3097
855.256	2994
855.39	3142
855.524	3272
855.658	3218
855.792	3173
855.926	3203
856.06	3256
856.194	3260
856.327	3188
856.461	3142
856.595	3108
856.729	3157
856.862	3226
856.996	3192
857.13	3222
857.263	3272
857.397	3302
857.53	3180
857.664	3256
857.797	3275
857.931	3275
858.064	3203
858.197	3279
858.331	3184
858.464	3116
858.597	3047
858.731	3150
858.864	3192
858.997	3123
859.13	3165
859.263	3184
859.396	3207
859.529	3104
859.662	3127
859.795	3104
859.928	3161
860.061	3329
860.194	3317
860.327	3161
860.46	3146
860.592	3253
860.725	3291
860.858	3283
860.99	3135
861.123	3108
861.256	3070
861.388	3195
861.521	3896
861.653	3055
861.786	3066
861.918	3074
862.05	3089
862.183	3116
862.315	3180
862.447	3272
862.58	3157
862.712	2998
862.844	2895
862.976	3058
863.108	3024
863.24	3325
863.372	2933
863.504	3024
863.636	2994
863.768	3066
863.9	3062
864.032	2933
864.164	2986
864.296	3077
864.428	3112
864.559	3180
864.691	3123
864.823	3112
864.954	3074
865.086	3074
865.217	3039
865.349	3032
865.48	3051
865.612	3039
865.743	3157
865.875	3020
866.006	2986
866.137	3013
866.269	2986
866.4	2967
866.531	2960
866.662	2937
866.793	2914
866.924	2956
867.055	2998
867.186	2963
867.317	2914
867.448	2895
867.579	2895
867.71	2861
867.841	2861
867.972	2929
868.103	2880
868.233	2899
868.364	2899
868.495	2971
868.625	3157
868.756	3165
868.886	2986
869.017	3047
869.147	3222
869.278	3169
869.408	3039
869.539	3089
869.669	3154
869.799	3070
869.929	3135
870.06	3127
870.19	3332
870.32	3313
870.45	3336
870.58	3435
870.71	3447
870.84	3481
870.97	3325
871.1	3291
871.23	3500
871.36	3485
871.489	3409
871.619	3424
871.749	3428
871.879	3473
872.008	3542
872.138	3374
872.267	3313
872.397	3173
872.526	3161
872.656	3047
872.785	3108
872.915	3272
873.044	3351
873.173	3222
873.303	3253
873.432	3291
873.561	3245
873.69	3207
873.819	3173
873.948	3222
874.077	3131
874.206	3077
874.335	3108
874.464	3233
874.593	3370
874.722	3287
874.851	3409
874.979	3397
875.108	3336
875.237	3226
875.365	3180
875.494	3199
875.623	3275
875.751	3104
875.88	3138
876.008	3226
876.136	3264
876.265	3412
876.393	3557
876.521	3454
876.65	3409
876.778	3370
876.906	3302
877.034	3241
877.162	3230
877.29	3264
877.418	3279
877.546	3245
877.674	3272
877.802	3321
877.93	3291
878.058	3161
878.185	3135
878.313	3237
878.441	3268
878.568	3112
878.696	3165
878.824	3287
878.951	3332
879.079	3500
879.206	3652
879.333	3500
879.461	3359
879.588	3367
879.715	3530
879.842	3633
879.97	3447
880.097	3241
880.224	3116
880.351	3291
880.478	3253
880.605	3233
880.732	3233
880.859	3542
880.986	3317
881.112	3367
881.239	3214
881.366	3100
881.493	3051
881.619	3062
881.746	3142
881.872	3150
881.999	3154
882.125	3184
882.252	3264
882.378	3317
882.505	3473
882.631	3332
882.757	3176
882.883	3253
883.01	3226
883.136	3157
883.262	3108
883.388	3131
883.514	3340
883.64	3393
883.766	3344
883.892	3203
884.018	3283
884.143	3450
884.269	3545
884.395	3245
884.52	3230
884.646	3230
884.772	3146
884.897	3116
885.023	3241
885.148	3340
885.274	3405
885.399	3382
885.524	3264
885.65	3302
885.775	3363
885.9	3291
886.025	3450
886.15	3389
886.275	3294
886.4	3256
886.525	3302
886.65	3298
886.775	3317
886.9	3526
887.025	3667
887.149	3439
887.274	3249
887.399	3218
887.523	3245
887.648	3233
887.773	3249
887.897	3397
888.021	3458
888.146	3325
888.27	3420
888.395	3557
888.519	3473
888.643	3458
888.767	3443
888.891	3317
889.015	3283
889.139	3321
889.263	3237
889.387	3458
889.511	3545
889.635	3435
889.759	3313
889.883	3313
890.006	3401
890.13	3542
890.254	3291
890.377	3367
890.501	3233
890.624	3199
890.748	3325
890.871	3192
890.995	3116
891.118	3100
891.241	3195
891.364	3237
891.488	3374
891.611	3237
891.734	3260
891.857	3306
891.98	3249
892.103	3355
892.226	3260
892.349	3211
892.471	3135
892.594	3253
892.717	3329
892.839	3287
892.962	3291
893.085	3363
893.207	3321
893.33	3192
893.452	3214
893.575	3340
893.697	3298
893.819	3481
893.941	3526
894.064	3504
894.186	3237
894.308	3340
894.43	3462
894.552	3545
894.674	3439
894.796	3275
894.918	3336
895.04	3310
895.161	3454
895.283	3424
895.405	3363
895.526	3386
895.648	3447
895.769	3412
895.891	3515
896.012	3488
896.134	3477
896.255	3477
896.376	3405
896.498	3386
896.619	3435
896.74	3393
896.861	3420
896.982	3671
897.103	3850
897.224	3584
897.345	3568
897.466	3485
897.587	3519
897.708	3648
897.828	3568
897.949	3428
898.07	3336
898.19	3424
898.311	3599
898.431	3428
898.552	3523
898.672	3614
898.792	3591
898.913	3549
899.033	3443
899.153	3325
899.273	3256
899.393	3298
899.513	3321
899.633	3321
899.753	3401
899.873	3329
899.993	3378
900.113	3348
900.232	3397
900.352	3340
900.472	3279
900.591	3211
900.711	3291
900.83	3226
900.95	3428
901.069	3496
901.189	3351
901.308	3211
901.427	3161
901.546	3222
901.665	3325
901.784	3336
901.904	3233
902.023	3138
902.141	3062
902.26	2986
902.379	3150
902.498	3077
902.617	3062
902.735	3218
902.854	3279
902.973	3173
903.091	3089
903.21	3093
903.328	3192
903.446	3150
903.565	3093
903.683	3207
903.801	3142
903.919	3237
904.038	3310
904.156	3176
904.274	3310
904.392	3291
904.51	3306
904.627	3325
904.745	3469
904.863	3526
904.981	3291
905.098	3180
905.216	3272
905.334	3336
905.451	3344
905.569	3351
905.686	3401
905.803	3469
905.921	3291
906.038	3466
906.155	3340
906.272	3321
906.389	3374
906.506	3268
906.623	3275
906.74	3245
906.857	3161
906.974	3268
907.091	3469
907.208	3606
907.324	3500
907.441	3386
907.557	3218
907.674	3253
907.79	3199
907.907	3283
908.023	3393
908.139	3401
908.256	3344
908.372	3389
908.488	3359
908.604	3279
908.72	3249
908.836	3306
908.952	3287
909.068	3340
909.184	3523
909.3	3416
909.415	3504
909.531	3462
909.647	3310
909.762	3291
909.878	3291
909.993	3359
910.108	3370
910.224	3329
910.339	3443
910.454	3355
910.57	3317
910.685	3291
910.8	3614
910.915	3584
911.03	3477
911.145	3294
911.259	3291
911.374	3313
911.489	3230
911.604	3226
911.718	3176
911.833	3154
911.947	3047
912.062	2998
912.176	3237
912.291	3218
912.405	3226
912.519	3424
912.633	3523
912.748	3378
912.862	3310
912.976	3173
913.09	3066
913.204	3127
913.318	3203
913.431	3351
913.545	3359
913.659	3420
913.772	3348
913.886	3241
914	3218
914.113	3355
914.226	3405
914.34	3382
914.453	3199
914.566	3439
914.68	3294
914.793	3351
914.906	3154
915.019	3127
915.132	3077
915.245	3195
915.358	3253
915.47	3230
915.583	3275
915.696	3291
915.809	3397
915.921	3481
916.034	3253
916.146	3256
916.259	3253
916.371	3409
916.483	3363
916.595	3287
916.708	3332
916.82	3348
916.932	3298
917.044	3313
917.156	3389
917.268	3272
917.38	3302
917.491	3294
917.603	3405
917.715	3500
917.826	3511
917.938	3348
918.049	3287
918.161	3439
918.272	3610
918.384	3618
918.495	3481
918.606	3344
918.717	3287
918.828	3370
918.939	3401
919.05	3302
919.161	3401
919.272	3184
919.383	3256
919.494	3557
919.604	3705
919.715	3496
919.826	3405
919.936	3488
920.047	3595
920.157	3561
920.267	3781
920.378	3610
920.488	3587
920.598	3789
920.708	3960
920.818	3850
920.928	3823
921.038	4051
921.148	4025
921.258	3701
921.368	3625
921.477	3549
921.587	3576
921.697	3466
921.806	3656
921.916	3542
922.025	3355
922.134	3348
922.244	3298
922.353	3431
922.462	3294
922.571	3272
922.68	3097
922.789	3108
922.898	3169
923.007	3112
923.116	3222
923.224	3180
923.333	3211
923.442	3108
923.55	3119
923.659	3169
923.767	3237
923.876	3123
923.984	3260
924.092	3135
924.201	3169
924.309	3203
924.417	3230
924.525	3207
924.633	3249
924.741	4181
924.849	3058
924.956	3287
925.064	3097
925.172	3024
925.279	3116
925.387	3192
925.494	3214
925.602	3325
925.709	3336
925.816	3199
925.924	3291
926.031	3409
926.138	3344
926.245	3397
926.352	3268
926.459	3450
926.566	3454
926.673	3310
926.779	3256
926.886	3275
926.993	3173
927.099	3142
927.206	3104
927.312	3123
927.419	3264
927.525	3230
927.631	3260
927.737	3138
927.843	3100
927.95	3024
928.056	3142
928.162	3184
928.267	3260
928.373	3907
928.479	3332
928.585	3047
928.69	3218
928.796	3275
928.901	3161
929.007	3055
929.112	3218
929.218	3161
929.323	3154
929.428	3138
929.533	3332
929.638	3112
929.743	3161
929.848	3245
929.953	3188
930.058	3146
930.163	2975
930.267	3043
930.372	3222
930.477	3062
930.581	3325
930.685	3176
930.79	3077
930.894	3138
930.998	3089
931.103	3321
931.207	2998
931.311	2948
931.415	2933
931.519	2769
931.623	2777
