Data from test_V78500241_2050.txt Node
Date: Fri Mar 25 16:29:24 CST 2022
User: usil
Spectrometer: V785-0024
Trigger mode: 0
Integration Time (sec): 4.000000E-1
Scans to average: 1
Nonlinearity correction enabled: false
Boxcar width: 0
Storing dark spectrum: false
XAxis mode: Wavelengths
Number of Pixels in Spectrum: 1024
>>>>>Begin Spectral Data<<<<<
801.071	2899
801.214	2929
801.356	2910
801.499	2967
801.641	2883
801.783	2914
801.926	3074
802.068	2986
802.211	3001
802.353	3055
802.496	2990
802.638	3055
802.78	3051
802.923	3119
803.065	3024
803.208	2887
803.35	2922
803.492	2929
803.635	2944
803.777	2777
803.919	2864
804.061	3169
804.204	2956
804.346	2922
804.488	2864
804.63	2963
804.773	2864
804.915	2899
805.057	3070
805.199	2891
805.341	2986
805.483	3051
805.626	3001
805.768	2960
805.91	3116
806.052	3100
806.194	3047
806.336	3218
806.478	3005
806.62	2937
806.762	2975
806.904	3017
807.046	3146
807.188	3009
807.33	2876
807.472	2998
807.614	2899
807.756	3024
807.898	2914
808.04	2902
808.182	2967
808.324	2891
808.465	2853
808.607	2887
808.749	2819
808.891	2823
809.033	2952
809.174	2982
809.316	2842
809.458	2918
809.6	2739
809.741	2758
809.883	2746
810.025	2834
810.166	2864
810.308	2861
810.45	2864
810.591	2777
810.733	2739
810.875	2781
811.016	2777
811.158	2758
811.299	2819
811.441	2906
811.582	2918
811.724	2826
811.865	2842
812.007	2937
812.148	2872
812.29	2868
812.431	2883
812.573	2929
812.714	2944
812.855	3032
812.997	3070
813.138	3093
813.279	2986
813.421	2979
813.562	2975
813.703	2849
813.845	2880
813.986	2777
814.127	2731
814.268	2819
814.41	2872
814.551	2823
814.692	2861
814.833	2853
814.974	2876
815.115	2956
815.256	2876
815.397	2811
815.539	2876
815.68	2754
815.821	2754
815.962	2952
816.103	2929
816.244	2918
816.385	2868
816.526	2982
816.666	2933
816.807	2762
816.948	2876
817.089	2918
817.23	2853
817.371	2758
817.512	2800
817.653	2823
817.793	2800
817.934	2895
818.075	2937
818.216	2979
818.356	2979
818.497	2895
818.638	2796
818.778	2849
818.919	2800
819.06	2758
819.2	2876
819.341	2785
819.481	2754
819.622	2887
819.762	3093
819.903	3024
820.043	2902
820.184	2910
820.324	2891
820.465	3039
820.605	2998
820.746	3020
820.886	2956
821.026	3036
821.167	3165
821.307	3268
821.447	3268
821.588	3207
821.728	3180
821.868	3157
822.008	3066
822.149	3165
822.289	3253
822.429	3074
822.569	3077
822.709	3184
822.849	2967
822.99	3036
823.13	3161
823.27	3203
823.41	3108
823.55	3142
823.69	3127
823.83	3146
823.97	3070
824.11	3017
824.25	3024
824.389	3047
824.529	3138
824.669	3089
824.809	3203
824.949	3237
825.089	3256
825.228	3150
825.368	3013
825.508	2971
825.648	2956
825.787	3020
825.927	3032
826.067	2971
826.206	2956
826.346	3058
826.485	3077
826.625	3108
826.765	3279
826.904	3226
827.044	3020
827.183	2967
827.323	2868
827.462	3051
827.601	2925
827.741	2963
827.88	2979
828.02	2887
828.159	2990
828.298	3051
828.437	3150
828.577	3100
828.716	3321
828.855	3089
828.994	2948
829.134	2963
829.273	2937
829.412	2929
829.551	2906
829.69	2952
829.829	3028
829.968	3161
830.107	3047
830.246	3081
830.385	2967
830.524	2941
830.663	2864
830.802	2788
830.941	2724
831.08	2689
831.219	2807
831.357	2750
831.496	2998
831.635	2785
831.774	2663
831.913	2693
832.051	2587
832.19	2602
832.329	2697
832.467	2575
832.606	2533
832.744	2602
832.883	2598
833.022	2651
833.16	2678
833.299	2720
833.437	2716
833.576	2781
833.714	2746
833.852	2762
833.991	2792
834.129	2872
834.267	2853
834.406	2861
834.544	2918
834.682	2948
834.821	2883
834.959	3093
835.097	2910
835.235	3081
835.373	3070
835.511	3051
835.65	2963
835.788	3009
835.926	2849
836.064	2830
836.202	2864
836.34	3135
836.478	3195
836.615	3062
836.753	3165
836.891	3241
837.029	3226
837.167	3116
837.305	3077
837.443	3097
837.58	2967
837.718	3173
837.856	3093
837.993	3062
838.131	3180
838.269	3138
838.406	3100
838.544	3146
838.681	2956
838.819	2941
838.956	2868
839.094	2838
839.231	2922
839.369	3020
839.506	3374
839.643	3203
839.781	3089
839.918	2982
840.055	3119
840.193	3081
840.33	3051
840.467	3123
840.604	3192
840.742	3473
840.879	3093
841.016	3077
841.153	3157
841.29	3370
841.427	3317
841.564	3321
841.701	3336
841.838	3272
841.975	3211
842.112	3245
842.249	3085
842.385	3032
842.522	3287
842.659	3108
842.796	3074
842.933	3135
843.069	3043
843.206	3074
843.343	3195
843.479	3123
843.616	3161
843.752	2933
843.889	2864
844.025	3085
844.162	2922
844.298	3108
844.435	2986
844.571	2937
844.708	3127
844.844	3211
844.98	3268
845.117	3253
845.253	3074
845.389	3077
845.525	3135
845.661	3169
845.798	3024
845.934	3169
846.07	3085
846.206	3226
846.342	3355
846.478	3291
846.614	3097
846.75	3070
846.886	3074
847.022	3298
847.158	3146
847.294	3230
847.429	3298
847.565	3237
847.701	3492
847.837	3077
847.972	3039
848.108	3192
848.244	3173
848.379	3009
848.515	2990
848.65	3005
848.786	2982
848.921	3047
849.057	3131
849.192	3188
849.328	3108
849.463	3169
849.598	3081
849.734	3089
849.869	2998
850.004	2941
850.14	3013
850.275	2933
850.41	2914
850.545	2914
850.68	2933
850.815	2990
850.95	2963
851.085	3195
851.22	3108
851.355	3062
851.49	3005
851.625	3066
851.76	3039
851.895	2967
852.03	2925
852.165	3051
852.299	3119
852.434	3222
852.569	3180
852.703	3214
852.838	3256
852.973	3386
853.107	3321
853.242	3203
853.376	3123
853.511	3047
853.645	3043
853.78	3272
853.914	3146
854.048	3131
854.183	3142
854.317	3180
854.451	3344
854.585	3150
854.72	3112
854.854	3218
854.988	3062
855.122	3093
855.256	3024
855.39	3150
855.524	3298
855.658	3249
855.792	3176
855.926	3211
856.06	3306
856.194	3272
856.327	3157
856.461	3108
856.595	3104
856.729	3097
856.862	3241
856.996	3184
857.13	3230
857.263	3233
857.397	3298
857.53	3135
857.664	3203
857.797	3275
857.931	3279
858.064	3157
858.197	3245
858.331	3119
858.464	3119
858.597	3047
858.731	3146
858.864	3161
858.997	3085
859.13	3192
859.263	3199
859.396	3154
859.529	3077
859.662	3123
859.795	3055
859.928	3173
860.061	3287
860.194	3313
860.327	3142
860.46	3123
860.592	3268
860.725	3264
860.858	3264
860.99	3116
861.123	3055
861.256	3077
861.388	3195
861.521	3831
861.653	3039
861.786	2982
861.918	3055
862.05	3108
862.183	3131
862.315	3184
862.447	3195
862.58	3089
862.712	2994
862.844	2918
862.976	3039
863.108	3024
863.24	3332
863.372	2899
863.504	2975
863.636	2963
863.768	3036
863.9	2998
864.032	2929
864.164	2963
864.296	3013
864.428	3097
864.559	3097
864.691	3051
864.823	3085
864.954	3062
865.086	3097
865.217	3009
865.349	2960
865.48	3009
865.612	3028
865.743	3161
865.875	2956
866.006	2979
866.137	2990
866.269	2944
866.4	2956
866.531	2899
866.662	2918
866.793	2887
866.924	2937
867.055	2986
867.186	2952
867.317	2891
867.448	2899
867.579	2887
867.71	2883
867.841	2876
867.972	2918
868.103	2899
868.233	2910
868.364	2906
868.495	2967
868.625	3089
868.756	3135
868.886	2986
869.017	3051
869.147	3188
869.278	3165
869.408	3039
869.539	3093
869.669	3116
869.799	3093
869.929	3135
870.06	3089
870.19	3359
870.32	3325
870.45	3306
870.58	3386
870.71	3477
870.84	3462
870.97	3302
871.1	3253
871.23	3485
871.36	3473
871.489	3340
871.619	3416
871.749	3412
871.879	3477
872.008	3542
872.138	3424
872.267	3306
872.397	3180
872.526	3135
872.656	3039
872.785	3119
872.915	3233
873.044	3313
873.173	3226
873.303	3253
873.432	3253
873.561	3287
873.69	3161
873.819	3127
873.948	3188
874.077	3138
874.206	3043
874.335	3127
874.464	3249
874.593	3329
874.722	3279
874.851	3409
874.979	3378
875.108	3355
875.237	3203
875.365	3169
875.494	3211
875.623	3298
875.751	3100
875.88	3142
876.008	3188
876.136	3253
876.265	3363
876.393	3500
876.521	3435
876.65	3405
876.778	3332
876.906	3233
877.034	3199
877.162	3249
877.29	3180
877.418	3294
877.546	3294
877.674	3226
877.802	3233
877.93	3264
878.058	3157
878.185	3108
878.313	3241
878.441	3214
878.568	3043
878.696	3131
878.824	3268
878.951	3294
879.079	3473
879.206	3629
879.333	3466
879.461	3374
879.588	3363
879.715	3458
879.842	3606
879.97	3409
880.097	3173
880.224	3157
880.351	3192
880.478	3260
880.605	3230
880.732	3207
880.859	3496
880.986	3317
881.112	3332
881.239	3249
881.366	3123
881.493	3028
881.619	3047
881.746	3074
881.872	3100
881.999	3138
882.125	3180
882.252	3241
882.378	3306
882.505	3462
882.631	3283
882.757	3188
882.883	3214
883.01	3233
883.136	3184
883.262	3119
883.388	3165
883.514	3336
883.64	3405
883.766	3294
883.892	3211
884.018	3222
884.143	3386
884.269	3507
884.395	3195
884.52	3169
884.646	3233
884.772	3135
884.897	3138
885.023	3195
885.148	3378
885.274	3397
885.399	3393
885.524	3260
885.65	3245
885.775	3302
885.9	3283
886.025	3443
886.15	3355
886.275	3317
886.4	3256
886.525	3287
886.65	3306
886.775	3272
886.9	3530
887.025	3603
887.149	3389
887.274	3260
887.399	3195
887.523	3199
887.648	3207
887.773	3203
887.897	3351
888.021	3409
888.146	3306
888.27	3466
888.395	3507
888.519	3435
888.643	3488
888.767	3458
888.891	3313
889.015	3268
889.139	3260
889.263	3283
889.387	3397
889.511	3496
889.635	3481
889.759	3260
889.883	3336
890.006	3420
890.13	3504
890.254	3241
890.377	3389
890.501	3222
890.624	3169
890.748	3306
890.871	3192
890.995	3127
891.118	3119
891.241	3199
891.364	3226
891.488	3283
891.611	3207
891.734	3222
891.857	3302
891.98	3253
892.103	3332
892.226	3294
892.349	3237
892.471	3119
892.594	3233
892.717	3306
892.839	3260
892.962	3306
893.085	3329
893.207	3310
893.33	3123
893.452	3218
893.575	3310
893.697	3249
893.819	3458
893.941	3526
894.064	3466
894.186	3268
894.308	3294
894.43	3412
894.552	3584
894.674	3492
894.796	3268
894.918	3351
895.04	3253
895.161	3420
895.283	3405
895.405	3348
895.526	3401
895.648	3450
895.769	3420
895.891	3439
896.012	3492
896.134	3492
896.255	3473
896.376	3367
896.498	3336
896.619	3454
896.74	3351
896.861	3416
896.982	3682
897.103	3854
897.224	3660
897.345	3538
897.466	3435
897.587	3488
897.708	3603
897.828	3538
897.949	3458
898.07	3340
898.19	3386
898.311	3599
898.431	3473
898.552	3576
898.672	3606
898.792	3561
898.913	3504
899.033	3447
899.153	3306
899.273	3199
899.393	3332
899.513	3279
899.633	3329
899.753	3374
899.873	3287
899.993	3359
900.113	3351
900.232	3389
900.352	3351
900.472	3325
900.591	3176
900.711	3298
900.83	3245
900.95	3443
901.069	3492
901.189	3367
901.308	3176
901.427	3138
901.546	3199
901.665	3294
901.784	3340
901.904	3256
902.023	3142
902.141	3039
902.26	2979
902.379	3146
902.498	3089
902.617	3039
902.735	3211
902.854	3245
902.973	3207
903.091	3047
903.21	3077
903.328	3146
903.446	3127
903.565	3089
903.683	3218
903.801	3161
903.919	3253
904.038	3306
904.156	3165
904.274	3249
904.392	3241
904.51	3321
904.627	3313
904.745	3458
904.863	3526
904.981	3253
905.098	3199
905.216	3245
905.334	3317
905.451	3298
905.569	3336
905.686	3405
905.803	3462
905.921	3256
906.038	3416
906.155	3317
906.272	3294
906.389	3370
906.506	3237
906.623	3241
906.74	3272
906.857	3226
906.974	3279
907.091	3428
907.208	3557
907.324	3477
907.441	3386
907.557	3211
907.674	3287
907.79	3199
907.907	3298
908.023	3420
908.139	3374
908.256	3332
908.372	3382
908.488	3374
908.604	3260
908.72	3230
908.836	3283
908.952	3310
909.068	3332
909.184	3507
909.3	3405
909.415	3549
909.531	3481
909.647	3275
909.762	3294
909.878	3249
909.993	3325
910.108	3329
910.224	3344
910.339	3412
910.454	3355
910.57	3294
910.685	3237
910.8	3591
910.915	3564
911.03	3473
911.145	3283
911.259	3298
911.374	3291
911.489	3245
911.604	3218
911.718	3085
911.833	3165
911.947	3104
912.062	3009
912.176	3230
912.291	3207
912.405	3222
912.519	3454
912.633	3462
912.748	3344
912.862	3291
912.976	3157
913.09	3062
913.204	3135
913.318	3222
913.431	3351
913.545	3355
913.659	3416
913.772	3359
913.886	3226
914	3241
914.113	3355
914.226	3420
914.34	3351
914.453	3192
914.566	3374
914.68	3294
914.793	3321
914.906	3154
915.019	3112
915.132	3081
915.245	3188
915.358	3226
915.47	3192
915.583	3260
915.696	3275
915.809	3378
915.921	3431
916.034	3302
916.146	3298
916.259	3226
916.371	3378
916.483	3397
916.595	3306
916.708	3348
916.82	3313
916.932	3348
917.044	3355
917.156	3405
917.268	3173
917.38	3329
917.491	3294
917.603	3378
917.715	3481
917.826	3477
917.938	3378
918.049	3264
918.161	3420
918.272	3572
918.384	3572
918.495	3477
918.606	3329
918.717	3268
918.828	3409
918.939	3416
919.05	3306
919.161	3348
919.272	3188
919.383	3294
919.494	3473
919.604	3701
919.715	3447
919.826	3401
919.936	3462
920.047	3595
920.157	3553
920.267	3720
920.378	3587
920.488	3534
920.598	3762
920.708	3934
920.818	3831
920.928	3831
921.038	4036
921.148	3998
921.258	3728
921.368	3652
921.477	3584
921.587	3526
921.697	3477
921.806	3599
921.916	3542
922.025	3359
922.134	3340
922.244	3359
922.353	3416
922.462	3283
922.571	3222
922.68	3123
922.789	3081
922.898	3135
923.007	3100
923.116	3173
923.224	3165
923.333	3161
923.442	3074
923.55	3097
923.659	3127
923.767	3180
923.876	3127
923.984	3253
924.092	3100
924.201	3173
924.309	3211
924.417	3207
924.525	3195
924.633	3264
924.741	4166
924.849	3039
924.956	3272
925.064	3127
925.172	3036
925.279	3089
925.387	3214
925.494	3195
925.602	3378
925.709	3336
925.816	3207
925.924	3294
926.031	3370
926.138	3348
926.245	3325
926.352	3260
926.459	3428
926.566	3462
926.673	3336
926.779	3294
926.886	3222
926.993	3150
927.099	3138
927.206	3074
927.312	3119
927.419	3256
927.525	3199
927.631	3279
927.737	3146
927.843	3146
927.95	2979
928.056	3112
928.162	3184
928.267	3275
928.373	3854
928.479	3313
928.585	3058
928.69	3226
928.796	3268
928.901	3188
929.007	3074
929.112	3199
929.218	3161
929.323	3142
929.428	3119
929.533	3287
929.638	3112
929.743	3203
929.848	3283
929.953	3203
930.058	3131
930.163	3017
930.267	3043
930.372	3154
930.477	3009
930.581	3291
930.685	3188
930.79	3020
930.894	3119
930.998	3116
931.103	3294
931.207	2967
931.311	2960
931.415	2914
931.519	2785
931.623	2788
