Data from test_V78500241_1033.txt Node
Date: Fri Mar 25 16:22:21 CST 2022
User: usil
Spectrometer: V785-0024
Trigger mode: 0
Integration Time (sec): 4.000000E-1
Scans to average: 1
Nonlinearity correction enabled: false
Boxcar width: 0
Storing dark spectrum: false
XAxis mode: Wavelengths
Number of Pixels in Spectrum: 1024
>>>>>Begin Spectral Data<<<<<
801.071	2910
801.214	2922
801.356	2868
801.499	2910
801.641	2883
801.783	2941
801.926	3047
802.068	3017
802.211	2998
802.353	3013
802.496	2956
802.638	3001
802.78	2998
802.923	3070
803.065	2994
803.208	2880
803.35	2918
803.492	2941
803.635	2910
803.777	2781
803.919	2819
804.061	3184
804.204	2918
804.346	2883
804.488	2811
804.63	3017
804.773	2880
804.915	2910
805.057	3070
805.199	2922
805.341	2975
805.483	3036
805.626	2975
805.768	2960
805.91	3093
806.052	3119
806.194	3066
806.336	3203
806.478	3009
806.62	2963
806.762	2960
806.904	3039
807.046	3157
807.188	2975
807.33	2929
807.472	3005
807.614	2899
807.756	2967
807.898	2895
808.04	2891
808.182	2982
808.324	2952
808.465	2895
808.607	2857
808.749	2762
808.891	2842
809.033	2941
809.174	2971
809.316	2899
809.458	2910
809.6	2796
809.741	2773
809.883	2788
810.025	2838
810.166	2826
810.308	2826
810.45	2872
810.591	2766
810.733	2758
810.875	2800
811.016	2769
811.158	2735
811.299	2807
811.441	2891
811.582	2929
811.724	2811
811.865	2781
812.007	2872
812.148	2864
812.29	2804
812.431	2906
812.573	2937
812.714	2975
812.855	3028
812.997	3043
813.138	3131
813.279	2990
813.421	2998
813.562	2933
813.703	2857
813.845	2906
813.986	2766
814.127	2724
814.268	2781
814.41	2849
814.551	2781
814.692	2868
814.833	2788
814.974	2887
815.115	2971
815.256	2815
815.397	2826
815.539	2861
815.68	2781
815.821	2792
815.962	2918
816.103	2925
816.244	2891
816.385	2872
816.526	2941
816.666	2868
816.807	2731
816.948	2880
817.089	2918
817.23	2857
817.371	2781
817.512	2807
817.653	2834
817.793	2796
817.934	2849
818.075	2956
818.216	3017
818.356	2994
818.497	2887
818.638	2796
818.778	2792
818.919	2777
819.06	2773
819.2	2883
819.341	2796
819.481	2785
819.622	2929
819.762	3070
819.903	3066
820.043	2902
820.184	2868
820.324	2880
820.465	3005
820.605	3062
820.746	3005
820.886	2941
821.026	3093
821.167	3116
821.307	3249
821.447	3306
821.588	3249
821.728	3218
821.868	3180
822.008	3081
822.149	3165
822.289	3230
822.429	3039
822.569	3093
822.709	3188
822.849	3001
822.99	3070
823.13	3150
823.27	3192
823.41	3085
823.55	3176
823.69	3119
823.83	3169
823.97	3104
824.11	2982
824.25	3005
824.389	3058
824.529	3093
824.669	3074
824.809	3165
824.949	3230
825.089	3226
825.228	3161
825.368	2998
825.508	2963
825.648	2941
825.787	3009
825.927	3043
826.067	2979
826.206	2937
826.346	3051
826.485	3070
826.625	3108
826.765	3279
826.904	3195
827.044	2979
827.183	2910
827.323	2876
827.462	2956
827.601	2902
827.741	2944
827.88	2971
828.02	2838
828.159	2971
828.298	3009
828.437	3097
828.577	3020
828.716	3230
828.855	3085
828.994	2902
829.134	2887
829.273	2902
829.412	2876
829.551	2838
829.69	2887
829.829	2967
829.968	3100
830.107	3005
830.246	3017
830.385	2944
830.524	2868
830.663	2773
830.802	2727
830.941	2640
831.08	2613
831.219	2769
831.357	2727
831.496	2918
831.635	2727
831.774	2663
831.913	2640
832.051	2549
832.19	2568
832.329	2663
832.467	2511
832.606	2461
832.744	2583
832.883	2530
833.022	2606
833.16	2670
833.299	2659
833.437	2693
833.576	2693
833.714	2708
833.852	2746
833.991	2769
834.129	2842
834.267	2838
834.406	2811
834.544	2838
834.682	2880
834.821	2842
834.959	3058
835.097	2902
835.235	3032
835.373	2967
835.511	2998
835.65	2937
835.788	2925
835.926	2849
836.064	2804
836.202	2861
836.34	3089
836.478	3119
836.615	3047
836.753	3135
836.891	3207
837.029	3146
837.167	3093
837.305	3062
837.443	3055
837.58	2929
837.718	3104
837.856	3062
837.993	3005
838.131	3150
838.269	3062
838.406	3066
838.544	3081
838.681	2929
838.819	2902
838.956	2800
839.094	2781
839.231	2933
839.369	3020
839.506	3344
839.643	3207
839.781	3001
839.918	2948
840.055	3017
840.193	3032
840.33	3074
840.467	3089
840.604	3123
840.742	3355
840.879	3013
841.016	3036
841.153	3097
841.29	3325
841.427	3310
841.564	3222
841.701	3344
841.838	3199
841.975	3097
842.112	3188
842.249	3074
842.385	3036
842.522	3237
842.659	3051
842.796	3070
842.933	3062
843.069	2990
843.206	3032
843.343	3150
843.479	3150
843.616	3108
843.752	2902
843.889	2864
844.025	3097
844.162	2864
844.298	3081
844.435	2914
844.571	2914
844.708	3074
844.844	3176
844.98	3264
845.117	3165
845.253	3009
845.389	2971
845.525	3089
845.661	3085
845.798	3005
845.934	3074
846.07	3024
846.206	3214
846.342	3340
846.478	3233
846.614	3089
846.75	3028
846.886	3001
847.022	3241
847.158	3116
847.294	3192
847.429	3241
847.565	3218
847.701	3507
847.837	3013
847.972	2986
848.108	3142
848.244	3112
848.379	2982
848.515	2929
848.65	2918
848.786	2956
848.921	2990
849.057	3085
849.192	3119
849.328	3047
849.463	3150
849.598	3058
849.734	3020
849.869	2937
850.004	2853
850.14	2963
850.275	2925
850.41	2834
850.545	2864
850.68	2883
850.815	2925
850.95	2952
851.085	3169
851.22	3047
851.355	3013
851.49	2937
851.625	2963
851.76	2979
851.895	2918
852.03	2895
852.165	3028
852.299	3119
852.434	3169
852.569	3116
852.703	3135
852.838	3249
852.973	3313
853.107	3302
853.242	3138
853.376	3081
853.511	2952
853.645	3039
853.78	3192
853.914	3089
854.048	3097
854.183	3043
854.317	3146
854.451	3294
854.585	3100
854.72	3039
854.854	3180
854.988	3047
855.122	3058
855.256	2963
855.39	3055
855.524	3188
855.658	3214
855.792	3192
855.926	3165
856.06	3214
856.194	3264
856.327	3146
856.461	3089
856.595	3089
856.729	3097
856.862	3207
856.996	3142
857.13	3154
857.263	3233
857.397	3279
857.53	3097
857.664	3169
857.797	3233
857.931	3241
858.064	3150
858.197	3222
858.331	3165
858.464	3085
858.597	3020
858.731	3112
858.864	3150
858.997	3097
859.13	3154
859.263	3207
859.396	3169
859.529	3074
859.662	3135
859.795	3039
859.928	3161
860.061	3249
860.194	3313
860.327	3161
860.46	3097
860.592	3260
860.725	3241
860.858	3310
860.99	3150
861.123	3119
861.256	3097
861.388	3169
861.521	3869
861.653	3085
861.786	3009
861.918	3032
862.05	3093
862.183	3154
862.315	3199
862.447	3256
862.58	3119
862.712	2990
862.844	2902
862.976	3062
863.108	3047
863.24	3458
863.372	2925
863.504	2994
863.636	3001
863.768	3062
863.9	2990
864.032	2941
864.164	2979
864.296	3024
864.428	3127
864.559	3131
864.691	3119
864.823	3100
864.954	3043
865.086	3093
865.217	3032
865.349	2986
865.48	3047
865.612	3043
865.743	3184
865.875	3013
866.006	2975
866.137	3020
866.269	3009
866.4	2963
866.531	2948
866.662	2948
866.793	2967
866.924	2937
867.055	2994
867.186	2941
867.317	2902
867.448	2849
867.579	2887
867.71	2910
867.841	2857
867.972	2941
868.103	2948
868.233	2918
868.364	2861
868.495	2941
868.625	3119
868.756	3207
868.886	3017
869.017	3070
869.147	3230
869.278	3218
869.408	3051
869.539	3058
869.669	3138
869.799	3097
869.929	3169
870.06	3154
870.19	3313
870.32	3329
870.45	3329
870.58	3428
870.71	3454
870.84	3466
870.97	3321
871.1	3253
871.23	3523
871.36	3538
871.489	3367
871.619	3393
871.749	3477
871.879	3477
872.008	3454
872.138	3363
872.267	3268
872.397	3199
872.526	3157
872.656	3024
872.785	3089
872.915	3287
873.044	3374
873.173	3302
873.303	3264
873.432	3272
873.561	3264
873.69	3211
873.819	3157
873.948	3260
874.077	3108
874.206	3085
874.335	3131
874.464	3222
874.593	3313
874.722	3279
874.851	3424
874.979	3393
875.108	3325
875.237	3233
875.365	3188
875.494	3211
875.623	3287
875.751	3089
875.88	3123
876.008	3192
876.136	3260
876.265	3355
876.393	3542
876.521	3412
876.65	3428
876.778	3359
876.906	3260
877.034	3211
877.162	3272
877.29	3203
877.418	3294
877.546	3332
877.674	3256
877.802	3233
877.93	3264
878.058	3119
878.185	3138
878.313	3214
878.441	3245
878.568	3100
878.696	3169
878.824	3313
878.951	3363
879.079	3469
879.206	3671
879.333	3496
879.461	3332
879.588	3386
879.715	3523
879.842	3622
879.97	3412
880.097	3180
880.224	3184
880.351	3195
880.478	3249
880.605	3222
880.732	3218
880.859	3458
880.986	3359
881.112	3340
881.239	3218
881.366	3135
881.493	3070
881.619	3039
881.746	3089
881.872	3138
881.999	3165
882.125	3165
882.252	3260
882.378	3264
882.505	3428
882.631	3310
882.757	3214
882.883	3233
883.01	3237
883.136	3161
883.262	3123
883.388	3157
883.514	3321
883.64	3431
883.766	3332
883.892	3230
884.018	3272
884.143	3454
884.269	3538
884.395	3230
884.52	3188
884.646	3199
884.772	3180
884.897	3119
885.023	3245
885.148	3355
885.274	3443
885.399	3401
885.524	3332
885.65	3275
885.775	3344
885.9	3291
886.025	3458
886.15	3424
886.275	3363
886.4	3287
886.525	3355
886.65	3317
886.775	3287
886.9	3576
887.025	3644
887.149	3439
887.274	3291
887.399	3207
887.523	3256
887.648	3211
887.773	3226
887.897	3397
888.021	3386
888.146	3329
888.27	3504
888.395	3564
888.519	3439
888.643	3466
888.767	3488
888.891	3367
889.015	3264
889.139	3336
889.263	3321
889.387	3401
889.511	3538
889.635	3458
889.759	3321
889.883	3310
890.006	3424
890.13	3488
890.254	3306
890.377	3382
890.501	3241
890.624	3230
890.748	3348
890.871	3218
890.995	3150
891.118	3131
891.241	3245
891.364	3253
891.488	3348
891.611	3211
891.734	3237
891.857	3313
891.98	3249
892.103	3359
892.226	3302
892.349	3249
892.471	3142
892.594	3241
892.717	3294
892.839	3291
892.962	3279
893.085	3351
893.207	3294
893.33	3142
893.452	3253
893.575	3340
893.697	3264
893.819	3473
893.941	3477
894.064	3458
894.186	3294
894.308	3306
894.43	3485
894.552	3614
894.674	3473
894.796	3294
894.918	3370
895.04	3291
895.161	3428
895.283	3424
895.405	3287
895.526	3420
895.648	3424
895.769	3466
895.891	3492
896.012	3473
896.134	3466
896.255	3401
896.376	3409
896.498	3409
896.619	3450
896.74	3386
896.861	3447
896.982	3690
897.103	3850
897.224	3606
897.345	3519
897.466	3481
897.587	3519
897.708	3629
897.828	3629
897.949	3477
898.07	3355
898.19	3405
898.311	3595
898.431	3492
898.552	3534
898.672	3622
898.792	3625
898.913	3504
899.033	3405
899.153	3344
899.273	3233
899.393	3310
899.513	3374
899.633	3325
899.753	3363
899.873	3355
899.993	3393
900.113	3389
900.232	3401
900.352	3393
900.472	3298
900.591	3211
900.711	3336
900.83	3260
900.95	3397
901.069	3507
901.189	3329
901.308	3150
901.427	3150
901.546	3195
901.665	3298
901.784	3367
901.904	3222
902.023	3104
902.141	3024
902.26	3020
902.379	3146
902.498	3074
902.617	3085
902.735	3264
902.854	3249
902.973	3211
903.091	3055
903.21	3104
903.328	3207
903.446	3135
903.565	3116
903.683	3230
903.801	3154
903.919	3272
904.038	3291
904.156	3207
904.274	3310
904.392	3317
904.51	3298
904.627	3310
904.745	3420
904.863	3534
904.981	3313
905.098	3192
905.216	3214
905.334	3287
905.451	3317
905.569	3310
905.686	3492
905.803	3485
905.921	3279
906.038	3431
906.155	3363
906.272	3279
906.389	3344
906.506	3260
906.623	3306
906.74	3302
906.857	3237
906.974	3275
907.091	3454
907.208	3576
907.324	3504
907.441	3367
907.557	3241
907.674	3275
907.79	3214
907.907	3253
908.023	3363
908.139	3389
908.256	3382
908.372	3382
908.488	3386
908.604	3264
908.72	3241
908.836	3310
908.952	3298
909.068	3344
909.184	3492
909.3	3412
909.415	3534
909.531	3511
909.647	3313
909.762	3310
909.878	3256
909.993	3363
910.108	3332
910.224	3359
910.339	3416
910.454	3325
910.57	3313
910.685	3256
910.8	3625
910.915	3534
911.03	3412
911.145	3317
911.259	3310
911.374	3325
911.489	3275
911.604	3249
911.718	3100
911.833	3222
911.947	3032
912.062	2979
912.176	3180
912.291	3264
912.405	3176
912.519	3454
912.633	3450
912.748	3355
912.862	3256
912.976	3207
913.09	3085
913.204	3135
913.318	3241
913.431	3355
913.545	3340
913.659	3443
913.772	3355
913.886	3237
914	3241
914.113	3325
914.226	3431
914.34	3412
914.453	3256
914.566	3412
914.68	3294
914.793	3329
914.906	3165
915.019	3104
915.132	3066
915.245	3195
915.358	3237
915.47	3226
915.583	3279
915.696	3287
915.809	3405
915.921	3450
916.034	3302
916.146	3287
916.259	3245
916.371	3393
916.483	3370
916.595	3260
916.708	3370
916.82	3378
916.932	3332
917.044	3355
917.156	3344
917.268	3287
917.38	3313
917.491	3302
917.603	3420
917.715	3458
917.826	3481
917.938	3424
918.049	3264
918.161	3401
918.272	3561
918.384	3568
918.495	3500
918.606	3363
918.717	3294
918.828	3382
918.939	3424
919.05	3332
919.161	3344
919.272	3192
919.383	3264
919.494	3481
919.604	3682
919.715	3511
919.826	3416
919.936	3450
920.047	3576
920.157	3568
920.267	3774
920.378	3633
920.488	3587
920.598	3800
920.708	3956
920.818	3865
920.928	3800
921.038	4006
921.148	4032
921.258	3728
921.368	3610
921.477	3584
921.587	3507
921.697	3488
921.806	3599
921.916	3545
922.025	3386
922.134	3389
922.244	3310
922.353	3409
922.462	3256
922.571	3241
922.68	3093
922.789	3119
922.898	3142
923.007	3100
923.116	3233
923.224	3176
923.333	3184
923.442	3119
923.55	3047
923.659	3127
923.767	3218
923.876	3146
923.984	3249
924.092	3108
924.201	3222
924.309	3241
924.417	3260
924.525	3188
924.633	3253
924.741	4200
924.849	3089
924.956	3283
925.064	3093
925.172	3070
925.279	3127
925.387	3184
925.494	3199
925.602	3378
925.709	3348
925.816	3237
925.924	3260
926.031	3405
926.138	3332
926.245	3348
926.352	3279
926.459	3458
926.566	3496
926.673	3329
926.779	3264
926.886	3272
926.993	3173
927.099	3157
927.206	3157
927.312	3169
927.419	3272
927.525	3245
927.631	3321
927.737	3169
927.843	3188
927.95	3028
928.056	3192
928.162	3211
928.267	3291
928.373	3930
928.479	3374
928.585	3085
928.69	3287
928.796	3317
928.901	3207
929.007	3093
929.112	3207
929.218	3211
929.323	3218
929.428	3245
929.533	3321
929.638	3161
929.743	3203
929.848	3317
929.953	3268
930.058	3214
930.163	3032
930.267	3089
930.372	3233
930.477	3093
930.581	3359
930.685	3199
930.79	3085
930.894	3157
930.998	3131
931.103	3298
931.207	3013
931.311	2979
931.415	2948
931.519	2845
931.623	2823
