Data from test_V78500241_1727.txt Node
Date: Fri Mar 25 16:27:10 CST 2022
User: usil
Spectrometer: V785-0024
Trigger mode: 0
Integration Time (sec): 4.000000E-1
Scans to average: 1
Nonlinearity correction enabled: false
Boxcar width: 0
Storing dark spectrum: false
XAxis mode: Wavelengths
Number of Pixels in Spectrum: 1024
>>>>>Begin Spectral Data<<<<<
801.071	2914
801.214	2925
801.356	2868
801.499	2883
801.641	2868
801.783	2910
801.926	3047
802.068	2990
802.211	3020
802.353	3020
802.496	2948
802.638	2986
802.78	3028
802.923	3081
803.065	3001
803.208	2933
803.35	2899
803.492	2948
803.635	2933
803.777	2762
803.919	2849
804.061	3173
804.204	2944
804.346	2891
804.488	2823
804.63	3013
804.773	2899
804.915	2899
805.057	3051
805.199	2925
805.341	2986
805.483	3062
805.626	3020
805.768	2982
805.91	3089
806.052	3108
806.194	3058
806.336	3218
806.478	3043
806.62	2956
806.762	2979
806.904	3020
807.046	3154
807.188	2982
807.33	2902
807.472	2986
807.614	2922
807.756	2994
807.898	2941
808.04	2914
808.182	2982
808.324	2982
808.465	2887
808.607	2861
808.749	2769
808.891	2842
809.033	3005
809.174	2952
809.316	2861
809.458	2883
809.6	2750
809.741	2788
809.883	2750
810.025	2864
810.166	2861
810.308	2826
810.45	2819
810.591	2777
810.733	2743
810.875	2842
811.016	2758
811.158	2769
811.299	2804
811.441	2929
811.582	2899
811.724	2834
811.865	2792
812.007	2918
812.148	2861
812.29	2845
812.431	2895
812.573	2967
812.714	2933
812.855	3039
812.997	3043
813.138	3108
813.279	2971
813.421	2967
813.562	2956
813.703	2880
813.845	2910
813.986	2777
814.127	2720
814.268	2792
814.41	2796
814.551	2788
814.692	2876
814.833	2845
814.974	2876
815.115	2971
815.256	2823
815.397	2781
815.539	2861
815.68	2766
815.821	2800
815.962	2948
816.103	2914
816.244	2883
816.385	2895
816.526	3013
816.666	2902
816.807	2750
816.948	2906
817.089	2914
817.23	2845
817.371	2785
817.512	2781
817.653	2872
817.793	2838
817.934	2895
818.075	2960
818.216	2967
818.356	3043
818.497	2880
818.638	2800
818.778	2819
818.919	2804
819.06	2800
819.2	2834
819.341	2788
819.481	2792
819.622	2914
819.762	3108
819.903	3013
820.043	2941
820.184	2864
820.324	2872
820.465	2994
820.605	3024
820.746	2994
820.886	2933
821.026	3123
821.167	3146
821.307	3233
821.447	3279
821.588	3249
821.728	3188
821.868	3237
822.008	3051
822.149	3188
822.289	3222
822.429	3081
822.569	3070
822.709	3135
822.849	2986
822.99	3089
823.13	3146
823.27	3214
823.41	3093
823.55	3123
823.69	3104
823.83	3203
823.97	3093
824.11	3017
824.25	2967
824.389	3081
824.529	3085
824.669	3024
824.809	3214
824.949	3256
825.089	3230
825.228	3176
825.368	2971
825.508	2967
825.648	2933
825.787	3005
825.927	3020
826.067	2971
826.206	2895
826.346	3085
826.485	3055
826.625	3123
826.765	3211
826.904	3211
827.044	2990
827.183	2914
827.323	2864
827.462	2979
827.601	2929
827.741	2944
827.88	2960
828.02	2823
828.159	2922
828.298	3055
828.437	3097
828.577	3036
828.716	3256
828.855	3081
828.994	2887
829.134	2880
829.273	2906
829.412	2842
829.551	2861
829.69	2872
829.829	2986
829.968	3100
830.107	2998
830.246	3036
830.385	2899
830.524	2880
830.663	2815
830.802	2720
830.941	2636
831.08	2636
831.219	2743
831.357	2773
831.496	2937
831.635	2735
831.774	2617
831.913	2644
832.051	2541
832.19	2579
832.329	2667
832.467	2484
832.606	2495
832.744	2560
832.883	2590
833.022	2575
833.16	2689
833.299	2705
833.437	2644
833.576	2663
833.714	2712
833.852	2731
833.991	2750
834.129	2849
834.267	2796
834.406	2781
834.544	2880
834.682	2864
834.821	2857
834.959	3077
835.097	2887
835.235	3028
835.373	3005
835.511	2994
835.65	2925
835.788	2963
835.926	2842
836.064	2811
836.202	2834
836.34	3131
836.478	3169
836.615	3024
836.753	3135
836.891	3180
837.029	3157
837.167	3112
837.305	3051
837.443	3051
837.58	2963
837.718	3150
837.856	3070
837.993	2975
838.131	3093
838.269	3123
838.406	3085
838.544	3062
838.681	2933
838.819	2906
838.956	2781
839.094	2815
839.231	2933
839.369	3001
839.506	3370
839.643	3154
839.781	3017
839.918	2967
840.055	3062
840.193	3009
840.33	3066
840.467	3108
840.604	3195
840.742	3386
840.879	3062
841.016	3051
841.153	3093
841.29	3325
841.427	3313
841.564	3233
841.701	3344
841.838	3184
841.975	3157
842.112	3195
842.249	3047
842.385	3062
842.522	3241
842.659	3089
842.796	3043
842.933	3062
843.069	3024
843.206	3013
843.343	3199
843.479	3108
843.616	3123
843.752	2887
843.889	2880
844.025	3066
844.162	2857
844.298	3032
844.435	2948
844.571	2902
844.708	3062
844.844	3161
844.98	3222
845.117	3207
845.253	3051
845.389	2990
845.525	3119
845.661	3119
845.798	2967
845.934	3135
846.07	3020
846.206	3233
846.342	3336
846.478	3226
846.614	3100
846.75	3013
846.886	3028
847.022	3207
847.158	3135
847.294	3218
847.429	3260
847.565	3222
847.701	3435
847.837	3032
847.972	3024
848.108	3154
848.244	3142
848.379	2982
848.515	2952
848.65	2933
848.786	2941
848.921	3001
849.057	3081
849.192	3123
849.328	3085
849.463	3097
849.598	3043
849.734	3017
849.869	2960
850.004	2925
850.14	2933
850.275	2933
850.41	2842
850.545	2853
850.68	2925
850.815	2967
850.95	2956
851.085	3222
851.22	3123
851.355	3058
851.49	2986
851.625	2998
851.76	2982
851.895	2941
852.03	2880
852.165	3047
852.299	3100
852.434	3131
852.569	3154
852.703	3165
852.838	3245
852.973	3348
853.107	3310
853.242	3165
853.376	3100
853.511	2960
853.645	3043
853.78	3211
853.914	3116
854.048	3085
854.183	3123
854.317	3116
854.451	3298
854.585	3131
854.72	3081
854.854	3211
854.988	3036
855.122	3081
855.256	2967
855.39	3123
855.524	3226
855.658	3157
855.792	3157
855.926	3169
856.06	3188
856.194	3237
856.327	3138
856.461	3036
856.595	3112
856.729	3081
856.862	3237
856.996	3127
857.13	3211
857.263	3199
857.397	3272
857.53	3093
857.664	3165
857.797	3176
857.931	3237
858.064	3199
858.197	3218
858.331	3116
858.464	3066
858.597	2979
858.731	3104
858.864	3127
858.997	3070
859.13	3161
859.263	3176
859.396	3176
859.529	3039
859.662	3058
859.795	3039
859.928	3104
860.061	3260
860.194	3287
860.327	3135
860.46	3074
860.592	3230
860.725	3253
860.858	3249
860.99	3081
861.123	3074
861.256	3036
861.388	3150
861.521	3945
861.653	2994
861.786	2986
861.918	3005
862.05	3036
862.183	3089
862.315	3142
862.447	3169
862.58	3077
862.712	2941
862.844	2883
862.976	3036
863.108	2994
863.24	3298
863.372	2845
863.504	2956
863.636	2967
863.768	3043
863.9	2986
864.032	2906
864.164	2929
864.296	2994
864.428	3074
864.559	3116
864.691	3112
864.823	3070
864.954	3009
865.086	3036
865.217	2971
865.349	2918
865.48	2971
865.612	2986
865.743	3108
865.875	2956
866.006	2922
866.137	2963
866.269	2899
866.4	2937
866.531	2914
866.662	2906
866.793	2883
866.924	2891
867.055	2952
867.186	2941
867.317	2899
867.448	2800
867.579	2864
867.71	2845
867.841	2815
867.972	2899
868.103	2902
868.233	2899
868.364	2880
868.495	2899
868.625	3100
868.756	3150
868.886	2956
869.017	2994
869.147	3138
869.278	3169
869.408	3055
869.539	3036
869.669	3112
869.799	3024
869.929	3108
870.06	3138
870.19	3329
870.32	3253
870.45	3245
870.58	3397
870.71	3431
870.84	3450
870.97	3272
871.1	3249
871.23	3447
871.36	3431
871.489	3409
871.619	3409
871.749	3405
871.879	3462
872.008	3450
872.138	3313
872.267	3256
872.397	3169
872.526	3116
872.656	3001
872.785	3112
872.915	3199
873.044	3306
873.173	3230
873.303	3287
873.432	3214
873.561	3211
873.69	3131
873.819	3135
873.948	3184
874.077	3070
874.206	3062
874.335	3062
874.464	3207
874.593	3370
874.722	3264
874.851	3382
874.979	3359
875.108	3325
875.237	3173
875.365	3226
875.494	3138
875.623	3245
875.751	3100
875.88	3100
876.008	3218
876.136	3214
876.265	3382
876.393	3507
876.521	3405
876.65	3401
876.778	3329
876.906	3214
877.034	3169
877.162	3207
877.29	3199
877.418	3245
877.546	3233
877.674	3249
877.802	3199
877.93	3165
878.058	3116
878.185	3108
878.313	3184
878.441	3192
878.568	3066
878.696	3097
878.824	3294
878.951	3275
879.079	3473
879.206	3595
879.333	3420
879.461	3340
879.588	3317
879.715	3439
879.842	3591
879.97	3386
880.097	3165
880.224	3123
880.351	3199
880.478	3218
880.605	3188
880.732	3176
880.859	3481
880.986	3294
881.112	3325
881.239	3237
881.366	3097
881.493	3017
881.619	2990
881.746	3100
881.872	3108
881.999	3074
882.125	3116
882.252	3222
882.378	3306
882.505	3431
882.631	3264
882.757	3131
882.883	3237
883.01	3249
883.136	3161
883.262	3089
883.388	3104
883.514	3340
883.64	3367
883.766	3287
883.892	3161
884.018	3211
884.143	3435
884.269	3549
884.395	3188
884.52	3131
884.646	3199
884.772	3135
884.897	3104
885.023	3203
885.148	3332
885.274	3424
885.399	3370
885.524	3268
885.65	3260
885.775	3336
885.9	3249
886.025	3469
886.15	3370
886.275	3317
886.4	3241
886.525	3253
886.65	3264
886.775	3291
886.9	3485
887.025	3622
887.149	3416
887.274	3253
887.399	3203
887.523	3173
887.648	3165
887.773	3199
887.897	3382
888.021	3386
888.146	3275
888.27	3428
888.395	3538
888.519	3424
888.643	3447
888.767	3466
888.891	3275
889.015	3222
889.139	3283
889.263	3260
889.387	3351
889.511	3504
889.635	3454
889.759	3313
889.883	3275
890.006	3374
890.13	3450
890.254	3272
890.377	3313
890.501	3157
890.624	3169
890.748	3283
890.871	3165
890.995	3112
891.118	3077
891.241	3199
891.364	3176
891.488	3325
891.611	3195
891.734	3165
891.857	3287
891.98	3226
892.103	3294
892.226	3275
892.349	3199
892.471	3104
892.594	3218
892.717	3310
892.839	3253
892.962	3272
893.085	3329
893.207	3283
893.33	3142
893.452	3207
893.575	3374
893.697	3214
893.819	3447
893.941	3492
894.064	3462
894.186	3279
894.308	3275
894.43	3454
894.552	3568
894.674	3443
894.796	3253
894.918	3272
895.04	3294
895.161	3409
895.283	3389
895.405	3256
895.526	3359
895.648	3412
895.769	3412
895.891	3420
896.012	3431
896.134	3401
896.255	3409
896.376	3393
896.498	3348
896.619	3409
896.74	3306
896.861	3386
896.982	3667
897.103	3819
897.224	3545
897.345	3526
897.466	3412
897.587	3523
897.708	3625
897.828	3538
897.949	3428
898.07	3359
898.19	3424
898.311	3591
898.431	3416
898.552	3496
898.672	3568
898.792	3549
898.913	3561
899.033	3409
899.153	3264
899.273	3222
899.393	3310
899.513	3283
899.633	3336
899.753	3332
899.873	3298
899.993	3389
900.113	3344
900.232	3374
900.352	3310
900.472	3313
900.591	3218
900.711	3256
900.83	3245
900.95	3374
901.069	3519
901.189	3332
901.308	3161
901.427	3112
901.546	3226
901.665	3268
901.784	3298
901.904	3214
902.023	3119
902.141	2990
902.26	2986
902.379	3104
902.498	3039
902.617	3036
902.735	3249
902.854	3226
902.973	3165
903.091	3039
903.21	3108
903.328	3104
903.446	3089
903.565	3093
903.683	3184
903.801	3135
903.919	3214
904.038	3298
904.156	3169
904.274	3291
904.392	3253
904.51	3287
904.627	3344
904.745	3412
904.863	3519
904.981	3253
905.098	3188
905.216	3214
905.334	3310
905.451	3321
905.569	3291
905.686	3393
905.803	3454
905.921	3329
906.038	3412
906.155	3351
906.272	3279
906.389	3302
906.506	3218
906.623	3253
906.74	3294
906.857	3203
906.974	3264
907.091	3469
907.208	3542
907.324	3466
907.441	3393
907.557	3279
907.674	3226
907.79	3188
907.907	3287
908.023	3374
908.139	3389
908.256	3275
908.372	3374
908.488	3367
908.604	3268
908.72	3195
908.836	3279
908.952	3268
909.068	3336
909.184	3454
909.3	3374
909.415	3526
909.531	3477
909.647	3283
909.762	3283
909.878	3253
909.993	3359
910.108	3287
910.224	3321
910.339	3431
910.454	3325
910.57	3279
910.685	3272
910.8	3564
910.915	3545
911.03	3439
911.145	3241
911.259	3256
911.374	3306
911.489	3226
911.604	3226
911.718	3116
911.833	3146
911.947	2998
912.062	3028
912.176	3127
912.291	3180
912.405	3180
912.519	3447
912.633	3473
912.748	3317
912.862	3256
912.976	3184
913.09	3032
913.204	3154
913.318	3222
913.431	3325
913.545	3298
913.659	3386
913.772	3302
913.886	3207
914	3199
914.113	3317
914.226	3397
914.34	3370
914.453	3211
914.566	3409
914.68	3287
914.793	3336
914.906	3150
915.019	3116
915.132	3081
915.245	3161
915.358	3230
915.47	3237
915.583	3256
915.696	3306
915.809	3416
915.921	3416
916.034	3264
916.146	3245
916.259	3199
916.371	3412
916.483	3355
916.595	3237
916.708	3317
916.82	3348
916.932	3336
917.044	3355
917.156	3386
917.268	3291
917.38	3321
917.491	3260
917.603	3386
917.715	3447
917.826	3450
917.938	3374
918.049	3272
918.161	3439
918.272	3545
918.384	3595
918.495	3523
918.606	3321
918.717	3291
918.828	3363
918.939	3416
919.05	3329
919.161	3382
919.272	3161
919.383	3275
919.494	3492
919.604	3694
919.715	3511
919.826	3412
919.936	3469
920.047	3542
920.157	3545
920.267	3747
920.378	3606
920.488	3576
920.598	3709
920.708	3960
920.818	3823
920.928	3797
921.038	4029
921.148	3953
921.258	3713
921.368	3625
921.477	3538
921.587	3526
921.697	3447
921.806	3637
921.916	3523
922.025	3397
922.134	3336
922.244	3313
922.353	3382
922.462	3306
922.571	3207
922.68	3100
922.789	3112
922.898	3089
923.007	3085
923.116	3222
923.224	3161
923.333	3180
923.442	3093
923.55	3100
923.659	3127
923.767	3226
923.876	3093
923.984	3230
924.092	3085
924.201	3207
924.309	3161
924.417	3218
924.525	3173
924.633	3211
924.741	3987
924.849	3051
924.956	3275
925.064	3108
925.172	3066
925.279	3097
925.387	3203
925.494	3222
925.602	3351
925.709	3329
925.816	3157
925.924	3279
926.031	3363
926.138	3332
926.245	3370
926.352	3241
926.459	3378
926.566	3458
926.673	3306
926.779	3237
926.886	3268
926.993	3165
927.099	3108
927.206	3123
927.312	3085
927.419	3241
927.525	3192
927.631	3313
927.737	3138
927.843	3112
927.95	3047
928.056	3108
928.162	3176
928.267	3214
928.373	3873
928.479	3268
928.585	3100
928.69	3222
928.796	3275
928.901	3142
929.007	3047
929.112	3253
929.218	3173
929.323	3154
929.428	3119
929.533	3302
929.638	3112
929.743	3173
929.848	3245
929.953	3203
930.058	3123
930.163	2994
930.267	3036
930.372	3214
930.477	3032
930.581	3321
930.685	3165
930.79	3089
930.894	3131
930.998	3127
931.103	3249
931.207	2952
931.311	2952
931.415	2895
931.519	2796
931.623	2823
