Data from test_V78500241_1557.txt Node
Date: Fri Mar 25 16:25:59 CST 2022
User: usil
Spectrometer: V785-0024
Trigger mode: 0
Integration Time (sec): 4.000000E-1
Scans to average: 1
Nonlinearity correction enabled: false
Boxcar width: 0
Storing dark spectrum: false
XAxis mode: Wavelengths
Number of Pixels in Spectrum: 1024
>>>>>Begin Spectral Data<<<<<
801.071	2891
801.214	2944
801.356	2899
801.499	2941
801.641	2876
801.783	2963
801.926	3070
802.068	2975
802.211	2998
802.353	3055
802.496	2982
802.638	3051
802.78	2998
802.923	3085
803.065	3013
803.208	2872
803.35	2929
803.492	2929
803.635	2918
803.777	2777
803.919	2861
804.061	3226
804.204	2922
804.346	2883
804.488	2838
804.63	2971
804.773	2887
804.915	2925
805.057	3081
805.199	2933
805.341	2933
805.483	3058
805.626	2998
805.768	2967
805.91	3089
806.052	3131
806.194	3024
806.336	3260
806.478	3032
806.62	2922
806.762	2963
806.904	3051
807.046	3199
807.188	2998
807.33	2914
807.472	2998
807.614	2922
807.756	2963
807.898	2956
808.04	2864
808.182	2963
808.324	2952
808.465	2906
808.607	2906
808.749	2788
808.891	2861
809.033	2960
809.174	2979
809.316	2910
809.458	2887
809.6	2750
809.741	2750
809.883	2785
810.025	2830
810.166	2849
810.308	2845
810.45	2849
810.591	2773
810.733	2792
810.875	2842
811.016	2777
811.158	2796
811.299	2845
811.441	2944
811.582	2887
811.724	2826
811.865	2785
812.007	2922
812.148	2906
812.29	2853
812.431	2872
812.573	2929
812.714	2952
812.855	3055
812.997	3032
813.138	3108
813.279	2990
813.421	3020
813.562	2910
813.703	2868
813.845	2891
813.986	2769
814.127	2720
814.268	2830
814.41	2830
814.551	2800
814.692	2902
814.833	2823
814.974	2918
815.115	2941
815.256	2880
815.397	2819
815.539	2857
815.68	2746
815.821	2762
815.962	2967
816.103	2899
816.244	2872
816.385	2887
816.526	2998
816.666	2902
816.807	2777
816.948	2864
817.089	2880
817.23	2834
817.371	2743
817.512	2796
817.653	2830
817.793	2811
817.934	2868
818.075	2994
818.216	2971
818.356	3028
818.497	2883
818.638	2746
818.778	2815
818.919	2811
819.06	2773
819.2	2883
819.341	2781
819.481	2792
819.622	2914
819.762	3074
819.903	3051
820.043	2918
820.184	2876
820.324	2891
820.465	2982
820.605	2986
820.746	2986
820.886	2922
821.026	3097
821.167	3165
821.307	3214
821.447	3268
821.588	3249
821.728	3211
821.868	3218
822.008	3089
822.149	3161
822.289	3184
822.429	3093
822.569	3089
822.709	3173
822.849	3039
822.99	3036
823.13	3138
823.27	3188
823.41	3077
823.55	3135
823.69	3146
823.83	3218
823.97	3089
824.11	3020
824.25	3024
824.389	3032
824.529	3100
824.669	3077
824.809	3165
824.949	3268
825.089	3218
825.228	3150
825.368	2994
825.508	2956
825.648	2952
825.787	3032
825.927	3017
826.067	2971
826.206	2975
826.346	3036
826.485	3055
826.625	3138
826.765	3275
826.904	3245
827.044	3024
827.183	2994
827.323	2895
827.462	3005
827.601	2986
827.741	2960
827.88	2967
828.02	2918
828.159	2990
828.298	3055
828.437	3127
828.577	3077
828.716	3256
828.855	3108
828.994	2956
829.134	2895
829.273	2952
829.412	2899
829.551	2918
829.69	2918
829.829	2979
829.968	3157
830.107	3055
830.246	3066
830.385	2979
830.524	2902
830.663	2861
830.802	2769
830.941	2659
831.08	2674
831.219	2781
831.357	2773
831.496	2990
831.635	2773
831.774	2674
831.913	2739
832.051	2575
832.19	2587
832.329	2758
832.467	2579
832.606	2537
832.744	2613
832.883	2651
833.022	2621
833.16	2667
833.299	2762
833.437	2746
833.576	2720
833.714	2766
833.852	2766
833.991	2762
834.129	2906
834.267	2872
834.406	2830
834.544	2922
834.682	2902
834.821	2880
834.959	3070
835.097	2948
835.235	3066
835.373	3009
835.511	3028
835.65	2986
835.788	2982
835.926	2849
836.064	2838
836.202	2868
836.34	3150
836.478	3195
836.615	3097
836.753	3203
836.891	3233
837.029	3173
837.167	3146
837.305	3108
837.443	3085
837.58	3001
837.718	3127
837.856	3123
837.993	3047
838.131	3169
838.269	3119
838.406	3142
838.544	3123
838.681	2944
838.819	2937
838.956	2823
839.094	2872
839.231	2937
839.369	3093
839.506	3374
839.643	3249
839.781	3055
839.918	2998
840.055	3108
840.193	3097
840.33	3138
840.467	3138
840.604	3184
840.742	3443
840.879	3089
841.016	3089
841.153	3176
841.29	3382
841.427	3310
841.564	3336
841.701	3302
841.838	3241
841.975	3192
842.112	3245
842.249	3108
842.385	3089
842.522	3302
842.659	3081
842.796	3081
842.933	3131
843.069	3081
843.206	3081
843.343	3203
843.479	3146
843.616	3184
843.752	2952
843.889	2887
844.025	3127
844.162	2910
844.298	3123
844.435	3013
844.571	2963
844.708	3123
844.844	3233
844.98	3249
845.117	3256
845.253	3077
845.389	3066
845.525	3108
845.661	3116
845.798	3070
845.934	3112
846.07	3097
846.206	3245
846.342	3348
846.478	3218
846.614	3123
846.75	3089
846.886	3058
847.022	3256
847.158	3146
847.294	3245
847.429	3291
847.565	3264
847.701	3511
847.837	3081
847.972	3024
848.108	3199
848.244	3211
848.379	3020
848.515	2960
848.65	2960
848.786	2956
848.921	3043
849.057	3169
849.192	3165
849.328	3085
849.463	3131
849.598	3097
849.734	3089
849.869	2971
850.004	2963
850.14	3017
850.275	2937
850.41	2864
850.545	2902
850.68	2948
850.815	2990
850.95	2933
851.085	3233
851.22	3131
851.355	3093
851.49	3024
851.625	3039
851.76	3028
851.895	2948
852.03	2925
852.165	3039
852.299	3138
852.434	3192
852.569	3150
852.703	3233
852.838	3268
852.973	3374
853.107	3359
853.242	3260
853.376	3131
853.511	2982
853.645	3051
853.78	3253
853.914	3127
854.048	3161
854.183	3142
854.317	3211
854.451	3321
854.585	3142
854.72	3100
854.854	3222
854.988	3058
855.122	3104
855.256	3017
855.39	3112
855.524	3279
855.658	3207
855.792	3211
855.926	3222
856.06	3245
856.194	3325
856.327	3188
856.461	3104
856.595	3100
856.729	3085
856.862	3245
856.996	3184
857.13	3253
857.263	3256
857.397	3279
857.53	3135
857.664	3226
857.797	3275
857.931	3294
858.064	3207
858.197	3237
858.331	3184
858.464	3116
858.597	3047
858.731	3142
858.864	3142
858.997	3116
859.13	3169
859.263	3214
859.396	3226
859.529	3093
859.662	3100
859.795	3074
859.928	3176
860.061	3332
860.194	3325
860.327	3199
860.46	3097
860.592	3245
860.725	3283
860.858	3321
860.99	3142
861.123	3051
861.256	3077
861.388	3142
861.521	3888
861.653	3058
861.786	3036
861.918	2998
862.05	3100
862.183	3108
862.315	3180
862.447	3237
862.58	3123
862.712	2944
862.844	2914
862.976	3039
863.108	3074
863.24	3367
863.372	2883
863.504	2982
863.636	2944
863.768	3032
863.9	3020
864.032	2922
864.164	2986
864.296	3066
864.428	3138
864.559	3119
864.691	3097
864.823	3066
864.954	3058
865.086	3077
865.217	3009
865.349	2952
865.48	2960
865.612	2994
865.743	3176
865.875	3013
866.006	2979
866.137	2986
866.269	2971
866.4	2975
866.531	2963
866.662	2918
866.793	2914
866.924	2895
867.055	3013
867.186	2929
867.317	2914
867.448	2830
867.579	2899
867.71	2838
867.841	2819
867.972	2925
868.103	2960
868.233	2910
868.364	2910
868.495	2925
868.625	3062
868.756	3161
868.886	3013
869.017	3036
869.147	3192
869.278	3180
869.408	3108
869.539	3051
869.669	3108
869.799	3017
869.929	3173
870.06	3165
870.19	3336
870.32	3283
870.45	3310
870.58	3420
870.71	3473
870.84	3492
870.97	3325
871.1	3272
871.23	3515
871.36	3485
871.489	3382
871.619	3428
871.749	3443
871.879	3443
872.008	3477
872.138	3389
872.267	3302
872.397	3154
872.526	3127
872.656	3009
872.785	3089
872.915	3233
873.044	3321
873.173	3283
873.303	3268
873.432	3211
873.561	3260
873.69	3169
873.819	3157
873.948	3233
874.077	3157
874.206	3051
874.335	3097
874.464	3203
874.593	3363
874.722	3211
874.851	3416
874.979	3325
875.108	3340
875.237	3218
875.365	3188
875.494	3192
875.623	3298
875.751	3100
875.88	3142
876.008	3230
876.136	3226
876.265	3393
876.393	3526
876.521	3412
876.65	3431
876.778	3359
876.906	3283
877.034	3237
877.162	3272
877.29	3230
877.418	3313
877.546	3249
877.674	3253
877.802	3237
877.93	3226
878.058	3161
878.185	3108
878.313	3260
878.441	3222
878.568	3100
878.696	3157
878.824	3268
878.951	3313
879.079	3462
879.206	3606
879.333	3431
879.461	3370
879.588	3340
879.715	3466
879.842	3591
879.97	3397
880.097	3169
880.224	3119
880.351	3260
880.478	3237
880.605	3253
880.732	3230
880.859	3526
880.986	3313
881.112	3340
881.239	3230
881.366	3161
881.493	3066
881.619	3062
881.746	3085
881.872	3081
881.999	3104
882.125	3184
882.252	3302
882.378	3302
882.505	3454
882.631	3268
882.757	3184
882.883	3230
883.01	3195
883.136	3180
883.262	3085
883.388	3100
883.514	3382
883.64	3386
883.766	3351
883.892	3237
884.018	3279
884.143	3420
884.269	3553
884.395	3195
884.52	3146
884.646	3199
884.772	3127
884.897	3146
885.023	3233
885.148	3348
885.274	3435
885.399	3416
885.524	3260
885.65	3264
885.775	3344
885.9	3298
886.025	3458
886.15	3378
886.275	3329
886.4	3249
886.525	3310
886.65	3283
886.775	3291
886.9	3469
887.025	3648
887.149	3424
887.274	3245
887.399	3180
887.523	3207
887.648	3207
887.773	3226
887.897	3386
888.021	3424
888.146	3306
888.27	3473
888.395	3580
888.519	3473
888.643	3488
888.767	3473
888.891	3329
889.015	3268
889.139	3283
889.263	3226
889.387	3420
889.511	3542
889.635	3439
889.759	3306
889.883	3283
890.006	3386
890.13	3507
890.254	3268
890.377	3329
890.501	3211
890.624	3207
890.748	3310
890.871	3237
890.995	3142
891.118	3036
891.241	3199
891.364	3222
891.488	3344
891.611	3184
891.734	3233
891.857	3294
891.98	3279
892.103	3332
892.226	3260
892.349	3241
892.471	3150
892.594	3245
892.717	3298
892.839	3287
892.962	3302
893.085	3370
893.207	3279
893.33	3150
893.452	3218
893.575	3348
893.697	3256
893.819	3485
893.941	3523
894.064	3454
894.186	3310
894.308	3283
894.43	3443
894.552	3542
894.674	3477
894.796	3298
894.918	3325
895.04	3310
895.161	3477
895.283	3386
895.405	3317
895.526	3340
895.648	3431
895.769	3428
895.891	3450
896.012	3534
896.134	3511
896.255	3466
896.376	3393
896.498	3386
896.619	3420
896.74	3351
896.861	3409
896.982	3660
897.103	3884
897.224	3591
897.345	3469
897.466	3469
897.587	3477
897.708	3629
897.828	3572
897.949	3424
898.07	3359
898.19	3447
898.311	3606
898.431	3500
898.552	3519
898.672	3603
898.792	3614
898.913	3534
899.033	3401
899.153	3294
899.273	3211
899.393	3279
899.513	3351
899.633	3332
899.753	3370
899.873	3359
899.993	3431
900.113	3329
900.232	3405
900.352	3344
900.472	3283
900.591	3245
900.711	3294
900.83	3272
900.95	3450
901.069	3496
901.189	3340
901.308	3165
901.427	3150
901.546	3192
901.665	3291
901.784	3397
901.904	3192
902.023	3188
902.141	3039
902.26	3001
902.379	3146
902.498	3077
902.617	3085
902.735	3245
902.854	3226
902.973	3184
903.091	3062
903.21	3089
903.328	3146
903.446	3097
903.565	3089
903.683	3233
903.801	3135
903.919	3245
904.038	3291
904.156	3146
904.274	3283
904.392	3272
904.51	3317
904.627	3336
904.745	3462
904.863	3530
904.981	3275
905.098	3192
905.216	3226
905.334	3275
905.451	3310
905.569	3310
905.686	3462
905.803	3454
905.921	3283
906.038	3401
906.155	3393
906.272	3310
906.389	3367
906.506	3272
906.623	3298
906.74	3336
906.857	3211
906.974	3256
907.091	3450
907.208	3591
907.324	3496
907.441	3374
907.557	3253
907.674	3233
907.79	3195
907.907	3256
908.023	3355
908.139	3348
908.256	3332
908.372	3359
908.488	3351
908.604	3233
908.72	3241
908.836	3294
908.952	3291
909.068	3317
909.184	3504
909.3	3416
909.415	3488
909.531	3454
909.647	3253
909.762	3275
909.878	3272
909.993	3363
910.108	3374
910.224	3355
910.339	3401
910.454	3351
910.57	3279
910.685	3279
910.8	3591
910.915	3538
911.03	3454
911.145	3329
911.259	3298
911.374	3332
911.489	3241
911.604	3245
911.718	3146
911.833	3157
911.947	2998
912.062	2994
912.176	3195
912.291	3211
912.405	3180
912.519	3435
912.633	3443
912.748	3340
912.862	3291
912.976	3199
913.09	3089
913.204	3138
913.318	3214
913.431	3336
913.545	3367
913.659	3374
913.772	3336
913.886	3268
914	3207
914.113	3351
914.226	3420
914.34	3348
914.453	3237
914.566	3428
914.68	3317
914.793	3298
914.906	3112
915.019	3138
915.132	3062
915.245	3176
915.358	3233
915.47	3207
915.583	3245
915.696	3272
915.809	3397
915.921	3439
916.034	3264
916.146	3264
916.259	3230
916.371	3424
916.483	3378
916.595	3275
916.708	3329
916.82	3351
916.932	3329
917.044	3313
917.156	3370
917.268	3298
917.38	3302
917.491	3275
917.603	3393
917.715	3420
917.826	3469
917.938	3363
918.049	3241
918.161	3481
918.272	3610
918.384	3545
918.495	3492
918.606	3313
918.717	3264
918.828	3393
918.939	3416
919.05	3302
919.161	3386
919.272	3192
919.383	3298
919.494	3485
919.604	3686
919.715	3507
919.826	3412
919.936	3439
920.047	3595
920.157	3587
920.267	3778
920.378	3603
920.488	3603
920.598	3797
920.708	3934
920.818	3793
920.928	3816
921.038	3987
921.148	4021
921.258	3663
921.368	3641
921.477	3572
921.587	3538
921.697	3454
921.806	3610
921.916	3553
922.025	3351
922.134	3336
922.244	3325
922.353	3409
922.462	3249
922.571	3237
922.68	3074
922.789	3081
922.898	3138
923.007	3104
923.116	3165
923.224	3180
923.333	3230
923.442	3055
923.55	3100
923.659	3112
923.767	3237
923.876	3135
923.984	3245
924.092	3081
924.201	3207
924.309	3222
924.417	3245
924.525	3176
924.633	3218
924.741	4147
924.849	3043
924.956	3268
925.064	3116
925.172	3062
925.279	3131
925.387	3211
925.494	3199
925.602	3386
925.709	3321
925.816	3176
925.924	3294
926.031	3386
926.138	3363
926.245	3321
926.352	3256
926.459	3420
926.566	3473
926.673	3302
926.779	3245
926.886	3222
926.993	3157
927.099	3135
927.206	3100
927.312	3081
927.419	3230
927.525	3214
927.631	3275
927.737	3154
927.843	3119
927.95	3009
928.056	3154
928.162	3161
928.267	3272
928.373	3789
928.479	3351
928.585	3058
928.69	3195
928.796	3302
928.901	3146
929.007	3028
929.112	3222
929.218	3207
929.323	3135
929.428	3127
929.533	3325
929.638	3135
929.743	3169
929.848	3249
929.953	3180
930.058	3146
930.163	3017
930.267	3047
930.372	3188
930.477	3055
930.581	3340
930.685	3207
930.79	3020
930.894	3157
930.998	3119
931.103	3268
931.207	2986
931.311	2937
931.415	2929
931.519	2785
931.623	2811
