Data from test_V78500241_102.txt Node
Date: Fri Mar 25 16:15:54 CST 2022
User: usil
Spectrometer: V785-0024
Trigger mode: 0
Integration Time (sec): 4.000000E-1
Scans to average: 1
Nonlinearity correction enabled: false
Boxcar width: 0
Storing dark spectrum: false
XAxis mode: Wavelengths
Number of Pixels in Spectrum: 1024
>>>>>Begin Spectral Data<<<<<
801.071	2967
801.214	3009
801.356	2929
801.499	2944
801.641	2899
801.783	2979
801.926	3051
802.068	3024
802.211	3032
802.353	3070
802.496	3055
802.638	3058
802.78	3104
802.923	3127
803.065	3047
803.208	2963
803.35	2963
803.492	2967
803.635	2971
803.777	2823
803.919	2922
804.061	3275
804.204	3005
804.346	2971
804.488	2895
804.63	3047
804.773	2960
804.915	2941
805.057	3135
805.199	3020
805.341	3043
805.483	3131
805.626	3055
805.768	3017
805.91	3165
806.052	3184
806.194	3081
806.336	3256
806.478	3077
806.62	3024
806.762	3051
806.904	3089
807.046	3237
807.188	3017
807.33	2986
807.472	3039
807.614	2982
807.756	3058
807.898	2986
808.04	2979
808.182	2986
808.324	2986
808.465	2960
808.607	2941
808.749	2891
808.891	2883
809.033	3032
809.174	3055
809.316	2952
809.458	2960
809.6	2834
809.741	2857
809.883	2807
810.025	2899
810.166	2948
810.308	2902
810.45	2899
810.591	2864
810.733	2819
810.875	2910
811.016	2842
811.158	2815
811.299	2853
811.441	3005
811.582	2960
811.724	2902
811.865	2857
812.007	2986
812.148	2956
812.29	2887
812.431	2929
812.573	2998
812.714	3009
812.855	3112
812.997	3104
813.138	3165
813.279	3062
813.421	3036
813.562	3005
813.703	2948
813.845	2948
813.986	2826
814.127	2796
814.268	2899
814.41	2906
814.551	2853
814.692	2929
814.833	2857
814.974	2937
815.115	2998
815.256	2868
815.397	2861
815.539	2922
815.68	2819
815.821	2849
815.962	2967
816.103	2982
816.244	2922
816.385	2906
816.526	3036
816.666	2948
816.807	2792
816.948	2944
817.089	2994
817.23	2944
817.371	2838
817.512	2804
817.653	2906
817.793	2922
817.934	2910
818.075	3020
818.216	3032
818.356	3093
818.497	2933
818.638	2838
818.778	2876
818.919	2872
819.06	2826
819.2	2929
819.341	2868
819.481	2887
819.622	3017
819.762	3154
819.903	3066
820.043	2975
820.184	2937
820.324	2960
820.465	3093
820.605	3058
820.746	3074
820.886	2982
821.026	3157
821.167	3222
821.307	3348
821.447	3355
821.588	3253
821.728	3260
821.868	3256
822.008	3112
822.149	3214
822.289	3294
822.429	3135
822.569	3108
822.709	3222
822.849	3089
822.99	3127
823.13	3180
823.27	3287
823.41	3123
823.55	3150
823.69	3241
823.83	3249
823.97	3108
824.11	3039
824.25	3051
824.389	3127
824.529	3195
824.669	3135
824.809	3211
824.949	3317
825.089	3241
825.228	3207
825.368	3077
825.508	3032
825.648	3013
825.787	3108
825.927	3024
826.067	3058
826.206	2998
826.346	3112
826.485	3116
826.625	3173
826.765	3310
826.904	3264
827.044	3043
827.183	2990
827.323	2925
827.462	3047
827.601	2948
827.741	2975
827.88	3009
828.02	2880
828.159	2990
828.298	3112
828.437	3192
828.577	3070
828.716	3275
828.855	3127
828.994	2967
829.134	2891
829.273	2944
829.412	2914
829.551	2899
829.69	2918
829.829	3024
829.968	3211
830.107	3070
830.246	3066
830.385	3001
830.524	2910
830.663	2887
830.802	2815
830.941	2705
831.08	2708
831.219	2834
831.357	2830
831.496	2967
831.635	2777
831.774	2667
831.913	2678
832.051	2613
832.19	2610
832.329	2735
832.467	2602
832.606	2526
832.744	2606
832.883	2610
833.022	2644
833.16	2682
833.299	2724
833.437	2758
833.576	2743
833.714	2727
833.852	2785
833.991	2823
834.129	2857
834.267	2845
834.406	2861
834.544	2880
834.682	2971
834.821	2902
834.959	3085
835.097	2952
835.235	3089
835.373	3009
835.511	3051
835.65	3028
835.788	3009
835.926	2857
836.064	2819
836.202	2895
836.34	3161
836.478	3188
836.615	3097
836.753	3169
836.891	3237
837.029	3211
837.167	3142
837.305	3077
837.443	3089
837.58	3039
837.718	3192
837.856	3093
837.993	3100
838.131	3169
838.269	3180
838.406	3142
838.544	3142
838.681	2971
838.819	2986
838.956	2861
839.094	2914
839.231	2944
839.369	3062
839.506	3439
839.643	3256
839.781	3028
839.918	3001
840.055	3074
840.193	3070
840.33	3123
840.467	3119
840.604	3203
840.742	3428
840.879	3032
841.016	3100
841.153	3157
841.29	3374
841.427	3336
841.564	3310
841.701	3340
841.838	3283
841.975	3214
842.112	3260
842.249	3123
842.385	3081
842.522	3310
842.659	3138
842.796	3097
842.933	3161
843.069	3077
843.206	3097
843.343	3207
843.479	3146
843.616	3218
843.752	2956
843.889	2891
844.025	3146
844.162	2872
844.298	3074
844.435	2979
844.571	2941
844.708	3100
844.844	3268
844.98	3306
845.117	3237
845.253	3119
845.389	3024
845.525	3108
845.661	3123
845.798	3100
845.934	3142
846.07	3070
846.206	3260
846.342	3351
846.478	3298
846.614	3085
846.75	3070
846.886	3062
847.022	3306
847.158	3188
847.294	3226
847.429	3294
847.565	3237
847.701	3564
847.837	3074
847.972	3043
848.108	3207
848.244	3211
848.379	3017
848.515	2971
848.65	2944
848.786	3055
848.921	3089
849.057	3131
849.192	3195
849.328	3127
849.463	3150
849.598	3081
849.734	3074
849.869	3024
850.004	2990
850.14	3032
850.275	2937
850.41	2891
850.545	2906
850.68	2922
850.815	2990
850.95	3017
851.085	3241
851.22	3184
851.355	3066
851.49	3001
851.625	3036
851.76	3024
851.895	2960
852.03	2929
852.165	3108
852.299	3123
852.434	3222
852.569	3195
852.703	3192
852.838	3294
852.973	3389
853.107	3386
853.242	3169
853.376	3131
853.511	3001
853.645	3066
853.78	3310
853.914	3161
854.048	3135
854.183	3077
854.317	3161
854.451	3359
854.585	3154
854.72	3127
854.854	3203
854.988	3089
855.122	3131
855.256	3032
855.39	3161
855.524	3256
855.658	3207
855.792	3161
855.926	3203
856.06	3241
856.194	3317
856.327	3184
856.461	3135
856.595	3161
856.729	3123
856.862	3241
856.996	3199
857.13	3230
857.263	3260
857.397	3329
857.53	3142
857.664	3245
857.797	3291
857.931	3275
858.064	3230
858.197	3283
858.331	3157
858.464	3119
858.597	3058
858.731	3157
858.864	3207
858.997	3104
859.13	3207
859.263	3218
859.396	3199
859.529	3100
859.662	3135
859.795	3058
859.928	3195
860.061	3336
860.194	3317
860.327	3142
860.46	3100
860.592	3260
860.725	3253
860.858	3279
860.99	3127
861.123	3100
861.256	3074
861.388	3173
861.521	3762
861.653	3081
861.786	3066
861.918	3032
862.05	3112
862.183	3150
862.315	3195
862.447	3249
862.58	3131
862.712	3005
862.844	2880
862.976	3047
863.108	2994
863.24	3500
863.372	2963
863.504	2998
863.636	2994
863.768	3074
863.9	3001
864.032	2952
864.164	2986
864.296	3047
864.428	3123
864.559	3123
864.691	3108
864.823	3097
864.954	3093
865.086	3077
865.217	3024
865.349	3009
865.48	3005
865.612	3028
865.743	3195
865.875	3020
866.006	3020
866.137	2990
866.269	2998
866.4	2971
866.531	2975
866.662	2910
866.793	2925
866.924	2929
867.055	2994
867.186	2963
867.317	2914
867.448	2872
867.579	2849
867.71	2876
867.841	2853
867.972	2922
868.103	2952
868.233	2910
868.364	2895
868.495	2929
868.625	3116
868.756	3180
868.886	3001
869.017	3074
869.147	3188
869.278	3192
869.408	3081
869.539	3039
869.669	3135
869.799	3058
869.929	3173
870.06	3104
870.19	3382
870.32	3298
870.45	3344
870.58	3405
870.71	3492
870.84	3500
870.97	3317
871.1	3287
871.23	3500
871.36	3477
871.489	3409
871.619	3454
871.749	3454
871.879	3458
872.008	3504
872.138	3397
872.267	3321
872.397	3199
872.526	3123
872.656	3036
872.785	3157
872.915	3275
873.044	3355
873.173	3283
873.303	3291
873.432	3256
873.561	3256
873.69	3214
873.819	3188
873.948	3260
874.077	3119
874.206	3077
874.335	3138
874.464	3264
874.593	3359
874.722	3260
874.851	3409
874.979	3393
875.108	3336
875.237	3256
875.365	3192
875.494	3195
875.623	3283
875.751	3112
875.88	3135
876.008	3192
876.136	3237
876.265	3359
876.393	3572
876.521	3443
876.65	3431
876.778	3367
876.906	3298
877.034	3249
877.162	3226
877.29	3214
877.418	3283
877.546	3275
877.674	3279
877.802	3245
877.93	3222
878.058	3157
878.185	3142
878.313	3192
878.441	3233
878.568	3127
878.696	3199
878.824	3275
878.951	3325
879.079	3523
879.206	3671
879.333	3473
879.461	3332
879.588	3435
879.715	3488
879.842	3584
879.97	3428
880.097	3188
880.224	3157
880.351	3253
880.478	3256
880.605	3207
880.732	3264
880.859	3507
880.986	3325
881.112	3359
881.239	3218
881.366	3146
881.493	3085
881.619	3055
881.746	3066
881.872	3116
881.999	3100
882.125	3180
882.252	3279
882.378	3332
882.505	3450
882.631	3325
882.757	3207
882.883	3245
883.01	3260
883.136	3218
883.262	3176
883.388	3123
883.514	3359
883.64	3409
883.766	3370
883.892	3245
884.018	3241
884.143	3454
884.269	3580
884.395	3253
884.52	3214
884.646	3211
884.772	3150
884.897	3100
885.023	3222
885.148	3374
885.274	3450
885.399	3355
885.524	3306
885.65	3268
885.775	3355
885.9	3294
886.025	3466
886.15	3405
886.275	3302
886.4	3283
886.525	3344
886.65	3268
886.775	3291
886.9	3496
887.025	3660
887.149	3443
887.274	3264
887.399	3199
887.523	3241
887.648	3218
887.773	3256
887.897	3416
888.021	3428
888.146	3355
888.27	3420
888.395	3568
888.519	3458
888.643	3477
888.767	3507
888.891	3329
889.015	3298
889.139	3317
889.263	3325
889.387	3397
889.511	3561
889.635	3481
889.759	3359
889.883	3325
890.006	3409
890.13	3500
890.254	3302
890.377	3313
890.501	3211
890.624	3188
890.748	3355
890.871	3207
890.995	3165
891.118	3108
891.241	3222
891.364	3245
891.488	3370
891.611	3180
891.734	3237
891.857	3325
891.98	3264
892.103	3378
892.226	3329
892.349	3245
892.471	3157
892.594	3253
892.717	3279
892.839	3302
892.962	3321
893.085	3389
893.207	3348
893.33	3207
893.452	3256
893.575	3374
893.697	3287
893.819	3515
893.941	3496
894.064	3473
894.186	3291
894.308	3336
894.43	3431
894.552	3587
894.674	3515
894.796	3325
894.918	3336
895.04	3317
895.161	3450
895.283	3424
895.405	3351
895.526	3389
895.648	3485
895.769	3458
895.891	3469
896.012	3530
896.134	3481
896.255	3488
896.376	3397
896.498	3386
896.619	3488
896.74	3447
896.861	3477
896.982	3736
897.103	3850
897.224	3660
897.345	3561
897.466	3477
897.587	3530
897.708	3667
897.828	3572
897.949	3492
898.07	3340
898.19	3466
898.311	3641
898.431	3450
898.552	3572
898.672	3618
898.792	3591
898.913	3545
899.033	3458
899.153	3321
899.273	3214
899.393	3306
899.513	3313
899.633	3344
899.753	3393
899.873	3306
899.993	3416
900.113	3386
900.232	3431
900.352	3401
900.472	3298
900.591	3260
900.711	3340
900.83	3268
900.95	3412
901.069	3591
901.189	3401
901.308	3214
901.427	3104
901.546	3218
901.665	3329
901.784	3370
901.904	3233
902.023	3173
902.141	3005
902.26	3047
902.379	3180
902.498	3055
902.617	3077
902.735	3249
902.854	3233
902.973	3230
903.091	3066
903.21	3047
903.328	3192
903.446	3119
903.565	3116
903.683	3230
903.801	3123
903.919	3256
904.038	3321
904.156	3192
904.274	3306
904.392	3268
904.51	3313
904.627	3359
904.745	3469
904.863	3496
904.981	3298
905.098	3165
905.216	3283
905.334	3363
905.451	3359
905.569	3348
905.686	3466
905.803	3431
905.921	3336
906.038	3466
906.155	3389
906.272	3306
906.389	3386
906.506	3253
906.623	3283
906.74	3321
906.857	3241
906.974	3275
907.091	3507
907.208	3595
907.324	3477
907.441	3435
907.557	3298
907.674	3233
907.79	3237
907.907	3268
908.023	3454
908.139	3363
908.256	3359
908.372	3397
908.488	3393
908.604	3302
908.72	3291
908.836	3306
908.952	3306
909.068	3412
909.184	3496
909.3	3428
909.415	3515
909.531	3534
909.647	3279
909.762	3302
909.878	3310
909.993	3389
910.108	3344
910.224	3348
910.339	3393
910.454	3355
910.57	3340
910.685	3287
910.8	3679
910.915	3625
911.03	3428
911.145	3294
911.259	3313
911.374	3344
911.489	3298
911.604	3260
911.718	3161
911.833	3169
911.947	3074
912.062	3013
912.176	3169
912.291	3260
912.405	3222
912.519	3435
912.633	3462
912.748	3359
912.862	3306
912.976	3211
913.09	3077
913.204	3192
913.318	3256
913.431	3317
913.545	3409
913.659	3435
913.772	3359
913.886	3253
914	3245
914.113	3389
914.226	3431
914.34	3397
914.453	3237
914.566	3469
914.68	3306
914.793	3302
914.906	3150
915.019	3157
915.132	3093
915.245	3214
915.358	3233
915.47	3272
915.583	3298
915.696	3367
915.809	3416
915.921	3424
916.034	3294
916.146	3291
916.259	3245
916.371	3443
916.483	3412
916.595	3306
916.708	3355
916.82	3367
916.932	3397
917.044	3412
917.156	3363
917.268	3313
917.38	3302
917.491	3310
917.603	3378
917.715	3488
917.826	3469
917.938	3412
918.049	3275
918.161	3450
918.272	3625
918.384	3580
918.495	3542
918.606	3336
918.717	3313
918.828	3386
918.939	3435
919.05	3325
919.161	3409
919.272	3230
919.383	3325
919.494	3507
919.604	3720
919.715	3534
919.826	3428
919.936	3519
920.047	3648
920.157	3568
920.267	3797
920.378	3648
920.488	3629
920.598	3762
920.708	3968
920.818	3869
920.928	3873
921.038	4036
921.148	3983
921.258	3713
921.368	3637
921.477	3622
921.587	3591
921.697	3477
921.806	3656
921.916	3561
922.025	3401
922.134	3393
922.244	3370
922.353	3458
922.462	3302
922.571	3275
922.68	3112
922.789	3127
922.898	3169
923.007	3135
923.116	3218
923.224	3188
923.333	3218
923.442	3150
923.55	3108
923.659	3138
923.767	3241
923.876	3169
923.984	3211
924.092	3154
924.201	3214
924.309	3237
924.417	3294
924.525	3237
924.633	3256
924.741	4261
924.849	3074
924.956	3245
925.064	3112
925.172	3077
925.279	3116
925.387	3226
925.494	3203
925.602	3378
925.709	3374
925.816	3237
925.924	3272
926.031	3431
926.138	3321
926.245	3367
926.352	3283
926.459	3469
926.566	3485
926.673	3298
926.779	3275
926.886	3275
926.993	3169
927.099	3184
927.206	3184
927.312	3142
927.419	3287
927.525	3195
927.631	3302
927.737	3173
927.843	3138
927.95	3032
928.056	3161
928.162	3214
928.267	3268
928.373	3816
928.479	3325
928.585	3066
928.69	3294
928.796	3321
928.901	3203
929.007	3085
929.112	3260
929.218	3203
929.323	3165
929.428	3192
929.533	3348
929.638	3123
929.743	3180
929.848	3253
929.953	3199
930.058	3230
930.163	3024
930.267	3112
930.372	3203
930.477	3062
930.581	3313
930.685	3142
930.79	3077
930.894	3127
930.998	3146
931.103	3291
931.207	2986
931.311	2956
931.415	2952
931.519	2853
931.623	2804
