Data from test_V78500241_1004.txt Node
Date: Fri Mar 25 16:22:09 CST 2022
User: usil
Spectrometer: V785-0024
Trigger mode: 0
Integration Time (sec): 4.000000E-1
Scans to average: 1
Nonlinearity correction enabled: false
Boxcar width: 0
Storing dark spectrum: false
XAxis mode: Wavelengths
Number of Pixels in Spectrum: 1024
>>>>>Begin Spectral Data<<<<<
801.071	2883
801.214	2960
801.356	2864
801.499	2868
801.641	2823
801.783	2937
801.926	3028
802.068	2971
802.211	2998
802.353	3036
802.496	2952
802.638	3043
802.78	3074
802.923	3085
803.065	3032
803.208	2887
803.35	2933
803.492	2925
803.635	2922
803.777	2766
803.919	2842
804.061	3192
804.204	2960
804.346	2880
804.488	2845
804.63	3009
804.773	2876
804.915	2902
805.057	3058
805.199	2914
805.341	2952
805.483	3047
805.626	3017
805.768	3005
805.91	3043
806.052	3112
806.194	2998
806.336	3230
806.478	3020
806.62	2952
806.762	2971
806.904	3028
807.046	3188
807.188	2994
807.33	2891
807.472	2960
807.614	2906
807.756	2956
807.898	2876
808.04	2868
808.182	2994
808.324	2929
808.465	2899
808.607	2868
808.749	2800
808.891	2838
809.033	2967
809.174	2948
809.316	2887
809.458	2902
809.6	2773
809.741	2754
809.883	2758
810.025	2876
810.166	2868
810.308	2853
810.45	2826
810.591	2762
810.733	2788
810.875	2800
811.016	2746
811.158	2766
811.299	2796
811.441	2948
811.582	2891
811.724	2815
811.865	2823
812.007	2895
812.148	2887
812.29	2853
812.431	2883
812.573	2929
812.714	2963
812.855	3024
812.997	3070
813.138	3123
813.279	3009
813.421	2963
813.562	2952
813.703	2868
813.845	2887
813.986	2769
814.127	2727
814.268	2807
814.41	2842
814.551	2819
814.692	2853
814.833	2811
814.974	2914
815.115	2960
815.256	2811
815.397	2788
815.539	2872
815.68	2735
815.821	2819
815.962	2944
816.103	2933
816.244	2887
816.385	2864
816.526	2941
816.666	2876
816.807	2735
816.948	2910
817.089	2910
817.23	2876
817.371	2777
817.512	2792
817.653	2842
817.793	2781
817.934	2857
818.075	2956
818.216	2967
818.356	3005
818.497	2880
818.638	2815
818.778	2792
818.919	2769
819.06	2720
819.2	2849
819.341	2777
819.481	2781
819.622	2929
819.762	3058
819.903	3017
820.043	2895
820.184	2887
820.324	2864
820.465	3024
820.605	2982
820.746	3013
820.886	2922
821.026	3077
821.167	3123
821.307	3287
821.447	3260
821.588	3226
821.728	3203
821.868	3184
822.008	3097
822.149	3184
822.289	3237
822.429	3070
822.569	3085
822.709	3161
822.849	3028
822.99	3039
823.13	3157
823.27	3169
823.41	3112
823.55	3138
823.69	3180
823.83	3211
823.97	3074
824.11	3005
824.25	2956
824.389	3089
824.529	3089
824.669	3062
824.809	3199
824.949	3245
825.089	3245
825.228	3135
825.368	2967
825.508	2971
825.648	2975
825.787	2998
825.927	3055
826.067	2982
826.206	2986
826.346	3032
826.485	3062
826.625	3074
826.765	3260
826.904	3199
827.044	3001
827.183	2933
827.323	2849
827.462	2941
827.601	2914
827.741	2929
827.88	2933
828.02	2883
828.159	2963
828.298	3020
828.437	3097
828.577	3062
828.716	3222
828.855	3085
828.994	2925
829.134	2887
829.273	2918
829.412	2864
829.551	2811
829.69	2906
829.829	2990
829.968	3154
830.107	3024
830.246	3001
830.385	2910
830.524	2853
830.663	2807
830.802	2731
830.941	2629
831.08	2648
831.219	2739
831.357	2750
831.496	2944
831.635	2716
831.774	2655
831.913	2613
832.051	2541
832.19	2617
832.329	2701
832.467	2549
832.606	2476
832.744	2571
832.883	2590
833.022	2552
833.16	2655
833.299	2648
833.437	2693
833.576	2708
833.714	2750
833.852	2731
833.991	2773
834.129	2876
834.267	2823
834.406	2785
834.544	2861
834.682	2857
834.821	2823
834.959	3074
835.097	2880
835.235	3036
835.373	2979
835.511	2998
835.65	2925
835.788	2960
835.926	2815
836.064	2785
836.202	2830
836.34	3077
836.478	3119
836.615	3058
836.753	3138
836.891	3226
837.029	3173
837.167	3077
837.305	3047
837.443	2986
837.58	2990
837.718	3093
837.856	3089
837.993	3013
838.131	3138
838.269	3127
838.406	3089
838.544	3104
838.681	2956
838.819	2887
838.956	2826
839.094	2849
839.231	2922
839.369	3001
839.506	3374
839.643	3192
839.781	2998
839.918	2967
840.055	3055
840.193	3005
840.33	3051
840.467	3062
840.604	3131
840.742	3355
840.879	3009
841.016	3032
841.153	3100
841.29	3336
841.427	3294
841.564	3283
841.701	3329
841.838	3188
841.975	3150
842.112	3211
842.249	3081
842.385	3066
842.522	3245
842.659	3066
842.796	3020
842.933	3127
843.069	3058
843.206	3074
843.343	3203
843.479	3119
843.616	3138
843.752	2914
843.889	2830
844.025	3051
844.162	2891
844.298	3055
844.435	2910
844.571	2895
844.708	3070
844.844	3165
844.98	3214
845.117	3199
845.253	3058
845.389	3009
845.525	3097
845.661	3077
845.798	3036
845.934	3112
846.07	3051
846.206	3207
846.342	3310
846.478	3226
846.614	3100
846.75	3043
846.886	3032
847.022	3218
847.158	3135
847.294	3169
847.429	3241
847.565	3226
847.701	3492
847.837	3047
847.972	3013
848.108	3150
848.244	3142
848.379	2971
848.515	2918
848.65	2963
848.786	2941
848.921	3036
849.057	3100
849.192	3176
849.328	3066
849.463	3127
849.598	3081
849.734	3039
849.869	2979
850.004	2899
850.14	2929
850.275	2906
850.41	2857
850.545	2880
850.68	2929
850.815	2933
850.95	2971
851.085	3195
851.22	3108
851.355	3036
851.49	2963
851.625	2979
851.76	2990
851.895	2902
852.03	2906
852.165	3020
852.299	3081
852.434	3207
852.569	3131
852.703	3165
852.838	3218
852.973	3321
853.107	3306
853.242	3131
853.376	3100
853.511	3005
853.645	3028
853.78	3203
853.914	3127
854.048	3100
854.183	3070
854.317	3169
854.451	3279
854.585	3127
854.72	3085
854.854	3207
854.988	3039
855.122	3085
855.256	2967
855.39	3123
855.524	3226
855.658	3157
855.792	3154
855.926	3173
856.06	3195
856.194	3283
856.327	3127
856.461	3085
856.595	3043
856.729	3097
856.862	3203
856.996	3161
857.13	3184
857.263	3203
857.397	3237
857.53	3100
857.664	3180
857.797	3226
857.931	3268
858.064	3150
858.197	3230
858.331	3074
858.464	3100
858.597	3047
858.731	3077
858.864	3142
858.997	3070
859.13	3138
859.263	3176
859.396	3211
859.529	3093
859.662	3043
859.795	3077
859.928	3108
860.061	3222
860.194	3306
860.327	3116
860.46	3066
860.592	3249
860.725	3241
860.858	3230
860.99	3093
861.123	3066
861.256	3020
861.388	3157
861.521	3800
861.653	3005
861.786	2963
861.918	3013
862.05	3070
862.183	3081
862.315	3142
862.447	3222
862.58	3108
862.712	2941
862.844	2880
862.976	2994
863.108	2990
863.24	3473
863.372	2880
863.504	2963
863.636	2963
863.768	3017
863.9	2933
864.032	2933
864.164	2925
864.296	3043
864.428	3077
864.559	3097
864.691	3055
864.823	3051
864.954	3036
865.086	3028
865.217	2975
865.349	2960
865.48	2971
865.612	3020
865.743	3192
865.875	2975
866.006	2960
866.137	2948
866.269	2914
866.4	2937
866.531	2975
866.662	2883
866.793	2883
866.924	2868
867.055	2975
867.186	2937
867.317	2876
867.448	2849
867.579	2781
867.71	2842
867.841	2834
867.972	2891
868.103	2899
868.233	2883
868.364	2910
868.495	2895
868.625	3085
868.756	3169
868.886	2963
869.017	3043
869.147	3161
869.278	3184
869.408	3032
869.539	3028
869.669	3089
869.799	3032
869.929	3169
870.06	3123
870.19	3302
870.32	3264
870.45	3294
870.58	3359
870.71	3466
870.84	3443
870.97	3268
871.1	3199
871.23	3450
871.36	3412
871.489	3321
871.619	3409
871.749	3420
871.879	3424
872.008	3492
872.138	3363
872.267	3253
872.397	3135
872.526	3074
872.656	2990
872.785	3081
872.915	3245
873.044	3302
873.173	3176
873.303	3218
873.432	3237
873.561	3226
873.69	3116
873.819	3150
873.948	3154
874.077	3116
874.206	3009
874.335	3081
874.464	3192
874.593	3370
874.722	3195
874.851	3386
874.979	3348
875.108	3302
875.237	3207
875.365	3154
875.494	3157
875.623	3218
875.751	3066
875.88	3116
876.008	3199
876.136	3256
876.265	3344
876.393	3485
876.521	3424
876.65	3386
876.778	3336
876.906	3253
877.034	3165
877.162	3230
877.29	3180
877.418	3253
877.546	3222
877.674	3218
877.802	3256
877.93	3218
878.058	3127
878.185	3093
878.313	3184
878.441	3192
878.568	3097
878.696	3138
878.824	3237
878.951	3275
879.079	3409
879.206	3584
879.333	3458
879.461	3260
879.588	3321
879.715	3488
879.842	3606
879.97	3348
880.097	3169
880.224	3180
880.351	3180
880.478	3203
880.605	3195
880.732	3214
880.859	3473
880.986	3275
881.112	3302
881.239	3188
881.366	3066
881.493	3036
881.619	3047
881.746	3066
881.872	3104
881.999	3085
882.125	3135
882.252	3237
882.378	3317
882.505	3416
882.631	3279
882.757	3184
882.883	3192
883.01	3237
883.136	3142
883.262	3066
883.388	3142
883.514	3256
883.64	3355
883.766	3306
883.892	3154
884.018	3218
884.143	3393
884.269	3557
884.395	3211
884.52	3188
884.646	3131
884.772	3138
884.897	3089
885.023	3230
885.148	3325
885.274	3389
885.399	3344
885.524	3253
885.65	3195
885.775	3321
885.9	3264
886.025	3443
886.15	3332
886.275	3294
886.4	3214
886.525	3306
886.65	3268
886.775	3272
886.9	3496
887.025	3629
887.149	3439
887.274	3241
887.399	3241
887.523	3199
887.648	3180
887.773	3157
887.897	3374
888.021	3359
888.146	3291
888.27	3428
888.395	3488
888.519	3519
888.643	3450
888.767	3462
888.891	3329
889.015	3233
889.139	3264
889.263	3241
889.387	3412
889.511	3466
889.635	3462
889.759	3310
889.883	3291
890.006	3348
890.13	3469
890.254	3279
890.377	3370
890.501	3214
890.624	3180
890.748	3287
890.871	3203
890.995	3093
891.118	3047
891.241	3195
891.364	3195
891.488	3317
891.611	3188
891.734	3203
891.857	3291
891.98	3237
892.103	3329
892.226	3256
892.349	3203
892.471	3116
892.594	3226
892.717	3283
892.839	3245
892.962	3287
893.085	3348
893.207	3283
893.33	3157
893.452	3226
893.575	3317
893.697	3253
893.819	3466
893.941	3473
894.064	3435
894.186	3272
894.308	3214
894.43	3454
894.552	3542
894.674	3473
894.796	3291
894.918	3298
895.04	3241
895.161	3389
895.283	3386
895.405	3344
895.526	3340
895.648	3431
895.769	3428
895.891	3447
896.012	3481
896.134	3469
896.255	3405
896.376	3370
896.498	3363
896.619	3447
896.74	3348
896.861	3389
896.982	3686
897.103	3838
897.224	3625
897.345	3481
897.466	3428
897.587	3496
897.708	3584
897.828	3576
897.949	3409
898.07	3313
898.19	3389
898.311	3610
898.431	3485
898.552	3511
898.672	3580
898.792	3584
898.913	3492
899.033	3370
899.153	3321
899.273	3226
899.393	3272
899.513	3313
899.633	3291
899.753	3367
899.873	3306
899.993	3409
900.113	3329
900.232	3386
900.352	3294
900.472	3291
900.591	3184
900.711	3275
900.83	3249
900.95	3397
901.069	3504
901.189	3336
901.308	3161
901.427	3119
901.546	3211
901.665	3253
901.784	3302
901.904	3207
902.023	3138
902.141	3020
902.26	2956
902.379	3119
902.498	3043
902.617	2998
902.735	3214
902.854	3256
902.973	3169
903.091	3051
903.21	3058
903.328	3104
903.446	3097
903.565	3104
903.683	3176
903.801	3150
903.919	3230
904.038	3283
904.156	3150
904.274	3279
904.392	3260
904.51	3306
904.627	3310
904.745	3389
904.863	3492
904.981	3268
905.098	3131
905.216	3253
905.334	3298
905.451	3291
905.569	3275
905.686	3420
905.803	3409
905.921	3283
906.038	3424
906.155	3367
906.272	3294
906.389	3310
906.506	3222
906.623	3245
906.74	3321
906.857	3184
906.974	3264
907.091	3389
907.208	3530
907.324	3462
907.441	3355
907.557	3207
907.674	3256
907.79	3226
907.907	3313
908.023	3378
908.139	3363
908.256	3321
908.372	3367
908.488	3348
908.604	3260
908.72	3226
908.836	3279
908.952	3272
909.068	3367
909.184	3500
909.3	3397
909.415	3481
909.531	3469
909.647	3241
909.762	3275
909.878	3287
909.993	3351
910.108	3348
910.224	3336
910.339	3393
910.454	3310
910.57	3321
910.685	3253
910.8	3568
910.915	3507
911.03	3466
911.145	3249
911.259	3260
911.374	3336
911.489	3222
911.604	3256
911.718	3142
911.833	3218
911.947	3036
912.062	2952
912.176	3161
912.291	3188
912.405	3173
912.519	3397
912.633	3500
912.748	3287
912.862	3237
912.976	3203
913.09	3077
913.204	3127
913.318	3169
913.431	3287
913.545	3325
913.659	3378
913.772	3321
913.886	3230
914	3146
914.113	3344
914.226	3439
914.34	3351
914.453	3218
914.566	3397
914.68	3275
914.793	3287
914.906	3154
915.019	3131
915.132	3070
915.245	3169
915.358	3192
915.47	3226
915.583	3283
915.696	3306
915.809	3416
915.921	3405
916.034	3256
916.146	3253
916.259	3237
916.371	3370
916.483	3363
916.595	3279
916.708	3325
916.82	3272
916.932	3348
917.044	3336
917.156	3355
917.268	3298
917.38	3294
917.491	3294
917.603	3363
917.715	3431
917.826	3473
917.938	3389
918.049	3291
918.161	3397
918.272	3549
918.384	3553
918.495	3519
918.606	3344
918.717	3249
918.828	3348
918.939	3409
919.05	3272
919.161	3351
919.272	3165
919.383	3287
919.494	3515
919.604	3701
919.715	3488
919.826	3409
919.936	3435
920.047	3599
920.157	3561
920.267	3781
920.378	3599
920.488	3549
920.598	3785
920.708	3960
920.818	3778
920.928	3823
921.038	4013
921.148	4029
921.258	3701
921.368	3625
921.477	3564
921.587	3511
921.697	3447
921.806	3625
921.916	3523
922.025	3344
922.134	3363
922.244	3340
922.353	3447
922.462	3256
922.571	3199
922.68	3104
922.789	3074
922.898	3119
923.007	3089
923.116	3188
923.224	3135
923.333	3199
923.442	3108
923.55	3081
923.659	3154
923.767	3214
923.876	3074
923.984	3233
924.092	3108
924.201	3195
924.309	3203
924.417	3199
924.525	3203
924.633	3256
924.741	4150
924.849	3032
924.956	3321
925.064	3093
925.172	3020
925.279	3138
925.387	3192
925.494	3230
925.602	3359
925.709	3351
925.816	3214
925.924	3279
926.031	3367
926.138	3332
926.245	3325
926.352	3237
926.459	3401
926.566	3450
926.673	3310
926.779	3233
926.886	3256
926.993	3142
927.099	3131
927.206	3089
927.312	3116
927.419	3211
927.525	3207
927.631	3241
927.737	3157
927.843	3100
927.95	3036
928.056	3150
928.162	3142
928.267	3253
928.373	3854
928.479	3310
928.585	3077
928.69	3192
928.796	3272
928.901	3169
929.007	3036
929.112	3230
929.218	3173
929.323	3116
929.428	3142
929.533	3294
929.638	3081
929.743	3146
929.848	3253
929.953	3192
930.058	3138
930.163	2994
930.267	3051
930.372	3207
930.477	3005
930.581	3294
930.685	3176
930.79	3062
930.894	3123
930.998	3127
931.103	3230
931.207	2941
931.311	2922
931.415	2895
931.519	2754
931.623	2807
