Data from test_V78500241_1767.txt Node
Date: Fri Mar 25 16:27:26 CST 2022
User: usil
Spectrometer: V785-0024
Trigger mode: 0
Integration Time (sec): 4.000000E-1
Scans to average: 1
Nonlinearity correction enabled: false
Boxcar width: 0
Storing dark spectrum: false
XAxis mode: Wavelengths
Number of Pixels in Spectrum: 1024
>>>>>Begin Spectral Data<<<<<
801.071	2933
801.214	2967
801.356	2887
801.499	2899
801.641	2902
801.783	2914
801.926	3062
802.068	3005
802.211	3009
802.353	3055
802.496	2963
802.638	2975
802.78	3009
802.923	3085
803.065	3001
803.208	2910
803.35	2952
803.492	2948
803.635	2960
803.777	2785
803.919	2880
804.061	3173
804.204	2952
804.346	2891
804.488	2891
804.63	2975
804.773	2899
804.915	2914
805.057	3089
805.199	2956
805.341	3009
805.483	3074
805.626	3005
805.768	2975
805.91	3108
806.052	3127
806.194	3028
806.336	3249
806.478	2990
806.62	2960
806.762	2979
806.904	3097
807.046	3195
807.188	3043
807.33	2956
807.472	3013
807.614	2918
807.756	2979
807.898	2941
808.04	2914
808.182	2979
808.324	2975
808.465	2914
808.607	2906
808.749	2819
808.891	2849
809.033	2971
809.174	2944
809.316	2902
809.458	2922
809.6	2796
809.741	2781
809.883	2800
810.025	2838
810.166	2910
810.308	2883
810.45	2853
810.591	2807
810.733	2815
810.875	2857
811.016	2830
811.158	2769
811.299	2781
811.441	2922
811.582	2899
811.724	2864
811.865	2845
812.007	2929
812.148	2868
812.29	2853
812.431	2876
812.573	2910
812.714	3005
812.855	3047
812.997	3039
813.138	3127
813.279	3009
813.421	3005
813.562	2948
813.703	2883
813.845	2880
813.986	2796
814.127	2754
814.268	2838
814.41	2838
814.551	2811
814.692	2895
814.833	2838
814.974	2895
815.115	2971
815.256	2815
815.397	2819
815.539	2876
815.68	2777
815.821	2804
815.962	2922
816.103	2929
816.244	2838
816.385	2918
816.526	2963
816.666	2952
816.807	2758
816.948	2906
817.089	2906
817.23	2883
817.371	2785
817.512	2811
817.653	2838
817.793	2823
817.934	2910
818.075	2956
818.216	2986
818.356	3051
818.497	2876
818.638	2785
818.778	2842
818.919	2838
819.06	2754
819.2	2895
819.341	2819
819.481	2788
819.622	2925
819.762	3119
819.903	3093
820.043	2899
820.184	2891
820.324	2902
820.465	3028
820.605	3024
820.746	3051
820.886	2944
821.026	3123
821.167	3138
821.307	3264
821.447	3306
821.588	3230
821.728	3199
821.868	3226
822.008	3104
822.149	3169
822.289	3188
822.429	3138
822.569	3108
822.709	3176
822.849	3039
822.99	3081
823.13	3169
823.27	3226
823.41	3119
823.55	3135
823.69	3146
823.83	3157
823.97	3112
824.11	3001
824.25	3028
824.389	3028
824.529	3104
824.669	3062
824.809	3226
824.949	3275
825.089	3226
825.228	3161
825.368	3024
825.508	2941
825.648	2967
825.787	3039
825.927	3039
826.067	2948
826.206	2975
826.346	3043
826.485	3066
826.625	3100
826.765	3226
826.904	3195
827.044	3013
827.183	2933
827.323	2891
827.462	2982
827.601	2910
827.741	2922
827.88	2967
828.02	2880
828.159	2979
828.298	2998
828.437	3100
828.577	3085
828.716	3203
828.855	3085
828.994	2937
829.134	2918
829.273	2918
829.412	2861
829.551	2864
829.69	2868
829.829	3017
829.968	3108
830.107	3039
830.246	3070
830.385	2914
830.524	2899
830.663	2826
830.802	2773
830.941	2670
831.08	2648
831.219	2762
831.357	2781
831.496	2952
831.635	2731
831.774	2648
831.913	2659
832.051	2590
832.19	2583
832.329	2708
832.467	2526
832.606	2484
832.744	2587
832.883	2613
833.022	2598
833.16	2651
833.299	2708
833.437	2716
833.576	2689
833.714	2746
833.852	2739
833.991	2750
834.129	2872
834.267	2842
834.406	2796
834.544	2880
834.682	2887
834.821	2868
834.959	3070
835.097	2906
835.235	3097
835.373	2975
835.511	3024
835.65	2944
835.788	2979
835.926	2838
836.064	2845
836.202	2849
836.34	3100
836.478	3135
836.615	3074
836.753	3104
836.891	3192
837.029	3142
837.167	3150
837.305	3062
837.443	3043
837.58	3001
837.718	3093
837.856	3074
837.993	2994
838.131	3116
838.269	3123
838.406	3108
838.544	3093
838.681	2967
838.819	2933
838.956	2842
839.094	2830
839.231	2937
839.369	3036
839.506	3409
839.643	3199
839.781	3043
839.918	2975
840.055	3051
840.193	3058
840.33	3081
840.467	3123
840.604	3154
840.742	3435
840.879	3070
841.016	3089
841.153	3135
841.29	3367
841.427	3279
841.564	3279
841.701	3298
841.838	3237
841.975	3214
842.112	3233
842.249	3055
842.385	3066
842.522	3264
842.659	3116
842.796	3093
842.933	3089
843.069	3039
843.206	3028
843.343	3165
843.479	3104
843.616	3104
843.752	2857
843.889	2883
844.025	3085
844.162	2876
844.298	3062
844.435	2979
844.571	2922
844.708	3104
844.844	3192
844.98	3211
845.117	3176
845.253	3070
845.389	3013
845.525	3097
845.661	3150
845.798	3020
845.934	3119
846.07	3085
846.206	3214
846.342	3317
846.478	3222
846.614	3077
846.75	3032
846.886	3039
847.022	3256
847.158	3116
847.294	3176
847.429	3253
847.565	3192
847.701	3488
847.837	3051
847.972	2952
848.108	3184
848.244	3169
848.379	3028
848.515	2929
848.65	2933
848.786	2971
848.921	2994
849.057	3093
849.192	3135
849.328	3066
849.463	3116
849.598	3047
849.734	3032
849.869	3005
850.004	2925
850.14	2933
850.275	2956
850.41	2857
850.545	2895
850.68	2937
850.815	2941
850.95	2963
851.085	3180
851.22	3097
851.355	3020
851.49	2986
851.625	2986
851.76	3017
851.895	2922
852.03	2887
852.165	3013
852.299	3108
852.434	3180
852.569	3135
852.703	3188
852.838	3241
852.973	3351
853.107	3321
853.242	3173
853.376	3097
853.511	3005
853.645	3024
853.78	3268
853.914	3108
854.048	3089
854.183	3089
854.317	3123
854.451	3313
854.585	3127
854.72	3123
854.854	3195
854.988	3047
855.122	3100
855.256	3009
855.39	3089
855.524	3233
855.658	3184
855.792	3150
855.926	3192
856.06	3199
856.194	3264
856.327	3161
856.461	3085
856.595	3062
856.729	3161
856.862	3180
856.996	3161
857.13	3214
857.263	3253
857.397	3230
857.53	3116
857.664	3173
857.797	3260
857.931	3203
858.064	3218
858.197	3226
858.331	3173
858.464	3081
858.597	3043
858.731	3165
858.864	3116
858.997	3043
859.13	3142
859.263	3161
859.396	3233
859.529	3085
859.662	3055
859.795	3047
859.928	3138
860.061	3260
860.194	3291
860.327	3157
860.46	3104
860.592	3211
860.725	3230
860.858	3256
860.99	3070
861.123	3062
861.256	3051
861.388	3154
861.521	3869
861.653	2982
861.786	3001
861.918	3005
862.05	3043
862.183	3131
862.315	3150
862.447	3226
862.58	3093
862.712	2948
862.844	2868
862.976	3051
863.108	3013
863.24	3279
863.372	2845
863.504	2963
863.636	2933
863.768	3055
863.9	2994
864.032	2925
864.164	2952
864.296	3009
864.428	3074
864.559	3108
864.691	3066
864.823	3039
864.954	3024
865.086	3074
865.217	2971
865.349	2933
865.48	2948
865.612	3028
865.743	3176
865.875	2994
866.006	2941
866.137	2956
866.269	2902
866.4	2937
866.531	2922
866.662	2883
866.793	2902
866.924	2914
867.055	2956
867.186	2937
867.317	2853
867.448	2807
867.579	2838
867.71	2842
867.841	2823
867.972	2914
868.103	2933
868.233	2883
868.364	2876
868.495	2963
868.625	3047
868.756	3131
868.886	2994
869.017	3036
869.147	3146
869.278	3165
869.408	3051
869.539	3036
869.669	3070
869.799	3005
869.929	3119
870.06	3116
870.19	3325
870.32	3275
870.45	3325
870.58	3351
870.71	3447
870.84	3447
870.97	3275
871.1	3256
871.23	3454
871.36	3462
871.489	3367
871.619	3374
871.749	3367
871.879	3431
872.008	3515
872.138	3344
872.267	3272
872.397	3142
872.526	3081
872.656	2990
872.785	3074
872.915	3249
873.044	3313
873.173	3222
873.303	3214
873.432	3211
873.561	3230
873.69	3169
873.819	3131
873.948	3176
874.077	3081
874.206	3017
874.335	3097
874.464	3211
874.593	3344
874.722	3214
874.851	3389
874.979	3336
875.108	3336
875.237	3169
875.365	3184
875.494	3142
875.623	3283
875.751	3093
875.88	3131
876.008	3211
876.136	3256
876.265	3344
876.393	3473
876.521	3420
876.65	3370
876.778	3310
876.906	3241
877.034	3214
877.162	3199
877.29	3165
877.418	3245
877.546	3256
877.674	3245
877.802	3222
877.93	3249
878.058	3157
878.185	3112
878.313	3192
878.441	3184
878.568	3062
878.696	3131
878.824	3230
878.951	3317
879.079	3477
879.206	3637
879.333	3409
879.461	3298
879.588	3378
879.715	3496
879.842	3576
879.97	3382
880.097	3154
880.224	3127
880.351	3195
880.478	3192
880.605	3150
880.732	3207
880.859	3488
880.986	3310
881.112	3298
881.239	3211
881.366	3100
881.493	3032
881.619	2994
881.746	3097
881.872	3104
881.999	3077
882.125	3119
882.252	3214
882.378	3291
882.505	3382
882.631	3321
882.757	3157
882.883	3192
883.01	3180
883.136	3161
883.262	3097
883.388	3112
883.514	3329
883.64	3386
883.766	3332
883.892	3188
884.018	3226
884.143	3389
884.269	3523
884.395	3207
884.52	3112
884.646	3173
884.772	3123
884.897	3089
885.023	3146
885.148	3294
885.274	3409
885.399	3340
885.524	3313
885.65	3268
885.775	3325
885.9	3253
886.025	3439
886.15	3344
886.275	3291
886.4	3237
886.525	3332
886.65	3279
886.775	3264
886.9	3443
887.025	3633
887.149	3378
887.274	3268
887.399	3169
887.523	3218
887.648	3195
887.773	3180
887.897	3344
888.021	3386
888.146	3291
888.27	3439
888.395	3511
888.519	3420
888.643	3405
888.767	3450
888.891	3336
889.015	3222
889.139	3272
889.263	3230
889.387	3401
889.511	3519
889.635	3439
889.759	3310
889.883	3283
890.006	3370
890.13	3511
890.254	3260
890.377	3355
890.501	3199
890.624	3207
890.748	3325
890.871	3180
890.995	3119
891.118	3036
891.241	3214
891.364	3256
891.488	3317
891.611	3142
891.734	3237
891.857	3329
891.98	3233
892.103	3348
892.226	3249
892.349	3211
892.471	3070
892.594	3245
892.717	3287
892.839	3306
892.962	3313
893.085	3386
893.207	3291
893.33	3104
893.452	3188
893.575	3351
893.697	3214
893.819	3443
893.941	3473
894.064	3462
894.186	3249
894.308	3256
894.43	3469
894.552	3519
894.674	3435
894.796	3283
894.918	3287
895.04	3283
895.161	3431
895.283	3393
895.405	3302
895.526	3329
895.648	3401
895.769	3416
895.891	3435
896.012	3450
896.134	3439
896.255	3435
896.376	3344
896.498	3351
896.619	3405
896.74	3374
896.861	3416
896.982	3675
897.103	3785
897.224	3606
897.345	3504
897.466	3428
897.587	3477
897.708	3641
897.828	3549
897.949	3431
898.07	3298
898.19	3435
898.311	3595
898.431	3439
898.552	3507
898.672	3591
898.792	3599
898.913	3523
899.033	3431
899.153	3291
899.273	3180
899.393	3249
899.513	3287
899.633	3291
899.753	3313
899.873	3298
899.993	3370
900.113	3310
900.232	3405
900.352	3329
900.472	3310
900.591	3203
900.711	3256
900.83	3214
900.95	3412
901.069	3515
901.189	3370
901.308	3150
901.427	3108
901.546	3188
901.665	3283
901.784	3329
901.904	3226
902.023	3123
902.141	3020
902.26	3024
902.379	3116
902.498	3062
902.617	3024
902.735	3176
902.854	3272
902.973	3150
903.091	3013
903.21	3024
903.328	3131
903.446	3161
903.565	3089
903.683	3184
903.801	3097
903.919	3237
904.038	3283
904.156	3154
904.274	3287
904.392	3249
904.51	3283
904.627	3302
904.745	3428
904.863	3447
904.981	3241
905.098	3142
905.216	3237
905.334	3230
905.451	3310
905.569	3302
905.686	3405
905.803	3416
905.921	3253
906.038	3443
906.155	3370
906.272	3233
906.389	3329
906.506	3241
906.623	3211
906.74	3256
906.857	3207
906.974	3275
907.091	3428
907.208	3534
907.324	3458
907.441	3382
907.557	3241
907.674	3241
907.79	3253
907.907	3241
908.023	3344
908.139	3374
908.256	3321
908.372	3348
908.488	3355
908.604	3279
908.72	3226
908.836	3275
908.952	3237
909.068	3359
909.184	3450
909.3	3405
909.415	3492
909.531	3492
909.647	3245
909.762	3260
909.878	3245
909.993	3359
910.108	3329
910.224	3348
910.339	3439
910.454	3329
910.57	3253
910.685	3272
910.8	3587
910.915	3576
911.03	3439
911.145	3260
911.259	3256
911.374	3317
911.489	3241
911.604	3180
911.718	3127
911.833	3142
911.947	3032
912.062	3009
912.176	3176
912.291	3165
912.405	3218
912.519	3447
912.633	3443
912.748	3332
912.862	3291
912.976	3188
913.09	3066
913.204	3116
913.318	3233
913.431	3355
913.545	3325
913.659	3389
913.772	3287
913.886	3237
914	3188
914.113	3332
914.226	3374
914.34	3351
914.453	3173
914.566	3420
914.68	3302
914.793	3306
914.906	3165
915.019	3108
915.132	3047
915.245	3199
915.358	3192
915.47	3207
915.583	3260
915.696	3287
915.809	3393
915.921	3443
916.034	3237
916.146	3253
916.259	3211
916.371	3409
916.483	3336
916.595	3294
916.708	3348
916.82	3329
916.932	3351
917.044	3340
917.156	3317
917.268	3256
917.38	3287
917.491	3329
917.603	3405
917.715	3412
917.826	3458
917.938	3351
918.049	3313
918.161	3405
918.272	3595
918.384	3515
918.495	3534
918.606	3306
918.717	3291
918.828	3340
918.939	3389
919.05	3317
919.161	3351
919.272	3169
919.383	3291
919.494	3473
919.604	3720
919.715	3488
919.826	3439
919.936	3477
920.047	3618
920.157	3538
920.267	3759
920.378	3580
920.488	3599
920.598	3762
920.708	3968
920.818	3819
920.928	3842
921.038	4021
921.148	4017
921.258	3694
921.368	3641
921.477	3572
921.587	3542
921.697	3443
921.806	3644
921.916	3454
922.025	3329
922.134	3359
922.244	3298
922.353	3428
922.462	3268
922.571	3230
922.68	3131
922.789	3051
922.898	3116
923.007	3104
923.116	3226
923.224	3146
923.333	3211
923.442	3138
923.55	3104
923.659	3146
923.767	3199
923.876	3104
923.984	3241
924.092	3127
924.201	3207
924.309	3241
924.417	3249
924.525	3203
924.633	3256
924.741	3987
924.849	3062
924.956	3260
925.064	3070
925.172	3047
925.279	3119
925.387	3211
925.494	3188
925.602	3344
925.709	3359
925.816	3154
925.924	3279
926.031	3389
926.138	3317
926.245	3329
926.352	3222
926.459	3435
926.566	3450
926.673	3336
926.779	3233
926.886	3268
926.993	3119
927.099	3150
927.206	3097
927.312	3119
927.419	3184
927.525	3192
927.631	3268
927.737	3112
927.843	3119
927.95	3005
928.056	3138
928.162	3169
928.267	3283
928.373	3819
928.479	3294
928.585	3077
928.69	3253
928.796	3272
928.901	3154
929.007	3032
929.112	3180
929.218	3207
929.323	3161
929.428	3131
929.533	3321
929.638	3119
929.743	3169
929.848	3226
929.953	3241
930.058	3093
930.163	2994
930.267	3043
930.372	3165
930.477	3028
930.581	3272
930.685	3165
930.79	3081
930.894	3108
930.998	3119
931.103	3272
931.207	2975
931.311	2952
931.415	2906
931.519	2773
931.623	2800
