Data from test_V78500241_1418.txt Node
Date: Fri Mar 25 16:25:01 CST 2022
User: usil
Spectrometer: V785-0024
Trigger mode: 0
Integration Time (sec): 4.000000E-1
Scans to average: 1
Nonlinearity correction enabled: false
Boxcar width: 0
Storing dark spectrum: false
XAxis mode: Wavelengths
Number of Pixels in Spectrum: 1024
>>>>>Begin Spectral Data<<<<<
801.071	2922
801.214	2967
801.356	2918
801.499	2891
801.641	2880
801.783	2944
801.926	3097
802.068	2963
802.211	2994
802.353	3058
802.496	2933
802.638	3024
802.78	3051
802.923	3077
803.065	3001
803.208	2891
803.35	2910
803.492	2948
803.635	2933
803.777	2773
803.919	2845
804.061	3195
804.204	2922
804.346	2914
804.488	2880
804.63	3013
804.773	2922
804.915	2918
805.057	3085
805.199	2937
805.341	2944
805.483	3013
805.626	3020
805.768	2960
805.91	3081
806.052	3093
806.194	3081
806.336	3249
806.478	3020
806.62	2956
806.762	2990
806.904	3036
807.046	3165
807.188	2986
807.33	2906
807.472	2990
807.614	2910
807.756	2971
807.898	2941
808.04	2906
808.182	2986
808.324	2922
808.465	2872
808.607	2891
808.749	2796
808.891	2819
809.033	3005
809.174	2975
809.316	2891
809.458	2845
809.6	2762
809.741	2766
809.883	2754
810.025	2842
810.166	2838
810.308	2845
810.45	2872
810.591	2769
810.733	2750
810.875	2823
811.016	2739
811.158	2758
811.299	2823
811.441	2941
811.582	2887
811.724	2807
811.865	2838
812.007	2876
812.148	2891
812.29	2853
812.431	2880
812.573	2971
812.714	2952
812.855	3039
812.997	3036
813.138	3085
813.279	2982
813.421	2967
813.562	2948
813.703	2864
813.845	2899
813.986	2792
814.127	2712
814.268	2796
814.41	2823
814.551	2819
814.692	2895
814.833	2781
814.974	2880
815.115	2937
815.256	2838
815.397	2834
815.539	2861
815.68	2773
815.821	2773
815.962	2929
816.103	2902
816.244	2910
816.385	2861
816.526	2944
816.666	2914
816.807	2716
816.948	2914
817.089	2895
817.23	2864
817.371	2754
817.512	2773
817.653	2826
817.793	2845
817.934	2872
818.075	2929
818.216	2975
818.356	3013
818.497	2857
818.638	2746
818.778	2788
818.919	2773
819.06	2785
819.2	2853
819.341	2800
819.481	2811
819.622	2922
819.762	3093
819.903	3081
820.043	2956
820.184	2891
820.324	2895
820.465	2998
820.605	3005
820.746	3051
820.886	2941
821.026	3093
821.167	3176
821.307	3241
821.447	3294
821.588	3275
821.728	3195
821.868	3211
822.008	3108
822.149	3176
822.289	3241
822.429	3097
822.569	3085
822.709	3233
822.849	3039
822.99	3108
823.13	3184
823.27	3211
823.41	3150
823.55	3192
823.69	3214
823.83	3207
823.97	3116
824.11	3051
824.25	3017
824.389	3112
824.529	3165
824.669	3108
824.809	3245
824.949	3283
825.089	3275
825.228	3169
825.368	3043
825.508	3001
825.648	2990
825.787	3047
825.927	3077
826.067	2990
826.206	3028
826.346	3104
826.485	3142
826.625	3173
826.765	3298
826.904	3184
827.044	3051
827.183	2994
827.323	2880
827.462	2998
827.601	2948
827.741	2971
827.88	2948
828.02	2891
828.159	3032
828.298	3058
828.437	3154
828.577	3077
828.716	3283
828.855	3104
828.994	2990
829.134	2899
829.273	2975
829.412	2876
829.551	2899
829.69	2941
829.829	3028
829.968	3165
830.107	3024
830.246	3039
830.385	2967
830.524	2925
830.663	2895
830.802	2800
830.941	2670
831.08	2693
831.219	2766
831.357	2754
831.496	2986
831.635	2769
831.774	2724
831.913	2682
832.051	2606
832.19	2590
832.329	2705
832.467	2583
832.606	2518
832.744	2602
832.883	2625
833.022	2617
833.16	2697
833.299	2697
833.437	2746
833.576	2739
833.714	2762
833.852	2785
833.991	2781
834.129	2895
834.267	2838
834.406	2838
834.544	2906
834.682	2933
834.821	2910
834.959	3085
835.097	2929
835.235	3100
835.373	3005
835.511	3070
835.65	2975
835.788	2982
835.926	2891
836.064	2830
836.202	2868
836.34	3146
836.478	3207
836.615	3097
836.753	3135
836.891	3241
837.029	3161
837.167	3142
837.305	3116
837.443	3036
837.58	3020
837.718	3192
837.856	3127
837.993	3051
838.131	3123
838.269	3127
838.406	3131
838.544	3135
838.681	2963
838.819	2902
838.956	2861
839.094	2838
839.231	2948
839.369	3028
839.506	3401
839.643	3253
839.781	3024
839.918	3028
840.055	3093
840.193	3116
840.33	3070
840.467	3116
840.604	3184
840.742	3416
840.879	3051
841.016	3074
841.153	3161
841.29	3344
841.427	3340
841.564	3302
841.701	3332
841.838	3256
841.975	3180
842.112	3245
842.249	3112
842.385	3070
842.522	3283
842.659	3112
842.796	3097
842.933	3161
843.069	3070
843.206	3039
843.343	3218
843.479	3112
843.616	3195
843.752	2948
843.889	2922
844.025	3112
844.162	2925
844.298	3135
844.435	2982
844.571	2937
844.708	3104
844.844	3207
844.98	3268
845.117	3207
845.253	3081
845.389	3093
845.525	3135
845.661	3108
845.798	3009
845.934	3161
846.07	3093
846.206	3237
846.342	3374
846.478	3272
846.614	3097
846.75	3077
846.886	3051
847.022	3260
847.158	3161
847.294	3211
847.429	3245
847.565	3233
847.701	3500
847.837	3089
847.972	3077
848.108	3169
848.244	3165
848.379	3051
848.515	2990
848.65	2982
848.786	3013
848.921	3036
849.057	3085
849.192	3165
849.328	3097
849.463	3138
849.598	3077
849.734	3055
849.869	2994
850.004	2956
850.14	3020
850.275	2902
850.41	2883
850.545	2895
850.68	2944
850.815	3001
850.95	2998
851.085	3233
851.22	3150
851.355	3051
851.49	2998
851.625	3024
851.76	3047
851.895	2941
852.03	2918
852.165	3051
852.299	3165
852.434	3245
852.569	3142
852.703	3203
852.838	3279
852.973	3351
853.107	3348
853.242	3188
853.376	3123
853.511	2998
853.645	3089
853.78	3268
853.914	3135
854.048	3138
854.183	3093
854.317	3157
854.451	3310
854.585	3169
854.72	3104
854.854	3256
854.988	3097
855.122	3119
855.256	2982
855.39	3138
855.524	3287
855.658	3184
855.792	3222
855.926	3203
856.06	3260
856.194	3302
856.327	3150
856.461	3142
856.595	3100
856.729	3077
856.862	3249
856.996	3184
857.13	3214
857.263	3272
857.397	3325
857.53	3138
857.664	3211
857.797	3233
857.931	3275
858.064	3192
858.197	3226
858.331	3161
858.464	3100
858.597	3009
858.731	3150
858.864	3157
858.997	3097
859.13	3157
859.263	3203
859.396	3214
859.529	3135
859.662	3085
859.795	3100
859.928	3161
860.061	3287
860.194	3298
860.327	3138
860.46	3131
860.592	3226
860.725	3283
860.858	3298
860.99	3116
861.123	3093
861.256	3051
861.388	3169
861.521	3800
861.653	3009
861.786	3017
861.918	3017
862.05	3097
862.183	3119
862.315	3184
862.447	3218
862.58	3112
862.712	2944
862.844	2899
862.976	3043
863.108	2990
863.24	3348
863.372	2845
863.504	2998
863.636	2956
863.768	3055
863.9	2994
864.032	2922
864.164	2967
864.296	2979
864.428	3093
864.559	3112
864.691	3100
864.823	3077
864.954	3043
865.086	3074
865.217	3024
865.349	2967
865.48	3009
865.612	3039
865.743	3218
865.875	2944
866.006	3009
866.137	2975
866.269	2948
866.4	2979
866.531	2941
866.662	2891
866.793	2933
866.924	2899
867.055	2982
867.186	2948
867.317	2941
867.448	2838
867.579	2861
867.71	2876
867.841	2826
867.972	2960
868.103	2914
868.233	2880
868.364	2899
868.495	2902
868.625	3097
868.756	3199
868.886	3001
869.017	3001
869.147	3173
869.278	3203
869.408	3058
869.539	3047
869.669	3112
869.799	3051
869.929	3135
870.06	3127
870.19	3313
870.32	3294
870.45	3355
870.58	3325
870.71	3469
870.84	3443
870.97	3306
871.1	3253
871.23	3504
871.36	3469
871.489	3367
871.619	3386
871.749	3435
871.879	3458
872.008	3466
872.138	3363
872.267	3306
872.397	3176
872.526	3104
872.656	3032
872.785	3116
872.915	3218
873.044	3317
873.173	3264
873.303	3260
873.432	3264
873.561	3233
873.69	3165
873.819	3180
873.948	3211
874.077	3089
874.206	3058
874.335	3077
874.464	3199
874.593	3355
874.722	3233
874.851	3378
874.979	3344
875.108	3336
875.237	3211
875.365	3176
875.494	3142
875.623	3253
875.751	3135
875.88	3097
876.008	3249
876.136	3249
876.265	3363
876.393	3507
876.521	3458
876.65	3378
876.778	3344
876.906	3272
877.034	3230
877.162	3245
877.29	3207
877.418	3260
877.546	3287
877.674	3272
877.802	3241
877.93	3188
878.058	3169
878.185	3089
878.313	3184
878.441	3233
878.568	3085
878.696	3157
878.824	3253
878.951	3340
879.079	3481
879.206	3572
879.333	3458
879.461	3344
879.588	3359
879.715	3511
879.842	3603
879.97	3363
880.097	3150
880.224	3138
880.351	3203
880.478	3264
880.605	3214
880.732	3214
880.859	3477
880.986	3302
881.112	3329
881.239	3203
881.366	3100
881.493	3055
881.619	3020
881.746	3093
881.872	3085
881.999	3138
882.125	3165
882.252	3249
882.378	3325
882.505	3412
882.631	3313
882.757	3154
882.883	3203
883.01	3256
883.136	3192
883.262	3123
883.388	3135
883.514	3344
883.64	3374
883.766	3321
883.892	3207
884.018	3260
884.143	3447
884.269	3561
884.395	3207
884.52	3176
884.646	3199
884.772	3135
884.897	3142
885.023	3192
885.148	3329
885.274	3443
885.399	3393
885.524	3298
885.65	3275
885.775	3336
885.9	3294
886.025	3443
886.15	3382
886.275	3302
886.4	3237
886.525	3363
886.65	3298
886.775	3279
886.9	3523
887.025	3663
887.149	3401
887.274	3275
887.399	3203
887.523	3207
887.648	3180
887.773	3195
887.897	3370
888.021	3424
888.146	3325
888.27	3401
888.395	3511
888.519	3443
888.643	3439
888.767	3481
888.891	3306
889.015	3230
889.139	3298
889.263	3245
889.387	3401
889.511	3545
889.635	3431
889.759	3279
889.883	3329
890.006	3359
890.13	3504
890.254	3272
890.377	3336
890.501	3199
890.624	3195
890.748	3302
890.871	3169
890.995	3138
891.118	3062
891.241	3180
891.364	3226
891.488	3340
891.611	3195
891.734	3188
891.857	3283
891.98	3226
892.103	3393
892.226	3298
892.349	3237
892.471	3127
892.594	3233
892.717	3268
892.839	3260
892.962	3287
893.085	3340
893.207	3279
893.33	3173
893.452	3237
893.575	3363
893.697	3253
893.819	3515
893.941	3519
894.064	3485
894.186	3253
894.308	3283
894.43	3424
894.552	3545
894.674	3458
894.796	3298
894.918	3313
895.04	3302
895.161	3462
895.283	3393
895.405	3275
895.526	3370
895.648	3439
895.769	3435
895.891	3473
896.012	3504
896.134	3439
896.255	3393
896.376	3389
896.498	3393
896.619	3428
896.74	3359
896.861	3378
896.982	3633
897.103	3812
897.224	3599
897.345	3568
897.466	3409
897.587	3538
897.708	3606
897.828	3568
897.949	3435
898.07	3302
898.19	3416
898.311	3568
898.431	3466
898.552	3538
898.672	3572
898.792	3641
898.913	3530
899.033	3428
899.153	3321
899.273	3241
899.393	3279
899.513	3313
899.633	3302
899.753	3329
899.873	3329
899.993	3374
900.113	3363
900.232	3450
900.352	3367
900.472	3275
900.591	3169
900.711	3287
900.83	3260
900.95	3405
901.069	3496
901.189	3332
901.308	3192
901.427	3112
901.546	3176
901.665	3272
901.784	3317
901.904	3195
902.023	3173
902.141	3017
902.26	3017
902.379	3127
902.498	3089
902.617	3047
902.735	3176
902.854	3230
902.973	3184
903.091	3066
903.21	3074
903.328	3138
903.446	3112
903.565	3085
903.683	3165
903.801	3142
903.919	3256
904.038	3287
904.156	3154
904.274	3306
904.392	3199
904.51	3287
904.627	3355
904.745	3466
904.863	3511
904.981	3291
905.098	3199
905.216	3237
905.334	3268
905.451	3287
905.569	3313
905.686	3405
905.803	3401
905.921	3275
906.038	3473
906.155	3401
906.272	3275
906.389	3317
906.506	3241
906.623	3283
906.74	3298
906.857	3226
906.974	3279
907.091	3443
907.208	3576
907.324	3492
907.441	3386
907.557	3199
907.674	3233
907.79	3214
907.907	3283
908.023	3370
908.139	3355
908.256	3355
908.372	3348
908.488	3367
908.604	3253
908.72	3253
908.836	3279
908.952	3268
909.068	3336
909.184	3462
909.3	3397
909.415	3492
909.531	3473
909.647	3283
909.762	3310
909.878	3287
909.993	3370
910.108	3275
910.224	3294
910.339	3431
910.454	3306
910.57	3268
910.685	3253
910.8	3595
910.915	3492
911.03	3424
911.145	3268
911.259	3268
911.374	3317
911.489	3230
911.604	3233
911.718	3112
911.833	3176
911.947	3017
912.062	2994
912.176	3154
912.291	3214
912.405	3195
912.519	3431
912.633	3500
912.748	3306
912.862	3287
912.976	3150
913.09	3055
913.204	3165
913.318	3237
913.431	3336
913.545	3325
913.659	3420
913.772	3329
913.886	3222
914	3203
914.113	3359
914.226	3401
914.34	3367
914.453	3218
914.566	3409
914.68	3287
914.793	3310
914.906	3146
915.019	3100
915.132	3047
915.245	3138
915.358	3176
915.47	3188
915.583	3291
915.696	3275
915.809	3405
915.921	3473
916.034	3272
916.146	3283
916.259	3176
916.371	3409
916.483	3359
916.595	3253
916.708	3340
916.82	3367
916.932	3336
917.044	3332
917.156	3344
917.268	3260
917.38	3298
917.491	3268
917.603	3416
917.715	3401
917.826	3477
917.938	3367
918.049	3275
918.161	3405
918.272	3568
918.384	3606
918.495	3469
918.606	3344
918.717	3291
918.828	3412
918.939	3393
919.05	3291
919.161	3374
919.272	3214
919.383	3272
919.494	3519
919.604	3686
919.715	3473
919.826	3424
919.936	3443
920.047	3549
920.157	3542
920.267	3759
920.378	3614
920.488	3610
920.598	3747
920.708	3915
920.818	3766
920.928	3827
921.038	4055
921.148	4021
921.258	3720
921.368	3606
921.477	3576
921.587	3538
921.697	3450
921.806	3614
921.916	3462
922.025	3370
922.134	3344
922.244	3306
922.353	3393
922.462	3260
922.571	3226
922.68	3123
922.789	3100
922.898	3093
923.007	3104
923.116	3195
923.224	3161
923.333	3207
923.442	3097
923.55	3085
923.659	3142
923.767	3188
923.876	3119
923.984	3195
924.092	3112
924.201	3214
924.309	3203
924.417	3272
924.525	3157
924.633	3245
924.741	4154
924.849	3020
924.956	3260
925.064	3097
925.172	3058
925.279	3104
925.387	3218
925.494	3214
925.602	3332
925.709	3344
925.816	3173
925.924	3279
926.031	3378
926.138	3291
926.245	3409
926.352	3264
926.459	3397
926.566	3481
926.673	3321
926.779	3264
926.886	3241
926.993	3150
927.099	3119
927.206	3085
927.312	3104
927.419	3272
927.525	3241
927.631	3249
927.737	3142
927.843	3108
927.95	3028
928.056	3119
928.162	3173
928.267	3249
928.373	3846
928.479	3298
928.585	3085
928.69	3199
928.796	3260
928.901	3176
929.007	3047
929.112	3237
929.218	3161
929.323	3173
929.428	3108
929.533	3310
929.638	3119
929.743	3146
929.848	3230
929.953	3203
930.058	3169
930.163	2967
930.267	3028
930.372	3195
930.477	2994
930.581	3321
930.685	3192
930.79	3081
930.894	3104
930.998	3051
931.103	3272
931.207	2948
931.311	2941
931.415	2906
931.519	2781
931.623	2819
