Data from test_V78500241_1958.txt Node
Date: Fri Mar 25 16:28:46 CST 2022
User: usil
Spectrometer: V785-0024
Trigger mode: 0
Integration Time (sec): 4.000000E-1
Scans to average: 1
Nonlinearity correction enabled: false
Boxcar width: 0
Storing dark spectrum: false
XAxis mode: Wavelengths
Number of Pixels in Spectrum: 1024
>>>>>Begin Spectral Data<<<<<
801.071	2902
801.214	2906
801.356	2906
801.499	2876
801.641	2861
801.783	2937
801.926	3051
802.068	2971
802.211	2975
802.353	3036
802.496	2941
802.638	2994
802.78	3020
802.923	3062
803.065	2982
803.208	2910
803.35	2902
803.492	2925
803.635	2906
803.777	2720
803.919	2838
804.061	3138
804.204	2922
804.346	2906
804.488	2838
804.63	2967
804.773	2849
804.915	2899
805.057	3062
805.199	2891
805.341	2975
805.483	3020
805.626	3001
805.768	2952
805.91	3047
806.052	3123
806.194	3036
806.336	3253
806.478	3020
806.62	2929
806.762	2960
806.904	3066
807.046	3180
807.188	2998
807.33	2918
807.472	2979
807.614	2902
807.756	3009
807.898	2933
808.04	2857
808.182	2948
808.324	2925
808.465	2887
808.607	2895
808.749	2788
808.891	2857
809.033	2979
809.174	2948
809.316	2895
809.458	2906
809.6	2769
809.741	2750
809.883	2781
810.025	2849
810.166	2872
810.308	2845
810.45	2891
810.591	2781
810.733	2754
810.875	2830
811.016	2785
811.158	2712
811.299	2823
811.441	2925
811.582	2872
811.724	2796
811.865	2861
812.007	2899
812.148	2842
812.29	2861
812.431	2876
812.573	2944
812.714	2948
812.855	3047
812.997	3028
813.138	3131
813.279	3005
813.421	2979
813.562	2914
813.703	2872
813.845	2906
813.986	2785
814.127	2724
814.268	2804
814.41	2826
814.551	2826
814.692	2906
814.833	2826
814.974	2914
815.115	2975
815.256	2815
815.397	2807
815.539	2838
815.68	2758
815.821	2762
815.962	2944
816.103	2933
816.244	2864
816.385	2842
816.526	2990
816.666	2883
816.807	2739
816.948	2887
817.089	2902
817.23	2853
817.371	2773
817.512	2792
817.653	2868
817.793	2811
817.934	2849
818.075	2944
818.216	2986
818.356	3005
818.497	2895
818.638	2781
818.778	2849
818.919	2788
819.06	2766
819.2	2887
819.341	2823
819.481	2804
819.622	2902
819.762	3097
819.903	3051
820.043	2925
820.184	2918
820.324	2883
820.465	3028
820.605	3013
820.746	3020
820.886	2922
821.026	3116
821.167	3135
821.307	3218
821.447	3272
821.588	3260
821.728	3180
821.868	3161
822.008	3074
822.149	3146
822.289	3188
822.429	3074
822.569	3097
822.709	3180
822.849	3013
822.99	3039
823.13	3146
823.27	3245
823.41	3097
823.55	3131
823.69	3138
823.83	3161
823.97	3089
824.11	2982
824.25	3001
824.389	3070
824.529	3089
824.669	3077
824.809	3184
824.949	3253
825.089	3226
825.228	3142
825.368	2971
825.508	2971
825.648	2960
825.787	2990
825.927	3013
826.067	3005
826.206	2956
826.346	3089
826.485	3085
826.625	3119
826.765	3256
826.904	3199
827.044	2971
827.183	2922
827.323	2895
827.462	2982
827.601	2906
827.741	2895
827.88	2963
828.02	2834
828.159	2986
828.298	3028
828.437	3100
828.577	3062
828.716	3245
828.855	3051
828.994	2929
829.134	2880
829.273	2925
829.412	2849
829.551	2864
829.69	2883
829.829	2975
829.968	3150
830.107	3005
830.246	2979
830.385	2918
830.524	2883
830.663	2830
830.802	2739
830.941	2659
831.08	2644
831.219	2811
831.357	2746
831.496	2914
831.635	2724
831.774	2640
831.913	2648
832.051	2568
832.19	2587
832.329	2682
832.467	2541
832.606	2469
832.744	2545
832.883	2590
833.022	2575
833.16	2663
833.299	2724
833.437	2689
833.576	2693
833.714	2731
833.852	2705
833.991	2769
834.129	2842
834.267	2830
834.406	2788
834.544	2823
834.682	2853
834.821	2838
834.959	3020
835.097	2887
835.235	3039
835.373	3013
835.511	3062
835.65	2933
835.788	2948
835.926	2815
836.064	2815
836.202	2838
836.34	3085
836.478	3142
836.615	3062
836.753	3127
836.891	3150
837.029	3176
837.167	3112
837.305	3077
837.443	3043
837.58	2925
837.718	3146
837.856	3055
837.993	3020
838.131	3097
838.269	3081
838.406	3077
838.544	3070
838.681	2933
838.819	2937
838.956	2800
839.094	2819
839.231	2880
839.369	2994
839.506	3332
839.643	3199
839.781	2941
839.918	2933
840.055	3047
840.193	3028
840.33	3039
840.467	3123
840.604	3138
840.742	3370
840.879	3036
841.016	3051
841.153	3157
841.29	3325
841.427	3306
841.564	3283
841.701	3272
841.838	3211
841.975	3180
842.112	3173
842.249	3058
842.385	3024
842.522	3241
842.659	3089
842.796	3070
842.933	3077
843.069	3013
843.206	3055
843.343	3157
843.479	3093
843.616	3070
843.752	2887
843.889	2883
844.025	3043
844.162	2914
844.298	3066
844.435	2918
844.571	2914
844.708	3074
844.844	3173
844.98	3226
845.117	3192
845.253	3017
845.389	2994
845.525	3100
845.661	3066
845.798	2994
845.934	3108
846.07	3081
846.206	3192
846.342	3264
846.478	3199
846.614	3058
846.75	3066
846.886	3020
847.022	3233
847.158	3135
847.294	3218
847.429	3237
847.565	3176
847.701	3481
847.837	3020
847.972	3013
848.108	3150
848.244	3138
848.379	2998
848.515	2910
848.65	2906
848.786	2982
848.921	3005
849.057	3104
849.192	3127
849.328	3051
849.463	3097
849.598	3039
849.734	3043
849.869	2971
850.004	2925
850.14	2960
850.275	2872
850.41	2849
850.545	2861
850.68	2918
850.815	2941
850.95	2979
851.085	3192
851.22	3085
851.355	3020
851.49	2979
851.625	2937
851.76	2975
851.895	2937
852.03	2876
852.165	3020
852.299	3089
852.434	3150
852.569	3135
852.703	3142
852.838	3237
852.973	3329
853.107	3313
853.242	3108
853.376	3100
853.511	2952
853.645	3039
853.78	3214
853.914	3116
854.048	3089
854.183	3074
854.317	3112
854.451	3287
854.585	3058
854.72	3081
854.854	3199
854.988	3036
855.122	3070
855.256	3001
855.39	3112
855.524	3233
855.658	3176
855.792	3119
855.926	3150
856.06	3222
856.194	3256
856.327	3154
856.461	3085
856.595	3058
856.729	3058
856.862	3195
856.996	3192
857.13	3199
857.263	3226
857.397	3226
857.53	3097
857.664	3203
857.797	3192
857.931	3268
858.064	3161
858.197	3218
858.331	3100
858.464	3058
858.597	2979
858.731	3116
858.864	3119
858.997	3089
859.13	3173
859.263	3195
859.396	3184
859.529	3108
859.662	3055
859.795	3051
859.928	3108
860.061	3256
860.194	3275
860.327	3127
860.46	3097
860.592	3249
860.725	3218
860.858	3222
860.99	3089
861.123	3055
861.256	3032
861.388	3119
861.521	3831
861.653	2986
861.786	2990
861.918	2967
862.05	3058
862.183	3062
862.315	3131
862.447	3192
862.58	3066
862.712	2933
862.844	2868
862.976	3001
863.108	3024
863.24	3283
863.372	2861
863.504	2975
863.636	2967
863.768	3036
863.9	2960
864.032	2902
864.164	2982
864.296	2971
864.428	3074
864.559	3112
864.691	3077
864.823	3085
864.954	3013
865.086	3032
865.217	2986
865.349	2937
865.48	2979
865.612	3013
865.743	3142
865.875	3017
866.006	2914
866.137	2960
866.269	2952
866.4	2899
866.531	2918
866.662	2880
866.793	2868
866.924	2887
867.055	2960
867.186	2910
867.317	2872
867.448	2845
867.579	2868
867.71	2830
867.841	2845
867.972	2922
868.103	2880
868.233	2902
868.364	2861
868.495	2872
868.625	3051
868.756	3184
868.886	2929
869.017	3005
869.147	3157
869.278	3161
869.408	3043
869.539	3047
869.669	3093
869.799	3043
869.929	3150
870.06	3123
870.19	3287
870.32	3260
870.45	3279
870.58	3374
870.71	3405
870.84	3439
870.97	3272
871.1	3222
871.23	3450
871.36	3450
871.489	3332
871.619	3393
871.749	3401
871.879	3401
872.008	3431
872.138	3389
872.267	3272
872.397	3108
872.526	3123
872.656	3020
872.785	3100
872.915	3211
873.044	3340
873.173	3245
873.303	3214
873.432	3218
873.561	3192
873.69	3131
873.819	3123
873.948	3203
874.077	3085
874.206	3039
874.335	3097
874.464	3226
874.593	3340
874.722	3245
874.851	3378
874.979	3401
875.108	3325
875.237	3203
875.365	3154
875.494	3135
875.623	3237
875.751	3051
875.88	3089
876.008	3195
876.136	3214
876.265	3367
876.393	3481
876.521	3435
876.65	3367
876.778	3298
876.906	3272
877.034	3173
877.162	3230
877.29	3154
877.418	3275
877.546	3230
877.674	3233
877.802	3180
877.93	3214
878.058	3154
878.185	3104
878.313	3207
878.441	3192
878.568	3055
878.696	3138
878.824	3287
878.951	3256
879.079	3447
879.206	3610
879.333	3412
879.461	3313
879.588	3325
879.715	3466
879.842	3610
879.97	3401
880.097	3146
880.224	3131
880.351	3207
880.478	3214
880.605	3199
880.732	3165
880.859	3500
880.986	3268
881.112	3275
881.239	3207
881.366	3108
881.493	3032
881.619	3039
881.746	3081
881.872	3097
881.999	3108
882.125	3161
882.252	3230
882.378	3287
882.505	3416
882.631	3264
882.757	3119
882.883	3207
883.01	3226
883.136	3131
883.262	3089
883.388	3093
883.514	3306
883.64	3355
883.766	3313
883.892	3173
884.018	3222
884.143	3393
884.269	3507
884.395	3192
884.52	3165
884.646	3199
884.772	3119
884.897	3074
885.023	3195
885.148	3317
885.274	3409
885.399	3344
885.524	3306
885.65	3233
885.775	3283
885.9	3283
886.025	3412
886.15	3321
886.275	3321
886.4	3188
886.525	3294
886.65	3260
886.775	3279
886.9	3454
887.025	3599
887.149	3401
887.274	3237
887.399	3211
887.523	3226
887.648	3146
887.773	3195
887.897	3389
888.021	3409
888.146	3298
888.27	3405
888.395	3526
888.519	3409
888.643	3435
888.767	3431
888.891	3302
889.015	3211
889.139	3272
889.263	3237
889.387	3386
889.511	3534
889.635	3447
889.759	3298
889.883	3283
890.006	3409
890.13	3481
890.254	3253
890.377	3336
890.501	3230
890.624	3165
890.748	3256
890.871	3199
890.995	3081
891.118	3051
891.241	3203
891.364	3230
891.488	3287
891.611	3150
891.734	3184
891.857	3291
891.98	3230
892.103	3351
892.226	3260
892.349	3157
892.471	3085
892.594	3214
892.717	3275
892.839	3294
892.962	3310
893.085	3336
893.207	3253
893.33	3154
893.452	3173
893.575	3355
893.697	3237
893.819	3447
893.941	3504
894.064	3405
894.186	3230
894.308	3275
894.43	3416
894.552	3466
894.674	3447
894.796	3287
894.918	3294
895.04	3321
895.161	3424
895.283	3397
895.405	3298
895.526	3367
895.648	3409
895.769	3401
895.891	3458
896.012	3416
896.134	3458
896.255	3405
896.376	3374
896.498	3367
896.619	3420
896.74	3359
896.861	3355
896.982	3671
897.103	3827
897.224	3599
897.345	3473
897.466	3454
897.587	3458
897.708	3652
897.828	3561
897.949	3409
898.07	3325
898.19	3412
898.311	3606
898.431	3443
898.552	3542
898.672	3584
898.792	3561
898.913	3500
899.033	3393
899.153	3306
899.273	3237
899.393	3279
899.513	3321
899.633	3291
899.753	3348
899.873	3348
899.993	3321
900.113	3348
900.232	3363
900.352	3325
900.472	3275
900.591	3176
900.711	3256
900.83	3218
900.95	3389
901.069	3477
901.189	3363
901.308	3180
901.427	3154
901.546	3188
901.665	3279
901.784	3253
901.904	3195
902.023	3154
902.141	3017
902.26	2975
902.379	3119
902.498	3043
902.617	3039
902.735	3211
902.854	3230
902.973	3203
903.091	3089
903.21	3066
903.328	3119
903.446	3116
903.565	3070
903.683	3222
903.801	3135
903.919	3230
904.038	3249
904.156	3157
904.274	3294
904.392	3237
904.51	3264
904.627	3302
904.745	3447
904.863	3492
904.981	3226
905.098	3173
905.216	3230
905.334	3310
905.451	3317
905.569	3283
905.686	3389
905.803	3412
905.921	3272
906.038	3431
906.155	3340
906.272	3249
906.389	3310
906.506	3214
906.623	3245
906.74	3264
906.857	3180
906.974	3222
907.091	3416
907.208	3553
907.324	3477
907.441	3397
907.557	3233
907.674	3207
907.79	3199
907.907	3310
908.023	3370
908.139	3344
908.256	3325
908.372	3374
908.488	3332
908.604	3260
908.72	3230
908.836	3275
908.952	3268
909.068	3329
909.184	3473
909.3	3443
909.415	3469
909.531	3473
909.647	3294
909.762	3291
909.878	3260
909.993	3344
910.108	3283
910.224	3332
910.339	3336
910.454	3321
910.57	3310
910.685	3226
910.8	3564
910.915	3511
911.03	3439
911.145	3245
911.259	3241
911.374	3344
911.489	3222
911.604	3230
911.718	3085
911.833	3123
911.947	3017
912.062	3009
912.176	3150
912.291	3184
912.405	3161
912.519	3393
912.633	3447
912.748	3313
912.862	3264
912.976	3199
913.09	3066
913.204	3116
913.318	3203
913.431	3329
913.545	3344
913.659	3393
913.772	3302
913.886	3222
914	3180
914.113	3336
914.226	3374
914.34	3344
914.453	3173
914.566	3397
914.68	3298
914.793	3306
914.906	3104
915.019	3108
915.132	3028
915.245	3157
915.358	3188
915.47	3195
915.583	3233
915.696	3287
915.809	3386
915.921	3382
916.034	3272
916.146	3264
916.259	3214
916.371	3325
916.483	3344
916.595	3226
916.708	3336
916.82	3313
916.932	3332
917.044	3306
917.156	3329
917.268	3222
917.38	3268
917.491	3253
917.603	3370
917.715	3458
917.826	3420
917.938	3405
918.049	3226
918.161	3389
918.272	3595
918.384	3564
918.495	3492
918.606	3340
918.717	3272
918.828	3378
918.939	3412
919.05	3329
919.161	3389
919.272	3188
919.383	3287
919.494	3488
919.604	3694
919.715	3485
919.826	3416
919.936	3473
920.047	3599
920.157	3542
920.267	3793
920.378	3591
920.488	3595
920.598	3800
920.708	3975
920.818	3823
920.928	3812
921.038	4017
921.148	3994
921.258	3732
921.368	3648
921.477	3584
921.587	3534
921.697	3450
921.806	3641
921.916	3561
922.025	3351
922.134	3424
922.244	3359
922.353	3462
922.462	3306
922.571	3233
922.68	3184
922.789	3119
922.898	3173
923.007	3127
923.116	3283
923.224	3195
923.333	3214
923.442	3154
923.55	3123
923.659	3157
923.767	3241
923.876	3157
923.984	3275
924.092	3127
924.201	3226
924.309	3272
924.417	3260
924.525	3249
924.633	3241
924.741	4242
924.849	3100
924.956	3329
925.064	3169
925.172	3077
925.279	3157
925.387	3253
925.494	3211
925.602	3431
925.709	3355
925.816	3233
925.924	3317
926.031	3420
926.138	3393
926.245	3401
926.352	3294
926.459	3443
926.566	3492
926.673	3359
926.779	3291
926.886	3294
926.993	3150
927.099	3157
927.206	3116
927.312	3188
927.419	3279
927.525	3260
927.631	3298
927.737	3169
927.843	3176
927.95	3047
928.056	3157
928.162	3218
928.267	3302
928.373	3888
928.479	3389
928.585	3119
928.69	3287
928.796	3298
928.901	3192
929.007	3089
929.112	3241
929.218	3249
929.323	3199
929.428	3195
929.533	3367
929.638	3123
929.743	3218
929.848	3283
929.953	3237
930.058	3184
930.163	3005
930.267	3112
930.372	3237
930.477	3051
930.581	3374
930.685	3211
930.79	3036
930.894	3127
930.998	3131
931.103	3272
931.207	2990
931.311	3013
931.415	2967
931.519	2788
931.623	2834
