Data from test_V78500241_1083.txt Node
Date: Fri Mar 25 16:22:42 CST 2022
User: usil
Spectrometer: V785-0024
Trigger mode: 0
Integration Time (sec): 4.000000E-1
Scans to average: 1
Nonlinearity correction enabled: false
Boxcar width: 0
Storing dark spectrum: false
XAxis mode: Wavelengths
Number of Pixels in Spectrum: 1024
>>>>>Begin Spectral Data<<<<<
801.071	2956
801.214	2979
801.356	2891
801.499	2914
801.641	2918
801.783	2982
801.926	3055
802.068	3028
802.211	2986
802.353	3062
802.496	3036
802.638	3020
802.78	3070
802.923	3116
803.065	3032
803.208	2933
803.35	2929
803.492	2933
803.635	2944
803.777	2762
803.919	2868
804.061	3203
804.204	2941
804.346	2948
804.488	2876
804.63	3032
804.773	2880
804.915	2902
805.057	3062
805.199	2952
805.341	2990
805.483	3070
805.626	2994
805.768	2986
805.91	3104
806.052	3138
806.194	3055
806.336	3249
806.478	2994
806.62	2994
806.762	2975
806.904	3070
807.046	3150
807.188	3017
807.33	2929
807.472	2967
807.614	2929
807.756	2982
807.898	2914
808.04	2861
808.182	2979
808.324	2929
808.465	2880
808.607	2929
808.749	2796
808.891	2864
809.033	2998
809.174	2956
809.316	2906
809.458	2902
809.6	2785
809.741	2777
809.883	2746
810.025	2853
810.166	2872
810.308	2811
810.45	2872
810.591	2781
810.733	2796
810.875	2826
811.016	2815
811.158	2777
811.299	2826
811.441	2948
811.582	2925
811.724	2826
811.865	2819
812.007	2902
812.148	2910
812.29	2838
812.431	2887
812.573	2910
812.714	2956
812.855	3036
812.997	3081
813.138	3138
813.279	3051
813.421	3001
813.562	2979
813.703	2868
813.845	2910
813.986	2811
814.127	2746
814.268	2853
814.41	2868
814.551	2845
814.692	2868
814.833	2849
814.974	2937
815.115	2990
815.256	2842
815.397	2857
815.539	2857
815.68	2796
815.821	2754
815.962	2960
816.103	2910
816.244	2883
816.385	2887
816.526	2960
816.666	2929
816.807	2762
816.948	2849
817.089	2895
817.23	2868
817.371	2796
817.512	2800
817.653	2838
817.793	2830
817.934	2929
818.075	2967
818.216	3009
818.356	3024
818.497	2895
818.638	2830
818.778	2838
818.919	2834
819.06	2788
819.2	2868
819.341	2834
819.481	2788
819.622	2929
819.762	3093
819.903	3032
820.043	2933
820.184	2883
820.324	2925
820.465	3055
820.605	3062
820.746	3051
820.886	2895
821.026	3116
821.167	3154
821.307	3287
821.447	3268
821.588	3207
821.728	3245
821.868	3169
822.008	3085
822.149	3188
822.289	3237
822.429	3062
822.569	3077
822.709	3195
822.849	3032
822.99	3043
823.13	3138
823.27	3218
823.41	3093
823.55	3135
823.69	3157
823.83	3222
823.97	3085
824.11	2994
824.25	3009
824.389	3051
824.529	3150
824.669	3070
824.809	3211
824.949	3260
825.089	3203
825.228	3150
825.368	2975
825.508	2960
825.648	2986
825.787	2979
825.927	3028
826.067	2986
826.206	2956
826.346	3051
826.485	3074
826.625	3123
826.765	3302
826.904	3199
827.044	3036
827.183	2960
827.323	2895
827.462	3013
827.601	2899
827.741	2910
827.88	2960
828.02	2853
828.159	3039
828.298	3074
828.437	3142
828.577	3081
828.716	3253
828.855	3127
828.994	2918
829.134	2929
829.273	2941
829.412	2887
829.551	2876
829.69	2925
829.829	3032
829.968	3165
830.107	3043
830.246	3074
830.385	2887
830.524	2918
830.663	2830
830.802	2746
830.941	2686
831.08	2708
831.219	2788
831.357	2811
831.496	3009
831.635	2735
831.774	2689
831.913	2701
832.051	2594
832.19	2644
832.329	2739
832.467	2560
832.606	2541
832.744	2602
832.883	2636
833.022	2636
833.16	2670
833.299	2720
833.437	2720
833.576	2746
833.714	2739
833.852	2758
833.991	2796
834.129	2880
834.267	2861
834.406	2857
834.544	2918
834.682	2933
834.821	2914
834.959	3093
835.097	2933
835.235	3055
835.373	3009
835.511	3066
835.65	3001
835.788	3001
835.926	2857
836.064	2849
836.202	2887
836.34	3116
836.478	3154
836.615	3093
836.753	3165
836.891	3260
837.029	3211
837.167	3169
837.305	3119
837.443	3112
837.58	3043
837.718	3180
837.856	3085
837.993	3066
838.131	3154
838.269	3150
838.406	3104
838.544	3157
838.681	2998
838.819	2979
838.956	2845
839.094	2906
839.231	2948
839.369	3081
839.506	3393
839.643	3283
839.781	3058
839.918	3028
840.055	3089
840.193	3142
840.33	3093
840.467	3150
840.604	3161
840.742	3428
840.879	3097
841.016	3077
841.153	3146
841.29	3374
841.427	3313
841.564	3302
841.701	3351
841.838	3245
841.975	3222
842.112	3233
842.249	3093
842.385	3093
842.522	3340
842.659	3100
842.796	3119
842.933	3138
843.069	3066
843.206	3066
843.343	3218
843.479	3157
843.616	3184
843.752	2971
843.889	2929
844.025	3100
844.162	2948
844.298	3116
844.435	2975
844.571	2952
844.708	3093
844.844	3218
844.98	3264
845.117	3245
845.253	3074
845.389	3017
845.525	3123
845.661	3123
845.798	3043
845.934	3154
846.07	3089
846.206	3268
846.342	3336
846.478	3256
846.614	3138
846.75	3119
846.886	3062
847.022	3283
847.158	3161
847.294	3203
847.429	3287
847.565	3249
847.701	3519
847.837	3039
847.972	3020
848.108	3157
848.244	3176
848.379	3009
848.515	3017
848.65	2963
848.786	2967
848.921	3032
849.057	3146
849.192	3184
849.328	3119
849.463	3131
849.598	3058
849.734	3070
849.869	3020
850.004	2918
850.14	3013
850.275	2933
850.41	2880
850.545	2933
850.68	2960
850.815	3032
850.95	3009
851.085	3211
851.22	3138
851.355	3074
851.49	3020
851.625	3020
851.76	3077
851.895	2963
852.03	2967
852.165	3058
852.299	3176
852.434	3218
852.569	3142
852.703	3207
852.838	3272
852.973	3367
853.107	3348
853.242	3218
853.376	3085
853.511	2990
853.645	3085
853.78	3237
853.914	3154
854.048	3138
854.183	3104
854.317	3169
854.451	3325
854.585	3161
854.72	3104
854.854	3226
854.988	3100
855.122	3104
855.256	3020
855.39	3135
855.524	3294
855.658	3195
855.792	3176
855.926	3207
856.06	3275
856.194	3298
856.327	3207
856.461	3085
856.595	3123
856.729	3093
856.862	3245
856.996	3180
857.13	3176
857.263	3268
857.397	3332
857.53	3169
857.664	3253
857.797	3211
857.931	3287
858.064	3222
858.197	3256
858.331	3127
858.464	3154
858.597	3028
858.731	3131
858.864	3169
858.997	3123
859.13	3199
859.263	3226
859.396	3203
859.529	3165
859.662	3097
859.795	3039
859.928	3180
860.061	3332
860.194	3272
860.327	3116
860.46	3112
860.592	3249
860.725	3283
860.858	3241
860.99	3112
861.123	3074
861.256	3089
861.388	3161
861.521	3831
861.653	2998
861.786	3028
861.918	3039
862.05	3104
862.183	3131
862.315	3150
862.447	3214
862.58	3112
862.712	2986
862.844	2910
862.976	3062
863.108	2994
863.24	3359
863.372	2918
863.504	3005
863.636	2971
863.768	3055
863.9	3020
864.032	2929
864.164	2975
864.296	3017
864.428	3154
864.559	3131
864.691	3089
864.823	3070
864.954	3039
865.086	3036
865.217	2986
865.349	2956
865.48	3036
865.612	3036
865.743	3131
865.875	3009
866.006	2963
866.137	2986
866.269	2998
866.4	2979
866.531	2960
866.662	2922
866.793	2941
866.924	2952
867.055	2990
867.186	2948
867.317	2906
867.448	2864
867.579	2861
867.71	2922
867.841	2895
867.972	2933
868.103	2895
868.233	2910
868.364	2883
868.495	2910
868.625	3070
868.756	3184
868.886	2990
869.017	3039
869.147	3195
869.278	3207
869.408	3070
869.539	3043
869.669	3135
869.799	3051
869.929	3150
870.06	3131
870.19	3340
870.32	3310
870.45	3313
870.58	3386
870.71	3481
870.84	3500
870.97	3302
871.1	3249
871.23	3504
871.36	3507
871.489	3389
871.619	3386
871.749	3435
871.879	3462
872.008	3488
872.138	3416
872.267	3298
872.397	3169
872.526	3119
872.656	3036
872.785	3123
872.915	3245
873.044	3367
873.173	3272
873.303	3298
873.432	3245
873.561	3298
873.69	3218
873.819	3226
873.948	3237
874.077	3112
874.206	3066
874.335	3085
874.464	3233
874.593	3348
874.722	3253
874.851	3420
874.979	3344
875.108	3325
875.237	3230
875.365	3157
875.494	3195
875.623	3256
875.751	3104
875.88	3127
876.008	3256
876.136	3279
876.265	3420
876.393	3534
876.521	3443
876.65	3397
876.778	3355
876.906	3283
877.034	3199
877.162	3260
877.29	3226
877.418	3241
877.546	3275
877.674	3283
877.802	3245
877.93	3260
878.058	3173
878.185	3116
878.313	3195
878.441	3241
878.568	3108
878.696	3150
878.824	3268
878.951	3306
879.079	3466
879.206	3637
879.333	3443
879.461	3367
879.588	3332
879.715	3458
879.842	3644
879.97	3428
880.097	3165
880.224	3173
880.351	3180
880.478	3214
880.605	3195
880.732	3188
880.859	3523
880.986	3340
881.112	3321
881.239	3222
881.366	3112
881.493	3043
881.619	3009
881.746	3074
881.872	3116
881.999	3112
882.125	3165
882.252	3260
882.378	3336
882.505	3435
882.631	3317
882.757	3169
882.883	3237
883.01	3253
883.136	3214
883.262	3138
883.388	3138
883.514	3313
883.64	3393
883.766	3310
883.892	3237
884.018	3249
884.143	3431
884.269	3553
884.395	3214
884.52	3184
884.646	3173
884.772	3146
884.897	3131
885.023	3237
885.148	3367
885.274	3412
885.399	3401
885.524	3291
885.65	3264
885.775	3325
885.9	3302
886.025	3428
886.15	3382
886.275	3291
886.4	3249
886.525	3310
886.65	3287
886.775	3287
886.9	3523
887.025	3641
887.149	3435
887.274	3272
887.399	3176
887.523	3230
887.648	3214
887.773	3260
887.897	3378
888.021	3389
888.146	3310
888.27	3443
888.395	3534
888.519	3439
888.643	3435
888.767	3485
888.891	3325
889.015	3260
889.139	3317
889.263	3272
889.387	3393
889.511	3530
889.635	3454
889.759	3268
889.883	3325
890.006	3397
890.13	3523
890.254	3241
890.377	3363
890.501	3237
890.624	3192
890.748	3310
890.871	3199
890.995	3119
891.118	3104
891.241	3272
891.364	3245
891.488	3325
891.611	3207
891.734	3230
891.857	3313
891.98	3313
892.103	3340
892.226	3287
892.349	3241
892.471	3123
892.594	3298
892.717	3302
892.839	3298
892.962	3321
893.085	3412
893.207	3332
893.33	3188
893.452	3226
893.575	3363
893.697	3253
893.819	3462
893.941	3462
894.064	3443
894.186	3275
894.308	3291
894.43	3443
894.552	3534
894.674	3496
894.796	3279
894.918	3355
895.04	3298
895.161	3424
895.283	3370
895.405	3306
895.526	3397
895.648	3458
895.769	3401
895.891	3462
896.012	3504
896.134	3488
896.255	3420
896.376	3409
896.498	3351
896.619	3519
896.74	3351
896.861	3439
896.982	3682
897.103	3827
897.224	3580
897.345	3542
897.466	3450
897.587	3526
897.708	3656
897.828	3564
897.949	3447
898.07	3359
898.19	3469
898.311	3637
898.431	3504
898.552	3511
898.672	3606
898.792	3564
898.913	3530
899.033	3454
899.153	3302
899.273	3272
899.393	3317
899.513	3332
899.633	3287
899.753	3355
899.873	3287
899.993	3439
900.113	3363
900.232	3412
900.352	3363
900.472	3283
900.591	3207
900.711	3313
900.83	3268
900.95	3466
901.069	3519
901.189	3310
901.308	3180
901.427	3161
901.546	3199
901.665	3340
901.784	3370
901.904	3222
902.023	3173
902.141	3043
902.26	3005
902.379	3119
902.498	3081
902.617	3070
902.735	3222
902.854	3195
902.973	3233
903.091	3051
903.21	3058
903.328	3165
903.446	3138
903.565	3097
903.683	3180
903.801	3150
903.919	3241
904.038	3283
904.156	3180
904.274	3272
904.392	3249
904.51	3325
904.627	3313
904.745	3439
904.863	3534
904.981	3264
905.098	3195
905.216	3268
905.334	3351
905.451	3310
905.569	3321
905.686	3458
905.803	3458
905.921	3313
906.038	3412
906.155	3367
906.272	3272
906.389	3332
906.506	3222
906.623	3283
906.74	3294
906.857	3188
906.974	3256
907.091	3435
907.208	3538
907.324	3443
907.441	3393
907.557	3253
907.674	3249
907.79	3241
907.907	3306
908.023	3340
908.139	3378
908.256	3317
908.372	3393
908.488	3325
908.604	3264
908.72	3237
908.836	3317
908.952	3310
909.068	3359
909.184	3485
909.3	3389
909.415	3511
909.531	3477
909.647	3329
909.762	3272
909.878	3272
909.993	3355
910.108	3344
910.224	3355
910.339	3435
910.454	3340
910.57	3332
910.685	3233
910.8	3637
910.915	3511
911.03	3462
911.145	3230
911.259	3260
911.374	3344
911.489	3260
911.604	3226
911.718	3157
911.833	3184
911.947	3036
912.062	3001
912.176	3138
912.291	3199
912.405	3176
912.519	3382
912.633	3496
912.748	3302
912.862	3283
912.976	3161
913.09	3066
913.204	3135
913.318	3222
913.431	3336
913.545	3332
913.659	3386
913.772	3370
913.886	3214
914	3192
914.113	3363
914.226	3401
914.34	3405
914.453	3241
914.566	3409
914.68	3302
914.793	3321
914.906	3173
915.019	3093
915.132	3066
915.245	3241
915.358	3199
915.47	3256
915.583	3279
915.696	3317
915.809	3428
915.921	3424
916.034	3260
916.146	3249
916.259	3218
916.371	3401
916.483	3344
916.595	3268
916.708	3355
916.82	3348
916.932	3340
917.044	3382
917.156	3329
917.268	3241
917.38	3313
917.491	3329
917.603	3374
917.715	3424
917.826	3466
917.938	3386
918.049	3268
918.161	3401
918.272	3572
918.384	3584
918.495	3504
918.606	3374
918.717	3291
918.828	3412
918.939	3428
919.05	3317
919.161	3393
919.272	3195
919.383	3268
919.494	3507
919.604	3724
919.715	3466
919.826	3389
919.936	3443
920.047	3576
920.157	3568
920.267	3713
920.378	3580
920.488	3595
920.598	3759
920.708	3994
920.818	3876
920.928	3854
921.038	4002
921.148	3983
921.258	3728
921.368	3622
921.477	3580
921.587	3545
921.697	3466
921.806	3671
921.916	3526
922.025	3344
922.134	3340
922.244	3275
922.353	3439
922.462	3245
922.571	3233
922.68	3104
922.789	3085
922.898	3089
923.007	3119
923.116	3222
923.224	3169
923.333	3173
923.442	3074
923.55	3093
923.659	3165
923.767	3184
923.876	3093
923.984	3279
924.092	3104
924.201	3173
924.309	3207
924.417	3275
924.525	3203
924.633	3233
924.741	3998
924.849	3055
924.956	3272
925.064	3100
925.172	3028
925.279	3112
925.387	3203
925.494	3218
925.602	3344
925.709	3340
925.816	3173
925.924	3294
926.031	3370
926.138	3268
926.245	3382
926.352	3253
926.459	3416
926.566	3466
926.673	3317
926.779	3268
926.886	3279
926.993	3146
927.099	3123
927.206	3123
927.312	3119
927.419	3245
927.525	3184
927.631	3298
927.737	3154
927.843	3108
927.95	3001
928.056	3142
928.162	3184
928.267	3283
928.373	3899
928.479	3294
928.585	3058
928.69	3222
928.796	3272
928.901	3154
929.007	3070
929.112	3222
929.218	3207
929.323	3176
929.428	3150
929.533	3321
929.638	3119
929.743	3211
929.848	3287
929.953	3188
930.058	3135
930.163	2960
930.267	3077
930.372	3253
930.477	3028
930.581	3313
930.685	3188
930.79	3055
930.894	3104
930.998	3116
931.103	3245
931.207	2960
931.311	2956
931.415	2933
931.519	2785
931.623	2788
