Data from test_V78500241_178.txt Node
Date: Fri Mar 25 16:16:26 CST 2022
User: usil
Spectrometer: V785-0024
Trigger mode: 0
Integration Time (sec): 4.000000E-1
Scans to average: 1
Nonlinearity correction enabled: false
Boxcar width: 0
Storing dark spectrum: false
XAxis mode: Wavelengths
Number of Pixels in Spectrum: 1024
>>>>>Begin Spectral Data<<<<<
801.071	2941
801.214	2960
801.356	2891
801.499	2960
801.641	2902
801.783	2986
801.926	3097
802.068	3013
802.211	3020
802.353	3070
802.496	3013
802.638	3074
802.78	3074
802.923	3104
803.065	3039
803.208	2948
803.35	2994
803.492	2922
803.635	2922
803.777	2792
803.919	2902
804.061	3188
804.204	2986
804.346	2929
804.488	2864
804.63	2979
804.773	2933
804.915	2948
805.057	3089
805.199	2944
805.341	3005
805.483	3062
805.626	3039
805.768	2986
805.91	3119
806.052	3184
806.194	3097
806.336	3268
806.478	3058
806.62	2986
806.762	2990
806.904	3058
807.046	3176
807.188	2990
807.33	2918
807.472	3009
807.614	2906
807.756	3005
807.898	2967
808.04	2906
808.182	2998
808.324	2963
808.465	2925
808.607	2883
808.749	2826
808.891	2861
809.033	2998
809.174	2982
809.316	2891
809.458	2918
809.6	2804
809.741	2811
809.883	2762
810.025	2883
810.166	2891
810.308	2883
810.45	2842
810.591	2762
810.733	2785
810.875	2876
811.016	2826
811.158	2792
811.299	2823
811.441	2956
811.582	2895
811.724	2834
811.865	2861
812.007	2956
812.148	2891
812.29	2845
812.431	2883
812.573	2994
812.714	2979
812.855	3089
812.997	3066
813.138	3142
813.279	3047
813.421	2998
813.562	2963
813.703	2880
813.845	2933
813.986	2777
814.127	2766
814.268	2891
814.41	2826
814.551	2853
814.692	2891
814.833	2845
814.974	2910
815.115	2963
815.256	2864
815.397	2815
815.539	2872
815.68	2754
815.821	2819
815.962	2963
816.103	2967
816.244	2868
816.385	2883
816.526	2986
816.666	2937
816.807	2773
816.948	2906
817.089	2918
817.23	2857
817.371	2807
817.512	2838
817.653	2880
817.793	2861
817.934	2899
818.075	2963
818.216	3001
818.356	3089
818.497	2914
818.638	2849
818.778	2838
818.919	2815
819.06	2781
819.2	2872
819.341	2815
819.481	2838
819.622	2914
819.762	3116
819.903	3077
820.043	2956
820.184	2941
820.324	2910
820.465	3017
820.605	3032
820.746	2982
820.886	2990
821.026	3123
821.167	3184
821.307	3313
821.447	3317
821.588	3253
821.728	3218
821.868	3237
822.008	3123
822.149	3203
822.289	3214
822.429	3093
822.569	3108
822.709	3188
822.849	3070
822.99	3104
823.13	3146
823.27	3226
823.41	3100
823.55	3154
823.69	3169
823.83	3203
823.97	3138
824.11	3047
824.25	2998
824.389	3081
824.529	3127
824.669	3062
824.809	3195
824.949	3272
825.089	3233
825.228	3180
825.368	3032
825.508	3005
825.648	3001
825.787	2990
825.927	3047
826.067	3009
826.206	3001
826.346	3051
826.485	3081
826.625	3112
826.765	3302
826.904	3211
827.044	2990
827.183	2956
827.323	2895
827.462	3009
827.601	2906
827.741	2963
827.88	2967
828.02	2868
828.159	2971
828.298	3066
828.437	3119
828.577	3097
828.716	3291
828.855	3089
828.994	2967
829.134	2922
829.273	2952
829.412	2902
829.551	2883
829.69	2922
829.829	3017
829.968	3161
830.107	3028
830.246	3051
830.385	2948
830.524	2922
830.663	2861
830.802	2720
830.941	2655
831.08	2697
831.219	2785
831.357	2796
831.496	2956
831.635	2735
831.774	2689
831.913	2686
832.051	2545
832.19	2598
832.329	2705
832.467	2594
832.606	2473
832.744	2571
832.883	2590
833.022	2598
833.16	2659
833.299	2708
833.437	2731
833.576	2689
833.714	2743
833.852	2754
833.991	2792
834.129	2857
834.267	2864
834.406	2838
834.544	2891
834.682	2887
834.821	2922
834.959	3116
835.097	2910
835.235	3066
835.373	3020
835.511	3039
835.65	2982
835.788	2960
835.926	2864
836.064	2842
836.202	2876
836.34	3119
836.478	3161
836.615	3058
836.753	3112
836.891	3233
837.029	3184
837.167	3161
837.305	3081
837.443	3043
837.58	2975
837.718	3131
837.856	3100
837.993	3047
838.131	3138
838.269	3100
838.406	3142
838.544	3097
838.681	2967
838.819	2948
838.956	2845
839.094	2842
839.231	2937
839.369	3009
839.506	3393
839.643	3203
839.781	3032
839.918	3001
840.055	3066
840.193	3020
840.33	3085
840.467	3108
840.604	3211
840.742	3428
840.879	3077
841.016	3062
841.153	3138
841.29	3359
841.427	3302
841.564	3291
841.701	3329
841.838	3272
841.975	3218
842.112	3230
842.249	3116
842.385	3058
842.522	3272
842.659	3127
842.796	3074
842.933	3116
843.069	3077
843.206	3013
843.343	3203
843.479	3135
843.616	3195
843.752	2929
843.889	2872
844.025	3097
844.162	2899
844.298	3116
844.435	2941
844.571	2975
844.708	3070
844.844	3184
844.98	3241
845.117	3226
845.253	3085
845.389	3039
845.525	3138
845.661	3165
845.798	3020
845.934	3188
846.07	3070
846.206	3237
846.342	3370
846.478	3233
846.614	3089
846.75	3077
846.886	3013
847.022	3256
847.158	3112
847.294	3203
847.429	3287
847.565	3233
847.701	3534
847.837	3081
847.972	2986
848.108	3180
848.244	3119
848.379	3013
848.515	2952
848.65	2948
848.786	2986
848.921	3013
849.057	3135
849.192	3112
849.328	3123
849.463	3085
849.598	3028
849.734	3055
849.869	3020
850.004	2918
850.14	2960
850.275	2925
850.41	2830
850.545	2880
850.68	2960
850.815	2982
850.95	2971
851.085	3192
851.22	3131
851.355	3055
851.49	2971
851.625	3001
851.76	3036
851.895	2918
852.03	2910
852.165	3077
852.299	3127
852.434	3222
852.569	3169
852.703	3192
852.838	3264
852.973	3401
853.107	3355
853.242	3165
853.376	3119
853.511	2994
853.645	3001
853.78	3256
853.914	3146
854.048	3138
854.183	3119
854.317	3176
854.451	3298
854.585	3150
854.72	3051
854.854	3237
854.988	3085
855.122	3100
855.256	3013
855.39	3161
855.524	3264
855.658	3146
855.792	3180
855.926	3165
856.06	3245
856.194	3306
856.327	3157
856.461	3112
856.595	3089
856.729	3127
856.862	3249
856.996	3169
857.13	3214
857.263	3226
857.397	3253
857.53	3138
857.664	3184
857.797	3233
857.931	3253
858.064	3188
858.197	3207
858.331	3161
858.464	3119
858.597	3013
858.731	3100
858.864	3154
858.997	3055
859.13	3176
859.263	3211
859.396	3253
859.529	3123
859.662	3093
859.795	3043
859.928	3157
860.061	3287
860.194	3283
860.327	3142
860.46	3093
860.592	3260
860.725	3237
860.858	3287
860.99	3112
861.123	3074
861.256	3074
861.388	3131
861.521	3759
861.653	3039
861.786	3009
861.918	3020
862.05	3100
862.183	3093
862.315	3169
862.447	3173
862.58	3119
862.712	2990
862.844	2872
862.976	3047
863.108	3001
863.24	3306
863.372	2880
863.504	2967
863.636	2933
863.768	3024
863.9	3005
864.032	2944
864.164	2948
864.296	3081
864.428	3089
864.559	3119
864.691	3032
864.823	3112
864.954	3066
865.086	3024
865.217	3020
865.349	2982
865.48	2975
865.612	2979
865.743	3176
865.875	3001
866.006	2941
866.137	2994
866.269	2952
866.4	2944
866.531	2902
866.662	2880
866.793	2922
866.924	2902
867.055	2971
867.186	2925
867.317	2925
867.448	2864
867.579	2887
867.71	2861
867.841	2826
867.972	2922
868.103	2902
868.233	2891
868.364	2902
868.495	2925
868.625	3066
868.756	3180
868.886	3001
869.017	3005
869.147	3161
869.278	3184
869.408	3028
869.539	3058
869.669	3097
869.799	3051
869.929	3123
870.06	3112
870.19	3355
870.32	3329
870.45	3279
870.58	3374
870.71	3458
870.84	3428
870.97	3298
871.1	3264
871.23	3458
871.36	3500
871.489	3344
871.619	3428
871.749	3405
871.879	3439
872.008	3443
872.138	3378
872.267	3302
872.397	3180
872.526	3112
872.656	3039
872.785	3089
872.915	3249
873.044	3332
873.173	3218
873.303	3260
873.432	3275
873.561	3241
873.69	3161
873.819	3150
873.948	3199
874.077	3112
874.206	3032
874.335	3116
874.464	3230
874.593	3351
874.722	3260
874.851	3439
874.979	3367
875.108	3306
875.237	3192
875.365	3161
875.494	3207
875.623	3260
875.751	3104
875.88	3150
876.008	3199
876.136	3249
876.265	3389
876.393	3519
876.521	3454
876.65	3412
876.778	3332
876.906	3260
877.034	3176
877.162	3245
877.29	3218
877.418	3294
877.546	3283
877.674	3283
877.802	3222
877.93	3218
878.058	3131
878.185	3146
878.313	3180
878.441	3226
878.568	3070
878.696	3173
878.824	3245
878.951	3287
879.079	3466
879.206	3652
879.333	3473
879.461	3351
879.588	3405
879.715	3488
879.842	3606
879.97	3378
880.097	3157
880.224	3161
880.351	3180
880.478	3226
880.605	3192
880.732	3180
880.859	3515
880.986	3321
881.112	3344
881.239	3233
881.366	3123
881.493	3017
881.619	3062
881.746	3100
881.872	3123
881.999	3077
882.125	3150
882.252	3226
882.378	3313
882.505	3424
882.631	3287
882.757	3180
882.883	3218
883.01	3260
883.136	3176
883.262	3119
883.388	3119
883.514	3306
883.64	3359
883.766	3329
883.892	3169
884.018	3283
884.143	3420
884.269	3519
884.395	3214
884.52	3173
884.646	3192
884.772	3119
884.897	3119
885.023	3214
885.148	3336
885.274	3401
885.399	3397
885.524	3264
885.65	3253
885.775	3340
885.9	3302
886.025	3431
886.15	3374
886.275	3279
886.4	3203
886.525	3332
886.65	3298
886.775	3329
886.9	3515
887.025	3663
887.149	3401
887.274	3260
887.399	3203
887.523	3249
887.648	3169
887.773	3218
887.897	3374
888.021	3416
888.146	3310
888.27	3481
888.395	3530
888.519	3439
888.643	3477
888.767	3450
888.891	3355
889.015	3275
889.139	3359
889.263	3306
889.387	3386
889.511	3568
889.635	3473
889.759	3287
889.883	3321
890.006	3420
890.13	3485
890.254	3294
890.377	3344
890.501	3237
890.624	3214
890.748	3332
890.871	3173
890.995	3116
891.118	3066
891.241	3218
891.364	3237
891.488	3374
891.611	3199
891.734	3237
891.857	3249
891.98	3264
892.103	3325
892.226	3291
892.349	3199
892.471	3142
892.594	3256
892.717	3332
892.839	3298
892.962	3310
893.085	3378
893.207	3348
893.33	3135
893.452	3226
893.575	3367
893.697	3264
893.819	3481
893.941	3488
894.064	3507
894.186	3306
894.308	3321
894.43	3447
894.552	3504
894.674	3481
894.796	3298
894.918	3294
895.04	3279
895.161	3428
895.283	3435
895.405	3329
895.526	3355
895.648	3431
895.769	3454
895.891	3420
896.012	3519
896.134	3469
896.255	3424
896.376	3382
896.498	3393
896.619	3447
896.74	3386
896.861	3431
896.982	3637
897.103	3896
897.224	3599
897.345	3534
897.466	3431
897.587	3519
897.708	3652
897.828	3553
897.949	3447
898.07	3363
898.19	3416
898.311	3580
898.431	3481
898.552	3523
898.672	3606
898.792	3633
898.913	3538
899.033	3435
899.153	3298
899.273	3226
899.393	3336
899.513	3329
899.633	3325
899.753	3340
899.873	3329
899.993	3420
900.113	3363
900.232	3424
900.352	3325
900.472	3294
900.591	3214
900.711	3317
900.83	3230
900.95	3435
901.069	3523
901.189	3378
901.308	3192
901.427	3142
901.546	3192
901.665	3355
901.784	3374
901.904	3226
902.023	3184
902.141	3013
902.26	2994
902.379	3138
902.498	3074
902.617	3070
902.735	3233
902.854	3214
902.973	3256
903.091	3074
903.21	3066
903.328	3123
903.446	3138
903.565	3112
903.683	3222
903.801	3138
903.919	3260
904.038	3313
904.156	3192
904.274	3310
904.392	3275
904.51	3256
904.627	3370
904.745	3450
904.863	3538
904.981	3226
905.098	3203
905.216	3256
905.334	3313
905.451	3329
905.569	3306
905.686	3443
905.803	3496
905.921	3329
906.038	3450
906.155	3374
906.272	3283
906.389	3332
906.506	3260
906.623	3249
906.74	3279
906.857	3195
906.974	3260
907.091	3462
907.208	3595
907.324	3500
907.441	3401
907.557	3249
907.674	3218
907.79	3226
907.907	3298
908.023	3378
908.139	3382
908.256	3329
908.372	3355
908.488	3359
908.604	3272
908.72	3245
908.836	3313
908.952	3321
909.068	3370
909.184	3466
909.3	3367
909.415	3469
909.531	3496
909.647	3275
909.762	3287
909.878	3291
909.993	3382
910.108	3329
910.224	3367
910.339	3443
910.454	3325
910.57	3313
910.685	3249
910.8	3633
910.915	3587
911.03	3447
911.145	3287
911.259	3306
911.374	3325
911.489	3275
911.604	3249
911.718	3135
911.833	3161
911.947	3028
912.062	2979
912.176	3154
912.291	3218
912.405	3222
912.519	3416
912.633	3477
912.748	3374
912.862	3302
912.976	3150
913.09	3047
913.204	3150
913.318	3260
913.431	3374
913.545	3389
913.659	3443
913.772	3348
913.886	3241
914	3192
914.113	3397
914.226	3428
914.34	3393
914.453	3245
914.566	3447
914.68	3325
914.793	3317
914.906	3157
915.019	3108
915.132	3070
915.245	3211
915.358	3195
915.47	3214
915.583	3279
915.696	3287
915.809	3435
915.921	3424
916.034	3279
916.146	3233
916.259	3268
916.371	3378
916.483	3355
916.595	3264
916.708	3340
916.82	3374
916.932	3355
917.044	3340
917.156	3332
917.268	3226
917.38	3313
917.491	3325
917.603	3382
917.715	3454
917.826	3466
917.938	3397
918.049	3275
918.161	3469
918.272	3599
918.384	3606
918.495	3488
918.606	3340
918.717	3306
918.828	3389
918.939	3447
919.05	3302
919.161	3382
919.272	3180
919.383	3294
919.494	3526
919.604	3732
919.715	3542
919.826	3393
919.936	3435
920.047	3568
920.157	3553
920.267	3766
920.378	3675
920.488	3561
920.598	3762
920.708	3983
920.818	3911
920.928	3842
921.038	4040
921.148	4017
921.258	3728
921.368	3679
921.477	3587
921.587	3553
921.697	3492
921.806	3652
921.916	3545
922.025	3393
922.134	3405
922.244	3321
922.353	3443
922.462	3283
922.571	3218
922.68	3116
922.789	3108
922.898	3135
923.007	3074
923.116	3230
923.224	3211
923.333	3195
923.442	3097
923.55	3085
923.659	3127
923.767	3245
923.876	3142
923.984	3226
924.092	3161
924.201	3203
924.309	3249
924.417	3264
924.525	3222
924.633	3245
924.741	4143
924.849	3051
924.956	3298
925.064	3089
925.172	3093
925.279	3135
925.387	3241
925.494	3199
925.602	3378
925.709	3310
925.816	3241
925.924	3287
926.031	3382
926.138	3348
926.245	3374
926.352	3302
926.459	3412
926.566	3462
926.673	3340
926.779	3264
926.886	3264
926.993	3180
927.099	3131
927.206	3142
927.312	3127
927.419	3298
927.525	3222
927.631	3279
927.737	3116
927.843	3138
927.95	3028
928.056	3157
928.162	3207
928.267	3272
928.373	3876
928.479	3332
928.585	3066
928.69	3291
928.796	3291
928.901	3195
929.007	3074
929.112	3237
929.218	3241
929.323	3157
929.428	3150
929.533	3329
929.638	3161
929.743	3176
929.848	3245
929.953	3233
930.058	3184
930.163	3017
930.267	3028
930.372	3222
930.477	3089
930.581	3321
930.685	3169
930.79	3062
930.894	3157
930.998	3093
931.103	3283
931.207	2986
931.311	2952
931.415	2941
931.519	2800
931.623	2853
