Data from test_V78500241_1962.txt Node
Date: Fri Mar 25 16:28:47 CST 2022
User: usil
Spectrometer: V785-0024
Trigger mode: 0
Integration Time (sec): 4.000000E-1
Scans to average: 1
Nonlinearity correction enabled: false
Boxcar width: 0
Storing dark spectrum: false
XAxis mode: Wavelengths
Number of Pixels in Spectrum: 1024
>>>>>Begin Spectral Data<<<<<
801.071	2880
801.214	2971
801.356	2876
801.499	2887
801.641	2864
801.783	2922
801.926	3024
802.068	2967
802.211	3001
802.353	3020
802.496	2956
802.638	3009
802.78	3081
802.923	3058
803.065	2986
803.208	2853
803.35	2891
803.492	2891
803.635	2895
803.777	2735
803.919	2872
804.061	3180
804.204	2944
804.346	2914
804.488	2849
804.63	2967
804.773	2906
804.915	2914
805.057	3089
805.199	2948
805.341	2975
805.483	3047
805.626	3020
805.768	2971
805.91	3066
806.052	3093
806.194	3024
806.336	3241
806.478	2990
806.62	2941
806.762	2971
806.904	3058
807.046	3184
807.188	2982
807.33	2910
807.472	2998
807.614	2918
807.756	2948
807.898	2918
808.04	2902
808.182	3001
808.324	2937
808.465	2906
808.607	2853
808.749	2777
808.891	2834
809.033	2986
809.174	2944
809.316	2891
809.458	2902
809.6	2766
809.741	2777
809.883	2785
810.025	2819
810.166	2876
810.308	2830
810.45	2853
810.591	2746
810.733	2777
810.875	2834
811.016	2788
811.158	2792
811.299	2826
811.441	2975
811.582	2872
811.724	2830
811.865	2834
812.007	2914
812.148	2857
812.29	2845
812.431	2895
812.573	2952
812.714	2982
812.855	3020
812.997	3036
813.138	3089
813.279	2990
813.421	2975
813.562	2902
813.703	2861
813.845	2887
813.986	2777
814.127	2735
814.268	2796
814.41	2823
814.551	2800
814.692	2849
814.833	2830
814.974	2887
815.115	2963
815.256	2845
815.397	2819
815.539	2883
815.68	2750
815.821	2766
815.962	2929
816.103	2906
816.244	2872
816.385	2849
816.526	2979
816.666	2956
816.807	2724
816.948	2922
817.089	2883
817.23	2853
817.371	2762
817.512	2785
817.653	2819
817.793	2819
817.934	2902
818.075	2982
818.216	2979
818.356	3039
818.497	2883
818.638	2800
818.778	2792
818.919	2826
819.06	2750
819.2	2891
819.341	2819
819.481	2811
819.622	2906
819.762	3138
819.903	3077
820.043	2902
820.184	2929
820.324	2918
820.465	3013
820.605	3005
820.746	3051
820.886	2902
821.026	3131
821.167	3188
821.307	3233
821.447	3287
821.588	3218
821.728	3188
821.868	3211
822.008	3100
822.149	3169
822.289	3211
822.429	3043
822.569	3093
822.709	3203
822.849	3032
822.99	3074
823.13	3150
823.27	3184
823.41	3097
823.55	3169
823.69	3146
823.83	3150
823.97	3077
824.11	2998
824.25	2979
824.389	3066
824.529	3104
824.669	3070
824.809	3173
824.949	3249
825.089	3230
825.228	3173
825.368	3051
825.508	2967
825.648	2982
825.787	3005
825.927	3055
826.067	2982
826.206	2960
826.346	3039
826.485	3074
826.625	3116
826.765	3233
826.904	3192
827.044	3020
827.183	2937
827.323	2834
827.462	2979
827.601	2891
827.741	2937
827.88	2918
828.02	2823
828.159	2982
828.298	3009
828.437	3108
828.577	3032
828.716	3218
828.855	3062
828.994	2887
829.134	2883
829.273	2929
829.412	2849
829.551	2857
829.69	2883
829.829	2967
829.968	3104
830.107	2986
830.246	3024
830.385	2918
830.524	2857
830.663	2792
830.802	2716
830.941	2663
831.08	2625
831.219	2754
831.357	2762
831.496	2982
831.635	2708
831.774	2621
831.913	2651
832.051	2507
832.19	2518
832.329	2659
832.467	2530
832.606	2473
832.744	2571
832.883	2552
833.022	2579
833.16	2632
833.299	2670
833.437	2712
833.576	2697
833.714	2716
833.852	2731
833.991	2773
834.129	2804
834.267	2834
834.406	2758
834.544	2842
834.682	2925
834.821	2872
834.959	3055
835.097	2868
835.235	3013
835.373	2982
835.511	3005
835.65	2941
835.788	2960
835.926	2864
836.064	2781
836.202	2830
836.34	3085
836.478	3127
836.615	3024
836.753	3108
836.891	3195
837.029	3188
837.167	3081
837.305	3070
837.443	3001
837.58	2982
837.718	3157
837.856	3062
837.993	3043
838.131	3104
838.269	3119
838.406	3104
838.544	3066
838.681	2918
838.819	2922
838.956	2811
839.094	2834
839.231	2906
839.369	2979
839.506	3340
839.643	3184
839.781	3009
839.918	2971
840.055	3070
840.193	3039
840.33	3066
840.467	3100
840.604	3150
840.742	3363
840.879	3051
841.016	3043
841.153	3089
841.29	3325
841.427	3283
841.564	3256
841.701	3321
841.838	3192
841.975	3157
842.112	3226
842.249	3055
842.385	3036
842.522	3253
842.659	3100
842.796	3074
842.933	3085
843.069	3032
843.206	3013
843.343	3165
843.479	3100
843.616	3104
843.752	2899
843.889	2845
844.025	3058
844.162	2883
844.298	3062
844.435	2952
844.571	2902
844.708	3066
844.844	3180
844.98	3260
845.117	3203
845.253	3070
845.389	2979
845.525	3062
845.661	3100
845.798	3005
845.934	3131
846.07	3066
846.206	3214
846.342	3321
846.478	3233
846.614	3100
846.75	3043
846.886	3024
847.022	3260
847.158	3127
847.294	3222
847.429	3218
847.565	3218
847.701	3450
847.837	3036
847.972	2963
848.108	3176
848.244	3127
848.379	2998
848.515	2925
848.65	2910
848.786	2952
848.921	3043
849.057	3093
849.192	3112
849.328	3062
849.463	3116
849.598	3055
849.734	3020
849.869	2937
850.004	2922
850.14	2914
850.275	2910
850.41	2830
850.545	2876
850.68	2979
850.815	2979
850.95	2925
851.085	3192
851.22	3085
851.355	3009
851.49	2986
851.625	2998
851.76	2994
851.895	2960
852.03	2887
852.165	3013
852.299	3100
852.434	3165
852.569	3165
852.703	3192
852.838	3233
852.973	3348
853.107	3321
853.242	3135
853.376	3077
853.511	2979
853.645	3001
853.78	3218
853.914	3116
854.048	3108
854.183	3093
854.317	3150
854.451	3279
854.585	3112
854.72	3074
854.854	3222
854.988	3020
855.122	3089
855.256	2990
855.39	3108
855.524	3260
855.658	3154
855.792	3142
855.926	3180
856.06	3272
856.194	3199
856.327	3165
856.461	3097
856.595	3097
856.729	3100
856.862	3230
856.996	3138
857.13	3203
857.263	3222
857.397	3264
857.53	3119
857.664	3195
857.797	3241
857.931	3218
858.064	3131
858.197	3199
858.331	3119
858.464	3093
858.597	3024
858.731	3112
858.864	3142
858.997	3070
859.13	3150
859.263	3165
859.396	3218
859.529	3074
859.662	3097
859.795	3039
859.928	3150
860.061	3291
860.194	3294
860.327	3138
860.46	3085
860.592	3233
860.725	3233
860.858	3230
860.99	3108
861.123	3039
861.256	3024
861.388	3150
861.521	3846
861.653	3017
861.786	2979
861.918	3036
862.05	3039
862.183	3070
862.315	3169
862.447	3211
862.58	3066
862.712	2956
862.844	2872
862.976	3005
863.108	3009
863.24	3439
863.372	2887
863.504	2967
863.636	2956
863.768	3028
863.9	2956
864.032	2918
864.164	2952
864.296	3043
864.428	3081
864.559	3089
864.691	3077
864.823	3058
864.954	3047
865.086	3039
865.217	2986
865.349	2944
865.48	2990
865.612	2998
865.743	3154
865.875	2960
866.006	2910
866.137	2944
866.269	2933
866.4	2937
866.531	2918
866.662	2872
866.793	2853
866.924	2891
867.055	2971
867.186	2933
867.317	2887
867.448	2823
867.579	2819
867.71	2849
867.841	2807
867.972	2876
868.103	2906
868.233	2861
868.364	2895
868.495	2922
868.625	3089
868.756	3123
868.886	2937
869.017	3020
869.147	3146
869.278	3142
869.408	3043
869.539	3017
869.669	3093
869.799	3005
869.929	3108
870.06	3112
870.19	3302
870.32	3256
870.45	3283
870.58	3386
870.71	3420
870.84	3466
870.97	3275
871.1	3237
871.23	3496
871.36	3458
871.489	3355
871.619	3389
871.749	3389
871.879	3428
872.008	3477
872.138	3351
872.267	3253
872.397	3188
872.526	3112
872.656	3001
872.785	3131
872.915	3241
873.044	3332
873.173	3230
873.303	3222
873.432	3214
873.561	3218
873.69	3173
873.819	3138
873.948	3211
874.077	3081
874.206	3058
874.335	3097
874.464	3176
874.593	3325
874.722	3237
874.851	3389
874.979	3340
875.108	3306
875.237	3184
875.365	3150
875.494	3138
875.623	3211
875.751	3043
875.88	3077
876.008	3211
876.136	3207
876.265	3367
876.393	3500
876.521	3469
876.65	3382
876.778	3321
876.906	3199
877.034	3154
877.162	3249
877.29	3165
877.418	3256
877.546	3214
877.674	3241
877.802	3256
877.93	3192
878.058	3127
878.185	3104
878.313	3214
878.441	3214
878.568	3039
878.696	3138
878.824	3268
878.951	3283
879.079	3428
879.206	3561
879.333	3420
879.461	3325
879.588	3367
879.715	3473
879.842	3587
879.97	3382
880.097	3154
880.224	3123
880.351	3199
880.478	3233
880.605	3176
880.732	3154
880.859	3473
880.986	3306
881.112	3329
881.239	3188
881.366	3085
881.493	3020
881.619	3028
881.746	3058
881.872	3081
881.999	3070
882.125	3123
882.252	3268
882.378	3249
882.505	3443
882.631	3211
882.757	3127
882.883	3192
883.01	3226
883.136	3180
883.262	3108
883.388	3100
883.514	3313
883.64	3355
883.766	3298
883.892	3154
884.018	3245
884.143	3393
884.269	3523
884.395	3188
884.52	3150
884.646	3188
884.772	3119
884.897	3058
885.023	3184
885.148	3306
885.274	3393
885.399	3359
885.524	3249
885.65	3230
885.775	3321
885.9	3245
886.025	3416
886.15	3348
886.275	3310
886.4	3260
886.525	3340
886.65	3241
886.775	3260
886.9	3466
887.025	3633
887.149	3367
887.274	3260
887.399	3222
887.523	3192
887.648	3195
887.773	3222
887.897	3378
888.021	3363
888.146	3294
888.27	3420
888.395	3542
888.519	3458
888.643	3469
888.767	3454
888.891	3298
889.015	3275
889.139	3310
889.263	3203
889.387	3382
889.511	3519
889.635	3450
889.759	3291
889.883	3329
890.006	3397
890.13	3492
890.254	3298
890.377	3302
890.501	3203
890.624	3192
890.748	3275
890.871	3138
890.995	3131
891.118	3047
891.241	3195
891.364	3222
891.488	3313
891.611	3165
891.734	3233
891.857	3287
891.98	3241
892.103	3302
892.226	3272
892.349	3275
892.471	3123
892.594	3241
892.717	3294
892.839	3245
892.962	3317
893.085	3370
893.207	3264
893.33	3131
893.452	3207
893.575	3310
893.697	3237
893.819	3458
893.941	3519
894.064	3443
894.186	3256
894.308	3253
894.43	3420
894.552	3523
894.674	3466
894.796	3237
894.918	3329
895.04	3272
895.161	3431
895.283	3317
895.405	3340
895.526	3348
895.648	3424
895.769	3416
895.891	3481
896.012	3458
896.134	3496
896.255	3412
896.376	3378
896.498	3317
896.619	3424
896.74	3348
896.861	3412
896.982	3652
897.103	3827
897.224	3637
897.345	3477
897.466	3409
897.587	3462
897.708	3622
897.828	3534
897.949	3447
898.07	3306
898.19	3412
898.311	3603
898.431	3439
898.552	3462
898.672	3603
898.792	3572
898.913	3488
899.033	3443
899.153	3245
899.273	3184
899.393	3268
899.513	3317
899.633	3329
899.753	3332
899.873	3279
899.993	3340
900.113	3374
900.232	3401
900.352	3336
900.472	3264
900.591	3195
900.711	3298
900.83	3226
900.95	3428
901.069	3481
901.189	3348
901.308	3176
901.427	3100
901.546	3184
901.665	3294
901.784	3294
901.904	3199
902.023	3142
902.141	3001
902.26	2998
902.379	3097
902.498	3070
902.617	3039
902.735	3195
902.854	3237
902.973	3161
903.091	3032
903.21	3089
903.328	3112
903.446	3119
903.565	3058
903.683	3218
903.801	3119
903.919	3241
904.038	3275
904.156	3142
904.274	3294
904.392	3222
904.51	3245
904.627	3321
904.745	3447
904.863	3534
904.981	3283
905.098	3180
905.216	3245
905.334	3298
905.451	3287
905.569	3313
905.686	3450
905.803	3416
905.921	3313
906.038	3405
906.155	3351
906.272	3260
906.389	3351
906.506	3218
906.623	3230
906.74	3253
906.857	3226
906.974	3260
907.091	3447
907.208	3519
907.324	3473
907.441	3367
907.557	3241
907.674	3222
907.79	3226
907.907	3249
908.023	3386
908.139	3363
908.256	3321
908.372	3382
908.488	3348
908.604	3237
908.72	3207
908.836	3329
908.952	3260
909.068	3344
909.184	3458
909.3	3405
909.415	3477
909.531	3466
909.647	3245
909.762	3279
909.878	3264
909.993	3370
910.108	3332
910.224	3332
910.339	3405
910.454	3332
910.57	3275
910.685	3260
910.8	3572
910.915	3530
911.03	3454
911.145	3294
911.259	3237
911.374	3340
911.489	3264
911.604	3241
911.718	3127
911.833	3150
911.947	3005
912.062	2979
912.176	3161
912.291	3176
912.405	3199
912.519	3428
912.633	3492
912.748	3348
912.862	3226
912.976	3165
913.09	3020
913.204	3119
913.318	3230
913.431	3313
913.545	3340
913.659	3412
913.772	3340
913.886	3241
914	3188
914.113	3378
914.226	3405
914.34	3393
914.453	3222
914.566	3386
914.68	3260
914.793	3321
914.906	3154
915.019	3100
915.132	3104
915.245	3184
915.358	3180
915.47	3207
915.583	3249
915.696	3302
915.809	3393
915.921	3412
916.034	3283
916.146	3245
916.259	3211
916.371	3393
916.483	3344
916.595	3249
916.708	3355
916.82	3313
916.932	3344
917.044	3291
917.156	3340
917.268	3245
917.38	3332
917.491	3283
917.603	3370
917.715	3428
917.826	3473
917.938	3370
918.049	3260
918.161	3428
918.272	3538
918.384	3542
918.495	3466
918.606	3317
918.717	3294
918.828	3340
918.939	3412
919.05	3291
919.161	3409
919.272	3169
919.383	3245
919.494	3466
919.604	3709
919.715	3485
919.826	3473
919.936	3412
920.047	3568
920.157	3561
920.267	3740
920.378	3603
920.488	3526
920.598	3797
920.708	3968
920.818	3838
920.928	3846
921.038	3987
921.148	3991
921.258	3709
921.368	3603
921.477	3545
921.587	3545
921.697	3458
921.806	3622
921.916	3504
922.025	3351
922.134	3378
922.244	3363
922.353	3447
922.462	3241
922.571	3260
922.68	3089
922.789	3074
922.898	3146
923.007	3116
923.116	3192
923.224	3146
923.333	3199
923.442	3116
923.55	3100
923.659	3138
923.767	3211
923.876	3100
923.984	3245
924.092	3070
924.201	3188
924.309	3230
924.417	3279
924.525	3233
924.633	3226
924.741	4192
924.849	3020
924.956	3264
925.064	3112
925.172	3058
925.279	3116
925.387	3173
925.494	3199
925.602	3374
925.709	3332
925.816	3195
925.924	3256
926.031	3367
926.138	3329
926.245	3340
926.352	3275
926.459	3439
926.566	3431
926.673	3306
926.779	3192
926.886	3245
926.993	3173
927.099	3123
927.206	3062
927.312	3119
927.419	3249
927.525	3192
927.631	3283
927.737	3150
927.843	3127
927.95	3017
928.056	3093
928.162	3161
928.267	3253
928.373	3861
928.479	3306
928.585	3055
928.69	3214
928.796	3264
928.901	3188
929.007	3032
929.112	3195
929.218	3184
929.323	3116
929.428	3173
929.533	3336
929.638	3119
929.743	3184
929.848	3249
929.953	3230
930.058	3161
930.163	3017
930.267	3036
930.372	3188
930.477	3024
930.581	3321
930.685	3146
930.79	3036
930.894	3127
930.998	3097
931.103	3275
931.207	2941
931.311	2956
931.415	2891
931.519	2800
931.623	2838
