Data from test_V78500241_143.txt Node
Date: Fri Mar 25 16:16:11 CST 2022
User: usil
Spectrometer: V785-0024
Trigger mode: 0
Integration Time (sec): 4.000000E-1
Scans to average: 1
Nonlinearity correction enabled: false
Boxcar width: 0
Storing dark spectrum: false
XAxis mode: Wavelengths
Number of Pixels in Spectrum: 1024
>>>>>Begin Spectral Data<<<<<
801.071	2941
801.214	2979
801.356	2906
801.499	2914
801.641	2899
801.783	2929
801.926	3100
802.068	2986
802.211	3001
802.353	3058
802.496	2963
802.638	3043
802.78	3017
802.923	3100
803.065	3009
803.208	2887
803.35	2956
803.492	2960
803.635	2922
803.777	2769
803.919	2872
804.061	3226
804.204	2941
804.346	2944
804.488	2845
804.63	2963
804.773	2899
804.915	2929
805.057	3104
805.199	2906
805.341	2994
805.483	3036
805.626	3036
805.768	2986
805.91	3135
806.052	3131
806.194	3070
806.336	3249
806.478	3028
806.62	2971
806.762	2979
806.904	3093
807.046	3203
807.188	2990
807.33	2914
807.472	3017
807.614	2910
807.756	3017
807.898	2937
808.04	2880
808.182	2979
808.324	2967
808.465	2929
808.607	2899
808.749	2800
808.891	2876
809.033	2982
809.174	2982
809.316	2918
809.458	2872
809.6	2766
809.741	2743
809.883	2811
810.025	2845
810.166	2895
810.308	2815
810.45	2899
810.591	2815
810.733	2792
810.875	2845
811.016	2788
811.158	2800
811.299	2815
811.441	2963
811.582	2895
811.724	2842
811.865	2895
812.007	2933
812.148	2906
812.29	2849
812.431	2880
812.573	2960
812.714	2982
812.855	3051
812.997	3047
813.138	3138
813.279	3009
813.421	2971
813.562	2986
813.703	2918
813.845	2868
813.986	2785
814.127	2766
814.268	2849
814.41	2834
814.551	2811
814.692	2899
814.833	2781
814.974	2918
815.115	2956
815.256	2838
815.397	2819
815.539	2902
815.68	2796
815.821	2826
815.962	2952
816.103	2971
816.244	2933
816.385	2910
816.526	2967
816.666	2937
816.807	2746
816.948	2899
817.089	2922
817.23	2899
817.371	2773
817.512	2788
817.653	2838
817.793	2861
817.934	2887
818.075	2986
818.216	3001
818.356	3020
818.497	2918
818.638	2815
818.778	2834
818.919	2815
819.06	2781
819.2	2910
819.341	2838
819.481	2842
819.622	2929
819.762	3154
819.903	3058
820.043	2967
820.184	2937
820.324	2914
820.465	3047
820.605	3024
820.746	3020
820.886	2929
821.026	3131
821.167	3157
821.307	3313
821.447	3294
821.588	3256
821.728	3233
821.868	3230
822.008	3116
822.149	3195
822.289	3214
822.429	3089
822.569	3119
822.709	3184
822.849	3077
822.99	3066
823.13	3157
823.27	3169
823.41	3135
823.55	3135
823.69	3188
823.83	3233
823.97	3116
824.11	3039
824.25	3028
824.389	3074
824.529	3127
824.669	3093
824.809	3218
824.949	3287
825.089	3214
825.228	3180
825.368	3017
825.508	2998
825.648	2979
825.787	3024
825.927	3036
826.067	2956
826.206	2963
826.346	3058
826.485	3062
826.625	3180
826.765	3298
826.904	3241
827.044	2994
827.183	2960
827.323	2922
827.462	2975
827.601	2960
827.741	2929
827.88	2971
828.02	2872
828.159	2982
828.298	3066
828.437	3116
828.577	3032
828.716	3298
828.855	3074
828.994	2914
829.134	2899
829.273	2918
829.412	2887
829.551	2910
829.69	2910
829.829	3020
829.968	3127
830.107	3039
830.246	3032
830.385	2929
830.524	2883
830.663	2849
830.802	2735
830.941	2663
831.08	2689
831.219	2807
831.357	2754
831.496	2952
831.635	2743
831.774	2682
831.913	2659
832.051	2533
832.19	2587
832.329	2735
832.467	2526
832.606	2499
832.744	2602
832.883	2556
833.022	2651
833.16	2644
833.299	2716
833.437	2735
833.576	2716
833.714	2724
833.852	2716
833.991	2743
834.129	2849
834.267	2830
834.406	2796
834.544	2853
834.682	2918
834.821	2864
834.959	3077
835.097	2910
835.235	3081
835.373	3005
835.511	2990
835.65	3005
835.788	2982
835.926	2872
836.064	2834
836.202	2891
836.34	3108
836.478	3169
836.615	3051
836.753	3173
836.891	3241
837.029	3173
837.167	3112
837.305	3097
837.443	3043
837.58	2986
837.718	3146
837.856	3077
837.993	3066
838.131	3142
838.269	3150
838.406	3131
838.544	3116
838.681	2979
838.819	2929
838.956	2830
839.094	2845
839.231	2937
839.369	3062
839.506	3412
839.643	3222
839.781	3051
839.918	2975
840.055	3093
840.193	3074
840.33	3070
840.467	3081
840.604	3146
840.742	3431
840.879	3089
841.016	3089
841.153	3104
841.29	3367
841.427	3344
841.564	3291
841.701	3310
841.838	3222
841.975	3199
842.112	3214
842.249	3070
842.385	3043
842.522	3256
842.659	3108
842.796	3077
842.933	3150
843.069	3062
843.206	3051
843.343	3237
843.479	3108
843.616	3150
843.752	2891
843.889	2910
844.025	3127
844.162	2895
844.298	3085
844.435	2914
844.571	2925
844.708	3047
844.844	3173
844.98	3253
845.117	3192
845.253	3100
845.389	2982
845.525	3104
845.661	3135
845.798	3036
845.934	3150
846.07	3089
846.206	3272
846.342	3363
846.478	3241
846.614	3127
846.75	3005
846.886	3074
847.022	3287
847.158	3157
847.294	3241
847.429	3283
847.565	3256
847.701	3500
847.837	3104
847.972	3013
848.108	3180
848.244	3188
848.379	2971
848.515	2933
848.65	2944
848.786	2944
848.921	3043
849.057	3131
849.192	3169
849.328	3077
849.463	3104
849.598	3081
849.734	3070
849.869	3017
850.004	2910
850.14	2979
850.275	2925
850.41	2883
850.545	2895
850.68	2944
850.815	2963
850.95	2990
851.085	3211
851.22	3169
851.355	3036
851.49	3020
851.625	3028
851.76	3028
851.895	2960
852.03	2944
852.165	3047
852.299	3093
852.434	3195
852.569	3180
852.703	3180
852.838	3275
852.973	3374
853.107	3340
853.242	3131
853.376	3123
853.511	3017
853.645	3074
853.78	3241
853.914	3119
854.048	3097
854.183	3066
854.317	3165
854.451	3325
854.585	3135
854.72	3093
854.854	3203
854.988	3085
855.122	3119
855.256	2963
855.39	3161
855.524	3317
855.658	3226
855.792	3161
855.926	3192
856.06	3294
856.194	3287
856.327	3154
856.461	3066
856.595	3081
856.729	3089
856.862	3199
856.996	3184
857.13	3195
857.263	3279
857.397	3313
857.53	3127
857.664	3188
857.797	3268
857.931	3245
858.064	3169
858.197	3253
858.331	3165
858.464	3112
858.597	3036
858.731	3131
858.864	3154
858.997	3116
859.13	3157
859.263	3218
859.396	3211
859.529	3070
859.662	3097
859.795	3051
859.928	3116
860.061	3298
860.194	3329
860.327	3123
860.46	3138
860.592	3279
860.725	3272
860.858	3275
860.99	3112
861.123	3062
861.256	3070
861.388	3173
861.521	3686
861.653	2998
861.786	2986
861.918	3017
862.05	3089
862.183	3089
862.315	3161
862.447	3180
862.58	3093
862.712	2986
862.844	2914
862.976	3043
863.108	3043
863.24	3454
863.372	2918
863.504	2967
863.636	2960
863.768	3051
863.9	2994
864.032	2902
864.164	2944
864.296	3028
864.428	3123
864.559	3127
864.691	3112
864.823	3047
864.954	3024
865.086	3058
865.217	2982
865.349	2948
865.48	2998
865.612	3039
865.743	3165
865.875	2986
866.006	2929
866.137	2982
866.269	2971
866.4	2944
866.531	2941
866.662	2895
866.793	2910
866.924	2933
867.055	3001
867.186	2960
867.317	2922
867.448	2872
867.579	2891
867.71	2880
867.841	2842
867.972	2899
868.103	2906
868.233	2944
868.364	2883
868.495	2895
868.625	3085
868.756	3150
868.886	2971
869.017	3017
869.147	3180
869.278	3176
869.408	3081
869.539	3036
869.669	3104
869.799	3039
869.929	3146
870.06	3112
870.19	3332
870.32	3275
870.45	3310
870.58	3367
870.71	3450
870.84	3473
870.97	3283
871.1	3294
871.23	3526
871.36	3496
871.489	3401
871.619	3393
871.749	3412
871.879	3447
872.008	3504
872.138	3367
872.267	3256
872.397	3161
872.526	3138
872.656	3043
872.785	3074
872.915	3241
873.044	3336
873.173	3249
873.303	3249
873.432	3260
873.561	3275
873.69	3165
873.819	3165
873.948	3188
874.077	3108
874.206	3070
874.335	3116
874.464	3222
874.593	3393
874.722	3241
874.851	3401
874.979	3409
875.108	3291
875.237	3203
875.365	3222
875.494	3180
875.623	3260
875.751	3100
875.88	3081
876.008	3260
876.136	3241
876.265	3374
876.393	3538
876.521	3424
876.65	3409
876.778	3389
876.906	3283
877.034	3241
877.162	3256
877.29	3173
877.418	3245
877.546	3245
877.674	3260
877.802	3253
877.93	3211
878.058	3199
878.185	3138
878.313	3188
878.441	3237
878.568	3089
878.696	3199
878.824	3291
878.951	3321
879.079	3458
879.206	3671
879.333	3435
879.461	3344
879.588	3386
879.715	3492
879.842	3580
879.97	3378
880.097	3188
880.224	3173
880.351	3230
880.478	3253
880.605	3233
880.732	3176
880.859	3523
880.986	3332
881.112	3306
881.239	3207
881.366	3108
881.493	3058
881.619	3036
881.746	3127
881.872	3112
881.999	3142
882.125	3211
882.252	3226
882.378	3336
882.505	3439
882.631	3344
882.757	3207
882.883	3222
883.01	3237
883.136	3188
883.262	3119
883.388	3157
883.514	3310
883.64	3401
883.766	3321
883.892	3218
884.018	3241
884.143	3409
884.269	3534
884.395	3241
884.52	3195
884.646	3195
884.772	3169
884.897	3108
885.023	3203
885.148	3355
885.274	3416
885.399	3393
885.524	3283
885.65	3306
885.775	3310
885.9	3306
886.025	3443
886.15	3420
886.275	3294
886.4	3283
886.525	3340
886.65	3294
886.775	3272
886.9	3526
887.025	3625
887.149	3412
887.274	3287
887.399	3188
887.523	3264
887.648	3184
887.773	3207
887.897	3397
888.021	3424
888.146	3313
888.27	3458
888.395	3561
888.519	3473
888.643	3443
888.767	3431
888.891	3359
889.015	3226
889.139	3302
889.263	3268
889.387	3428
889.511	3549
889.635	3412
889.759	3317
889.883	3313
890.006	3439
890.13	3500
890.254	3283
890.377	3397
890.501	3195
890.624	3214
890.748	3332
890.871	3192
890.995	3138
891.118	3116
891.241	3195
891.364	3218
891.488	3329
891.611	3154
891.734	3275
891.857	3275
891.98	3207
892.103	3367
892.226	3249
892.349	3222
892.471	3146
892.594	3253
892.717	3310
892.839	3279
892.962	3313
893.085	3393
893.207	3310
893.33	3173
893.452	3230
893.575	3344
893.697	3256
893.819	3511
893.941	3515
894.064	3454
894.186	3268
894.308	3306
894.43	3504
894.552	3568
894.674	3424
894.796	3264
894.918	3355
895.04	3317
895.161	3466
895.283	3370
895.405	3332
895.526	3355
895.648	3416
895.769	3439
895.891	3428
896.012	3488
896.134	3469
896.255	3405
896.376	3439
896.498	3367
896.619	3439
896.74	3370
896.861	3412
896.982	3701
897.103	3907
897.224	3599
897.345	3530
897.466	3435
897.587	3534
897.708	3637
897.828	3576
897.949	3428
898.07	3374
898.19	3397
898.311	3599
898.431	3450
898.552	3561
898.672	3652
898.792	3587
898.913	3538
899.033	3424
899.153	3294
899.273	3207
899.393	3294
899.513	3321
899.633	3336
899.753	3359
899.873	3370
899.993	3420
900.113	3370
900.232	3409
900.352	3344
900.472	3336
900.591	3222
900.711	3302
900.83	3291
900.95	3397
901.069	3504
901.189	3382
901.308	3180
901.427	3161
901.546	3230
901.665	3329
901.784	3359
901.904	3241
902.023	3173
902.141	3024
902.26	3058
902.379	3165
902.498	3081
902.617	3062
902.735	3211
902.854	3245
902.973	3214
903.091	3074
903.21	3093
903.328	3184
903.446	3112
903.565	3150
903.683	3207
903.801	3154
903.919	3245
904.038	3287
904.156	3192
904.274	3306
904.392	3249
904.51	3294
904.627	3363
904.745	3481
904.863	3511
904.981	3313
905.098	3233
905.216	3230
905.334	3317
905.451	3306
905.569	3332
905.686	3450
905.803	3466
905.921	3275
906.038	3435
906.155	3401
906.272	3279
906.389	3336
906.506	3207
906.623	3279
906.74	3294
906.857	3195
906.974	3272
907.091	3477
907.208	3534
907.324	3496
907.441	3405
907.557	3256
907.674	3279
907.79	3237
907.907	3294
908.023	3420
908.139	3389
908.256	3336
908.372	3351
908.488	3351
908.604	3268
908.72	3237
908.836	3310
908.952	3310
909.068	3348
909.184	3511
909.3	3420
909.415	3523
909.531	3496
909.647	3272
909.762	3317
909.878	3283
909.993	3355
910.108	3363
910.224	3344
910.339	3405
910.454	3351
910.57	3310
910.685	3241
910.8	3576
910.915	3564
911.03	3424
911.145	3279
911.259	3253
911.374	3310
911.489	3264
911.604	3245
911.718	3108
911.833	3195
911.947	3074
912.062	3013
912.176	3188
912.291	3237
912.405	3245
912.519	3409
912.633	3488
912.748	3393
912.862	3268
912.976	3142
913.09	3066
913.204	3184
913.318	3256
913.431	3363
913.545	3336
913.659	3454
913.772	3374
913.886	3226
914	3195
914.113	3409
914.226	3485
914.34	3329
914.453	3214
914.566	3420
914.68	3291
914.793	3344
914.906	3180
915.019	3150
915.132	3077
915.245	3176
915.358	3256
915.47	3256
915.583	3275
915.696	3317
915.809	3412
915.921	3439
916.034	3275
916.146	3260
916.259	3241
916.371	3420
916.483	3412
916.595	3283
916.708	3359
916.82	3401
916.932	3382
917.044	3397
917.156	3435
917.268	3241
917.38	3355
917.491	3329
917.603	3351
917.715	3462
917.826	3500
917.938	3443
918.049	3325
918.161	3473
918.272	3610
918.384	3572
918.495	3530
918.606	3348
918.717	3313
918.828	3382
918.939	3420
919.05	3321
919.161	3424
919.272	3195
919.383	3336
919.494	3553
919.604	3705
919.715	3526
919.826	3435
919.936	3439
920.047	3595
920.157	3576
920.267	3800
920.378	3652
920.488	3549
920.598	3808
920.708	3937
920.818	3835
920.928	3865
921.038	4048
921.148	3979
921.258	3717
921.368	3625
921.477	3587
921.587	3545
921.697	3496
921.806	3656
921.916	3553
922.025	3363
922.134	3374
922.244	3317
922.353	3424
922.462	3249
922.571	3218
922.68	3138
922.789	3055
922.898	3184
923.007	3100
923.116	3253
923.224	3176
923.333	3211
923.442	3123
923.55	3097
923.659	3192
923.767	3188
923.876	3161
923.984	3218
924.092	3135
924.201	3226
924.309	3237
924.417	3264
924.525	3169
924.633	3241
924.741	4242
924.849	3081
924.956	3287
925.064	3062
925.172	3070
925.279	3112
925.387	3222
925.494	3260
925.602	3397
925.709	3363
925.816	3199
925.924	3336
926.031	3386
926.138	3340
926.245	3389
926.352	3325
926.459	3458
926.566	3473
926.673	3351
926.779	3287
926.886	3264
926.993	3161
927.099	3161
927.206	3165
927.312	3161
927.419	3245
927.525	3241
927.631	3287
927.737	3150
927.843	3157
927.95	3051
928.056	3123
928.162	3211
928.267	3268
928.373	3850
928.479	3348
928.585	3074
928.69	3245
928.796	3272
928.901	3180
929.007	3070
929.112	3237
929.218	3203
929.323	3157
929.428	3165
929.533	3317
929.638	3165
929.743	3195
929.848	3272
929.953	3211
930.058	3199
930.163	3001
930.267	3089
930.372	3218
930.477	3009
930.581	3336
930.685	3180
930.79	3093
930.894	3135
930.998	3119
931.103	3264
931.207	2982
931.311	2960
931.415	2956
931.519	2785
931.623	2845
