Data from test_V78500241_146.txt Node
Date: Fri Mar 25 16:16:12 CST 2022
User: usil
Spectrometer: V785-0024
Trigger mode: 0
Integration Time (sec): 4.000000E-1
Scans to average: 1
Nonlinearity correction enabled: false
Boxcar width: 0
Storing dark spectrum: false
XAxis mode: Wavelengths
Number of Pixels in Spectrum: 1024
>>>>>Begin Spectral Data<<<<<
801.071	2941
801.214	2994
801.356	2868
801.499	2895
801.641	2891
801.783	2922
801.926	3081
802.068	2937
802.211	3009
802.353	3097
802.496	2967
802.638	3039
802.78	3043
802.923	3112
803.065	3036
803.208	2929
803.35	2933
803.492	2967
803.635	2963
803.777	2777
803.919	2876
804.061	3218
804.204	3009
804.346	2933
804.488	2845
804.63	3013
804.773	2861
804.915	2937
805.057	3112
805.199	2952
805.341	3005
805.483	3028
805.626	3051
805.768	3005
805.91	3089
806.052	3161
806.194	3070
806.336	3245
806.478	3024
806.62	2925
806.762	3001
806.904	3081
807.046	3154
807.188	3020
807.33	2876
807.472	3017
807.614	2929
807.756	3043
807.898	2948
808.04	2933
808.182	3009
808.324	2963
808.465	2887
808.607	2887
808.749	2807
808.891	2853
809.033	2986
809.174	3001
809.316	2872
809.458	2925
809.6	2788
809.741	2754
809.883	2777
810.025	2883
810.166	2845
810.308	2853
810.45	2902
810.591	2777
810.733	2815
810.875	2902
811.016	2815
811.158	2739
811.299	2826
811.441	2918
811.582	2914
811.724	2880
811.865	2849
812.007	2910
812.148	2887
812.29	2891
812.431	2922
812.573	2975
812.714	3017
812.855	3043
812.997	3116
813.138	3142
813.279	3013
813.421	3001
813.562	2967
813.703	2853
813.845	2872
813.986	2826
814.127	2762
814.268	2857
814.41	2845
814.551	2842
814.692	2876
814.833	2807
814.974	2922
815.115	2937
815.256	2876
815.397	2804
815.539	2891
815.68	2788
815.821	2815
815.962	2971
816.103	2956
816.244	2895
816.385	2880
816.526	2963
816.666	2895
816.807	2785
816.948	2864
817.089	2895
817.23	2891
817.371	2785
817.512	2815
817.653	2872
817.793	2891
817.934	2880
818.075	2994
818.216	3024
818.356	3032
818.497	2922
818.638	2842
818.778	2849
818.919	2804
819.06	2811
819.2	2910
819.341	2838
819.481	2811
819.622	2948
819.762	3100
819.903	3066
820.043	2925
820.184	2883
820.324	2918
820.465	2990
820.605	3020
820.746	3024
820.886	2944
821.026	3123
821.167	3192
821.307	3268
821.447	3329
821.588	3211
821.728	3245
821.868	3207
822.008	3123
822.149	3203
822.289	3241
822.429	3070
822.569	3104
822.709	3218
822.849	3055
822.99	3066
823.13	3176
823.27	3222
823.41	3131
823.55	3173
823.69	3173
823.83	3207
823.97	3142
824.11	3020
824.25	3020
824.389	3043
824.529	3146
824.669	3077
824.809	3237
824.949	3264
825.089	3207
825.228	3157
825.368	3039
825.508	2967
825.648	2967
825.787	3028
825.927	3066
826.067	2986
826.206	2944
826.346	3055
826.485	3119
826.625	3108
826.765	3275
826.904	3188
827.044	3024
827.183	2937
827.323	2830
827.462	2986
827.601	2956
827.741	2952
827.88	2979
828.02	2861
828.159	3001
828.298	3043
828.437	3165
828.577	3013
828.716	3253
828.855	3081
828.994	2941
829.134	2887
829.273	2891
829.412	2861
829.551	2872
829.69	2891
829.829	3009
829.968	3180
830.107	3036
830.246	3024
830.385	2944
830.524	2876
830.663	2823
830.802	2724
830.941	2659
831.08	2670
831.219	2754
831.357	2766
831.496	2967
831.635	2746
831.774	2693
831.913	2663
832.051	2537
832.19	2571
832.329	2727
832.467	2560
832.606	2495
832.744	2598
832.883	2568
833.022	2587
833.16	2667
833.299	2693
833.437	2705
833.576	2750
833.714	2716
833.852	2697
833.991	2758
834.129	2861
834.267	2834
834.406	2815
834.544	2880
834.682	2899
834.821	2861
834.959	3131
835.097	2910
835.235	3097
835.373	3009
835.511	3009
835.65	2986
835.788	3005
835.926	2872
836.064	2823
836.202	2864
836.34	3123
836.478	3142
836.615	3074
836.753	3169
836.891	3249
837.029	3203
837.167	3131
837.305	3066
837.443	3077
837.58	2975
837.718	3161
837.856	3138
837.993	3051
838.131	3127
838.269	3089
838.406	3173
838.544	3123
838.681	2986
838.819	2937
838.956	2819
839.094	2823
839.231	2918
839.369	3020
839.506	3374
839.643	3211
839.781	3036
839.918	2960
840.055	3043
840.193	3074
840.33	3077
840.467	3081
840.604	3188
840.742	3431
840.879	3093
841.016	3070
841.153	3142
841.29	3344
841.427	3325
841.564	3279
841.701	3325
841.838	3233
841.975	3184
842.112	3287
842.249	3077
842.385	3081
842.522	3260
842.659	3093
842.796	3081
842.933	3135
843.069	3051
843.206	3028
843.343	3195
843.479	3108
843.616	3123
843.752	2910
843.889	2914
844.025	3097
844.162	2891
844.298	3112
844.435	2944
844.571	2933
844.708	3066
844.844	3146
844.98	3241
845.117	3161
845.253	3070
845.389	3024
845.525	3100
845.661	3116
845.798	3005
845.934	3131
846.07	3074
846.206	3279
846.342	3287
846.478	3233
846.614	3123
846.75	3028
846.886	3039
847.022	3268
847.158	3146
847.294	3253
847.429	3264
847.565	3226
847.701	3496
847.837	3055
847.972	2979
848.108	3195
848.244	3176
848.379	3013
848.515	2918
848.65	2925
848.786	2967
848.921	3043
849.057	3097
849.192	3173
849.328	3070
849.463	3112
849.598	3093
849.734	3074
849.869	2963
850.004	2883
850.14	2975
850.275	2933
850.41	2815
850.545	2887
850.68	2937
850.815	2960
850.95	2967
851.085	3211
851.22	3116
851.355	3070
851.49	3020
851.625	2994
851.76	3032
851.895	2929
852.03	2933
852.165	3058
852.299	3081
852.434	3184
852.569	3146
852.703	3180
852.838	3264
852.973	3348
853.107	3359
853.242	3169
853.376	3104
853.511	2982
853.645	3074
853.78	3268
853.914	3135
854.048	3169
854.183	3135
854.317	3142
854.451	3332
854.585	3112
854.72	3104
854.854	3226
854.988	3066
855.122	3085
855.256	2975
855.39	3100
855.524	3241
855.658	3184
855.792	3188
855.926	3233
856.06	3233
856.194	3279
856.327	3188
856.461	3100
856.595	3093
856.729	3135
856.862	3199
856.996	3154
857.13	3256
857.263	3264
857.397	3287
857.53	3119
857.664	3211
857.797	3279
857.931	3260
858.064	3161
858.197	3241
858.331	3112
858.464	3135
858.597	3009
858.731	3135
858.864	3161
858.997	3089
859.13	3176
859.263	3203
859.396	3237
859.529	3074
859.662	3093
859.795	3017
859.928	3119
860.061	3306
860.194	3306
860.327	3138
860.46	3093
860.592	3249
860.725	3237
860.858	3222
860.99	3150
861.123	3047
861.256	3039
861.388	3131
861.521	3747
861.653	3051
861.786	2982
861.918	2982
862.05	3085
862.183	3119
862.315	3176
862.447	3176
862.58	3116
862.712	2914
862.844	2914
862.976	3036
863.108	3009
863.24	3420
863.372	2902
863.504	3009
863.636	2971
863.768	3009
863.9	2967
864.032	2937
864.164	2937
864.296	3032
864.428	3100
864.559	3131
864.691	3058
864.823	3104
864.954	3039
865.086	3039
865.217	2990
865.349	2960
865.48	2990
865.612	3036
865.743	3138
865.875	2998
866.006	2933
866.137	2994
866.269	2982
866.4	2963
866.531	2948
866.662	2902
866.793	2910
866.924	2868
867.055	2952
867.186	2906
867.317	2868
867.448	2842
867.579	2891
867.71	2906
867.841	2834
867.972	2956
868.103	2952
868.233	2902
868.364	2899
868.495	2929
868.625	3131
868.756	3211
868.886	2963
869.017	3001
869.147	3176
869.278	3184
869.408	3062
869.539	3085
869.669	3116
869.799	3043
869.929	3157
870.06	3119
870.19	3363
870.32	3298
870.45	3317
870.58	3378
870.71	3458
870.84	3473
870.97	3298
871.1	3245
871.23	3534
871.36	3450
871.489	3359
871.619	3428
871.749	3401
871.879	3428
872.008	3492
872.138	3378
872.267	3279
872.397	3169
872.526	3161
872.656	3017
872.785	3093
872.915	3264
873.044	3321
873.173	3230
873.303	3230
873.432	3211
873.561	3233
873.69	3169
873.819	3169
873.948	3192
874.077	3123
874.206	3013
874.335	3070
874.464	3222
874.593	3378
874.722	3256
874.851	3405
874.979	3325
875.108	3382
875.237	3207
875.365	3192
875.494	3195
875.623	3260
875.751	3077
875.88	3100
876.008	3226
876.136	3230
876.265	3389
876.393	3530
876.521	3409
876.65	3370
876.778	3329
876.906	3272
877.034	3199
877.162	3249
877.29	3203
877.418	3245
877.546	3192
877.674	3241
877.802	3233
877.93	3233
878.058	3142
878.185	3135
878.313	3188
878.441	3203
878.568	3081
878.696	3123
878.824	3233
878.951	3317
879.079	3496
879.206	3641
879.333	3466
879.461	3374
879.588	3336
879.715	3507
879.842	3610
879.97	3401
880.097	3169
880.224	3135
880.351	3241
880.478	3268
880.605	3226
880.732	3218
880.859	3500
880.986	3310
881.112	3351
881.239	3199
881.366	3116
881.493	3074
881.619	3039
881.746	3100
881.872	3066
881.999	3077
882.125	3150
882.252	3253
882.378	3268
882.505	3443
882.631	3241
882.757	3169
882.883	3203
883.01	3233
883.136	3184
883.262	3043
883.388	3104
883.514	3313
883.64	3382
883.766	3264
883.892	3192
884.018	3253
884.143	3439
884.269	3572
884.395	3199
884.52	3169
884.646	3184
884.772	3138
884.897	3127
885.023	3222
885.148	3340
885.274	3435
885.399	3374
885.524	3329
885.65	3268
885.775	3363
885.9	3302
886.025	3420
886.15	3367
886.275	3348
886.4	3275
886.525	3313
886.65	3306
886.775	3298
886.9	3519
887.025	3644
887.149	3443
887.274	3306
887.399	3256
887.523	3256
887.648	3207
887.773	3249
887.897	3435
888.021	3447
888.146	3359
888.27	3469
888.395	3576
888.519	3473
888.643	3492
888.767	3481
888.891	3348
889.015	3306
889.139	3351
889.263	3317
889.387	3454
889.511	3572
889.635	3530
889.759	3348
889.883	3340
890.006	3450
890.13	3549
890.254	3332
890.377	3431
890.501	3279
890.624	3214
890.748	3355
890.871	3249
890.995	3222
891.118	3100
891.241	3275
891.364	3306
891.488	3367
891.611	3233
891.734	3272
891.857	3370
891.98	3306
892.103	3370
892.226	3340
892.349	3218
892.471	3169
892.594	3313
892.717	3332
892.839	3336
892.962	3340
893.085	3431
893.207	3386
893.33	3195
893.452	3256
893.575	3428
893.697	3302
893.819	3515
893.941	3568
894.064	3538
894.186	3321
894.308	3268
894.43	3492
894.552	3580
894.674	3542
894.796	3336
894.918	3382
895.04	3355
895.161	3538
895.283	3443
895.405	3382
895.526	3431
895.648	3477
895.769	3450
895.891	3485
896.012	3538
896.134	3542
896.255	3450
896.376	3439
896.498	3424
896.619	3473
896.74	3424
896.861	3443
896.982	3728
897.103	3896
897.224	3614
897.345	3564
897.466	3473
897.587	3538
897.708	3717
897.828	3568
897.949	3519
898.07	3370
898.19	3488
898.311	3656
898.431	3496
898.552	3549
898.672	3637
898.792	3648
898.913	3584
899.033	3450
899.153	3306
899.273	3268
899.393	3329
899.513	3386
899.633	3401
899.753	3431
899.873	3359
899.993	3378
900.113	3363
900.232	3435
900.352	3363
900.472	3332
900.591	3287
900.711	3378
900.83	3321
900.95	3477
901.069	3530
901.189	3393
901.308	3199
901.427	3176
901.546	3226
901.665	3348
901.784	3382
901.904	3264
902.023	3211
902.141	3066
902.26	3051
902.379	3199
902.498	3123
902.617	3070
902.735	3272
902.854	3268
902.973	3245
903.091	3074
903.21	3108
903.328	3195
903.446	3146
903.565	3176
903.683	3264
903.801	3207
903.919	3306
904.038	3329
904.156	3226
904.274	3336
904.392	3302
904.51	3344
904.627	3332
904.745	3462
904.863	3496
904.981	3313
905.098	3214
905.216	3287
905.334	3317
905.451	3310
905.569	3363
905.686	3500
905.803	3485
905.921	3340
906.038	3469
906.155	3416
906.272	3325
906.389	3374
906.506	3279
906.623	3325
906.74	3344
906.857	3230
906.974	3302
907.091	3507
907.208	3648
907.324	3534
907.441	3431
907.557	3230
907.674	3310
907.79	3291
907.907	3332
908.023	3431
908.139	3435
908.256	3355
908.372	3424
908.488	3374
908.604	3256
908.72	3260
908.836	3332
908.952	3302
909.068	3412
909.184	3538
909.3	3458
909.415	3561
909.531	3526
909.647	3363
909.762	3374
909.878	3306
909.993	3420
910.108	3340
910.224	3359
910.339	3450
910.454	3363
910.57	3321
910.685	3329
910.8	3671
910.915	3599
911.03	3526
911.145	3306
911.259	3336
911.374	3355
911.489	3287
911.604	3264
911.718	3192
911.833	3192
911.947	3070
912.062	3036
912.176	3237
912.291	3249
912.405	3272
912.519	3431
912.633	3511
912.748	3370
912.862	3370
912.976	3230
913.09	3123
913.204	3180
913.318	3325
913.431	3389
913.545	3431
913.659	3401
913.772	3401
913.886	3287
914	3253
914.113	3420
914.226	3431
914.34	3439
914.453	3275
914.566	3420
914.68	3378
914.793	3393
914.906	3207
915.019	3184
915.132	3180
915.245	3214
915.358	3268
915.47	3287
915.583	3298
915.696	3336
915.809	3439
915.921	3443
916.034	3291
916.146	3310
916.259	3306
916.371	3424
916.483	3405
916.595	3306
916.708	3378
916.82	3393
916.932	3367
917.044	3363
917.156	3378
917.268	3306
917.38	3313
917.491	3340
917.603	3431
917.715	3526
917.826	3523
917.938	3416
918.049	3329
918.161	3477
918.272	3633
918.384	3629
918.495	3496
918.606	3359
918.717	3317
918.828	3405
918.939	3454
919.05	3313
919.161	3386
919.272	3237
919.383	3378
919.494	3545
919.604	3720
919.715	3523
919.826	3462
919.936	3504
920.047	3652
920.157	3580
920.267	3831
920.378	3641
920.488	3591
920.598	3808
920.708	3998
920.818	3876
920.928	3911
921.038	4074
921.148	4063
921.258	3781
921.368	3690
921.477	3660
921.587	3584
921.697	3496
921.806	3644
921.916	3561
922.025	3409
922.134	3386
922.244	3348
922.353	3496
922.462	3306
922.571	3298
922.68	3157
922.789	3104
922.898	3199
923.007	3142
923.116	3264
923.224	3207
923.333	3233
923.442	3104
923.55	3135
923.659	3173
923.767	3260
923.876	3195
923.984	3256
924.092	3157
924.201	3272
924.309	3249
924.417	3302
924.525	3253
924.633	3310
924.741	4223
924.849	3104
924.956	3317
925.064	3146
925.172	3116
925.279	3150
925.387	3256
925.494	3260
925.602	3412
925.709	3355
925.816	3237
925.924	3321
926.031	3412
926.138	3351
926.245	3412
926.352	3264
926.459	3431
926.566	3504
926.673	3386
926.779	3302
926.886	3279
926.993	3188
927.099	3146
927.206	3169
927.312	3123
927.419	3256
927.525	3245
927.631	3329
927.737	3184
927.843	3192
927.95	3074
928.056	3199
928.162	3211
928.267	3302
928.373	3934
928.479	3344
928.585	3081
928.69	3226
928.796	3306
928.901	3211
929.007	3089
929.112	3237
929.218	3214
929.323	3214
929.428	3218
929.533	3355
929.638	3180
929.743	3214
929.848	3291
929.953	3226
930.058	3173
930.163	3028
930.267	3081
930.372	3222
930.477	3047
930.581	3340
930.685	3218
930.79	3074
930.894	3157
930.998	3161
931.103	3317
931.207	2990
931.311	3020
931.415	2967
931.519	2823
931.623	2857
