Data from test_V78500241_1329.txt Node
Date: Fri Mar 25 16:24:24 CST 2022
User: usil
Spectrometer: V785-0024
Trigger mode: 0
Integration Time (sec): 4.000000E-1
Scans to average: 1
Nonlinearity correction enabled: false
Boxcar width: 0
Storing dark spectrum: false
XAxis mode: Wavelengths
Number of Pixels in Spectrum: 1024
>>>>>Begin Spectral Data<<<<<
801.071	2876
801.214	2944
801.356	2868
801.499	2933
801.641	2815
801.783	2922
801.926	3051
802.068	2963
802.211	2998
802.353	3039
802.496	2933
802.638	2986
802.78	3085
802.923	3085
803.065	3005
803.208	2925
803.35	2910
803.492	2929
803.635	2922
803.777	2777
803.919	2842
804.061	3195
804.204	2918
804.346	2864
804.488	2842
804.63	2925
804.773	2880
804.915	2891
805.057	3093
805.199	2963
805.341	2944
805.483	3017
805.626	2944
805.768	2925
805.91	3077
806.052	3119
806.194	3047
806.336	3218
806.478	3036
806.62	2952
806.762	2979
806.904	3055
807.046	3154
807.188	3005
807.33	2895
807.472	2952
807.614	2922
807.756	2998
807.898	2929
808.04	2914
808.182	2929
808.324	2967
808.465	2861
808.607	2861
808.749	2796
808.891	2842
809.033	3009
809.174	2941
809.316	2887
809.458	2876
809.6	2754
809.741	2746
809.883	2750
810.025	2845
810.166	2842
810.308	2880
810.45	2845
810.591	2785
810.733	2754
810.875	2842
811.016	2785
811.158	2727
811.299	2804
811.441	2944
811.582	2872
811.724	2815
811.865	2811
812.007	2899
812.148	2902
812.29	2845
812.431	2914
812.573	2925
812.714	2960
812.855	3055
812.997	3081
813.138	3116
813.279	2998
813.421	2956
813.562	2925
813.703	2872
813.845	2876
813.986	2739
814.127	2724
814.268	2792
814.41	2849
814.551	2781
814.692	2902
814.833	2792
814.974	2883
815.115	2925
815.256	2834
815.397	2807
815.539	2819
815.68	2735
815.821	2777
815.962	2960
816.103	2925
816.244	2861
816.385	2842
816.526	2941
816.666	2922
816.807	2735
816.948	2864
817.089	2910
817.23	2830
817.371	2792
817.512	2811
817.653	2830
817.793	2815
817.934	2899
818.075	2963
818.216	3020
818.356	2982
818.497	2872
818.638	2781
818.778	2796
818.919	2785
819.06	2785
819.2	2883
819.341	2815
819.481	2792
819.622	2918
819.762	3104
819.903	3020
820.043	2922
820.184	2899
820.324	2914
820.465	2994
820.605	3005
820.746	3020
820.886	2914
821.026	3104
821.167	3165
821.307	3226
821.447	3264
821.588	3214
821.728	3195
821.868	3180
822.008	3085
822.149	3192
822.289	3237
822.429	3097
822.569	3070
822.709	3176
822.849	3051
822.99	3085
823.13	3131
823.27	3260
823.41	3097
823.55	3135
823.69	3161
823.83	3211
823.97	3104
824.11	2979
824.25	2948
824.389	3043
824.529	3104
824.669	3024
824.809	3199
824.949	3256
825.089	3207
825.228	3211
825.368	2994
825.508	2963
825.648	2975
825.787	2979
825.927	2982
826.067	2998
826.206	2941
826.346	3032
826.485	3070
826.625	3100
826.765	3245
826.904	3230
827.044	2967
827.183	2944
827.323	2845
827.462	2982
827.601	2906
827.741	2910
827.88	2963
828.02	2838
828.159	2971
828.298	3051
828.437	3104
828.577	3024
828.716	3230
828.855	3081
828.994	2918
829.134	2853
829.273	2902
829.412	2872
829.551	2876
829.69	2891
829.829	2979
829.968	3108
830.107	2975
830.246	3020
830.385	2922
830.524	2883
830.663	2838
830.802	2735
830.941	2667
831.08	2644
831.219	2754
831.357	2735
831.496	2941
831.635	2720
831.774	2640
831.913	2621
832.051	2518
832.19	2590
832.329	2693
832.467	2503
832.606	2484
832.744	2598
832.883	2590
833.022	2579
833.16	2617
833.299	2674
833.437	2686
833.576	2712
833.714	2716
833.852	2739
833.991	2743
834.129	2819
834.267	2834
834.406	2785
834.544	2872
834.682	2868
834.821	2876
834.959	3051
835.097	2902
835.235	3032
835.373	2963
835.511	3009
835.65	2929
835.788	2941
835.926	2807
836.064	2773
836.202	2853
836.34	3093
836.478	3127
836.615	3032
836.753	3119
836.891	3199
837.029	3154
837.167	3108
837.305	3066
837.443	3036
837.58	2952
837.718	3119
837.856	3085
837.993	3001
838.131	3085
838.269	3146
838.406	3058
838.544	3081
838.681	2914
838.819	2910
838.956	2788
839.094	2857
839.231	2937
839.369	2982
839.506	3370
839.643	3226
839.781	3020
839.918	2937
840.055	3001
840.193	3039
840.33	3055
840.467	3055
840.604	3154
840.742	3393
840.879	3020
841.016	3047
841.153	3123
841.29	3298
841.427	3291
841.564	3264
841.701	3275
841.838	3211
841.975	3192
842.112	3222
842.249	3085
842.385	3028
842.522	3253
842.659	3093
842.796	3081
842.933	3081
843.069	3058
843.206	3005
843.343	3192
843.479	3093
843.616	3108
843.752	2861
843.889	2830
844.025	3024
844.162	2853
844.298	3058
844.435	2937
844.571	2918
844.708	3039
844.844	3161
844.98	3241
845.117	3203
845.253	3070
845.389	3001
845.525	3081
845.661	3066
845.798	2986
845.934	3108
846.07	3039
846.206	3256
846.342	3310
846.478	3226
846.614	3077
846.75	3051
846.886	3047
847.022	3222
847.158	3123
847.294	3173
847.429	3230
847.565	3207
847.701	3488
847.837	3032
847.972	3005
848.108	3150
848.244	3161
848.379	2982
848.515	2933
848.65	2918
848.786	2975
848.921	2998
849.057	3089
849.192	3165
849.328	3047
849.463	3089
849.598	3066
849.734	3039
849.869	2948
850.004	2922
850.14	2990
850.275	2918
850.41	2834
850.545	2864
850.68	2933
850.815	2937
850.95	3009
851.085	3173
851.22	3097
851.355	3028
851.49	2979
851.625	2998
851.76	2982
851.895	2941
852.03	2933
852.165	3032
852.299	3104
852.434	3211
852.569	3089
852.703	3150
852.838	3207
852.973	3355
853.107	3310
853.242	3154
853.376	3093
853.511	2910
853.645	3017
853.78	3226
853.914	3100
854.048	3100
854.183	3051
854.317	3135
854.451	3329
854.585	3089
854.72	3085
854.854	3222
854.988	3032
855.122	3100
855.256	2982
855.39	3161
855.524	3260
855.658	3142
855.792	3154
855.926	3199
856.06	3222
856.194	3268
856.327	3131
856.461	3009
856.595	3081
856.729	3066
856.862	3211
856.996	3157
857.13	3165
857.263	3226
857.397	3260
857.53	3116
857.664	3150
857.797	3211
857.931	3249
858.064	3138
858.197	3199
858.331	3108
858.464	3097
858.597	2982
858.731	3074
858.864	3123
858.997	3062
859.13	3142
859.263	3154
859.396	3207
859.529	3074
859.662	3062
859.795	3066
859.928	3093
860.061	3233
860.194	3302
860.327	3135
860.46	3085
860.592	3245
860.725	3226
860.858	3230
860.99	3108
861.123	3093
861.256	3043
861.388	3146
861.521	3690
861.653	3028
861.786	2979
861.918	3020
862.05	3036
862.183	3085
862.315	3142
862.447	3157
862.58	3074
862.712	2933
862.844	2864
862.976	3043
863.108	2986
863.24	3279
863.372	2868
863.504	3001
863.636	2944
863.768	3032
863.9	2994
864.032	2914
864.164	2933
864.296	3009
864.428	3104
864.559	3055
864.691	3081
864.823	3051
864.954	3051
865.086	3066
865.217	2979
865.349	2956
865.48	2994
865.612	3013
865.743	3157
865.875	2941
866.006	2937
866.137	2967
866.269	2956
866.4	2925
866.531	2925
866.662	2899
866.793	2922
866.924	2868
867.055	2979
867.186	2914
867.317	2918
867.448	2838
867.579	2815
867.71	2823
867.841	2834
867.972	2887
868.103	2880
868.233	2868
868.364	2883
868.495	2914
868.625	3089
868.756	3180
868.886	2998
869.017	3047
869.147	3169
869.278	3123
869.408	3051
869.539	2998
869.669	3047
869.799	3028
869.929	3131
870.06	3131
870.19	3306
870.32	3325
870.45	3275
870.58	3355
870.71	3466
870.84	3443
870.97	3256
871.1	3245
871.23	3469
871.36	3458
871.489	3351
871.619	3435
871.749	3439
871.879	3447
872.008	3428
872.138	3344
872.267	3268
872.397	3142
872.526	3085
872.656	3028
872.785	3062
872.915	3180
873.044	3291
873.173	3207
873.303	3256
873.432	3230
873.561	3260
873.69	3146
873.819	3157
873.948	3207
874.077	3116
874.206	3032
874.335	3077
874.464	3211
874.593	3325
874.722	3203
874.851	3409
874.979	3344
875.108	3306
875.237	3195
875.365	3150
875.494	3161
875.623	3218
875.751	3051
875.88	3123
876.008	3195
876.136	3241
876.265	3370
876.393	3523
876.521	3409
876.65	3378
876.778	3363
876.906	3222
877.034	3203
877.162	3195
877.29	3131
877.418	3294
877.546	3260
877.674	3245
877.802	3233
877.93	3218
878.058	3146
878.185	3104
878.313	3169
878.441	3226
878.568	3062
878.696	3146
878.824	3249
878.951	3268
879.079	3412
879.206	3610
879.333	3401
879.461	3317
879.588	3348
879.715	3473
879.842	3538
879.97	3355
880.097	3161
880.224	3119
880.351	3161
880.478	3207
880.605	3192
880.732	3184
880.859	3526
880.986	3272
881.112	3329
881.239	3203
881.366	3058
881.493	3009
881.619	3043
881.746	3066
881.872	3112
881.999	3135
882.125	3146
882.252	3260
882.378	3275
882.505	3389
882.631	3256
882.757	3180
882.883	3176
883.01	3211
883.136	3161
883.262	3104
883.388	3085
883.514	3287
883.64	3340
883.766	3279
883.892	3199
884.018	3253
884.143	3435
884.269	3534
884.395	3211
884.52	3180
884.646	3165
884.772	3081
884.897	3135
885.023	3192
885.148	3332
885.274	3435
885.399	3348
885.524	3298
885.65	3272
885.775	3313
885.9	3268
886.025	3424
886.15	3374
886.275	3291
886.4	3230
886.525	3325
886.65	3310
886.775	3264
886.9	3473
887.025	3580
887.149	3382
887.274	3260
887.399	3146
887.523	3184
887.648	3195
887.773	3180
887.897	3374
888.021	3409
888.146	3294
888.27	3431
888.395	3515
888.519	3412
888.643	3454
888.767	3428
888.891	3313
889.015	3249
889.139	3256
889.263	3291
889.387	3416
889.511	3488
889.635	3420
889.759	3260
889.883	3272
890.006	3378
890.13	3488
890.254	3298
890.377	3363
890.501	3199
890.624	3195
890.748	3275
890.871	3150
890.995	3142
891.118	3070
891.241	3176
891.364	3195
891.488	3336
891.611	3180
891.734	3211
891.857	3302
891.98	3214
892.103	3306
892.226	3279
892.349	3192
892.471	3100
892.594	3188
892.717	3291
892.839	3279
892.962	3294
893.085	3348
893.207	3279
893.33	3165
893.452	3207
893.575	3325
893.697	3264
893.819	3435
893.941	3511
894.064	3431
894.186	3283
894.308	3272
894.43	3393
894.552	3545
894.674	3469
894.796	3253
894.918	3298
895.04	3287
895.161	3401
895.283	3378
895.405	3329
895.526	3355
895.648	3389
895.769	3450
895.891	3469
896.012	3431
896.134	3454
896.255	3389
896.376	3401
896.498	3336
896.619	3447
896.74	3348
896.861	3435
896.982	3644
897.103	3812
897.224	3545
897.345	3466
897.466	3447
897.587	3488
897.708	3587
897.828	3496
897.949	3450
898.07	3325
898.19	3443
898.311	3614
898.431	3450
898.552	3511
898.672	3606
898.792	3576
898.913	3538
899.033	3359
899.153	3275
899.273	3230
899.393	3287
899.513	3355
899.633	3310
899.753	3310
899.873	3291
899.993	3397
900.113	3382
900.232	3389
900.352	3317
900.472	3272
900.591	3195
900.711	3283
900.83	3226
900.95	3435
901.069	3492
901.189	3332
901.308	3180
901.427	3157
901.546	3188
901.665	3306
901.784	3298
901.904	3218
902.023	3116
902.141	2975
902.26	3013
902.379	3119
902.498	3070
902.617	3039
902.735	3222
902.854	3256
902.973	3184
903.091	3036
903.21	3070
903.328	3131
903.446	3097
903.565	3100
903.683	3233
903.801	3104
903.919	3241
904.038	3298
904.156	3176
904.274	3294
904.392	3230
904.51	3291
904.627	3336
904.745	3412
904.863	3488
904.981	3256
905.098	3188
905.216	3195
905.334	3291
905.451	3283
905.569	3317
905.686	3439
905.803	3466
905.921	3230
906.038	3416
906.155	3382
906.272	3245
906.389	3351
906.506	3222
906.623	3230
906.74	3336
906.857	3165
906.974	3260
907.091	3454
907.208	3534
907.324	3443
907.441	3382
907.557	3222
907.674	3218
907.79	3188
907.907	3279
908.023	3367
908.139	3386
908.256	3310
908.372	3374
908.488	3344
908.604	3233
908.72	3222
908.836	3287
908.952	3306
909.068	3332
909.184	3469
909.3	3374
909.415	3500
909.531	3488
909.647	3287
909.762	3249
909.878	3272
909.993	3325
910.108	3298
910.224	3332
910.339	3405
910.454	3348
910.57	3294
910.685	3233
910.8	3614
910.915	3534
911.03	3397
911.145	3256
911.259	3214
911.374	3325
911.489	3230
911.604	3256
911.718	3119
911.833	3131
911.947	3062
912.062	2948
912.176	3161
912.291	3184
912.405	3176
912.519	3443
912.633	3409
912.748	3336
912.862	3249
912.976	3157
913.09	3077
913.204	3131
913.318	3195
913.431	3367
913.545	3317
913.659	3397
913.772	3298
913.886	3226
914	3192
914.113	3374
914.226	3431
914.34	3363
914.453	3199
914.566	3431
914.68	3291
914.793	3306
914.906	3138
915.019	3097
915.132	3047
915.245	3165
915.358	3199
915.47	3199
915.583	3268
915.696	3294
915.809	3424
915.921	3409
916.034	3268
916.146	3275
916.259	3207
916.371	3378
916.483	3363
916.595	3264
916.708	3355
916.82	3344
916.932	3313
917.044	3348
917.156	3329
917.268	3279
917.38	3294
917.491	3291
917.603	3348
917.715	3431
917.826	3485
917.938	3363
918.049	3256
918.161	3431
918.272	3568
918.384	3561
918.495	3428
918.606	3340
918.717	3279
918.828	3336
918.939	3428
919.05	3336
919.161	3348
919.272	3218
919.383	3279
919.494	3458
919.604	3698
919.715	3481
919.826	3416
919.936	3435
920.047	3587
920.157	3538
920.267	3774
920.378	3618
920.488	3564
920.598	3789
920.708	3960
920.818	3865
920.928	3827
921.038	4048
921.148	4006
921.258	3701
921.368	3625
921.477	3534
921.587	3515
921.697	3462
921.806	3618
921.916	3507
922.025	3306
922.134	3317
922.244	3283
922.353	3458
922.462	3256
922.571	3245
922.68	3066
922.789	3066
922.898	3135
923.007	3112
923.116	3192
923.224	3161
923.333	3184
923.442	3085
923.55	3074
923.659	3146
923.767	3180
923.876	3089
923.984	3222
924.092	3131
924.201	3199
924.309	3230
924.417	3272
924.525	3142
924.633	3237
924.741	4040
924.849	3074
924.956	3241
925.064	3104
925.172	3055
925.279	3108
925.387	3214
925.494	3161
925.602	3340
925.709	3336
925.816	3173
925.924	3291
926.031	3363
926.138	3336
926.245	3359
926.352	3268
926.459	3424
926.566	3447
926.673	3321
926.779	3226
926.886	3264
926.993	3142
927.099	3154
927.206	3104
927.312	3089
927.419	3230
927.525	3214
927.631	3253
927.737	3150
927.843	3119
927.95	2994
928.056	3138
928.162	3161
928.267	3218
928.373	3854
928.479	3291
928.585	3093
928.69	3230
928.796	3253
928.901	3131
929.007	3055
929.112	3195
929.218	3154
929.323	3135
929.428	3165
929.533	3272
929.638	3112
929.743	3188
929.848	3245
929.953	3207
930.058	3127
930.163	2990
930.267	3047
930.372	3195
930.477	3055
930.581	3283
930.685	3214
930.79	3062
930.894	3127
930.998	3066
931.103	3329
931.207	2956
931.311	2918
931.415	2914
931.519	2777
931.623	2830
