Data from test_V78500241_1829.txt Node
Date: Fri Mar 25 16:27:52 CST 2022
User: usil
Spectrometer: V785-0024
Trigger mode: 0
Integration Time (sec): 4.000000E-1
Scans to average: 1
Nonlinearity correction enabled: false
Boxcar width: 0
Storing dark spectrum: false
XAxis mode: Wavelengths
Number of Pixels in Spectrum: 1024
>>>>>Begin Spectral Data<<<<<
801.071	2929
801.214	2925
801.356	2868
801.499	2887
801.641	2868
801.783	2899
801.926	3043
802.068	2982
802.211	3051
802.353	3017
802.496	2910
802.638	2986
802.78	3058
802.923	3066
803.065	2967
803.208	2899
803.35	2922
803.492	2937
803.635	2914
803.777	2754
803.919	2861
804.061	3192
804.204	2956
804.346	2937
804.488	2815
804.63	2971
804.773	2849
804.915	2899
805.057	3097
805.199	2891
805.341	3013
805.483	3039
805.626	2948
805.768	2948
805.91	3074
806.052	3127
806.194	3032
806.336	3207
806.478	3043
806.62	2952
806.762	3005
806.904	3047
807.046	3192
807.188	2998
807.33	2918
807.472	2967
807.614	2899
807.756	2982
807.898	2887
808.04	2899
808.182	2944
808.324	2979
808.465	2872
808.607	2868
808.749	2769
808.891	2864
809.033	2929
809.174	2979
809.316	2883
809.458	2876
809.6	2693
809.741	2766
809.883	2769
810.025	2819
810.166	2853
810.308	2823
810.45	2864
810.591	2739
810.733	2800
810.875	2823
811.016	2792
811.158	2766
811.299	2785
811.441	2895
811.582	2861
811.724	2807
811.865	2849
812.007	2918
812.148	2922
812.29	2838
812.431	2887
812.573	2925
812.714	2944
812.855	3028
812.997	3051
813.138	3116
813.279	2952
813.421	2990
813.562	2933
813.703	2864
813.845	2838
813.986	2746
814.127	2708
814.268	2815
814.41	2800
814.551	2807
814.692	2861
814.833	2811
814.974	2918
815.115	2956
815.256	2788
815.397	2800
815.539	2842
815.68	2773
815.821	2819
815.962	2922
816.103	2933
816.244	2861
816.385	2872
816.526	2979
816.666	2902
816.807	2739
816.948	2910
817.089	2880
817.23	2830
817.371	2819
817.512	2773
817.653	2826
817.793	2815
817.934	2891
818.075	2941
818.216	2975
818.356	3020
818.497	2864
818.638	2773
818.778	2811
818.919	2792
819.06	2739
819.2	2891
819.341	2807
819.481	2811
819.622	2891
819.762	3100
819.903	3032
820.043	2925
820.184	2914
820.324	2899
820.465	2971
820.605	2998
820.746	3001
820.886	2948
821.026	3100
821.167	3150
821.307	3272
821.447	3279
821.588	3226
821.728	3214
821.868	3222
822.008	3116
822.149	3203
822.289	3253
822.429	3081
822.569	3081
822.709	3184
822.849	3009
822.99	3036
823.13	3138
823.27	3184
823.41	3093
823.55	3138
823.69	3169
823.83	3154
823.97	3085
824.11	2990
824.25	2998
824.389	3017
824.529	3135
824.669	3062
824.809	3169
824.949	3241
825.089	3230
825.228	3165
825.368	2986
825.508	2948
825.648	3005
825.787	3009
825.927	3017
826.067	2971
826.206	2990
826.346	3024
826.485	3058
826.625	3089
826.765	3249
826.904	3180
827.044	3020
827.183	2918
827.323	2826
827.462	2967
827.601	2853
827.741	2929
827.88	2937
828.02	2849
828.159	2982
828.298	3009
828.437	3119
828.577	3051
828.716	3214
828.855	3036
828.994	2910
829.134	2899
829.273	2887
829.412	2887
829.551	2861
829.69	2880
829.829	2979
829.968	3108
830.107	2975
830.246	3024
830.385	2937
830.524	2876
830.663	2823
830.802	2705
830.941	2663
831.08	2655
831.219	2746
831.357	2746
831.496	2963
831.635	2735
831.774	2621
831.913	2648
832.051	2526
832.19	2594
832.329	2663
832.467	2549
832.606	2469
832.744	2571
832.883	2560
833.022	2583
833.16	2617
833.299	2651
833.437	2674
833.576	2689
833.714	2712
833.852	2720
833.991	2746
834.129	2823
834.267	2830
834.406	2800
834.544	2849
834.682	2861
834.821	2849
834.959	3058
835.097	2872
835.235	3070
835.373	2929
835.511	3039
835.65	2948
835.788	2963
835.926	2834
836.064	2796
836.202	2834
836.34	3070
836.478	3135
836.615	3017
836.753	3142
836.891	3211
837.029	3180
837.167	3131
837.305	3051
837.443	3043
837.58	2944
837.718	3070
837.856	3024
837.993	3036
838.131	3150
838.269	3116
838.406	3062
838.544	3093
838.681	2925
838.819	2910
838.956	2762
839.094	2853
839.231	2910
839.369	3013
839.506	3355
839.643	3188
839.781	2967
839.918	2963
840.055	3024
840.193	3017
840.33	3058
840.467	3089
840.604	3116
840.742	3409
840.879	3062
841.016	3017
841.153	3097
841.29	3332
841.427	3279
841.564	3264
841.701	3313
841.838	3195
841.975	3169
842.112	3188
842.249	3081
842.385	3017
842.522	3249
842.659	3066
842.796	3077
842.933	3066
843.069	3055
843.206	3009
843.343	3176
843.479	3081
843.616	3138
843.752	2887
843.889	2842
844.025	3089
844.162	2880
844.298	3032
844.435	2944
844.571	2895
844.708	3051
844.844	3207
844.98	3245
845.117	3241
845.253	3028
845.389	3028
845.525	3089
845.661	3093
845.798	3020
845.934	3116
846.07	3017
846.206	3226
846.342	3340
846.478	3203
846.614	3077
846.75	3036
846.886	3020
847.022	3237
847.158	3138
847.294	3142
847.429	3230
847.565	3165
847.701	3500
847.837	3039
847.972	2990
848.108	3169
848.244	3154
848.379	2975
848.515	2960
848.65	2933
848.786	2944
848.921	3032
849.057	3089
849.192	3112
849.328	3043
849.463	3108
849.598	3058
849.734	3039
849.869	2963
850.004	2902
850.14	2960
850.275	2941
850.41	2842
850.545	2845
850.68	2941
850.815	2960
850.95	2960
851.085	3176
851.22	3085
851.355	3017
851.49	2979
851.625	3009
851.76	3017
851.895	2952
852.03	2906
852.165	3047
852.299	3108
852.434	3176
852.569	3138
852.703	3226
852.838	3233
852.973	3291
853.107	3336
853.242	3154
853.376	3051
853.511	2971
853.645	3047
853.78	3241
853.914	3097
854.048	3066
854.183	3093
854.317	3116
854.451	3264
854.585	3142
854.72	3100
854.854	3214
854.988	3024
855.122	3066
855.256	2960
855.39	3093
855.524	3245
855.658	3180
855.792	3131
855.926	3211
856.06	3207
856.194	3222
856.327	3097
856.461	3047
856.595	3077
856.729	3074
856.862	3211
856.996	3138
857.13	3214
857.263	3195
857.397	3230
857.53	3097
857.664	3188
857.797	3245
857.931	3222
858.064	3157
858.197	3195
858.331	3127
858.464	3131
858.597	2975
858.731	3104
858.864	3100
858.997	3066
859.13	3146
859.263	3169
859.396	3169
859.529	3100
859.662	3085
859.795	3036
859.928	3123
860.061	3268
860.194	3279
860.327	3142
860.46	3119
860.592	3184
860.725	3241
860.858	3218
860.99	3104
861.123	3043
861.256	3032
861.388	3127
861.521	3835
861.653	3005
861.786	3043
861.918	3020
862.05	3036
862.183	3097
862.315	3150
862.447	3161
862.58	3085
862.712	2941
862.844	2864
862.976	3032
863.108	2979
863.24	3416
863.372	2868
863.504	2952
863.636	2960
863.768	2986
863.9	2994
864.032	2883
864.164	2952
864.296	3005
864.428	3066
864.559	3119
864.691	3047
864.823	3047
864.954	2994
865.086	3009
865.217	2948
865.349	2979
865.48	2956
865.612	2998
865.743	3127
865.875	3028
866.006	2937
866.137	2941
866.269	2925
866.4	2899
866.531	2864
866.662	2864
866.793	2895
866.924	2868
867.055	2956
867.186	2925
867.317	2861
867.448	2826
867.579	2834
867.71	2811
867.841	2800
867.972	2876
868.103	2872
868.233	2868
868.364	2899
868.495	2876
868.625	3070
868.756	3112
868.886	2960
869.017	2979
869.147	3150
869.278	3127
869.408	3058
869.539	3039
869.669	3112
869.799	3005
869.929	3127
870.06	3070
870.19	3298
870.32	3249
870.45	3302
870.58	3359
870.71	3447
870.84	3397
870.97	3264
871.1	3279
871.23	3492
871.36	3435
871.489	3321
871.619	3382
871.749	3393
871.879	3420
872.008	3485
872.138	3336
872.267	3291
872.397	3135
872.526	3119
872.656	3017
872.785	3104
872.915	3211
873.044	3268
873.173	3237
873.303	3256
873.432	3226
873.561	3218
873.69	3176
873.819	3097
873.948	3222
874.077	3077
874.206	3085
874.335	3077
874.464	3199
874.593	3325
874.722	3241
874.851	3389
874.979	3321
875.108	3344
875.237	3195
875.365	3211
875.494	3100
875.623	3233
875.751	3081
875.88	3108
876.008	3169
876.136	3199
876.265	3340
876.393	3538
876.521	3405
876.65	3405
876.778	3313
876.906	3211
877.034	3203
877.162	3211
877.29	3169
877.418	3253
877.546	3214
877.674	3195
877.802	3214
877.93	3230
878.058	3169
878.185	3089
878.313	3207
878.441	3176
878.568	3074
878.696	3150
878.824	3230
878.951	3268
879.079	3462
879.206	3584
879.333	3447
879.461	3306
879.588	3325
879.715	3481
879.842	3603
879.97	3378
880.097	3127
880.224	3108
880.351	3173
880.478	3218
880.605	3176
880.732	3218
880.859	3496
880.986	3302
881.112	3313
881.239	3195
881.366	3062
881.493	3047
881.619	3005
881.746	3039
881.872	3081
881.999	3081
882.125	3131
882.252	3245
882.378	3298
882.505	3424
882.631	3272
882.757	3135
882.883	3218
883.01	3211
883.136	3146
883.262	3089
883.388	3093
883.514	3302
883.64	3348
883.766	3302
883.892	3161
884.018	3230
884.143	3389
884.269	3519
884.395	3203
884.52	3169
884.646	3161
884.772	3161
884.897	3081
885.023	3173
885.148	3329
885.274	3424
885.399	3367
885.524	3287
885.65	3218
885.775	3294
885.9	3264
886.025	3420
886.15	3367
886.275	3275
886.4	3233
886.525	3283
886.65	3207
886.775	3264
886.9	3511
887.025	3603
887.149	3409
887.274	3245
887.399	3161
887.523	3214
887.648	3161
887.773	3184
887.897	3355
888.021	3363
888.146	3283
888.27	3450
888.395	3507
888.519	3481
888.643	3447
888.767	3466
888.891	3298
889.015	3222
889.139	3283
889.263	3233
889.387	3420
889.511	3500
889.635	3435
889.759	3306
889.883	3268
890.006	3359
890.13	3469
890.254	3275
890.377	3351
890.501	3165
890.624	3157
890.748	3268
890.871	3169
890.995	3070
891.118	3100
891.241	3173
891.364	3222
891.488	3332
891.611	3146
891.734	3222
891.857	3283
891.98	3207
892.103	3321
892.226	3245
892.349	3184
892.471	3097
892.594	3245
892.717	3249
892.839	3275
892.962	3260
893.085	3340
893.207	3310
893.33	3142
893.452	3173
893.575	3355
893.697	3237
893.819	3488
893.941	3500
894.064	3439
894.186	3264
894.308	3237
894.43	3378
894.552	3542
894.674	3450
894.796	3214
894.918	3325
895.04	3256
895.161	3424
895.283	3393
895.405	3275
895.526	3329
895.648	3431
895.769	3443
895.891	3488
896.012	3466
896.134	3439
896.255	3428
896.376	3374
896.498	3332
896.619	3405
896.74	3348
896.861	3401
896.982	3682
897.103	3789
897.224	3553
897.345	3515
897.466	3450
897.587	3481
897.708	3614
897.828	3568
897.949	3420
898.07	3283
898.19	3401
898.311	3606
898.431	3420
898.552	3504
898.672	3584
898.792	3606
898.913	3534
899.033	3443
899.153	3268
899.273	3176
899.393	3298
899.513	3302
899.633	3310
899.753	3348
899.873	3298
899.993	3355
900.113	3344
900.232	3393
900.352	3317
900.472	3302
900.591	3176
900.711	3294
900.83	3226
900.95	3374
901.069	3424
901.189	3336
901.308	3169
901.427	3104
901.546	3154
901.665	3306
901.784	3275
901.904	3222
902.023	3161
902.141	2994
902.26	2986
902.379	3157
902.498	3039
902.617	3070
902.735	3222
902.854	3184
902.973	3180
903.091	2990
903.21	3058
903.328	3142
903.446	3108
903.565	3074
903.683	3207
903.801	3112
903.919	3230
904.038	3283
904.156	3176
904.274	3249
904.392	3237
904.51	3294
904.627	3321
904.745	3435
904.863	3488
904.981	3275
905.098	3154
905.216	3237
905.334	3249
905.451	3264
905.569	3279
905.686	3409
905.803	3393
905.921	3260
906.038	3405
906.155	3329
906.272	3264
906.389	3310
906.506	3245
906.623	3253
906.74	3283
906.857	3192
906.974	3275
907.091	3420
907.208	3618
907.324	3496
907.441	3363
907.557	3203
907.674	3230
907.79	3245
907.907	3275
908.023	3405
908.139	3416
908.256	3325
908.372	3374
908.488	3355
908.604	3268
908.72	3272
908.836	3302
908.952	3283
909.068	3336
909.184	3462
909.3	3405
909.415	3519
909.531	3500
909.647	3283
909.762	3302
909.878	3249
909.993	3374
910.108	3363
910.224	3344
910.339	3412
910.454	3420
910.57	3332
910.685	3245
910.8	3610
910.915	3568
911.03	3458
911.145	3264
911.259	3310
911.374	3397
911.489	3268
911.604	3275
911.718	3150
911.833	3218
911.947	3062
912.062	3051
912.176	3211
912.291	3230
912.405	3260
912.519	3458
912.633	3515
912.748	3409
912.862	3317
912.976	3207
913.09	3108
913.204	3173
913.318	3218
913.431	3397
913.545	3378
913.659	3435
913.772	3378
913.886	3264
914	3256
914.113	3378
914.226	3488
914.34	3412
914.453	3249
914.566	3424
914.68	3336
914.793	3329
914.906	3180
915.019	3142
915.132	3104
915.245	3230
915.358	3256
915.47	3272
915.583	3321
915.696	3325
915.809	3462
915.921	3469
916.034	3283
916.146	3306
916.259	3287
916.371	3409
916.483	3412
916.595	3287
916.708	3409
916.82	3382
916.932	3351
917.044	3378
917.156	3374
917.268	3245
917.38	3344
917.491	3302
917.603	3386
917.715	3466
917.826	3496
917.938	3466
918.049	3291
918.161	3481
918.272	3606
918.384	3591
918.495	3545
918.606	3359
918.717	3294
918.828	3370
918.939	3439
919.05	3325
919.161	3397
919.272	3214
919.383	3287
919.494	3507
919.604	3720
919.715	3462
919.826	3443
919.936	3481
920.047	3644
920.157	3553
920.267	3831
920.378	3637
920.488	3587
920.598	3816
920.708	3968
920.818	3865
920.928	3842
921.038	4074
921.148	3983
921.258	3759
921.368	3622
921.477	3595
921.587	3553
921.697	3477
921.806	3682
921.916	3542
922.025	3370
922.134	3355
922.244	3351
922.353	3439
922.462	3306
922.571	3264
922.68	3131
922.789	3081
922.898	3138
923.007	3127
923.116	3241
923.224	3176
923.333	3195
923.442	3104
923.55	3123
923.659	3169
923.767	3203
923.876	3142
923.984	3256
924.092	3119
924.201	3233
924.309	3245
924.417	3253
924.525	3226
924.633	3233
924.741	4204
924.849	3112
924.956	3249
925.064	3123
925.172	3066
925.279	3112
925.387	3207
925.494	3211
925.602	3382
925.709	3348
925.816	3203
925.924	3348
926.031	3454
926.138	3374
926.245	3393
926.352	3253
926.459	3431
926.566	3504
926.673	3344
926.779	3260
926.886	3260
926.993	3199
927.099	3150
927.206	3173
927.312	3131
927.419	3264
927.525	3237
927.631	3325
927.737	3192
927.843	3192
927.95	3047
928.056	3150
928.162	3211
928.267	3302
928.373	3793
928.479	3370
928.585	3100
928.69	3218
928.796	3340
928.901	3173
929.007	3093
929.112	3249
929.218	3199
929.323	3146
929.428	3176
929.533	3325
929.638	3142
929.743	3161
929.848	3302
929.953	3222
930.058	3150
930.163	3036
930.267	3085
930.372	3237
930.477	3100
930.581	3355
930.685	3207
930.79	3100
930.894	3184
930.998	3131
931.103	3321
931.207	3032
931.311	2960
931.415	2963
931.519	2830
931.623	2823
