Data from test_V78500241_636.txt Node
Date: Fri Mar 25 16:19:36 CST 2022
User: usil
Spectrometer: V785-0024
Trigger mode: 0
Integration Time (sec): 4.000000E-1
Scans to average: 1
Nonlinearity correction enabled: false
Boxcar width: 0
Storing dark spectrum: false
XAxis mode: Wavelengths
Number of Pixels in Spectrum: 1024
>>>>>Begin Spectral Data<<<<<
801.071	2922
801.214	2979
801.356	2899
801.499	2937
801.641	2880
801.783	2963
801.926	3028
802.068	3017
802.211	2986
802.353	3074
802.496	2994
802.638	3036
802.78	3074
802.923	3070
803.065	3036
803.208	2929
803.35	2925
803.492	2922
803.635	2944
803.777	2796
803.919	2883
804.061	3207
804.204	2975
804.346	2944
804.488	2868
804.63	2998
804.773	2895
804.915	2963
805.057	3104
805.199	2941
805.341	2971
805.483	3062
805.626	3036
805.768	2948
805.91	3093
806.052	3093
806.194	3070
806.336	3264
806.478	3032
806.62	2982
806.762	3001
806.904	3043
807.046	3157
807.188	2994
807.33	2922
807.472	2994
807.614	2895
807.756	2982
807.898	2914
808.04	2902
808.182	2941
808.324	2918
808.465	2880
808.607	2891
808.749	2815
808.891	2868
809.033	2952
809.174	2975
809.316	2910
809.458	2902
809.6	2746
809.741	2773
809.883	2804
810.025	2872
810.166	2842
810.308	2853
810.45	2864
810.591	2758
810.733	2777
810.875	2826
811.016	2796
811.158	2781
811.299	2796
811.441	2933
811.582	2941
811.724	2891
811.865	2864
812.007	2918
812.148	2872
812.29	2849
812.431	2914
812.573	2960
812.714	2922
812.855	3055
812.997	3055
813.138	3138
813.279	3017
813.421	3017
813.562	2963
813.703	2899
813.845	2872
813.986	2804
814.127	2781
814.268	2842
814.41	2849
814.551	2838
814.692	2887
814.833	2815
814.974	2922
815.115	2952
815.256	2788
815.397	2800
815.539	2891
815.68	2785
815.821	2796
815.962	2967
816.103	2948
816.244	2887
816.385	2842
816.526	2990
816.666	2899
816.807	2739
816.948	2906
817.089	2906
817.23	2868
817.371	2796
817.512	2800
817.653	2861
817.793	2826
817.934	2868
818.075	2956
818.216	3009
818.356	3070
818.497	2918
818.638	2804
818.778	2815
818.919	2781
819.06	2792
819.2	2922
819.341	2785
819.481	2807
819.622	2941
819.762	3097
819.903	3070
820.043	2906
820.184	2887
820.324	2887
820.465	3036
820.605	3032
820.746	3020
820.886	2956
821.026	3108
821.167	3165
821.307	3245
821.447	3268
821.588	3249
821.728	3233
821.868	3176
822.008	3070
822.149	3161
822.289	3275
822.429	3112
822.569	3043
822.709	3195
822.849	3062
822.99	3074
823.13	3214
823.27	3188
823.41	3100
823.55	3157
823.69	3150
823.83	3253
823.97	3077
824.11	2952
824.25	2994
824.389	3070
824.529	3119
824.669	3032
824.809	3203
824.949	3256
825.089	3230
825.228	3135
825.368	3032
825.508	2975
825.648	2952
825.787	3013
825.927	3009
826.067	2982
826.206	2956
826.346	3055
826.485	3066
826.625	3131
826.765	3230
826.904	3222
827.044	3017
827.183	2910
827.323	2887
827.462	3024
827.601	2906
827.741	2952
827.88	2929
828.02	2849
828.159	2982
828.298	3024
828.437	3138
828.577	3066
828.716	3195
828.855	3085
828.994	2929
829.134	2944
829.273	2922
829.412	2899
829.551	2842
829.69	2891
829.829	2998
829.968	3150
830.107	2990
830.246	3062
830.385	2925
830.524	2948
830.663	2849
830.802	2708
830.941	2651
831.08	2606
831.219	2754
831.357	2739
831.496	2941
831.635	2739
831.774	2651
831.913	2636
832.051	2579
832.19	2571
832.329	2682
832.467	2522
832.606	2526
832.744	2594
832.883	2613
833.022	2606
833.16	2674
833.299	2682
833.437	2701
833.576	2720
833.714	2682
833.852	2731
833.991	2811
834.129	2868
834.267	2796
834.406	2788
834.544	2876
834.682	2883
834.821	2891
834.959	3066
835.097	2929
835.235	3093
835.373	2990
835.511	3039
835.65	2933
835.788	2941
835.926	2823
836.064	2796
836.202	2830
836.34	3123
836.478	3154
836.615	3036
836.753	3123
836.891	3260
837.029	3192
837.167	3112
837.305	3047
837.443	3017
837.58	2994
837.718	3116
837.856	3077
837.993	3036
838.131	3093
838.269	3108
838.406	3131
838.544	3097
838.681	2922
838.819	2914
838.956	2792
839.094	2834
839.231	2944
839.369	2998
839.506	3378
839.643	3230
839.781	3020
839.918	2960
840.055	3062
840.193	3020
840.33	3039
840.467	3051
840.604	3135
840.742	3428
840.879	3020
841.016	3051
841.153	3085
841.29	3332
841.427	3283
841.564	3230
841.701	3302
841.838	3237
841.975	3146
842.112	3180
842.249	3077
842.385	3043
842.522	3272
842.659	3085
842.796	3066
842.933	3093
843.069	3081
843.206	3009
843.343	3199
843.479	3112
843.616	3123
843.752	2887
843.889	2880
844.025	3062
844.162	2887
844.298	3077
844.435	2937
844.571	2902
844.708	3047
844.844	3192
844.98	3260
845.117	3157
845.253	3074
845.389	3005
845.525	3100
845.661	3097
845.798	2982
845.934	3108
846.07	3020
846.206	3218
846.342	3283
846.478	3256
846.614	3077
846.75	3062
846.886	3013
847.022	3245
847.158	3119
847.294	3157
847.429	3211
847.565	3192
847.701	3481
847.837	3055
847.972	2998
848.108	3165
848.244	3100
848.379	3001
848.515	2925
848.65	2906
848.786	3005
848.921	3001
849.057	3104
849.192	3154
849.328	3043
849.463	3127
849.598	3066
849.734	3028
849.869	2933
850.004	2922
850.14	2971
850.275	2914
850.41	2811
850.545	2834
850.68	2895
850.815	2963
850.95	2944
851.085	3165
851.22	3123
851.355	3058
851.49	2982
851.625	3013
851.76	3020
851.895	2925
852.03	2872
852.165	3047
852.299	3081
852.434	3184
852.569	3100
852.703	3157
852.838	3237
852.973	3370
853.107	3287
853.242	3146
853.376	3097
853.511	2963
853.645	3047
853.78	3218
853.914	3123
854.048	3097
854.183	3070
854.317	3123
854.451	3310
854.585	3131
854.72	3066
854.854	3188
854.988	3058
855.122	3093
855.256	2963
855.39	3104
855.524	3230
855.658	3207
855.792	3188
855.926	3161
856.06	3256
856.194	3279
856.327	3131
856.461	3074
856.595	3081
856.729	3077
856.862	3211
856.996	3154
857.13	3199
857.263	3218
857.397	3241
857.53	3150
857.664	3207
857.797	3253
857.931	3287
858.064	3150
858.197	3161
858.331	3119
858.464	3150
858.597	3005
858.731	3097
858.864	3112
858.997	3089
859.13	3142
859.263	3180
859.396	3237
859.529	3077
859.662	3104
859.795	3024
859.928	3150
860.061	3302
860.194	3298
860.327	3138
860.46	3112
860.592	3245
860.725	3214
860.858	3249
860.99	3081
861.123	3039
861.256	3062
861.388	3097
861.521	3682
861.653	3009
861.786	2971
861.918	3020
862.05	3097
862.183	3055
862.315	3173
862.447	3176
862.58	3100
862.712	2937
862.844	2899
862.976	3039
863.108	2994
863.24	3420
863.372	2872
863.504	2948
863.636	2952
863.768	3036
863.9	2994
864.032	2937
864.164	2971
864.296	2979
864.428	3062
864.559	3093
864.691	3058
864.823	3043
864.954	3017
865.086	3020
865.217	3017
865.349	2960
865.48	2986
865.612	3009
865.743	3154
865.875	3017
866.006	2918
866.137	2967
866.269	2944
866.4	2910
866.531	2906
866.662	2872
866.793	2845
866.924	2910
867.055	2967
867.186	2948
867.317	2883
867.448	2861
867.579	2857
867.71	2823
867.841	2796
867.972	2918
868.103	2906
868.233	2864
868.364	2838
868.495	2910
868.625	3070
868.756	3157
868.886	2960
869.017	3001
869.147	3150
869.278	3192
869.408	3036
869.539	3036
869.669	3070
869.799	3020
869.929	3169
870.06	3081
870.19	3302
870.32	3294
870.45	3321
870.58	3374
870.71	3435
870.84	3477
870.97	3310
871.1	3222
871.23	3481
871.36	3458
871.489	3332
871.619	3424
871.749	3409
871.879	3435
872.008	3504
872.138	3332
872.267	3253
872.397	3131
872.526	3093
872.656	2994
872.785	3066
872.915	3237
873.044	3332
873.173	3184
873.303	3253
873.432	3184
873.561	3275
873.69	3135
873.819	3165
873.948	3169
874.077	3104
874.206	3024
874.335	3058
874.464	3176
874.593	3363
874.722	3253
874.851	3344
874.979	3363
875.108	3325
875.237	3218
875.365	3161
875.494	3203
875.623	3226
875.751	3062
875.88	3104
876.008	3176
876.136	3211
876.265	3340
876.393	3492
876.521	3431
876.65	3405
876.778	3340
876.906	3264
877.034	3203
877.162	3199
877.29	3112
877.418	3256
877.546	3195
877.674	3233
877.802	3226
877.93	3249
878.058	3161
878.185	3093
878.313	3207
878.441	3173
878.568	3062
878.696	3119
878.824	3253
878.951	3336
879.079	3428
879.206	3618
879.333	3428
879.461	3348
879.588	3382
879.715	3420
879.842	3591
879.97	3370
880.097	3180
880.224	3131
880.351	3188
880.478	3207
880.605	3173
880.732	3154
880.859	3458
880.986	3291
881.112	3344
881.239	3165
881.366	3097
881.493	3013
881.619	2990
881.746	3055
881.872	3081
881.999	3097
882.125	3142
882.252	3249
882.378	3302
882.505	3412
882.631	3264
882.757	3169
882.883	3222
883.01	3218
883.136	3165
883.262	3085
883.388	3116
883.514	3298
883.64	3336
883.766	3310
883.892	3192
884.018	3222
884.143	3428
884.269	3538
884.395	3211
884.52	3146
884.646	3180
884.772	3150
884.897	3123
885.023	3176
885.148	3302
885.274	3386
885.399	3321
885.524	3279
885.65	3233
885.775	3370
885.9	3260
886.025	3443
886.15	3351
886.275	3283
886.4	3241
886.525	3279
886.65	3275
886.775	3222
886.9	3469
887.025	3663
887.149	3397
887.274	3237
887.399	3165
887.523	3203
887.648	3222
887.773	3195
887.897	3329
888.021	3397
888.146	3279
888.27	3420
888.395	3545
888.519	3431
888.643	3424
888.767	3447
888.891	3336
889.015	3180
889.139	3317
889.263	3237
889.387	3409
889.511	3496
889.635	3412
889.759	3291
889.883	3226
890.006	3374
890.13	3462
890.254	3245
890.377	3321
890.501	3176
890.624	3195
890.748	3268
890.871	3161
890.995	3104
891.118	3051
891.241	3176
891.364	3218
891.488	3302
891.611	3161
891.734	3226
891.857	3268
891.98	3241
892.103	3355
892.226	3268
892.349	3245
892.471	3089
892.594	3222
892.717	3268
892.839	3275
892.962	3264
893.085	3370
893.207	3317
893.33	3154
893.452	3161
893.575	3344
893.697	3302
893.819	3500
893.941	3504
894.064	3458
894.186	3260
894.308	3256
894.43	3412
894.552	3549
894.674	3443
894.796	3233
894.918	3329
895.04	3298
895.161	3428
895.283	3412
895.405	3294
895.526	3378
895.648	3443
895.769	3389
895.891	3447
896.012	3488
896.134	3469
896.255	3439
896.376	3389
896.498	3336
896.619	3386
896.74	3367
896.861	3405
896.982	3675
897.103	3804
897.224	3553
897.345	3515
897.466	3431
897.587	3492
897.708	3610
897.828	3530
897.949	3420
898.07	3344
898.19	3405
898.311	3599
898.431	3435
898.552	3500
898.672	3610
898.792	3587
898.913	3500
899.033	3435
899.153	3313
899.273	3222
899.393	3283
899.513	3325
899.633	3325
899.753	3325
899.873	3294
899.993	3393
900.113	3332
900.232	3348
900.352	3313
900.472	3287
900.591	3195
900.711	3298
900.83	3214
900.95	3378
901.069	3485
901.189	3363
901.308	3173
901.427	3146
901.546	3176
901.665	3283
901.784	3298
901.904	3188
902.023	3131
902.141	3036
902.26	3017
902.379	3104
902.498	3127
902.617	3028
902.735	3184
902.854	3245
902.973	3142
903.091	3051
903.21	3097
903.328	3108
903.446	3093
903.565	3074
903.683	3199
903.801	3142
903.919	3230
904.038	3264
904.156	3150
904.274	3287
904.392	3253
904.51	3279
904.627	3313
904.745	3435
904.863	3431
904.981	3260
905.098	3169
905.216	3180
905.334	3287
905.451	3279
905.569	3302
905.686	3424
905.803	3458
905.921	3272
906.038	3431
906.155	3344
906.272	3291
906.389	3321
906.506	3203
906.623	3237
906.74	3241
906.857	3161
906.974	3237
907.091	3439
907.208	3511
907.324	3477
907.441	3348
907.557	3154
907.674	3249
907.79	3192
907.907	3260
908.023	3317
908.139	3351
908.256	3279
908.372	3397
908.488	3344
908.604	3245
908.72	3192
908.836	3275
908.952	3245
909.068	3359
909.184	3435
909.3	3401
909.415	3481
909.531	3454
909.647	3260
909.762	3279
909.878	3222
909.993	3336
910.108	3325
910.224	3306
910.339	3389
910.454	3279
910.57	3256
910.685	3199
910.8	3561
910.915	3507
911.03	3435
911.145	3287
911.259	3253
911.374	3275
911.489	3233
911.604	3169
911.718	3127
911.833	3131
911.947	3047
912.062	2967
912.176	3161
912.291	3169
912.405	3192
912.519	3409
912.633	3454
912.748	3317
912.862	3256
912.976	3169
913.09	3047
913.204	3127
913.318	3207
913.431	3344
913.545	3321
913.659	3378
913.772	3310
913.886	3211
914	3207
914.113	3351
914.226	3401
914.34	3336
914.453	3237
914.566	3420
914.68	3268
914.793	3329
914.906	3108
915.019	3119
915.132	3066
915.245	3165
915.358	3222
915.47	3214
915.583	3260
915.696	3272
915.809	3424
915.921	3416
916.034	3253
916.146	3283
916.259	3233
916.371	3378
916.483	3382
916.595	3272
916.708	3310
916.82	3355
916.932	3370
917.044	3359
917.156	3367
917.268	3264
917.38	3310
917.491	3348
917.603	3336
917.715	3523
917.826	3473
917.938	3389
918.049	3313
918.161	3481
918.272	3591
918.384	3584
918.495	3504
918.606	3359
918.717	3302
918.828	3374
918.939	3416
919.05	3340
919.161	3447
919.272	3192
919.383	3306
919.494	3591
919.604	3740
919.715	3507
919.826	3466
919.936	3519
920.047	3618
920.157	3595
920.267	3800
920.378	3625
920.488	3599
920.598	3835
920.708	3975
920.818	3861
920.928	3892
921.038	4063
921.148	4010
921.258	3759
921.368	3694
921.477	3595
921.587	3591
921.697	3492
921.806	3679
921.916	3542
922.025	3428
922.134	3397
922.244	3378
922.353	3454
922.462	3340
922.571	3237
922.68	3154
922.789	3112
922.898	3203
923.007	3104
923.116	3230
923.224	3218
923.333	3237
923.442	3127
923.55	3165
923.659	3180
923.767	3253
923.876	3176
923.984	3268
924.092	3161
924.201	3260
924.309	3268
924.417	3317
924.525	3199
924.633	3275
924.741	4059
924.849	3066
924.956	3283
925.064	3104
925.172	3093
925.279	3112
925.387	3268
925.494	3241
925.602	3431
925.709	3393
925.816	3218
925.924	3325
926.031	3420
926.138	3351
926.245	3389
926.352	3249
926.459	3431
926.566	3504
926.673	3325
926.779	3298
926.886	3268
926.993	3222
927.099	3131
927.206	3173
927.312	3150
927.419	3245
927.525	3218
927.631	3291
927.737	3184
927.843	3176
927.95	3066
928.056	3135
928.162	3192
928.267	3283
928.373	3785
928.479	3355
928.585	3085
928.69	3230
928.796	3283
928.901	3195
929.007	3058
929.112	3237
929.218	3230
929.323	3195
929.428	3184
929.533	3370
929.638	3119
929.743	3272
929.848	3256
929.953	3260
930.058	3165
930.163	3043
930.267	3104
930.372	3237
930.477	3077
930.581	3325
930.685	3230
930.79	3062
930.894	3161
930.998	3138
931.103	3268
931.207	2952
931.311	2986
931.415	2944
931.519	2807
931.623	2815
