Data from test_V78500241_838.txt Node
Date: Fri Mar 25 16:21:00 CST 2022
User: usil
Spectrometer: V785-0024
Trigger mode: 0
Integration Time (sec): 4.000000E-1
Scans to average: 1
Nonlinearity correction enabled: false
Boxcar width: 0
Storing dark spectrum: false
XAxis mode: Wavelengths
Number of Pixels in Spectrum: 1024
>>>>>Begin Spectral Data<<<<<
801.071	2933
801.214	2944
801.356	2864
801.499	2876
801.641	2853
801.783	2956
801.926	3066
802.068	2975
802.211	2986
802.353	3013
802.496	2944
802.638	3028
802.78	3020
802.923	3066
803.065	2967
803.208	2883
803.35	2967
803.492	2944
803.635	2906
803.777	2769
803.919	2845
804.061	3195
804.204	2948
804.346	2963
804.488	2826
804.63	2982
804.773	2902
804.915	2906
805.057	3085
805.199	2929
805.341	3005
805.483	3036
805.626	2975
805.768	2967
805.91	3070
806.052	3123
806.194	3043
806.336	3249
806.478	2994
806.62	2952
806.762	2994
806.904	3104
807.046	3180
807.188	2971
807.33	2918
807.472	2990
807.614	2895
807.756	3009
807.898	2929
808.04	2910
808.182	2982
808.324	2986
808.465	2918
808.607	2922
808.749	2796
808.891	2876
809.033	3032
809.174	3036
809.316	2914
809.458	2914
809.6	2788
809.741	2815
809.883	2834
810.025	2887
810.166	2891
810.308	2868
810.45	2883
810.591	2819
810.733	2811
810.875	2891
811.016	2834
811.158	2826
811.299	2842
811.441	2967
811.582	2941
811.724	2895
811.865	2902
812.007	2971
812.148	2929
812.29	2933
812.431	2925
812.573	2986
812.714	2971
812.855	3093
812.997	3116
813.138	3161
813.279	3020
813.421	3055
813.562	2990
813.703	2910
813.845	2929
813.986	2838
814.127	2762
814.268	2864
814.41	2880
814.551	2861
814.692	2883
814.833	2834
814.974	2944
815.115	2986
815.256	2880
815.397	2830
815.539	2872
815.68	2804
815.821	2823
815.962	2998
816.103	2941
816.244	2941
816.385	2910
816.526	3001
816.666	2944
816.807	2766
816.948	2906
817.089	2948
817.23	2876
817.371	2800
817.512	2842
817.653	2883
817.793	2838
817.934	2914
818.075	3001
818.216	3028
818.356	3043
818.497	2922
818.638	2838
818.778	2868
818.919	2834
819.06	2781
819.2	2910
819.341	2853
819.481	2823
819.622	2952
819.762	3142
819.903	3066
820.043	2944
820.184	2922
820.324	2929
820.465	3066
820.605	3036
820.746	3028
820.886	2971
821.026	3138
821.167	3199
821.307	3287
821.447	3313
821.588	3241
821.728	3226
821.868	3211
822.008	3081
822.149	3237
822.289	3291
822.429	3119
822.569	3131
822.709	3218
822.849	3077
822.99	3108
823.13	3180
823.27	3256
823.41	3146
823.55	3192
823.69	3199
823.83	3203
823.97	3138
824.11	3024
824.25	3043
824.389	3112
824.529	3138
824.669	3100
824.809	3268
824.949	3332
825.089	3256
825.228	3195
825.368	3047
825.508	3020
825.648	2982
825.787	3001
825.927	3062
826.067	3009
826.206	2971
826.346	3074
826.485	3093
826.625	3100
826.765	3306
826.904	3241
827.044	3001
827.183	2960
827.323	2906
827.462	3020
827.601	2914
827.741	2956
827.88	2944
828.02	2899
828.159	3009
828.298	3097
828.437	3127
828.577	3089
828.716	3283
828.855	3055
828.994	2967
829.134	2918
829.273	2952
829.412	2887
829.551	2880
829.69	2918
829.829	3024
829.968	3154
830.107	3051
830.246	3062
830.385	2941
830.524	2872
830.663	2861
830.802	2735
830.941	2670
831.08	2640
831.219	2773
831.357	2750
831.496	2937
831.635	2750
831.774	2697
831.913	2693
832.051	2583
832.19	2629
832.329	2701
832.467	2583
832.606	2537
832.744	2594
832.883	2594
833.022	2610
833.16	2712
833.299	2686
833.437	2720
833.576	2750
833.714	2735
833.852	2766
833.991	2777
834.129	2857
834.267	2811
834.406	2811
834.544	2906
834.682	2887
834.821	2880
834.959	3081
835.097	2891
835.235	3055
835.373	3001
835.511	3047
835.65	2998
835.788	2986
835.926	2868
836.064	2834
836.202	2883
836.34	3100
836.478	3192
836.615	3081
836.753	3142
836.891	3249
837.029	3180
837.167	3184
837.305	3093
837.443	3093
837.58	2979
837.718	3150
837.856	3138
837.993	3070
838.131	3127
838.269	3097
838.406	3119
838.544	3123
838.681	2971
838.819	2914
838.956	2853
839.094	2834
839.231	2914
839.369	3028
839.506	3420
839.643	3249
839.781	3051
839.918	2982
840.055	3070
840.193	3074
840.33	3108
840.467	3119
840.604	3176
840.742	3454
840.879	3089
841.016	3066
841.153	3123
841.29	3382
841.427	3313
841.564	3268
841.701	3367
841.838	3249
841.975	3180
842.112	3233
842.249	3131
842.385	3074
842.522	3294
842.659	3097
842.796	3062
842.933	3119
843.069	3032
843.206	3055
843.343	3237
843.479	3146
843.616	3188
843.752	2937
843.889	2880
844.025	3062
844.162	2922
844.298	3081
844.435	2967
844.571	2933
844.708	3074
844.844	3199
844.98	3222
845.117	3233
845.253	3085
845.389	3032
845.525	3116
845.661	3131
845.798	3032
845.934	3154
846.07	3089
846.206	3249
846.342	3348
846.478	3207
846.614	3119
846.75	3051
846.886	3066
847.022	3264
847.158	3119
847.294	3222
847.429	3272
847.565	3245
847.701	3481
847.837	3100
847.972	3013
848.108	3157
848.244	3154
848.379	2986
848.515	2941
848.65	2967
848.786	2963
848.921	3028
849.057	3127
849.192	3165
849.328	3081
849.463	3138
849.598	3074
849.734	3077
849.869	2979
850.004	2960
850.14	3001
850.275	2933
850.41	2876
850.545	2902
850.68	2979
850.815	2986
850.95	2982
851.085	3192
851.22	3142
851.355	3055
851.49	3013
851.625	3024
851.76	3020
851.895	2948
852.03	2944
852.165	3058
852.299	3138
852.434	3214
852.569	3169
852.703	3195
852.838	3275
852.973	3313
853.107	3344
853.242	3184
853.376	3108
853.511	2982
853.645	3085
853.78	3256
853.914	3135
854.048	3097
854.183	3104
854.317	3161
854.451	3291
854.585	3138
854.72	3089
854.854	3233
854.988	3066
855.122	3123
855.256	3005
855.39	3135
855.524	3222
855.658	3199
855.792	3142
855.926	3165
856.06	3230
856.194	3260
856.327	3157
856.461	3108
856.595	3081
856.729	3138
856.862	3253
856.996	3165
857.13	3211
857.263	3245
857.397	3321
857.53	3127
857.664	3203
857.797	3245
857.931	3253
858.064	3176
858.197	3241
858.331	3165
858.464	3104
858.597	3009
858.731	3131
858.864	3131
858.997	3093
859.13	3138
859.263	3176
859.396	3230
859.529	3089
859.662	3077
859.795	3081
859.928	3127
860.061	3287
860.194	3279
860.327	3142
860.46	3146
860.592	3241
860.725	3256
860.858	3279
860.99	3093
861.123	3062
861.256	3055
861.388	3119
861.521	3945
861.653	3024
861.786	2971
861.918	3024
862.05	3070
862.183	3112
862.315	3180
862.447	3222
862.58	3142
862.712	2998
862.844	2868
862.976	3020
863.108	3013
863.24	3321
863.372	2899
863.504	2971
863.636	2956
863.768	3001
863.9	2990
864.032	2872
864.164	3009
864.296	3055
864.428	3097
864.559	3142
864.691	3119
864.823	3055
864.954	3036
865.086	3047
865.217	3024
865.349	2941
865.48	2998
865.612	3051
865.743	3116
865.875	2998
866.006	2963
866.137	2975
866.269	2975
866.4	2929
866.531	2902
866.662	2918
866.793	2887
866.924	2895
867.055	2967
867.186	2906
867.317	2910
867.448	2876
867.579	2880
867.71	2887
867.841	2800
867.972	2925
868.103	2899
868.233	2864
868.364	2883
868.495	2906
868.625	3077
868.756	3188
868.886	2994
869.017	3017
869.147	3188
869.278	3165
869.408	3062
869.539	3058
869.669	3093
869.799	3039
869.929	3150
870.06	3116
870.19	3310
870.32	3321
870.45	3268
870.58	3416
870.71	3473
870.84	3466
870.97	3313
871.1	3245
871.23	3450
871.36	3466
871.489	3374
871.619	3367
871.749	3401
871.879	3469
872.008	3477
872.138	3363
872.267	3317
872.397	3184
872.526	3077
872.656	2990
872.785	3108
872.915	3218
873.044	3332
873.173	3237
873.303	3287
873.432	3218
873.561	3260
873.69	3169
873.819	3142
873.948	3184
874.077	3100
874.206	3032
874.335	3116
874.464	3203
874.593	3351
874.722	3256
874.851	3405
874.979	3370
875.108	3359
875.237	3214
875.365	3188
875.494	3161
875.623	3222
875.751	3100
875.88	3093
876.008	3203
876.136	3233
876.265	3386
876.393	3534
876.521	3389
876.65	3409
876.778	3329
876.906	3237
877.034	3207
877.162	3253
877.29	3192
877.418	3241
877.546	3245
877.674	3260
877.802	3253
877.93	3237
878.058	3161
878.185	3100
878.313	3195
878.441	3226
878.568	3085
878.696	3150
878.824	3233
878.951	3329
879.079	3439
879.206	3614
879.333	3428
879.461	3344
879.588	3359
879.715	3481
879.842	3637
879.97	3374
880.097	3142
880.224	3150
880.351	3203
880.478	3222
880.605	3226
880.732	3199
880.859	3511
880.986	3317
881.112	3336
881.239	3211
881.366	3108
881.493	3047
881.619	2990
881.746	3058
881.872	3055
881.999	3108
882.125	3150
882.252	3260
882.378	3310
882.505	3401
882.631	3268
882.757	3154
882.883	3207
883.01	3180
883.136	3165
883.262	3127
883.388	3093
883.514	3340
883.64	3393
883.766	3283
883.892	3207
884.018	3264
884.143	3435
884.269	3549
884.395	3214
884.52	3161
884.646	3207
884.772	3108
884.897	3119
885.023	3180
885.148	3321
885.274	3393
885.399	3374
885.524	3302
885.65	3302
885.775	3344
885.9	3237
886.025	3397
886.15	3382
886.275	3313
886.4	3230
886.525	3287
886.65	3313
886.775	3260
886.9	3523
887.025	3618
887.149	3420
887.274	3256
887.399	3241
887.523	3192
887.648	3184
887.773	3199
887.897	3363
888.021	3431
888.146	3302
888.27	3450
888.395	3549
888.519	3443
888.643	3447
888.767	3450
888.891	3317
889.015	3253
889.139	3310
889.263	3245
889.387	3401
889.511	3492
889.635	3462
889.759	3283
889.883	3291
890.006	3401
890.13	3496
890.254	3272
890.377	3321
890.501	3176
890.624	3203
890.748	3279
890.871	3195
890.995	3093
891.118	3039
891.241	3180
891.364	3214
891.488	3329
891.611	3169
891.734	3264
891.857	3344
891.98	3294
892.103	3329
892.226	3287
892.349	3214
892.471	3085
892.594	3241
892.717	3260
892.839	3230
892.962	3279
893.085	3329
893.207	3287
893.33	3150
893.452	3207
893.575	3351
893.697	3264
893.819	3519
893.941	3473
894.064	3443
894.186	3256
894.308	3253
894.43	3481
894.552	3523
894.674	3469
894.796	3272
894.918	3291
895.04	3264
895.161	3405
895.283	3389
895.405	3306
895.526	3370
895.648	3431
895.769	3412
895.891	3439
896.012	3488
896.134	3500
896.255	3443
896.376	3397
896.498	3374
896.619	3435
896.74	3367
896.861	3409
896.982	3644
897.103	3827
897.224	3584
897.345	3542
897.466	3424
897.587	3466
897.708	3599
897.828	3545
897.949	3428
898.07	3351
898.19	3435
898.311	3625
898.431	3409
898.552	3530
898.672	3572
898.792	3549
898.913	3515
899.033	3393
899.153	3287
899.273	3226
899.393	3283
899.513	3317
899.633	3321
899.753	3321
899.873	3306
899.993	3370
900.113	3329
900.232	3367
900.352	3359
900.472	3310
900.591	3268
900.711	3272
900.83	3268
900.95	3393
901.069	3507
901.189	3336
901.308	3199
901.427	3131
901.546	3222
901.665	3306
901.784	3348
901.904	3237
902.023	3169
902.141	2994
902.26	2986
902.379	3173
902.498	3070
902.617	3043
902.735	3241
902.854	3214
902.973	3161
903.091	3028
903.21	3070
903.328	3127
903.446	3112
903.565	3081
903.683	3188
903.801	3123
903.919	3283
904.038	3310
904.156	3123
904.274	3291
904.392	3268
904.51	3241
904.627	3287
904.745	3428
904.863	3473
904.981	3279
905.098	3127
905.216	3226
905.334	3275
905.451	3283
905.569	3268
905.686	3363
905.803	3469
905.921	3268
906.038	3409
906.155	3386
906.272	3249
906.389	3310
906.506	3253
906.623	3245
906.74	3233
906.857	3233
906.974	3268
907.091	3458
907.208	3511
907.324	3462
907.441	3363
907.557	3237
907.674	3253
907.79	3192
907.907	3260
908.023	3355
908.139	3359
908.256	3332
908.372	3344
908.488	3405
908.604	3226
908.72	3268
908.836	3287
908.952	3332
909.068	3313
909.184	3462
909.3	3409
909.415	3485
909.531	3435
909.647	3287
909.762	3294
909.878	3233
909.993	3370
910.108	3359
910.224	3344
910.339	3370
910.454	3332
910.57	3272
910.685	3260
910.8	3568
910.915	3500
911.03	3439
911.145	3294
911.259	3275
911.374	3325
911.489	3253
911.604	3230
911.718	3104
911.833	3165
911.947	3009
912.062	3005
912.176	3165
912.291	3192
912.405	3211
912.519	3439
912.633	3485
912.748	3355
912.862	3260
912.976	3127
913.09	3047
913.204	3146
913.318	3203
913.431	3355
913.545	3351
913.659	3409
913.772	3351
913.886	3203
914	3180
914.113	3370
914.226	3443
914.34	3382
914.453	3226
914.566	3412
914.68	3256
914.793	3310
914.906	3173
915.019	3119
915.132	3070
915.245	3161
915.358	3230
915.47	3233
915.583	3253
915.696	3287
915.809	3393
915.921	3450
916.034	3272
916.146	3283
916.259	3233
916.371	3420
916.483	3332
916.595	3272
916.708	3302
916.82	3325
916.932	3317
917.044	3306
917.156	3389
917.268	3268
917.38	3253
917.491	3287
917.603	3348
917.715	3420
917.826	3485
917.938	3351
918.049	3245
918.161	3431
918.272	3561
918.384	3561
918.495	3477
918.606	3306
918.717	3268
918.828	3378
918.939	3386
919.05	3302
919.161	3386
919.272	3192
919.383	3283
919.494	3504
919.604	3694
919.715	3462
919.826	3374
919.936	3481
920.047	3595
920.157	3534
920.267	3827
920.378	3618
920.488	3511
920.598	3732
920.708	3972
920.818	3793
920.928	3831
921.038	4013
921.148	3987
921.258	3755
921.368	3648
921.477	3542
921.587	3591
921.697	3443
921.806	3675
921.916	3538
922.025	3374
922.134	3363
922.244	3294
922.353	3420
922.462	3287
922.571	3222
922.68	3093
922.789	3097
922.898	3123
923.007	3135
923.116	3203
923.224	3146
923.333	3173
923.442	3108
923.55	3097
923.659	3173
923.767	3203
923.876	3135
923.984	3218
924.092	3104
924.201	3192
924.309	3195
924.417	3256
924.525	3157
924.633	3233
924.741	4048
924.849	3032
924.956	3249
925.064	3085
925.172	3039
925.279	3108
925.387	3188
925.494	3184
925.602	3378
925.709	3310
925.816	3192
925.924	3283
926.031	3351
926.138	3294
926.245	3359
926.352	3260
926.459	3409
926.566	3454
926.673	3317
926.779	3222
926.886	3260
926.993	3112
927.099	3157
927.206	3108
927.312	3127
927.419	3218
927.525	3233
927.631	3233
927.737	3131
927.843	3127
927.95	3070
928.056	3173
928.162	3184
928.267	3249
928.373	3766
928.479	3272
928.585	3070
928.69	3173
928.796	3302
928.901	3112
929.007	3051
929.112	3214
929.218	3154
929.323	3161
929.428	3150
929.533	3287
929.638	3085
929.743	3138
929.848	3222
929.953	3230
930.058	3123
930.163	2982
930.267	3066
930.372	3195
930.477	3005
930.581	3344
930.685	3161
930.79	3055
930.894	3142
930.998	3116
931.103	3291
931.207	2994
931.311	2925
931.415	2906
931.519	2739
931.623	2815
