Data from test_V78500241_226.txt Node
Date: Fri Mar 25 16:16:46 CST 2022
User: usil
Spectrometer: V785-0024
Trigger mode: 0
Integration Time (sec): 4.000000E-1
Scans to average: 1
Nonlinearity correction enabled: false
Boxcar width: 0
Storing dark spectrum: false
XAxis mode: Wavelengths
Number of Pixels in Spectrum: 1024
>>>>>Begin Spectral Data<<<<<
801.071	2929
801.214	2937
801.356	2891
801.499	2910
801.641	2864
801.783	2960
801.926	3047
802.068	2933
802.211	2982
802.353	3039
802.496	2960
802.638	3032
802.78	3047
802.923	3070
803.065	3032
803.208	2941
803.35	2914
803.492	2929
803.635	2933
803.777	2743
803.919	2876
804.061	3233
804.204	2975
804.346	2906
804.488	2853
804.63	3009
804.773	2880
804.915	2952
805.057	3097
805.199	2941
805.341	2910
805.483	3036
805.626	3020
805.768	2975
805.91	3104
806.052	3112
806.194	3032
806.336	3226
806.478	3020
806.62	2960
806.762	3005
806.904	3055
807.046	3169
807.188	3032
807.33	2922
807.472	3020
807.614	2906
807.756	2979
807.898	2891
808.04	2899
808.182	2986
808.324	2971
808.465	2902
808.607	2910
808.749	2804
808.891	2826
809.033	2986
809.174	2990
809.316	2910
809.458	2872
809.6	2800
809.741	2766
809.883	2781
810.025	2861
810.166	2849
810.308	2842
810.45	2845
810.591	2804
810.733	2769
810.875	2876
811.016	2777
811.158	2785
811.299	2826
811.441	2941
811.582	2906
811.724	2849
811.865	2830
812.007	2929
812.148	2895
812.29	2857
812.431	2876
812.573	2990
812.714	2994
812.855	3047
812.997	3074
813.138	3146
813.279	3013
813.421	2986
813.562	2960
813.703	2857
813.845	2876
813.986	2788
814.127	2720
814.268	2815
814.41	2842
814.551	2804
814.692	2853
814.833	2800
814.974	2895
815.115	2975
815.256	2842
815.397	2861
815.539	2891
815.68	2815
815.821	2807
815.962	2933
816.103	2933
816.244	2891
816.385	2883
816.526	2990
816.666	2880
816.807	2739
816.948	2887
817.089	2876
817.23	2872
817.371	2804
817.512	2815
817.653	2872
817.793	2834
817.934	2891
818.075	2948
818.216	3013
818.356	3013
818.497	2925
818.638	2823
818.778	2853
818.919	2785
819.06	2746
819.2	2910
819.341	2804
819.481	2807
819.622	2937
819.762	3077
819.903	3055
820.043	2918
820.184	2899
820.324	2918
820.465	2994
820.605	3043
820.746	3062
820.886	2918
821.026	3097
821.167	3154
821.307	3230
821.447	3279
821.588	3237
821.728	3214
821.868	3211
822.008	3066
822.149	3180
822.289	3233
822.429	3097
822.569	3093
822.709	3203
822.849	3039
822.99	3104
823.13	3154
823.27	3211
823.41	3100
823.55	3154
823.69	3165
823.83	3199
823.97	3108
824.11	2986
824.25	3020
824.389	3074
824.529	3108
824.669	3097
824.809	3180
824.949	3272
825.089	3249
825.228	3150
825.368	3020
825.508	2963
825.648	2990
825.787	2994
825.927	3005
826.067	2975
826.206	2982
826.346	3036
826.485	3062
826.625	3123
826.765	3260
826.904	3245
827.044	2990
827.183	2937
827.323	2899
827.462	3013
827.601	2899
827.741	2960
827.88	2933
828.02	2838
828.159	2960
828.298	3055
828.437	3112
828.577	3077
828.716	3230
828.855	3070
828.994	2914
829.134	2899
829.273	2902
829.412	2872
829.551	2883
829.69	2929
829.829	2998
829.968	3123
830.107	3017
830.246	3070
830.385	2922
830.524	2868
830.663	2838
830.802	2727
830.941	2670
831.08	2613
831.219	2766
831.357	2743
831.496	2971
831.635	2750
831.774	2670
831.913	2651
832.051	2545
832.19	2571
832.329	2701
832.467	2579
832.606	2476
832.744	2564
832.883	2552
833.022	2594
833.16	2659
833.299	2678
833.437	2682
833.576	2686
833.714	2739
833.852	2720
833.991	2762
834.129	2815
834.267	2849
834.406	2834
834.544	2857
834.682	2872
834.821	2872
834.959	3085
835.097	2883
835.235	3058
835.373	3036
835.511	3020
835.65	2944
835.788	2963
835.926	2815
836.064	2826
836.202	2830
836.34	3127
836.478	3165
836.615	3020
836.753	3097
836.891	3253
837.029	3135
837.167	3161
837.305	3066
837.443	3081
837.58	2952
837.718	3142
837.856	3081
837.993	3013
838.131	3089
838.269	3138
838.406	3154
838.544	3116
838.681	2933
838.819	2906
838.956	2838
839.094	2826
839.231	2918
839.369	3009
839.506	3389
839.643	3195
839.781	3062
839.918	2963
840.055	3039
840.193	3013
840.33	3020
840.467	3097
840.604	3176
840.742	3389
840.879	3062
841.016	3097
841.153	3081
841.29	3344
841.427	3298
841.564	3241
841.701	3329
841.838	3260
841.975	3161
842.112	3226
842.249	3093
842.385	3047
842.522	3283
842.659	3108
842.796	3032
842.933	3081
843.069	2986
843.206	3066
843.343	3180
843.479	3104
843.616	3119
843.752	2902
843.889	2876
844.025	3077
844.162	2880
844.298	3055
844.435	2967
844.571	2944
844.708	3039
844.844	3169
844.98	3214
845.117	3188
845.253	3039
845.389	3017
845.525	3097
845.661	3108
845.798	3039
845.934	3116
846.07	3055
846.206	3222
846.342	3321
846.478	3241
846.614	3127
846.75	3066
846.886	3017
847.022	3222
847.158	3112
847.294	3169
847.429	3268
847.565	3203
847.701	3454
847.837	3043
847.972	2990
848.108	3154
848.244	3135
848.379	2990
848.515	2944
848.65	2925
848.786	2975
848.921	3001
849.057	3100
849.192	3146
849.328	3036
849.463	3127
849.598	3066
849.734	3051
849.869	2979
850.004	2914
850.14	2975
850.275	2918
850.41	2826
850.545	2895
850.68	2933
850.815	2941
850.95	2986
851.085	3199
851.22	3116
851.355	3070
851.49	2975
851.625	2990
851.76	3005
851.895	2944
852.03	2929
852.165	3047
852.299	3116
852.434	3203
852.569	3123
852.703	3154
852.838	3233
852.973	3310
853.107	3325
853.242	3146
853.376	3097
853.511	2986
853.645	3058
853.78	3237
853.914	3146
854.048	3123
854.183	3108
854.317	3169
854.451	3298
854.585	3123
854.72	3043
854.854	3207
854.988	3070
855.122	3135
855.256	2971
855.39	3104
855.524	3230
855.658	3203
855.792	3165
855.926	3195
856.06	3226
856.194	3226
856.327	3195
856.461	3089
856.595	3089
856.729	3093
856.862	3237
856.996	3142
857.13	3237
857.263	3230
857.397	3287
857.53	3154
857.664	3184
857.797	3245
857.931	3283
858.064	3154
858.197	3226
858.331	3138
858.464	3108
858.597	2994
858.731	3112
858.864	3138
858.997	3135
859.13	3184
859.263	3176
859.396	3214
859.529	3131
859.662	3077
859.795	3077
859.928	3154
860.061	3287
860.194	3279
860.327	3150
860.46	3066
860.592	3268
860.725	3211
860.858	3249
860.99	3116
861.123	3047
861.256	3047
861.388	3138
861.521	3873
861.653	2998
861.786	2941
861.918	2979
862.05	3055
862.183	3112
862.315	3131
862.447	3199
862.58	3081
862.712	2941
862.844	2906
862.976	3013
863.108	2982
863.24	3359
863.372	2880
863.504	2975
863.636	2979
863.768	3032
863.9	3001
864.032	2910
864.164	2937
864.296	3024
864.428	3093
864.559	3127
864.691	3077
864.823	3093
864.954	3047
865.086	3047
865.217	2986
865.349	2986
865.48	3001
865.612	3013
865.743	3173
865.875	3013
866.006	2952
866.137	2975
866.269	2941
866.4	2918
866.531	2933
866.662	2864
866.793	2910
866.924	2906
867.055	3001
867.186	2933
867.317	2876
867.448	2872
867.579	2880
867.71	2868
867.841	2796
867.972	2910
868.103	2914
868.233	2876
868.364	2872
868.495	2883
868.625	3062
868.756	3184
868.886	2990
869.017	3043
869.147	3184
869.278	3157
869.408	3039
869.539	3047
869.669	3116
869.799	3032
869.929	3123
870.06	3135
870.19	3332
870.32	3275
870.45	3329
870.58	3378
870.71	3454
870.84	3454
870.97	3268
871.1	3241
871.23	3458
871.36	3454
871.489	3348
871.619	3424
871.749	3405
871.879	3439
872.008	3477
872.138	3359
872.267	3275
872.397	3161
872.526	3119
872.656	3024
872.785	3119
872.915	3237
873.044	3344
873.173	3226
873.303	3237
873.432	3222
873.561	3245
873.69	3184
873.819	3138
873.948	3188
874.077	3112
874.206	3047
874.335	3138
874.464	3207
874.593	3351
874.722	3203
874.851	3397
874.979	3386
875.108	3374
875.237	3214
875.365	3154
875.494	3169
875.623	3249
875.751	3070
875.88	3104
876.008	3260
876.136	3256
876.265	3370
876.393	3553
876.521	3435
876.65	3393
876.778	3355
876.906	3260
877.034	3222
877.162	3214
877.29	3218
877.418	3275
877.546	3245
877.674	3264
877.802	3230
877.93	3203
878.058	3192
878.185	3093
878.313	3211
878.441	3218
878.568	3081
878.696	3138
878.824	3291
878.951	3332
879.079	3477
879.206	3644
879.333	3435
879.461	3332
879.588	3351
879.715	3473
879.842	3641
879.97	3363
880.097	3165
880.224	3142
880.351	3180
880.478	3241
880.605	3233
880.732	3192
880.859	3477
880.986	3291
881.112	3336
881.239	3180
881.366	3062
881.493	3070
881.619	3020
881.746	3070
881.872	3100
881.999	3085
882.125	3161
882.252	3253
882.378	3310
882.505	3458
882.631	3272
882.757	3169
882.883	3237
883.01	3230
883.136	3165
883.262	3123
883.388	3100
883.514	3329
883.64	3367
883.766	3325
883.892	3233
884.018	3214
884.143	3447
884.269	3587
884.395	3241
884.52	3176
884.646	3135
884.772	3150
884.897	3112
885.023	3222
885.148	3329
885.274	3431
885.399	3359
885.524	3256
885.65	3332
885.775	3344
885.9	3306
886.025	3439
886.15	3344
886.275	3317
886.4	3249
886.525	3294
886.65	3306
886.775	3344
886.9	3485
887.025	3633
887.149	3439
887.274	3268
887.399	3176
887.523	3214
887.648	3188
887.773	3195
887.897	3367
888.021	3389
888.146	3256
888.27	3393
888.395	3580
888.519	3431
888.643	3397
888.767	3469
888.891	3363
889.015	3245
889.139	3268
889.263	3283
889.387	3428
889.511	3500
889.635	3485
889.759	3279
889.883	3298
890.006	3378
890.13	3496
890.254	3287
890.377	3355
890.501	3192
890.624	3184
890.748	3344
890.871	3207
890.995	3112
891.118	3119
891.241	3211
891.364	3253
891.488	3313
891.611	3173
891.734	3260
891.857	3279
891.98	3245
892.103	3363
892.226	3310
892.349	3230
892.471	3104
892.594	3230
892.717	3287
892.839	3233
892.962	3317
893.085	3401
893.207	3287
893.33	3146
893.452	3199
893.575	3325
893.697	3253
893.819	3462
893.941	3542
894.064	3481
894.186	3287
894.308	3317
894.43	3435
894.552	3469
894.674	3443
894.796	3291
894.918	3313
895.04	3256
895.161	3447
895.283	3401
895.405	3336
895.526	3386
895.648	3424
895.769	3458
895.891	3473
896.012	3466
896.134	3466
896.255	3431
896.376	3389
896.498	3348
896.619	3439
896.74	3336
896.861	3412
896.982	3648
897.103	3819
897.224	3622
897.345	3530
897.466	3439
897.587	3534
897.708	3587
897.828	3515
897.949	3469
898.07	3389
898.19	3458
898.311	3610
898.431	3466
898.552	3526
898.672	3618
898.792	3595
898.913	3507
899.033	3431
899.153	3294
899.273	3218
899.393	3329
899.513	3302
899.633	3336
899.753	3344
899.873	3310
899.993	3378
900.113	3355
900.232	3386
900.352	3329
900.472	3264
900.591	3253
900.711	3332
900.83	3233
900.95	3450
901.069	3515
901.189	3382
901.308	3161
901.427	3146
901.546	3199
901.665	3317
901.784	3359
901.904	3211
902.023	3154
902.141	3055
902.26	2998
902.379	3112
902.498	3100
902.617	3055
902.735	3218
902.854	3260
902.973	3237
903.091	3024
903.21	3089
903.328	3097
903.446	3093
903.565	3112
903.683	3180
903.801	3131
903.919	3241
904.038	3294
904.156	3146
904.274	3283
904.392	3233
904.51	3313
904.627	3325
904.745	3435
904.863	3492
904.981	3283
905.098	3199
905.216	3245
905.334	3291
905.451	3291
905.569	3275
905.686	3420
905.803	3488
905.921	3325
906.038	3416
906.155	3336
906.272	3264
906.389	3348
906.506	3237
906.623	3237
906.74	3253
906.857	3218
906.974	3272
907.091	3473
907.208	3584
907.324	3477
907.441	3344
907.557	3287
907.674	3249
907.79	3214
907.907	3279
908.023	3370
908.139	3370
908.256	3291
908.372	3363
908.488	3370
908.604	3253
908.72	3203
908.836	3245
908.952	3245
909.068	3321
909.184	3469
909.3	3420
909.415	3500
909.531	3488
909.647	3298
909.762	3264
909.878	3233
909.993	3386
910.108	3332
910.224	3355
910.339	3412
910.454	3329
910.57	3317
910.685	3241
910.8	3622
910.915	3534
911.03	3439
911.145	3294
911.259	3237
911.374	3351
911.489	3256
911.604	3222
911.718	3127
911.833	3180
911.947	3051
912.062	3020
912.176	3180
912.291	3211
912.405	3207
912.519	3420
912.633	3481
912.748	3321
912.862	3298
912.976	3173
913.09	3081
913.204	3135
913.318	3226
913.431	3325
913.545	3370
913.659	3435
913.772	3332
913.886	3226
914	3222
914.113	3412
914.226	3431
914.34	3374
914.453	3253
914.566	3439
914.68	3310
914.793	3329
914.906	3142
915.019	3135
915.132	3074
915.245	3230
915.358	3249
915.47	3291
915.583	3264
915.696	3287
915.809	3393
915.921	3401
916.034	3249
916.146	3249
916.259	3211
916.371	3393
916.483	3363
916.595	3287
916.708	3359
916.82	3367
916.932	3325
917.044	3389
917.156	3348
917.268	3287
917.38	3291
917.491	3294
917.603	3374
917.715	3443
917.826	3431
917.938	3416
918.049	3287
918.161	3454
918.272	3610
918.384	3549
918.495	3507
918.606	3313
918.717	3294
918.828	3389
918.939	3424
919.05	3313
919.161	3370
919.272	3222
919.383	3321
919.494	3526
919.604	3698
919.715	3481
919.826	3428
919.936	3462
920.047	3610
920.157	3549
920.267	3778
920.378	3648
920.488	3591
920.598	3785
920.708	3953
920.818	3793
920.928	3842
921.038	3998
921.148	4025
921.258	3701
921.368	3648
921.477	3564
921.587	3557
921.697	3428
921.806	3641
921.916	3545
922.025	3393
922.134	3348
922.244	3329
922.353	3424
922.462	3241
922.571	3230
922.68	3104
922.789	3055
922.898	3180
923.007	3104
923.116	3226
923.224	3214
923.333	3214
923.442	3108
923.55	3138
923.659	3135
923.767	3233
923.876	3123
923.984	3222
924.092	3081
924.201	3222
924.309	3226
924.417	3233
924.525	3233
924.633	3218
924.741	4177
924.849	3020
924.956	3268
925.064	3119
925.172	3077
925.279	3138
925.387	3195
925.494	3211
925.602	3370
925.709	3351
925.816	3176
925.924	3283
926.031	3412
926.138	3340
926.245	3374
926.352	3264
926.459	3405
926.566	3488
926.673	3279
926.779	3245
926.886	3268
926.993	3161
927.099	3169
927.206	3123
927.312	3123
927.419	3245
927.525	3192
927.631	3317
927.737	3154
927.843	3123
927.95	3058
928.056	3150
928.162	3203
928.267	3230
928.373	3865
928.479	3321
928.585	3089
928.69	3226
928.796	3325
928.901	3199
929.007	3058
929.112	3226
929.218	3222
929.323	3154
929.428	3173
929.533	3302
929.638	3154
929.743	3138
929.848	3264
929.953	3207
930.058	3169
930.163	3001
930.267	3024
930.372	3226
930.477	3017
930.581	3340
930.685	3195
930.79	3074
930.894	3180
930.998	3085
931.103	3298
931.207	2967
931.311	2922
931.415	2906
931.519	2777
931.623	2796
