Data from test_V78500241_309.txt Node
Date: Fri Mar 25 16:17:20 CST 2022
User: usil
Spectrometer: V785-0024
Trigger mode: 0
Integration Time (sec): 4.000000E-1
Scans to average: 1
Nonlinearity correction enabled: false
Boxcar width: 0
Storing dark spectrum: false
XAxis mode: Wavelengths
Number of Pixels in Spectrum: 1024
>>>>>Begin Spectral Data<<<<<
801.071	2929
801.214	2952
801.356	2910
801.499	2887
801.641	2872
801.783	2944
801.926	3024
802.068	2960
802.211	3020
802.353	3070
802.496	2956
802.638	3001
802.78	3036
802.923	3066
803.065	3005
803.208	2902
803.35	2933
803.492	2941
803.635	2925
803.777	2777
803.919	2864
804.061	3203
804.204	2941
804.346	2914
804.488	2861
804.63	3020
804.773	2899
804.915	2910
805.057	3066
805.199	2918
805.341	3020
805.483	3047
805.626	2975
805.768	2963
805.91	3066
806.052	3123
806.194	3039
806.336	3260
806.478	3032
806.62	2933
806.762	2998
806.904	3058
807.046	3165
807.188	2956
807.33	2922
807.472	2986
807.614	2880
807.756	2956
807.898	2910
808.04	2834
808.182	2971
808.324	2960
808.465	2891
808.607	2864
808.749	2826
808.891	2861
809.033	3020
809.174	2956
809.316	2899
809.458	2906
809.6	2796
809.741	2766
809.883	2769
810.025	2838
810.166	2861
810.308	2880
810.45	2876
810.591	2731
810.733	2727
810.875	2838
811.016	2811
811.158	2800
811.299	2826
811.441	2979
811.582	2902
811.724	2823
811.865	2819
812.007	2941
812.148	2918
812.29	2849
812.431	2895
812.573	2944
812.714	2979
812.855	3001
812.997	3089
813.138	3119
813.279	2998
813.421	2986
813.562	2952
813.703	2880
813.845	2902
813.986	2781
814.127	2743
814.268	2834
814.41	2853
814.551	2781
814.692	2880
814.833	2819
814.974	2883
815.115	2933
815.256	2845
815.397	2819
815.539	2849
815.68	2811
815.821	2826
815.962	2967
816.103	2944
816.244	2883
816.385	2876
816.526	3009
816.666	2925
816.807	2731
816.948	2883
817.089	2944
817.23	2880
817.371	2769
817.512	2823
817.653	2811
817.793	2842
817.934	2853
818.075	2941
818.216	2998
818.356	3001
818.497	2914
818.638	2792
818.778	2807
818.919	2800
819.06	2785
819.2	2906
819.341	2815
819.481	2823
819.622	2925
819.762	3074
819.903	3062
820.043	2887
820.184	2845
820.324	2891
820.465	3001
820.605	3062
820.746	3036
820.886	2937
821.026	3146
821.167	3180
821.307	3237
821.447	3275
821.588	3211
821.728	3211
821.868	3207
822.008	3066
822.149	3207
822.289	3214
822.429	3093
822.569	3058
822.709	3188
822.849	3036
822.99	3039
823.13	3146
823.27	3207
823.41	3097
823.55	3173
823.69	3165
823.83	3199
823.97	3108
824.11	3005
824.25	2967
824.389	3051
824.529	3097
824.669	3070
824.809	3214
824.949	3211
825.089	3245
825.228	3157
825.368	3024
825.508	2952
825.648	3009
825.787	2998
825.927	2994
826.067	2960
826.206	2956
826.346	3020
826.485	3070
826.625	3112
826.765	3275
826.904	3230
827.044	2982
827.183	2937
827.323	2842
827.462	2960
827.601	2918
827.741	2937
827.88	2956
828.02	2853
828.159	2967
828.298	3013
828.437	3119
828.577	3043
828.716	3249
828.855	3066
828.994	2910
829.134	2887
829.273	2944
829.412	2883
829.551	2842
829.69	2906
829.829	2986
829.968	3146
830.107	3020
830.246	3055
830.385	2914
830.524	2899
830.663	2823
830.802	2762
830.941	2655
831.08	2663
831.219	2792
831.357	2754
831.496	2937
831.635	2716
831.774	2655
831.913	2640
832.051	2560
832.19	2598
832.329	2689
832.467	2552
832.606	2480
832.744	2575
832.883	2598
833.022	2575
833.16	2636
833.299	2689
833.437	2705
833.576	2659
833.714	2716
833.852	2701
833.991	2785
834.129	2804
834.267	2819
834.406	2788
834.544	2883
834.682	2876
834.821	2880
834.959	3062
835.097	2857
835.235	3032
835.373	3009
835.511	3028
835.65	2948
835.788	2948
835.926	2838
836.064	2796
836.202	2845
836.34	3097
836.478	3142
836.615	3024
836.753	3173
836.891	3214
837.029	3161
837.167	3142
837.305	3047
837.443	3051
837.58	2944
837.718	3127
837.856	3066
837.993	3020
838.131	3135
838.269	3123
838.406	3097
838.544	3100
838.681	2929
838.819	2883
838.956	2819
839.094	2876
839.231	2925
839.369	3005
839.506	3386
839.643	3211
839.781	3009
839.918	2979
840.055	3028
840.193	3039
840.33	3119
840.467	3108
840.604	3165
840.742	3378
840.879	3039
841.016	3017
841.153	3081
841.29	3329
841.427	3329
841.564	3249
841.701	3287
841.838	3214
841.975	3195
842.112	3211
842.249	3093
842.385	3100
842.522	3268
842.659	3108
842.796	3074
842.933	3100
843.069	3017
843.206	3039
843.343	3199
843.479	3123
843.616	3127
843.752	2872
843.889	2842
844.025	3150
844.162	2887
844.298	3074
844.435	2944
844.571	2899
844.708	3074
844.844	3138
844.98	3218
845.117	3192
845.253	3039
845.389	2975
845.525	3077
845.661	3093
845.798	3028
845.934	3154
846.07	3097
846.206	3226
846.342	3348
846.478	3230
846.614	3077
846.75	3047
846.886	3039
847.022	3230
847.158	3135
847.294	3157
847.429	3222
847.565	3180
847.701	3500
847.837	3032
847.972	3001
848.108	3127
848.244	3150
848.379	2982
848.515	2933
848.65	2925
848.786	2910
848.921	2994
849.057	3097
849.192	3195
849.328	3093
849.463	3055
849.598	3066
849.734	3032
849.869	2941
850.004	2956
850.14	2948
850.275	2887
850.41	2815
850.545	2906
850.68	2902
850.815	2956
850.95	2975
851.085	3184
851.22	3127
851.355	2982
851.49	2971
851.625	3036
851.76	2998
851.895	2933
852.03	2906
852.165	3009
852.299	3123
852.434	3176
852.569	3127
852.703	3123
852.838	3241
852.973	3332
853.107	3344
853.242	3142
853.376	3066
853.511	2960
853.645	3036
853.78	3218
853.914	3138
854.048	3104
854.183	3097
854.317	3127
854.451	3291
854.585	3077
854.72	3085
854.854	3180
854.988	3039
855.122	3119
855.256	2933
855.39	3116
855.524	3237
855.658	3142
855.792	3154
855.926	3233
856.06	3230
856.194	3260
856.327	3142
856.461	3055
856.595	3093
856.729	3135
856.862	3249
856.996	3188
857.13	3218
857.263	3218
857.397	3268
857.53	3104
857.664	3176
857.797	3199
857.931	3275
858.064	3146
858.197	3253
858.331	3108
858.464	3112
858.597	2979
858.731	3074
858.864	3119
858.997	3055
859.13	3165
859.263	3176
859.396	3214
859.529	3062
859.662	3097
859.795	3017
859.928	3112
860.061	3283
860.194	3256
860.327	3142
860.46	3093
860.592	3249
860.725	3237
860.858	3241
860.99	3108
861.123	3055
861.256	3043
861.388	3165
861.521	3850
861.653	3062
861.786	2982
861.918	2975
862.05	3089
862.183	3085
862.315	3119
862.447	3199
862.58	3074
862.712	2975
862.844	2845
862.976	3024
863.108	3039
863.24	3344
863.372	2895
863.504	2956
863.636	2971
863.768	3017
863.9	2956
864.032	2861
864.164	2960
864.296	3074
864.428	3081
864.559	3108
864.691	3085
864.823	3062
864.954	3066
865.086	3028
865.217	2986
865.349	2990
865.48	2967
865.612	3017
865.743	3165
865.875	2975
866.006	2944
866.137	2990
866.269	2960
866.4	2910
866.531	2891
866.662	2906
866.793	2910
866.924	2883
867.055	2929
867.186	2895
867.317	2887
867.448	2849
867.579	2845
867.71	2857
867.841	2811
867.972	2922
868.103	2891
868.233	2899
868.364	2872
868.495	2922
868.625	3097
868.756	3165
868.886	2975
869.017	3001
869.147	3188
869.278	3150
869.408	3081
869.539	3032
869.669	3062
869.799	3051
869.929	3123
870.06	3116
870.19	3317
870.32	3268
870.45	3310
870.58	3355
870.71	3454
870.84	3443
870.97	3275
871.1	3218
871.23	3500
871.36	3450
871.489	3332
871.619	3367
871.749	3405
871.879	3424
872.008	3466
872.138	3332
872.267	3264
872.397	3135
872.526	3093
872.656	3017
872.785	3081
872.915	3245
873.044	3332
873.173	3176
873.303	3237
873.432	3264
873.561	3218
873.69	3146
873.819	3142
873.948	3180
874.077	3108
874.206	3028
874.335	3058
874.464	3237
874.593	3336
874.722	3237
874.851	3393
874.979	3348
875.108	3298
875.237	3211
875.365	3161
875.494	3184
875.623	3203
875.751	3097
875.88	3100
876.008	3184
876.136	3256
876.265	3367
876.393	3488
876.521	3428
876.65	3382
876.778	3310
876.906	3268
877.034	3184
877.162	3230
877.29	3199
877.418	3233
877.546	3237
877.674	3272
877.802	3256
877.93	3272
878.058	3142
878.185	3077
878.313	3184
878.441	3195
878.568	3074
878.696	3138
878.824	3253
878.951	3321
879.079	3431
879.206	3637
879.333	3447
879.461	3325
879.588	3363
879.715	3496
879.842	3564
879.97	3359
880.097	3180
880.224	3116
880.351	3226
880.478	3199
880.605	3173
880.732	3176
880.859	3488
880.986	3283
881.112	3332
881.239	3188
881.366	3074
881.493	3066
881.619	3028
881.746	3074
881.872	3074
881.999	3123
882.125	3127
882.252	3264
882.378	3294
882.505	3450
882.631	3313
882.757	3138
882.883	3233
883.01	3218
883.136	3165
883.262	3089
883.388	3112
883.514	3294
883.64	3409
883.766	3291
883.892	3195
884.018	3298
884.143	3409
884.269	3545
884.395	3207
884.52	3100
884.646	3157
884.772	3108
884.897	3127
885.023	3180
885.148	3359
885.274	3439
885.399	3367
885.524	3279
885.65	3279
885.775	3355
885.9	3256
886.025	3469
886.15	3344
886.275	3294
886.4	3207
886.525	3325
886.65	3272
886.775	3298
886.9	3526
887.025	3648
887.149	3412
887.274	3275
887.399	3176
887.523	3195
887.648	3188
887.773	3188
887.897	3374
888.021	3382
888.146	3260
888.27	3382
888.395	3545
888.519	3450
888.643	3447
888.767	3473
888.891	3294
889.015	3272
889.139	3279
889.263	3222
889.387	3389
889.511	3511
889.635	3466
889.759	3287
889.883	3291
890.006	3416
890.13	3496
890.254	3283
890.377	3393
890.501	3192
890.624	3142
890.748	3302
890.871	3188
890.995	3119
891.118	3077
891.241	3207
891.364	3233
891.488	3279
891.611	3180
891.734	3237
891.857	3268
891.98	3230
892.103	3340
892.226	3253
892.349	3203
892.471	3104
892.594	3233
892.717	3291
892.839	3260
892.962	3275
893.085	3363
893.207	3302
893.33	3131
893.452	3222
893.575	3317
893.697	3298
893.819	3466
893.941	3439
894.064	3428
894.186	3275
894.308	3275
894.43	3428
894.552	3519
894.674	3496
894.796	3268
894.918	3298
895.04	3249
895.161	3443
895.283	3344
895.405	3275
895.526	3374
895.648	3462
895.769	3428
895.891	3450
896.012	3477
896.134	3462
896.255	3397
896.376	3374
896.498	3378
896.619	3443
896.74	3367
896.861	3412
896.982	3675
897.103	3850
897.224	3564
897.345	3549
897.466	3431
897.587	3496
897.708	3644
897.828	3515
897.949	3443
898.07	3344
898.19	3412
898.311	3606
898.431	3420
898.552	3519
898.672	3568
898.792	3603
898.913	3523
899.033	3401
899.153	3313
899.273	3233
899.393	3310
899.513	3302
899.633	3325
899.753	3325
899.873	3264
899.993	3393
900.113	3317
900.232	3378
900.352	3317
900.472	3279
900.591	3180
900.711	3298
900.83	3268
900.95	3378
901.069	3511
901.189	3367
901.308	3184
901.427	3146
901.546	3180
901.665	3302
901.784	3340
901.904	3176
902.023	3161
902.141	3009
902.26	2998
902.379	3154
902.498	3070
902.617	3047
902.735	3237
902.854	3226
902.973	3233
903.091	3036
903.21	3047
903.328	3138
903.446	3093
903.565	3104
903.683	3207
903.801	3146
903.919	3218
904.038	3294
904.156	3192
904.274	3279
904.392	3218
904.51	3302
904.627	3344
904.745	3431
904.863	3500
904.981	3218
905.098	3142
905.216	3245
905.334	3298
905.451	3291
905.569	3291
905.686	3462
905.803	3420
905.921	3298
906.038	3424
906.155	3332
906.272	3245
906.389	3302
906.506	3230
906.623	3249
906.74	3317
906.857	3138
906.974	3279
907.091	3447
907.208	3549
907.324	3477
907.441	3393
907.557	3256
907.674	3241
907.79	3237
907.907	3302
908.023	3389
908.139	3412
908.256	3340
908.372	3370
908.488	3348
908.604	3241
908.72	3268
908.836	3291
908.952	3237
909.068	3325
909.184	3469
909.3	3443
909.415	3538
909.531	3488
909.647	3283
909.762	3302
909.878	3233
909.993	3325
910.108	3370
910.224	3370
910.339	3420
910.454	3359
910.57	3291
910.685	3256
910.8	3538
910.915	3519
911.03	3416
911.145	3249
911.259	3264
911.374	3332
911.489	3233
911.604	3245
911.718	3127
911.833	3169
911.947	3058
912.062	2948
912.176	3173
912.291	3226
912.405	3184
912.519	3424
912.633	3435
912.748	3340
912.862	3260
912.976	3157
913.09	3089
913.204	3123
913.318	3241
913.431	3313
913.545	3279
913.659	3443
913.772	3344
913.886	3173
914	3230
914.113	3359
914.226	3412
914.34	3359
914.453	3211
914.566	3420
914.68	3275
914.793	3351
914.906	3146
915.019	3127
915.132	3081
915.245	3157
915.358	3207
915.47	3253
915.583	3222
915.696	3310
915.809	3401
915.921	3412
916.034	3233
916.146	3272
916.259	3211
916.371	3409
916.483	3367
916.595	3256
916.708	3355
916.82	3313
916.932	3367
917.044	3317
917.156	3351
917.268	3230
917.38	3329
917.491	3291
917.603	3336
917.715	3443
917.826	3477
917.938	3370
918.049	3298
918.161	3447
918.272	3553
918.384	3542
918.495	3481
918.606	3355
918.717	3291
918.828	3340
918.939	3424
919.05	3298
919.161	3378
919.272	3173
919.383	3313
919.494	3458
919.604	3694
919.715	3492
919.826	3382
919.936	3443
920.047	3610
920.157	3549
920.267	3774
920.378	3599
920.488	3549
920.598	3766
920.708	3949
920.818	3846
920.928	3842
921.038	3991
921.148	4002
921.258	3720
921.368	3660
921.477	3561
921.587	3564
921.697	3485
921.806	3629
921.916	3492
922.025	3325
922.134	3332
922.244	3340
922.353	3439
922.462	3275
922.571	3253
922.68	3081
922.789	3081
922.898	3135
923.007	3100
923.116	3195
923.224	3150
923.333	3184
923.442	3108
923.55	3104
923.659	3180
923.767	3230
923.876	3074
923.984	3233
924.092	3100
924.201	3226
924.309	3218
924.417	3256
924.525	3188
924.633	3233
924.741	4162
924.849	3024
924.956	3272
925.064	3097
925.172	3085
925.279	3081
925.387	3199
925.494	3214
925.602	3313
925.709	3310
925.816	3173
925.924	3294
926.031	3393
926.138	3367
926.245	3363
926.352	3291
926.459	3397
926.566	3412
926.673	3313
926.779	3264
926.886	3272
926.993	3169
927.099	3154
927.206	3123
927.312	3093
927.419	3230
927.525	3207
927.631	3260
927.737	3142
927.843	3131
927.95	3032
928.056	3119
928.162	3184
928.267	3241
928.373	3888
928.479	3317
928.585	3047
928.69	3230
928.796	3256
928.901	3188
929.007	3066
929.112	3226
929.218	3154
929.323	3146
929.428	3131
929.533	3313
929.638	3104
929.743	3176
929.848	3253
929.953	3226
930.058	3123
930.163	3017
930.267	3047
930.372	3184
930.477	3047
930.581	3317
930.685	3150
930.79	3032
930.894	3127
930.998	3097
931.103	3279
931.207	2960
931.311	2994
931.415	2918
931.519	2796
931.623	2811
