Data from test_V78500241_1023.txt Node
Date: Fri Mar 25 16:22:17 CST 2022
User: usil
Spectrometer: V785-0024
Trigger mode: 0
Integration Time (sec): 4.000000E-1
Scans to average: 1
Nonlinearity correction enabled: false
Boxcar width: 0
Storing dark spectrum: false
XAxis mode: Wavelengths
Number of Pixels in Spectrum: 1024
>>>>>Begin Spectral Data<<<<<
801.071	2952
801.214	2998
801.356	2933
801.499	2910
801.641	2906
801.783	2933
801.926	3074
802.068	2967
802.211	3039
802.353	3085
802.496	2975
802.638	3024
802.78	3066
802.923	3066
803.065	3039
803.208	2922
803.35	2910
803.492	2952
803.635	2956
803.777	2777
803.919	2845
804.061	3157
804.204	2948
804.346	2902
804.488	2861
804.63	2975
804.773	2857
804.915	2922
805.057	3070
805.199	2925
805.341	2967
805.483	3028
805.626	3032
805.768	2990
805.91	3085
806.052	3135
806.194	3024
806.336	3264
806.478	3081
806.62	2937
806.762	2967
806.904	3055
807.046	3135
807.188	2979
807.33	2887
807.472	2948
807.614	2956
807.756	2990
807.898	2937
808.04	2918
808.182	2990
808.324	2960
808.465	2891
808.607	2868
808.749	2819
808.891	2868
809.033	2971
809.174	3024
809.316	2899
809.458	2925
809.6	2788
809.741	2773
809.883	2830
810.025	2868
810.166	2872
810.308	2899
810.45	2883
810.591	2838
810.733	2758
810.875	2861
811.016	2815
811.158	2792
811.299	2842
811.441	2941
811.582	2925
811.724	2864
811.865	2868
812.007	2925
812.148	2902
812.29	2895
812.431	2918
812.573	2998
812.714	2986
812.855	3066
812.997	3070
813.138	3127
813.279	2998
813.421	3017
813.562	2944
813.703	2872
813.845	2925
813.986	2804
814.127	2792
814.268	2864
814.41	2857
814.551	2857
814.692	2868
814.833	2826
814.974	2910
815.115	2967
815.256	2823
815.397	2834
815.539	2872
815.68	2788
815.821	2842
815.962	2975
816.103	2952
816.244	2922
816.385	2906
816.526	2994
816.666	2975
816.807	2731
816.948	2891
817.089	2929
817.23	2876
817.371	2792
817.512	2823
817.653	2830
817.793	2864
817.934	2887
818.075	2979
818.216	2998
818.356	3036
818.497	2902
818.638	2830
818.778	2876
818.919	2823
819.06	2731
819.2	2918
819.341	2819
819.481	2849
819.622	2952
819.762	3123
819.903	3093
820.043	2975
820.184	2902
820.324	2910
820.465	3051
820.605	3043
820.746	3020
820.886	2982
821.026	3100
821.167	3154
821.307	3268
821.447	3287
821.588	3241
821.728	3237
821.868	3184
822.008	3108
822.149	3199
822.289	3245
822.429	3108
822.569	3081
822.709	3195
822.849	3047
822.99	3055
823.13	3184
823.27	3211
823.41	3119
823.55	3157
823.69	3184
823.83	3203
823.97	3135
824.11	3055
824.25	2975
824.389	3093
824.529	3173
824.669	3070
824.809	3237
824.949	3237
825.089	3237
825.228	3184
825.368	3013
825.508	2944
825.648	3013
825.787	3036
825.927	3043
826.067	2998
826.206	2944
826.346	3074
826.485	3070
826.625	3119
826.765	3283
826.904	3203
827.044	2994
827.183	2960
827.323	2883
827.462	3009
827.601	2956
827.741	2979
827.88	2941
828.02	2895
828.159	2994
828.298	3032
828.437	3127
828.577	3020
828.716	3253
828.855	3077
828.994	2910
829.134	2914
829.273	2933
829.412	2906
829.551	2876
829.69	2922
829.829	2990
829.968	3135
830.107	3032
830.246	3039
830.385	2933
830.524	2887
830.663	2823
830.802	2743
830.941	2670
831.08	2655
831.219	2746
831.357	2743
831.496	2914
831.635	2705
831.774	2655
831.913	2686
832.051	2564
832.19	2579
832.329	2697
832.467	2564
832.606	2484
832.744	2632
832.883	2594
833.022	2625
833.16	2659
833.299	2651
833.437	2716
833.576	2727
833.714	2735
833.852	2758
833.991	2758
834.129	2845
834.267	2819
834.406	2785
834.544	2883
834.682	2918
834.821	2891
834.959	3058
835.097	2899
835.235	3055
835.373	3028
835.511	3028
835.65	3028
835.788	2975
835.926	2838
836.064	2815
836.202	2861
836.34	3123
836.478	3161
836.615	3032
836.753	3138
836.891	3211
837.029	3203
837.167	3085
837.305	3093
837.443	3051
837.58	2994
837.718	3146
837.856	3081
837.993	3024
838.131	3131
838.269	3108
838.406	3055
838.544	3108
838.681	2933
838.819	2933
838.956	2815
839.094	2853
839.231	2948
839.369	3001
839.506	3382
839.643	3237
839.781	3013
839.918	2975
840.055	3074
840.193	3081
840.33	3077
840.467	3100
840.604	3161
840.742	3412
840.879	3051
841.016	3081
841.153	3127
841.29	3367
841.427	3329
841.564	3222
841.701	3310
841.838	3184
841.975	3211
842.112	3211
842.249	3085
842.385	3024
842.522	3264
842.659	3093
842.796	3077
842.933	3116
843.069	3074
843.206	3047
843.343	3180
843.479	3108
843.616	3123
843.752	2880
843.889	2887
844.025	3058
844.162	2906
844.298	3100
844.435	2971
844.571	2941
844.708	3077
844.844	3199
844.98	3237
845.117	3188
845.253	3089
845.389	3017
845.525	3131
845.661	3104
845.798	3020
845.934	3138
846.07	3055
846.206	3256
846.342	3313
846.478	3253
846.614	3093
846.75	3066
846.886	3028
847.022	3230
847.158	3150
847.294	3192
847.429	3298
847.565	3237
847.701	3488
847.837	3039
847.972	3001
848.108	3203
848.244	3123
848.379	3020
848.515	2960
848.65	2963
848.786	2990
848.921	3013
849.057	3085
849.192	3154
849.328	3039
849.463	3077
849.598	3062
849.734	3047
849.869	2929
850.004	2883
850.14	2994
850.275	2933
850.41	2857
850.545	2895
850.68	2914
850.815	2952
850.95	2963
851.085	3199
851.22	3135
851.355	3005
851.49	2948
851.625	3009
851.76	3017
851.895	2929
852.03	2929
852.165	3024
852.299	3112
852.434	3180
852.569	3142
852.703	3180
852.838	3253
852.973	3370
853.107	3317
853.242	3161
853.376	3089
853.511	2979
853.645	3036
853.78	3211
853.914	3119
854.048	3085
854.183	3112
854.317	3146
854.451	3298
854.585	3119
854.72	3081
854.854	3218
854.988	3062
855.122	3085
855.256	3005
855.39	3097
855.524	3260
855.658	3138
855.792	3161
855.926	3233
856.06	3256
856.194	3268
856.327	3161
856.461	3116
856.595	3074
856.729	3138
856.862	3241
856.996	3173
857.13	3211
857.263	3249
857.397	3310
857.53	3150
857.664	3233
857.797	3245
857.931	3306
858.064	3173
858.197	3237
858.331	3176
858.464	3116
858.597	3028
858.731	3173
858.864	3154
858.997	3127
859.13	3157
859.263	3173
859.396	3272
859.529	3100
859.662	3104
859.795	3100
859.928	3135
860.061	3329
860.194	3344
860.327	3176
860.46	3131
860.592	3253
860.725	3302
860.858	3279
860.99	3161
861.123	3074
861.256	3070
861.388	3127
861.521	3896
861.653	3077
861.786	2998
861.918	3039
862.05	3116
862.183	3146
862.315	3230
862.447	3226
862.58	3146
862.712	2933
862.844	2925
862.976	3055
863.108	3055
863.24	3492
863.372	2910
863.504	2994
863.636	2986
863.768	3024
863.9	3001
864.032	2971
864.164	2967
864.296	3051
864.428	3116
864.559	3116
864.691	3150
864.823	3123
864.954	3081
865.086	3119
865.217	3039
865.349	2994
865.48	3055
865.612	3070
865.743	3203
865.875	3017
866.006	2944
866.137	3047
866.269	3005
866.4	2952
866.531	2948
866.662	2895
866.793	2918
866.924	2925
867.055	3017
867.186	2975
867.317	2906
867.448	2899
867.579	2891
867.71	2902
867.841	2876
867.972	2910
868.103	2975
868.233	2902
868.364	2960
868.495	2941
868.625	3108
868.756	3203
868.886	3017
869.017	3020
869.147	3207
869.278	3169
869.408	3074
869.539	3047
869.669	3142
869.799	3081
869.929	3161
870.06	3169
870.19	3340
870.32	3329
870.45	3348
870.58	3367
870.71	3485
870.84	3473
870.97	3294
871.1	3275
871.23	3511
871.36	3458
871.489	3405
871.619	3401
871.749	3454
871.879	3481
872.008	3515
872.138	3386
872.267	3310
872.397	3184
872.526	3119
872.656	3043
872.785	3119
872.915	3264
873.044	3344
873.173	3253
873.303	3287
873.432	3233
873.561	3283
873.69	3203
873.819	3176
873.948	3237
874.077	3146
874.206	3089
874.335	3131
874.464	3222
874.593	3378
874.722	3283
874.851	3393
874.979	3397
875.108	3321
875.237	3230
875.365	3169
875.494	3199
875.623	3287
875.751	3085
875.88	3116
876.008	3165
876.136	3268
876.265	3370
876.393	3549
876.521	3443
876.65	3412
876.778	3370
876.906	3264
877.034	3199
877.162	3260
877.29	3199
877.418	3313
877.546	3256
877.674	3283
877.802	3256
877.93	3287
878.058	3241
878.185	3131
878.313	3226
878.441	3230
878.568	3100
878.696	3169
878.824	3302
878.951	3344
879.079	3458
879.206	3610
879.333	3477
879.461	3367
879.588	3389
879.715	3515
879.842	3618
879.97	3412
880.097	3180
880.224	3169
880.351	3226
880.478	3241
880.605	3222
880.732	3195
880.859	3530
880.986	3336
881.112	3378
881.239	3268
881.366	3123
881.493	3051
881.619	3066
881.746	3104
881.872	3104
881.999	3123
882.125	3203
882.252	3249
882.378	3325
882.505	3466
882.631	3298
882.757	3199
882.883	3218
883.01	3275
883.136	3176
883.262	3119
883.388	3142
883.514	3325
883.64	3401
883.766	3313
883.892	3184
884.018	3237
884.143	3420
884.269	3580
884.395	3268
884.52	3176
884.646	3199
884.772	3161
884.897	3127
885.023	3203
885.148	3359
885.274	3439
885.399	3409
885.524	3317
885.65	3279
885.775	3351
885.9	3321
886.025	3481
886.15	3382
886.275	3332
886.4	3272
886.525	3340
886.65	3302
886.775	3332
886.9	3538
887.025	3629
887.149	3420
887.274	3317
887.399	3195
887.523	3233
887.648	3218
887.773	3249
887.897	3378
888.021	3447
888.146	3329
888.27	3454
888.395	3557
888.519	3412
888.643	3488
888.767	3469
888.891	3283
889.015	3272
889.139	3340
889.263	3264
889.387	3420
889.511	3549
889.635	3454
889.759	3306
889.883	3302
890.006	3397
890.13	3496
890.254	3294
890.377	3348
890.501	3230
890.624	3245
890.748	3329
890.871	3195
890.995	3131
891.118	3085
891.241	3211
891.364	3241
891.488	3370
891.611	3211
891.734	3211
891.857	3283
891.98	3268
892.103	3332
892.226	3298
892.349	3237
892.471	3165
892.594	3256
892.717	3291
892.839	3294
892.962	3329
893.085	3370
893.207	3344
893.33	3188
893.452	3192
893.575	3351
893.697	3283
893.819	3485
893.941	3530
894.064	3469
894.186	3321
894.308	3249
894.43	3458
894.552	3553
894.674	3481
894.796	3294
894.918	3351
895.04	3329
895.161	3435
895.283	3378
895.405	3317
895.526	3386
895.648	3397
895.769	3428
895.891	3466
896.012	3492
896.134	3485
896.255	3458
896.376	3393
896.498	3355
896.619	3431
896.74	3378
896.861	3393
896.982	3713
897.103	3838
897.224	3576
897.345	3507
897.466	3454
897.587	3504
897.708	3682
897.828	3580
897.949	3447
898.07	3355
898.19	3401
898.311	3622
898.431	3496
898.552	3504
898.672	3614
898.792	3625
898.913	3553
899.033	3473
899.153	3287
899.273	3195
899.393	3287
899.513	3332
899.633	3332
899.753	3351
899.873	3329
899.993	3435
900.113	3340
900.232	3382
900.352	3329
900.472	3306
900.591	3230
900.711	3302
900.83	3275
900.95	3454
901.069	3515
901.189	3348
901.308	3199
901.427	3161
901.546	3222
901.665	3306
901.784	3348
901.904	3195
902.023	3138
902.141	3039
902.26	2975
902.379	3154
902.498	3089
902.617	3074
902.735	3245
902.854	3256
902.973	3203
903.091	3097
903.21	3089
903.328	3161
903.446	3176
903.565	3142
903.683	3211
903.801	3188
903.919	3256
904.038	3275
904.156	3192
904.274	3302
904.392	3287
904.51	3325
904.627	3310
904.745	3473
904.863	3557
904.981	3268
905.098	3222
905.216	3287
905.334	3332
905.451	3294
905.569	3321
905.686	3431
905.803	3477
905.921	3294
906.038	3481
906.155	3351
906.272	3264
906.389	3374
906.506	3260
906.623	3241
906.74	3256
906.857	3207
906.974	3294
907.091	3507
907.208	3545
907.324	3511
907.441	3378
907.557	3260
907.674	3272
907.79	3222
907.907	3306
908.023	3424
908.139	3344
908.256	3336
908.372	3363
908.488	3370
908.604	3294
908.72	3253
908.836	3340
908.952	3272
909.068	3329
909.184	3542
909.3	3378
909.415	3504
909.531	3511
909.647	3291
909.762	3283
909.878	3241
909.993	3389
910.108	3367
910.224	3344
910.339	3424
910.454	3355
910.57	3325
910.685	3294
910.8	3595
910.915	3542
911.03	3488
911.145	3272
911.259	3283
911.374	3310
911.489	3256
911.604	3256
911.718	3142
911.833	3192
911.947	3017
912.062	2982
912.176	3154
912.291	3222
912.405	3165
912.519	3450
912.633	3435
912.748	3336
912.862	3306
912.976	3192
913.09	3085
913.204	3146
913.318	3260
913.431	3351
913.545	3355
913.659	3447
913.772	3306
913.886	3279
914	3218
914.113	3386
914.226	3439
914.34	3363
914.453	3180
914.566	3420
914.68	3351
914.793	3329
914.906	3146
915.019	3142
915.132	3055
915.245	3157
915.358	3230
915.47	3260
915.583	3287
915.696	3313
915.809	3378
915.921	3435
916.034	3294
916.146	3260
916.259	3253
916.371	3393
916.483	3355
916.595	3245
916.708	3370
916.82	3340
916.932	3389
917.044	3370
917.156	3355
917.268	3245
917.38	3291
917.491	3302
917.603	3405
917.715	3450
917.826	3443
917.938	3420
918.049	3310
918.161	3454
918.272	3568
918.384	3580
918.495	3485
918.606	3374
918.717	3306
918.828	3397
918.939	3424
919.05	3302
919.161	3363
919.272	3214
919.383	3287
919.494	3507
919.604	3675
919.715	3519
919.826	3447
919.936	3462
920.047	3587
920.157	3568
920.267	3755
920.378	3618
920.488	3603
920.598	3838
920.708	3953
920.818	3800
920.928	3846
921.038	4025
921.148	4029
921.258	3728
921.368	3663
921.477	3549
921.587	3584
921.697	3450
921.806	3633
921.916	3507
922.025	3329
922.134	3336
922.244	3329
922.353	3431
922.462	3291
922.571	3245
922.68	3138
922.789	3100
922.898	3135
923.007	3150
923.116	3188
923.224	3157
923.333	3226
923.442	3131
923.55	3081
923.659	3165
923.767	3237
923.876	3146
923.984	3249
924.092	3112
924.201	3203
924.309	3233
924.417	3237
924.525	3199
924.633	3256
924.741	4158
924.849	3070
924.956	3264
925.064	3123
925.172	3036
925.279	3127
925.387	3211
925.494	3222
925.602	3363
925.709	3351
925.816	3173
925.924	3291
926.031	3401
926.138	3344
926.245	3351
926.352	3233
926.459	3450
926.566	3447
926.673	3325
926.779	3283
926.886	3241
926.993	3188
927.099	3135
927.206	3112
927.312	3146
927.419	3226
927.525	3188
927.631	3237
927.737	3176
927.843	3123
927.95	3024
928.056	3173
928.162	3150
928.267	3241
928.373	3907
928.479	3313
928.585	3055
928.69	3226
928.796	3291
928.901	3173
929.007	3077
929.112	3233
929.218	3165
929.323	3146
929.428	3146
929.533	3310
929.638	3112
929.743	3199
929.848	3268
929.953	3188
930.058	3188
930.163	2982
930.267	3062
930.372	3176
930.477	3043
930.581	3348
930.685	3195
930.79	3077
930.894	3157
930.998	3108
931.103	3249
931.207	2960
931.311	2933
931.415	2895
931.519	2746
931.623	2819
