Data from test_V78500241_70.txt Node
Date: Fri Mar 25 16:15:41 CST 2022
User: usil
Spectrometer: V785-0024
Trigger mode: 0
Integration Time (sec): 4.000000E-1
Scans to average: 1
Nonlinearity correction enabled: false
Boxcar width: 0
Storing dark spectrum: false
XAxis mode: Wavelengths
Number of Pixels in Spectrum: 1024
>>>>>Begin Spectral Data<<<<<
801.071	2948
801.214	2944
801.356	2895
801.499	2948
801.641	2918
801.783	2941
801.926	3074
802.068	2971
802.211	3032
802.353	3055
802.496	2971
802.638	3058
802.78	3085
802.923	3108
803.065	3028
803.208	2918
803.35	2895
803.492	2960
803.635	2929
803.777	2777
803.919	2872
804.061	3211
804.204	2979
804.346	2937
804.488	2853
804.63	3036
804.773	2922
804.915	2922
805.057	3119
805.199	2982
805.341	3028
805.483	3062
805.626	3020
805.768	2952
805.91	3104
806.052	3119
806.194	3051
806.336	3283
806.478	3097
806.62	3009
806.762	2986
806.904	3077
807.046	3211
807.188	3051
807.33	2937
807.472	3005
807.614	2952
807.756	3032
807.898	2925
808.04	2937
808.182	2998
808.324	2975
808.465	2868
808.607	2925
808.749	2804
808.891	2880
809.033	2998
809.174	3005
809.316	2944
809.458	2906
809.6	2811
809.741	2811
809.883	2773
810.025	2864
810.166	2868
810.308	2876
810.45	2880
810.591	2804
810.733	2792
810.875	2861
811.016	2804
811.158	2796
811.299	2842
811.441	2960
811.582	2929
811.724	2880
811.865	2864
812.007	2952
812.148	2922
812.29	2906
812.431	2937
812.573	2967
812.714	3005
812.855	3127
812.997	3081
813.138	3146
813.279	3058
813.421	3001
813.562	2998
813.703	2902
813.845	2925
813.986	2792
814.127	2743
814.268	2845
814.41	2826
814.551	2826
814.692	2883
814.833	2845
814.974	2929
815.115	3017
815.256	2853
815.397	2823
815.539	2868
815.68	2788
815.821	2834
815.962	2971
816.103	2975
816.244	2895
816.385	2861
816.526	2967
816.666	2960
816.807	2743
816.948	2925
817.089	2952
817.23	2872
817.371	2815
817.512	2834
817.653	2883
817.793	2861
817.934	2948
818.075	2963
818.216	3009
818.356	3058
818.497	2880
818.638	2819
818.778	2864
818.919	2785
819.06	2773
819.2	2918
819.341	2842
819.481	2826
819.622	2956
819.762	3176
819.903	3047
820.043	2975
820.184	2914
820.324	2922
820.465	3020
820.605	3058
820.746	3047
820.886	2975
821.026	3138
821.167	3169
821.307	3275
821.447	3275
821.588	3287
821.728	3272
821.868	3249
822.008	3097
822.149	3214
822.289	3287
822.429	3127
822.569	3127
822.709	3169
822.849	3028
822.99	3089
823.13	3195
823.27	3237
823.41	3150
823.55	3161
823.69	3195
823.83	3233
823.97	3093
824.11	3013
824.25	3043
824.389	3119
824.529	3127
824.669	3055
824.809	3233
824.949	3253
825.089	3260
825.228	3157
825.368	3001
825.508	2967
825.648	3020
825.787	3047
825.927	3017
826.067	2990
826.206	2986
826.346	3081
826.485	3062
826.625	3119
826.765	3313
826.904	3207
827.044	2990
827.183	2944
827.323	2845
827.462	2998
827.601	2979
827.741	2922
827.88	2944
828.02	2918
828.159	2994
828.298	3058
828.437	3150
828.577	3108
828.716	3256
828.855	3108
828.994	2914
829.134	2914
829.273	2914
829.412	2864
829.551	2895
829.69	2929
829.829	3005
829.968	3146
830.107	3039
830.246	3058
830.385	2937
830.524	2918
830.663	2842
830.802	2762
830.941	2659
831.08	2670
831.219	2773
831.357	2788
831.496	2979
831.635	2724
831.774	2686
831.913	2697
832.051	2583
832.19	2613
832.329	2693
832.467	2560
832.606	2503
832.744	2613
832.883	2625
833.022	2629
833.16	2651
833.299	2689
833.437	2758
833.576	2746
833.714	2781
833.852	2735
833.991	2788
834.129	2834
834.267	2868
834.406	2807
834.544	2891
834.682	2925
834.821	2899
834.959	3100
835.097	2925
835.235	3066
835.373	3032
835.511	3032
835.65	2963
835.788	2971
835.926	2853
836.064	2853
836.202	2880
836.34	3135
836.478	3161
836.615	3077
836.753	3157
836.891	3226
837.029	3176
837.167	3154
837.305	3123
837.443	3089
837.58	2944
837.718	3135
837.856	3093
837.993	3051
838.131	3161
838.269	3123
838.406	3131
838.544	3131
838.681	2956
838.819	2929
838.956	2792
839.094	2883
839.231	2944
839.369	3070
839.506	3439
839.643	3253
839.781	3047
839.918	2956
840.055	3081
840.193	3077
840.33	3093
840.467	3169
840.604	3180
840.742	3447
840.879	3097
841.016	3093
841.153	3154
841.29	3348
841.427	3317
841.564	3306
841.701	3325
841.838	3253
841.975	3199
842.112	3253
842.249	3131
842.385	3077
842.522	3287
842.659	3104
842.796	3047
842.933	3154
843.069	3066
843.206	3062
843.343	3218
843.479	3131
843.616	3169
843.752	2925
843.889	2910
844.025	3127
844.162	2887
844.298	3119
844.435	2986
844.571	2914
844.708	3108
844.844	3188
844.98	3268
845.117	3184
845.253	3070
845.389	3032
845.525	3119
845.661	3116
845.798	3085
845.934	3154
846.07	3089
846.206	3218
846.342	3329
846.478	3272
846.614	3119
846.75	3085
846.886	3051
847.022	3272
847.158	3154
847.294	3237
847.429	3310
847.565	3226
847.701	3526
847.837	3066
847.972	3028
848.108	3195
848.244	3154
848.379	3024
848.515	2952
848.65	2925
848.786	3001
848.921	3039
849.057	3100
849.192	3192
849.328	3112
849.463	3146
849.598	3104
849.734	3039
849.869	3024
850.004	2960
850.14	2982
850.275	2914
850.41	2834
850.545	2918
850.68	2982
850.815	2960
850.95	2986
851.085	3222
851.22	3135
851.355	3058
851.49	3017
851.625	2979
851.76	3043
851.895	2960
852.03	2937
852.165	3081
852.299	3157
852.434	3203
852.569	3161
852.703	3237
852.838	3283
852.973	3378
853.107	3389
853.242	3203
853.376	3131
853.511	3024
853.645	3024
853.78	3272
853.914	3188
854.048	3119
854.183	3089
854.317	3169
854.451	3317
854.585	3142
854.72	3123
854.854	3226
854.988	3043
855.122	3119
855.256	3024
855.39	3150
855.524	3226
855.658	3222
855.792	3154
855.926	3188
856.06	3253
856.194	3283
856.327	3180
856.461	3112
856.595	3138
856.729	3085
856.862	3253
856.996	3211
857.13	3260
857.263	3279
857.397	3325
857.53	3157
857.664	3222
857.797	3256
857.931	3264
858.064	3165
858.197	3268
858.331	3142
858.464	3127
858.597	3066
858.731	3108
858.864	3146
858.997	3157
859.13	3165
859.263	3249
859.396	3226
859.529	3116
859.662	3112
859.795	3066
859.928	3150
860.061	3336
860.194	3313
860.327	3214
860.46	3154
860.592	3264
860.725	3230
860.858	3279
860.99	3146
861.123	3100
861.256	3070
861.388	3176
861.521	3896
861.653	3077
861.786	3001
861.918	3036
862.05	3093
862.183	3146
862.315	3207
862.447	3214
862.58	3127
862.712	2979
862.844	2880
862.976	3036
863.108	3017
863.24	3329
863.372	2941
863.504	2982
863.636	2960
863.768	3047
863.9	3001
864.032	2937
864.164	2979
864.296	3043
864.428	3123
864.559	3131
864.691	3070
864.823	3085
864.954	3024
865.086	3100
865.217	2979
865.349	2925
865.48	2986
865.612	3036
865.743	3211
865.875	3017
866.006	2941
866.137	2979
866.269	2994
866.4	2982
866.531	2971
866.662	2937
866.793	2906
866.924	2944
867.055	2986
867.186	2944
867.317	2925
867.448	2861
867.579	2895
867.71	2876
867.841	2834
867.972	2941
868.103	2933
868.233	2918
868.364	2914
868.495	2941
868.625	3104
868.756	3214
868.886	2967
869.017	3024
869.147	3188
869.278	3218
869.408	3104
869.539	3036
869.669	3108
869.799	3074
869.929	3157
870.06	3131
870.19	3363
870.32	3348
870.45	3374
870.58	3405
870.71	3454
870.84	3504
870.97	3298
871.1	3283
871.23	3523
871.36	3477
871.489	3336
871.619	3428
871.749	3447
871.879	3462
872.008	3515
872.138	3370
872.267	3329
872.397	3161
872.526	3169
872.656	3043
872.785	3108
872.915	3275
873.044	3313
873.173	3264
873.303	3260
873.432	3272
873.561	3237
873.69	3176
873.819	3184
873.948	3260
874.077	3127
874.206	3055
874.335	3112
874.464	3279
874.593	3378
874.722	3249
874.851	3389
874.979	3386
875.108	3351
875.237	3279
875.365	3173
875.494	3203
875.623	3291
875.751	3116
875.88	3173
876.008	3203
876.136	3241
876.265	3428
876.393	3519
876.521	3454
876.65	3447
876.778	3367
876.906	3264
877.034	3260
877.162	3283
877.29	3256
877.418	3260
877.546	3287
877.674	3291
877.802	3275
877.93	3279
878.058	3192
878.185	3127
878.313	3256
878.441	3264
878.568	3127
878.696	3165
878.824	3272
878.951	3348
879.079	3477
879.206	3625
879.333	3477
879.461	3336
879.588	3409
879.715	3538
879.842	3648
879.97	3447
880.097	3214
880.224	3161
880.351	3199
880.478	3260
880.605	3230
880.732	3188
880.859	3519
880.986	3329
881.112	3370
881.239	3211
881.366	3154
881.493	3039
881.619	3058
881.746	3077
881.872	3157
881.999	3135
882.125	3154
882.252	3283
882.378	3298
882.505	3466
882.631	3313
882.757	3192
882.883	3283
883.01	3260
883.136	3169
883.262	3135
883.388	3150
883.514	3355
883.64	3416
883.766	3317
883.892	3207
884.018	3298
884.143	3458
884.269	3561
884.395	3241
884.52	3214
884.646	3207
884.772	3142
884.897	3131
885.023	3253
885.148	3374
885.274	3454
885.399	3401
885.524	3310
885.65	3283
885.775	3359
885.9	3302
886.025	3435
886.15	3405
886.275	3332
886.4	3291
886.525	3336
886.65	3321
886.775	3336
886.9	3542
887.025	3698
887.149	3428
887.274	3313
887.399	3207
887.523	3226
887.648	3245
887.773	3233
887.897	3336
888.021	3428
888.146	3336
888.27	3485
888.395	3534
888.519	3466
888.643	3466
888.767	3473
888.891	3325
889.015	3298
889.139	3325
889.263	3272
889.387	3416
889.511	3530
889.635	3466
889.759	3340
889.883	3302
890.006	3435
890.13	3526
890.254	3329
890.377	3348
890.501	3199
890.624	3245
890.748	3329
890.871	3218
890.995	3138
891.118	3089
891.241	3195
891.364	3272
891.488	3306
891.611	3218
891.734	3264
891.857	3298
891.98	3275
892.103	3344
892.226	3294
892.349	3241
892.471	3173
892.594	3249
892.717	3275
892.839	3298
892.962	3321
893.085	3428
893.207	3332
893.33	3195
893.452	3260
893.575	3397
893.697	3279
893.819	3504
893.941	3523
894.064	3511
894.186	3329
894.308	3329
894.43	3443
894.552	3549
894.674	3488
894.796	3306
894.918	3340
895.04	3317
895.161	3511
895.283	3431
895.405	3367
895.526	3435
895.648	3450
895.769	3443
895.891	3496
896.012	3511
896.134	3481
896.255	3443
896.376	3405
896.498	3367
896.619	3454
896.74	3359
896.861	3416
896.982	3736
897.103	3918
897.224	3641
897.345	3538
897.466	3477
897.587	3526
897.708	3686
897.828	3595
897.949	3450
898.07	3420
898.19	3466
898.311	3682
898.431	3466
898.552	3511
898.672	3625
898.792	3622
898.913	3534
899.033	3469
899.153	3317
899.273	3218
899.393	3306
899.513	3302
899.633	3310
899.753	3386
899.873	3313
899.993	3416
900.113	3386
900.232	3420
900.352	3325
900.472	3306
900.591	3241
900.711	3310
900.83	3313
900.95	3458
901.069	3519
901.189	3367
901.308	3188
901.427	3150
901.546	3192
901.665	3336
901.784	3336
901.904	3214
902.023	3188
902.141	3020
902.26	3043
902.379	3119
902.498	3074
902.617	3089
902.735	3233
902.854	3283
902.973	3253
903.091	3119
903.21	3100
903.328	3176
903.446	3108
903.565	3169
903.683	3233
903.801	3161
903.919	3313
904.038	3336
904.156	3241
904.274	3313
904.392	3287
904.51	3359
904.627	3374
904.745	3447
904.863	3530
904.981	3310
905.098	3207
905.216	3283
905.334	3363
905.451	3325
905.569	3321
905.686	3469
905.803	3466
905.921	3291
906.038	3473
906.155	3428
906.272	3294
906.389	3340
906.506	3245
906.623	3268
906.74	3321
906.857	3226
906.974	3332
907.091	3496
907.208	3637
907.324	3469
907.441	3386
907.557	3222
907.674	3275
907.79	3233
907.907	3302
908.023	3424
908.139	3397
908.256	3359
908.372	3382
908.488	3389
908.604	3294
908.72	3237
908.836	3317
908.952	3306
909.068	3355
909.184	3545
909.3	3393
909.415	3515
909.531	3485
909.647	3344
909.762	3317
909.878	3351
909.993	3416
910.108	3359
910.224	3401
910.339	3393
910.454	3382
910.57	3306
910.685	3253
910.8	3614
910.915	3507
911.03	3450
911.145	3291
911.259	3294
911.374	3351
911.489	3279
911.604	3264
911.718	3131
911.833	3192
911.947	3108
912.062	3028
912.176	3218
912.291	3256
912.405	3287
912.519	3439
912.633	3542
912.748	3393
912.862	3287
912.976	3211
913.09	3058
913.204	3165
913.318	3272
913.431	3378
913.545	3359
913.659	3443
913.772	3355
913.886	3253
914	3245
914.113	3359
914.226	3393
914.34	3435
914.453	3214
914.566	3469
914.68	3348
914.793	3355
914.906	3218
915.019	3138
915.132	3116
915.245	3211
915.358	3192
915.47	3245
915.583	3321
915.696	3374
915.809	3443
915.921	3469
916.034	3321
916.146	3256
916.259	3222
916.371	3454
916.483	3412
916.595	3268
916.708	3382
916.82	3359
916.932	3386
917.044	3367
917.156	3374
917.268	3279
917.38	3332
917.491	3321
917.603	3405
917.715	3504
917.826	3496
917.938	3462
918.049	3294
918.161	3443
918.272	3629
918.384	3606
918.495	3576
918.606	3374
918.717	3279
918.828	3397
918.939	3473
919.05	3336
919.161	3401
919.272	3211
919.383	3325
919.494	3564
919.604	3705
919.715	3519
919.826	3469
919.936	3515
920.047	3663
920.157	3561
920.267	3800
920.378	3671
920.488	3595
920.598	3804
920.708	4017
920.818	3861
920.928	3861
921.038	4078
921.148	3998
921.258	3736
921.368	3667
921.477	3633
921.587	3584
921.697	3511
921.806	3663
921.916	3553
922.025	3454
922.134	3409
922.244	3340
922.353	3500
922.462	3249
922.571	3245
922.68	3150
922.789	3135
922.898	3169
923.007	3135
923.116	3230
923.224	3226
923.333	3233
923.442	3100
923.55	3116
923.659	3161
923.767	3256
923.876	3138
923.984	3260
924.092	3176
924.201	3256
924.309	3249
924.417	3310
924.525	3211
924.633	3256
924.741	4211
924.849	3066
924.956	3275
925.064	3116
925.172	3093
925.279	3116
925.387	3241
925.494	3241
925.602	3424
925.709	3393
925.816	3253
925.924	3340
926.031	3401
926.138	3359
926.245	3397
926.352	3279
926.459	3435
926.566	3526
926.673	3355
926.779	3241
926.886	3272
926.993	3199
927.099	3157
927.206	3157
927.312	3180
927.419	3264
927.525	3218
927.631	3302
927.737	3192
927.843	3154
927.95	3058
928.056	3142
928.162	3230
928.267	3294
928.373	3861
928.479	3367
928.585	3081
928.69	3253
928.796	3272
928.901	3222
929.007	3047
929.112	3241
929.218	3249
929.323	3188
929.428	3192
929.533	3367
929.638	3169
929.743	3203
929.848	3283
929.953	3279
930.058	3184
930.163	3017
930.267	3085
930.372	3241
930.477	3058
930.581	3317
930.685	3237
930.79	3074
930.894	3131
930.998	3116
931.103	3321
931.207	3009
931.311	2982
931.415	2922
931.519	2819
931.623	2861
