Data from test_V78500241_96.txt Node
Date: Fri Mar 25 16:15:52 CST 2022
User: usil
Spectrometer: V785-0024
Trigger mode: 0
Integration Time (sec): 4.000000E-1
Scans to average: 1
Nonlinearity correction enabled: false
Boxcar width: 0
Storing dark spectrum: false
XAxis mode: Wavelengths
Number of Pixels in Spectrum: 1024
>>>>>Begin Spectral Data<<<<<
801.071	2914
801.214	2960
801.356	2910
801.499	2952
801.641	2941
801.783	2960
801.926	3081
802.068	2982
802.211	3020
802.353	3093
802.496	2998
802.638	3074
802.78	3070
802.923	3119
803.065	3058
803.208	2948
803.35	2975
803.492	2986
803.635	2979
803.777	2804
803.919	2891
804.061	3237
804.204	2986
804.346	2956
804.488	2910
804.63	2998
804.773	2906
804.915	2941
805.057	3135
805.199	2979
805.341	3051
805.483	3055
805.626	3066
805.768	3013
805.91	3123
806.052	3150
806.194	3093
806.336	3237
806.478	3070
806.62	2990
806.762	3020
806.904	3066
807.046	3230
807.188	3024
807.33	2952
807.472	3032
807.614	2956
807.756	3039
807.898	2986
808.04	2918
808.182	3001
808.324	2963
808.465	2922
808.607	2941
808.749	2842
808.891	2906
809.033	2986
809.174	3032
809.316	2922
809.458	2944
809.6	2826
809.741	2804
809.883	2842
810.025	2887
810.166	2910
810.308	2910
810.45	2929
810.591	2796
810.733	2823
810.875	2853
811.016	2849
811.158	2804
811.299	2838
811.441	2979
811.582	2960
811.724	2891
811.865	2857
812.007	2948
812.148	2880
812.29	2902
812.431	2944
812.573	2952
812.714	3017
812.855	3104
812.997	3100
813.138	3150
813.279	3085
813.421	3020
813.562	3013
813.703	2925
813.845	2933
813.986	2830
814.127	2746
814.268	2887
814.41	2891
814.551	2872
814.692	2891
814.833	2849
814.974	2910
815.115	3032
815.256	2864
815.397	2868
815.539	2872
815.68	2781
815.821	2807
815.962	2952
816.103	2990
816.244	2914
816.385	2899
816.526	3013
816.666	3005
816.807	2785
816.948	2933
817.089	2948
817.23	2914
817.371	2807
817.512	2830
817.653	2902
817.793	2838
817.934	2941
818.075	2986
818.216	3081
818.356	3055
818.497	2925
818.638	2845
818.778	2857
818.919	2819
819.06	2815
819.2	2902
819.341	2842
819.481	2804
819.622	2948
819.762	3180
819.903	3070
820.043	2944
820.184	2929
820.324	2906
820.465	3051
820.605	3062
820.746	3066
820.886	2960
821.026	3138
821.167	3184
821.307	3279
821.447	3329
821.588	3256
821.728	3230
821.868	3233
822.008	3138
822.149	3214
822.289	3245
822.429	3146
822.569	3089
822.709	3199
822.849	3097
822.99	3077
823.13	3207
823.27	3230
823.41	3116
823.55	3211
823.69	3173
823.83	3203
823.97	3154
824.11	3062
824.25	3077
824.389	3089
824.529	3150
824.669	3085
824.809	3192
824.949	3313
825.089	3245
825.228	3207
825.368	3055
825.508	2994
825.648	3024
825.787	3047
825.927	3047
826.067	2975
826.206	2979
826.346	3104
826.485	3127
826.625	3116
826.765	3279
826.904	3279
827.044	3058
827.183	2979
827.323	2883
827.462	3039
827.601	2925
827.741	2998
827.88	2979
828.02	2868
828.159	2998
828.298	3077
828.437	3150
828.577	3074
828.716	3321
828.855	3146
828.994	2986
829.134	2906
829.273	2952
829.412	2883
829.551	2899
829.69	2922
829.829	3001
829.968	3184
830.107	3077
830.246	3062
830.385	2956
830.524	2906
830.663	2838
830.802	2796
830.941	2682
831.08	2693
831.219	2804
831.357	2811
831.496	2982
831.635	2781
831.774	2716
831.913	2682
832.051	2560
832.19	2594
832.329	2724
832.467	2564
832.606	2514
832.744	2610
832.883	2606
833.022	2632
833.16	2682
833.299	2731
833.437	2746
833.576	2724
833.714	2769
833.852	2743
833.991	2815
834.129	2857
834.267	2872
834.406	2842
834.544	2902
834.682	2883
834.821	2918
834.959	3108
835.097	2925
835.235	3112
835.373	2998
835.511	3020
835.65	2956
835.788	2979
835.926	2876
836.064	2807
836.202	2887
836.34	3119
836.478	3157
836.615	3058
836.753	3188
836.891	3237
837.029	3207
837.167	3165
837.305	3112
837.443	3066
837.58	3001
837.718	3192
837.856	3093
837.993	3043
838.131	3146
838.269	3131
838.406	3138
838.544	3150
838.681	2990
838.819	2956
838.956	2826
839.094	2883
839.231	2944
839.369	3066
839.506	3378
839.643	3203
839.781	3047
839.918	2998
840.055	3135
840.193	3051
840.33	3112
840.467	3135
840.604	3176
840.742	3428
840.879	3089
841.016	3089
841.153	3161
841.29	3370
841.427	3363
841.564	3306
841.701	3393
841.838	3287
841.975	3218
842.112	3241
842.249	3119
842.385	3081
842.522	3313
842.659	3116
842.796	3100
842.933	3119
843.069	3062
843.206	3074
843.343	3222
843.479	3131
843.616	3199
843.752	2952
843.889	2872
844.025	3081
844.162	2910
844.298	3116
844.435	2971
844.571	2941
844.708	3112
844.844	3218
844.98	3272
845.117	3272
845.253	3089
845.389	3062
845.525	3161
845.661	3146
845.798	3051
845.934	3131
846.07	3074
846.206	3256
846.342	3340
846.478	3260
846.614	3127
846.75	3123
846.886	3093
847.022	3302
847.158	3180
847.294	3245
847.429	3256
847.565	3272
847.701	3481
847.837	3066
847.972	3058
848.108	3184
848.244	3173
848.379	3020
848.515	2979
848.65	2967
848.786	2990
848.921	3047
849.057	3150
849.192	3146
849.328	3131
849.463	3123
849.598	3032
849.734	3055
849.869	3017
850.004	2971
850.14	3001
850.275	2910
850.41	2864
850.545	2910
850.68	2967
850.815	3005
850.95	2986
851.085	3211
851.22	3150
851.355	3070
851.49	2990
851.625	3009
851.76	3066
851.895	2982
852.03	2948
852.165	3093
852.299	3142
852.434	3233
852.569	3154
852.703	3180
852.838	3313
852.973	3363
853.107	3367
853.242	3150
853.376	3131
853.511	3009
853.645	3085
853.78	3272
853.914	3150
854.048	3112
854.183	3097
854.317	3176
854.451	3317
854.585	3169
854.72	3142
854.854	3233
854.988	3043
855.122	3093
855.256	3039
855.39	3161
855.524	3275
855.658	3199
855.792	3176
855.926	3245
856.06	3203
856.194	3294
856.327	3184
856.461	3112
856.595	3116
856.729	3108
856.862	3226
856.996	3214
857.13	3211
857.263	3275
857.397	3340
857.53	3150
857.664	3203
857.797	3272
857.931	3317
858.064	3161
858.197	3237
858.331	3154
858.464	3135
858.597	3039
858.731	3150
858.864	3169
858.997	3123
859.13	3180
859.263	3184
859.396	3207
859.529	3157
859.662	3112
859.795	3112
859.928	3199
860.061	3283
860.194	3336
860.327	3184
860.46	3150
860.592	3249
860.725	3256
860.858	3306
860.99	3138
861.123	3070
861.256	3066
861.388	3184
861.521	3717
861.653	3058
861.786	3024
861.918	3074
862.05	3070
862.183	3112
862.315	3203
862.447	3214
862.58	3104
862.712	2979
862.844	2876
862.976	3062
863.108	2990
863.24	3439
863.372	2929
863.504	3024
863.636	2941
863.768	3047
863.9	2986
864.032	2944
864.164	2982
864.296	3077
864.428	3131
864.559	3146
864.691	3100
864.823	3116
864.954	3074
865.086	3085
865.217	3043
865.349	2986
865.48	3043
865.612	3066
865.743	3173
865.875	3028
866.006	2952
866.137	3005
866.269	2956
866.4	2941
866.531	2895
866.662	2918
866.793	2929
866.924	2902
867.055	3005
867.186	2922
867.317	2937
867.448	2861
867.579	2910
867.71	2902
867.841	2811
867.972	2925
868.103	2891
868.233	2910
868.364	2902
868.495	2952
868.625	3142
868.756	3192
868.886	2986
869.017	3051
869.147	3154
869.278	3188
869.408	3085
869.539	3074
869.669	3108
869.799	3062
869.929	3154
870.06	3116
870.19	3321
870.32	3325
870.45	3336
870.58	3382
870.71	3466
870.84	3488
870.97	3294
871.1	3245
871.23	3507
871.36	3462
871.489	3374
871.619	3435
871.749	3454
871.879	3515
872.008	3496
872.138	3412
872.267	3306
872.397	3207
872.526	3135
872.656	3055
872.785	3142
872.915	3260
873.044	3359
873.173	3275
873.303	3260
873.432	3279
873.561	3287
873.69	3192
873.819	3138
873.948	3173
874.077	3108
874.206	3081
874.335	3100
874.464	3249
874.593	3344
874.722	3283
874.851	3454
874.979	3389
875.108	3332
875.237	3203
875.365	3203
875.494	3192
875.623	3237
875.751	3131
875.88	3161
876.008	3249
876.136	3264
876.265	3355
876.393	3549
876.521	3443
876.65	3397
876.778	3370
876.906	3272
877.034	3180
877.162	3233
877.29	3169
877.418	3306
877.546	3253
877.674	3294
877.802	3268
877.93	3237
878.058	3119
878.185	3135
878.313	3199
878.441	3226
878.568	3100
878.696	3192
878.824	3287
878.951	3348
879.079	3469
879.206	3648
879.333	3496
879.461	3348
879.588	3416
879.715	3500
879.842	3625
879.97	3405
880.097	3226
880.224	3150
880.351	3203
880.478	3260
880.605	3199
880.732	3195
880.859	3481
880.986	3313
881.112	3332
881.239	3230
881.366	3119
881.493	3077
881.619	3070
881.746	3074
881.872	3116
881.999	3116
882.125	3218
882.252	3249
882.378	3329
882.505	3454
882.631	3279
882.757	3169
882.883	3256
883.01	3260
883.136	3180
883.262	3138
883.388	3100
883.514	3321
883.64	3401
883.766	3359
883.892	3218
884.018	3245
884.143	3435
884.269	3625
884.395	3253
884.52	3173
884.646	3180
884.772	3161
884.897	3138
885.023	3237
885.148	3367
885.274	3477
885.399	3340
885.524	3317
885.65	3302
885.775	3344
885.9	3302
886.025	3473
886.15	3405
886.275	3298
886.4	3275
886.525	3348
886.65	3306
886.775	3317
886.9	3519
887.025	3641
887.149	3462
887.274	3256
887.399	3165
887.523	3245
887.648	3222
887.773	3218
887.897	3412
888.021	3409
888.146	3355
888.27	3443
888.395	3564
888.519	3435
888.643	3458
888.767	3485
888.891	3329
889.015	3241
889.139	3329
889.263	3260
889.387	3439
889.511	3572
889.635	3443
889.759	3310
889.883	3313
890.006	3409
890.13	3492
890.254	3294
890.377	3374
890.501	3218
890.624	3203
890.748	3329
890.871	3218
890.995	3104
891.118	3093
891.241	3211
891.364	3233
891.488	3359
891.611	3211
891.734	3272
891.857	3287
891.98	3230
892.103	3355
892.226	3321
892.349	3272
892.471	3154
892.594	3294
892.717	3294
892.839	3287
892.962	3325
893.085	3378
893.207	3340
893.33	3169
893.452	3211
893.575	3374
893.697	3287
893.819	3507
893.941	3523
894.064	3450
894.186	3264
894.308	3310
894.43	3485
894.552	3599
894.674	3485
894.796	3317
894.918	3348
895.04	3302
895.161	3466
895.283	3416
895.405	3363
895.526	3378
895.648	3450
895.769	3435
895.891	3504
896.012	3496
896.134	3538
896.255	3447
896.376	3428
896.498	3435
896.619	3481
896.74	3355
896.861	3428
896.982	3663
897.103	3892
897.224	3637
897.345	3545
897.466	3492
897.587	3572
897.708	3663
897.828	3530
897.949	3488
898.07	3370
898.19	3447
898.311	3614
898.431	3462
898.552	3561
898.672	3637
898.792	3561
898.913	3576
899.033	3469
899.153	3344
899.273	3264
899.393	3287
899.513	3344
899.633	3393
899.753	3355
899.873	3325
899.993	3412
900.113	3378
900.232	3454
900.352	3409
900.472	3363
900.591	3226
900.711	3313
900.83	3249
900.95	3473
901.069	3545
901.189	3435
901.308	3195
901.427	3154
901.546	3218
901.665	3310
901.784	3405
901.904	3207
902.023	3165
902.141	3055
902.26	3039
902.379	3165
902.498	3074
902.617	3085
902.735	3211
902.854	3260
902.973	3211
903.091	3074
903.21	3097
903.328	3169
903.446	3138
903.565	3142
903.683	3214
903.801	3104
903.919	3253
904.038	3332
904.156	3173
904.274	3321
904.392	3249
904.51	3321
904.627	3389
904.745	3466
904.863	3564
904.981	3283
905.098	3211
905.216	3291
905.334	3325
905.451	3329
905.569	3310
905.686	3428
905.803	3466
905.921	3306
906.038	3473
906.155	3374
906.272	3283
906.389	3374
906.506	3211
906.623	3260
906.74	3313
906.857	3230
906.974	3268
907.091	3466
907.208	3557
907.324	3534
907.441	3416
907.557	3260
907.674	3253
907.79	3222
907.907	3317
908.023	3420
908.139	3397
908.256	3313
908.372	3401
908.488	3382
908.604	3264
908.72	3291
908.836	3348
908.952	3363
909.068	3397
909.184	3526
909.3	3450
909.415	3526
909.531	3481
909.647	3313
909.762	3348
909.878	3329
909.993	3351
910.108	3367
910.224	3336
910.339	3401
910.454	3348
910.57	3336
910.685	3272
910.8	3618
910.915	3595
911.03	3488
911.145	3287
911.259	3321
911.374	3348
911.489	3279
911.604	3237
911.718	3165
911.833	3169
911.947	3058
912.062	3039
912.176	3222
912.291	3249
912.405	3256
912.519	3458
912.633	3526
912.748	3374
912.862	3298
912.976	3218
913.09	3131
913.204	3161
913.318	3245
913.431	3340
913.545	3351
913.659	3420
913.772	3336
913.886	3272
914	3241
914.113	3401
914.226	3469
914.34	3409
914.453	3214
914.566	3420
914.68	3332
914.793	3351
914.906	3157
915.019	3142
915.132	3127
915.245	3207
915.358	3211
915.47	3294
915.583	3321
915.696	3321
915.809	3447
915.921	3447
916.034	3283
916.146	3264
916.259	3268
916.371	3405
916.483	3382
916.595	3302
916.708	3378
916.82	3344
916.932	3409
917.044	3409
917.156	3370
917.268	3294
917.38	3336
917.491	3313
917.603	3367
917.715	3454
917.826	3462
917.938	3393
918.049	3291
918.161	3500
918.272	3587
918.384	3599
918.495	3576
918.606	3359
918.717	3313
918.828	3420
918.939	3424
919.05	3363
919.161	3393
919.272	3195
919.383	3313
919.494	3492
919.604	3713
919.715	3485
919.826	3409
919.936	3431
920.047	3614
920.157	3557
920.267	3778
920.378	3652
920.488	3595
920.598	3831
920.708	3998
920.818	3873
920.928	3819
921.038	4048
921.148	4017
921.258	3770
921.368	3690
921.477	3663
921.587	3595
921.697	3507
921.806	3709
921.916	3507
922.025	3363
922.134	3386
922.244	3302
922.353	3454
922.462	3294
922.571	3260
922.68	3123
922.789	3093
922.898	3150
923.007	3123
923.116	3230
923.224	3222
923.333	3218
923.442	3116
923.55	3116
923.659	3169
923.767	3230
923.876	3127
923.984	3268
924.092	3108
924.201	3226
924.309	3245
924.417	3306
924.525	3230
924.633	3317
924.741	4188
924.849	3100
924.956	3340
925.064	3146
925.172	3036
925.279	3154
925.387	3222
925.494	3253
925.602	3340
925.709	3340
925.816	3211
925.924	3344
926.031	3397
926.138	3351
926.245	3389
926.352	3321
926.459	3443
926.566	3542
926.673	3359
926.779	3268
926.886	3279
926.993	3165
927.099	3161
927.206	3157
927.312	3146
927.419	3233
927.525	3222
927.631	3317
927.737	3169
927.843	3146
927.95	3039
928.056	3112
928.162	3199
928.267	3287
928.373	3823
928.479	3370
928.585	3112
928.69	3268
928.796	3298
928.901	3195
929.007	3097
929.112	3207
929.218	3211
929.323	3169
929.428	3192
929.533	3386
929.638	3161
929.743	3180
929.848	3272
929.953	3222
930.058	3165
930.163	3020
930.267	3051
930.372	3237
930.477	3055
930.581	3355
930.685	3173
930.79	3081
930.894	3112
930.998	3074
931.103	3279
931.207	3017
931.311	2979
931.415	2937
931.519	2792
931.623	2838
