Data from test_V78500241_1252.txt Node
Date: Fri Mar 25 16:23:52 CST 2022
User: usil
Spectrometer: V785-0024
Trigger mode: 0
Integration Time (sec): 4.000000E-1
Scans to average: 1
Nonlinearity correction enabled: false
Boxcar width: 0
Storing dark spectrum: false
XAxis mode: Wavelengths
Number of Pixels in Spectrum: 1024
>>>>>Begin Spectral Data<<<<<
801.071	2918
801.214	2906
801.356	2857
801.499	2902
801.641	2868
801.783	2948
801.926	3066
802.068	2963
802.211	3017
802.353	3032
802.496	2910
802.638	2982
802.78	3005
802.923	3070
803.065	3020
803.208	2887
803.35	2925
803.492	2960
803.635	2902
803.777	2731
803.919	2861
804.061	3192
804.204	2952
804.346	2895
804.488	2819
804.63	2941
804.773	2864
804.915	2883
805.057	3051
805.199	2941
805.341	2975
805.483	3039
805.626	2941
805.768	2933
805.91	3074
806.052	3100
806.194	3062
806.336	3192
806.478	3005
806.62	2937
806.762	2990
806.904	3074
807.046	3161
807.188	2975
807.33	2925
807.472	2975
807.614	2906
807.756	2979
807.898	2906
808.04	2941
808.182	2952
808.324	2956
808.465	2902
808.607	2849
808.749	2769
808.891	2838
809.033	2963
809.174	2929
809.316	2880
809.458	2864
809.6	2766
809.741	2758
809.883	2743
810.025	2811
810.166	2842
810.308	2823
810.45	2834
810.591	2754
810.733	2769
810.875	2842
811.016	2769
811.158	2781
811.299	2792
811.441	2925
811.582	2868
811.724	2838
811.865	2807
812.007	2906
812.148	2880
812.29	2838
812.431	2880
812.573	2899
812.714	2971
812.855	3047
812.997	3070
813.138	3108
813.279	2971
813.421	2982
813.562	2929
813.703	2880
813.845	2857
813.986	2754
814.127	2727
814.268	2811
814.41	2845
814.551	2796
814.692	2864
814.833	2796
814.974	2891
815.115	2967
815.256	2834
815.397	2800
815.539	2853
815.68	2792
815.821	2785
815.962	2937
816.103	2937
816.244	2868
816.385	2868
816.526	2963
816.666	2948
816.807	2743
816.948	2906
817.089	2883
817.23	2823
817.371	2758
817.512	2800
817.653	2819
817.793	2788
817.934	2887
818.075	2948
818.216	2982
818.356	2998
818.497	2857
818.638	2781
818.778	2845
818.919	2811
819.06	2746
819.2	2872
819.341	2823
819.481	2773
819.622	2933
819.762	3066
819.903	3058
820.043	2906
820.184	2861
820.324	2914
820.465	3009
820.605	3017
820.746	3001
820.886	2902
821.026	3089
821.167	3119
821.307	3230
821.447	3272
821.588	3211
821.728	3165
821.868	3188
822.008	3081
822.149	3214
822.289	3253
822.429	3089
822.569	3047
822.709	3180
822.849	3017
822.99	3051
823.13	3127
823.27	3176
823.41	3093
823.55	3142
823.69	3135
823.83	3161
823.97	3070
824.11	2963
824.25	2990
824.389	3066
824.529	3081
824.669	3024
824.809	3180
824.949	3272
825.089	3230
825.228	3180
825.368	3013
825.508	2994
825.648	2979
825.787	3017
825.927	3009
826.067	2975
826.206	2990
826.346	3070
826.485	3077
826.625	3081
826.765	3287
826.904	3214
827.044	3017
827.183	2952
827.323	2880
827.462	3013
827.601	2910
827.741	2899
827.88	2990
828.02	2864
828.159	2982
828.298	3066
828.437	3119
828.577	3093
828.716	3241
828.855	3135
828.994	2941
829.134	2914
829.273	2948
829.412	2914
829.551	2864
829.69	2914
829.829	2979
829.968	3176
830.107	3062
830.246	3097
830.385	2963
830.524	2929
830.663	2842
830.802	2750
830.941	2697
831.08	2682
831.219	2819
831.357	2781
831.496	3005
831.635	2766
831.774	2693
831.913	2697
832.051	2590
832.19	2629
832.329	2720
832.467	2549
832.606	2507
832.744	2625
832.883	2621
833.022	2625
833.16	2674
833.299	2708
833.437	2724
833.576	2743
833.714	2727
833.852	2788
833.991	2807
834.129	2895
834.267	2861
834.406	2845
834.544	2910
834.682	2899
834.821	2906
834.959	3077
835.097	2914
835.235	3116
835.373	3036
835.511	3032
835.65	2990
835.788	2975
835.926	2842
836.064	2838
836.202	2891
836.34	3127
836.478	3157
836.615	3070
836.753	3184
836.891	3226
837.029	3203
837.167	3142
837.305	3070
837.443	3077
837.58	3028
837.718	3157
837.856	3123
837.993	3055
838.131	3173
838.269	3150
838.406	3138
838.544	3100
838.681	2967
838.819	2933
838.956	2857
839.094	2853
839.231	2929
839.369	3066
839.506	3420
839.643	3222
839.781	3070
839.918	2975
840.055	3097
840.193	3108
840.33	3116
840.467	3135
840.604	3157
840.742	3428
840.879	3081
841.016	3085
841.153	3173
841.29	3359
841.427	3344
841.564	3264
841.701	3351
841.838	3253
841.975	3218
842.112	3195
842.249	3116
842.385	3093
842.522	3272
842.659	3142
842.796	3066
842.933	3138
843.069	3066
843.206	3070
843.343	3176
843.479	3131
843.616	3173
843.752	2956
843.889	2933
844.025	3154
844.162	2941
844.298	3081
844.435	2963
844.571	2975
844.708	3119
844.844	3184
844.98	3260
845.117	3245
845.253	3123
845.389	3024
845.525	3100
845.661	3108
845.798	3062
845.934	3127
846.07	3089
846.206	3241
846.342	3321
846.478	3264
846.614	3089
846.75	3066
846.886	3066
847.022	3253
847.158	3150
847.294	3203
847.429	3332
847.565	3241
847.701	3530
847.837	3047
847.972	3017
848.108	3249
848.244	3192
848.379	3013
848.515	2941
848.65	2952
848.786	2994
848.921	3024
849.057	3169
849.192	3142
849.328	3093
849.463	3157
849.598	3077
849.734	3070
849.869	2998
850.004	2929
850.14	3013
850.275	2967
850.41	2876
850.545	2910
850.68	2929
850.815	2967
850.95	2979
851.085	3245
851.22	3154
851.355	3062
851.49	3009
851.625	3009
851.76	3028
851.895	2982
852.03	2960
852.165	3074
852.299	3173
852.434	3165
852.569	3184
852.703	3195
852.838	3268
852.973	3340
853.107	3351
853.242	3173
853.376	3123
853.511	2990
853.645	3051
853.78	3264
853.914	3173
854.048	3142
854.183	3176
854.317	3157
854.451	3336
854.585	3173
854.72	3100
854.854	3230
854.988	3055
855.122	3093
855.256	3009
855.39	3138
855.524	3279
855.658	3192
855.792	3184
855.926	3207
856.06	3283
856.194	3291
856.327	3195
856.461	3089
856.595	3112
856.729	3100
856.862	3272
856.996	3169
857.13	3260
857.263	3249
857.397	3321
857.53	3108
857.664	3184
857.797	3298
857.931	3294
858.064	3218
858.197	3260
858.331	3154
858.464	3131
858.597	3017
858.731	3146
858.864	3184
858.997	3135
859.13	3192
859.263	3207
859.396	3195
859.529	3089
859.662	3123
859.795	3058
859.928	3180
860.061	3306
860.194	3317
860.327	3142
860.46	3108
860.592	3249
860.725	3260
860.858	3272
860.99	3135
861.123	3066
861.256	3077
861.388	3180
861.521	3709
861.653	3047
861.786	3039
861.918	3055
862.05	3100
862.183	3146
862.315	3203
862.447	3211
862.58	3116
862.712	2979
862.844	2899
862.976	3036
863.108	3024
863.24	3355
863.372	2895
863.504	2994
863.636	2944
863.768	3070
863.9	3005
864.032	2937
864.164	2990
864.296	3020
864.428	3116
864.559	3123
864.691	3077
864.823	3062
864.954	3039
865.086	3081
865.217	3005
865.349	2979
865.48	3013
865.612	3039
865.743	3138
865.875	3024
866.006	2941
866.137	3009
866.269	2944
866.4	2948
866.531	2918
866.662	2922
866.793	2902
866.924	2899
867.055	2956
867.186	2929
867.317	2895
867.448	2899
867.579	2880
867.71	2880
867.841	2823
867.972	2918
868.103	2941
868.233	2952
868.364	2944
868.495	2899
868.625	3085
868.756	3180
868.886	2979
869.017	2986
869.147	3203
869.278	3157
869.408	3055
869.539	3058
869.669	3100
869.799	3062
869.929	3142
870.06	3123
870.19	3325
870.32	3302
870.45	3294
870.58	3374
870.71	3447
870.84	3496
870.97	3321
871.1	3230
871.23	3526
871.36	3473
871.489	3370
871.619	3439
871.749	3447
871.879	3458
872.008	3450
872.138	3355
872.267	3275
872.397	3154
872.526	3093
872.656	3047
872.785	3108
872.915	3272
873.044	3325
873.173	3230
873.303	3264
873.432	3268
873.561	3253
873.69	3169
873.819	3154
873.948	3237
874.077	3116
874.206	3051
874.335	3112
874.464	3230
874.593	3401
874.722	3275
874.851	3409
874.979	3340
875.108	3363
875.237	3230
875.365	3184
875.494	3195
875.623	3260
875.751	3104
875.88	3142
876.008	3207
876.136	3218
876.265	3374
876.393	3553
876.521	3424
876.65	3416
876.778	3329
876.906	3268
877.034	3222
877.162	3272
877.29	3203
877.418	3272
877.546	3279
877.674	3287
877.802	3230
877.93	3256
878.058	3169
878.185	3097
878.313	3207
878.441	3241
878.568	3104
878.696	3154
878.824	3253
878.951	3325
879.079	3462
879.206	3625
879.333	3488
879.461	3374
879.588	3378
879.715	3523
879.842	3576
879.97	3431
880.097	3207
880.224	3142
880.351	3184
880.478	3268
880.605	3188
880.732	3188
880.859	3507
880.986	3306
881.112	3336
881.239	3222
881.366	3138
881.493	3036
881.619	3051
881.746	3112
881.872	3104
881.999	3108
882.125	3173
882.252	3317
882.378	3294
882.505	3435
882.631	3310
882.757	3138
882.883	3214
883.01	3222
883.136	3195
883.262	3055
883.388	3161
883.514	3325
883.64	3393
883.766	3344
883.892	3199
884.018	3253
884.143	3420
884.269	3526
884.395	3230
884.52	3180
884.646	3207
884.772	3142
884.897	3131
885.023	3245
885.148	3367
885.274	3424
885.399	3370
885.524	3279
885.65	3275
885.775	3336
885.9	3272
886.025	3420
886.15	3363
886.275	3332
886.4	3253
886.525	3283
886.65	3302
886.775	3317
886.9	3485
887.025	3671
887.149	3405
887.274	3260
887.399	3233
887.523	3222
887.648	3211
887.773	3241
887.897	3363
888.021	3401
888.146	3317
888.27	3469
888.395	3530
888.519	3454
888.643	3488
888.767	3485
888.891	3313
889.015	3249
889.139	3306
889.263	3291
889.387	3401
889.511	3534
889.635	3454
889.759	3306
889.883	3317
890.006	3378
890.13	3469
890.254	3287
890.377	3367
890.501	3226
890.624	3180
890.748	3279
890.871	3230
890.995	3127
891.118	3093
891.241	3214
891.364	3233
891.488	3344
891.611	3176
891.734	3249
891.857	3287
891.98	3245
892.103	3340
892.226	3302
892.349	3211
892.471	3119
892.594	3245
892.717	3249
892.839	3287
892.962	3325
893.085	3351
893.207	3329
893.33	3157
893.452	3192
893.575	3359
893.697	3226
893.819	3462
893.941	3523
894.064	3500
894.186	3260
894.308	3302
894.43	3447
894.552	3538
894.674	3462
894.796	3283
894.918	3321
895.04	3306
895.161	3443
895.283	3428
895.405	3310
895.526	3397
895.648	3462
895.769	3443
895.891	3439
896.012	3504
896.134	3507
896.255	3393
896.376	3370
896.498	3393
896.619	3420
896.74	3348
896.861	3393
896.982	3679
897.103	3846
897.224	3553
897.345	3530
897.466	3450
897.587	3507
897.708	3576
897.828	3564
897.949	3454
898.07	3382
898.19	3424
898.311	3580
898.431	3443
898.552	3542
898.672	3572
898.792	3614
898.913	3542
899.033	3374
899.153	3317
899.273	3260
899.393	3317
899.513	3344
899.633	3348
899.753	3321
899.873	3298
899.993	3378
900.113	3344
900.232	3351
900.352	3359
900.472	3283
900.591	3195
900.711	3306
900.83	3253
900.95	3420
901.069	3511
901.189	3351
901.308	3211
901.427	3138
901.546	3218
901.665	3321
901.784	3355
901.904	3253
902.023	3169
902.141	3009
902.26	3017
902.379	3176
902.498	3070
902.617	3093
902.735	3211
902.854	3256
902.973	3245
903.091	3093
903.21	3108
903.328	3150
903.446	3089
903.565	3081
903.683	3272
903.801	3138
903.919	3230
904.038	3294
904.156	3176
904.274	3287
904.392	3283
904.51	3264
904.627	3351
904.745	3450
904.863	3523
904.981	3256
905.098	3176
905.216	3237
905.334	3306
905.451	3302
905.569	3279
905.686	3420
905.803	3443
905.921	3306
906.038	3450
906.155	3393
906.272	3275
906.389	3344
906.506	3279
906.623	3256
906.74	3260
906.857	3207
906.974	3272
907.091	3473
907.208	3595
907.324	3466
907.441	3409
907.557	3264
907.674	3241
907.79	3218
907.907	3287
908.023	3428
908.139	3393
908.256	3336
908.372	3386
908.488	3351
908.604	3279
908.72	3256
908.836	3294
908.952	3287
909.068	3370
909.184	3469
909.3	3370
909.415	3534
909.531	3481
909.647	3291
909.762	3310
909.878	3233
909.993	3348
910.108	3348
910.224	3351
910.339	3389
910.454	3336
910.57	3287
910.685	3291
910.8	3591
910.915	3545
911.03	3412
911.145	3253
911.259	3256
911.374	3313
911.489	3218
911.604	3218
911.718	3157
911.833	3154
911.947	3017
912.062	2982
912.176	3180
912.291	3245
912.405	3180
912.519	3431
912.633	3507
912.748	3340
912.862	3268
912.976	3192
913.09	3024
913.204	3169
913.318	3218
913.431	3340
913.545	3370
913.659	3424
913.772	3340
913.886	3245
914	3211
914.113	3310
914.226	3481
914.34	3355
914.453	3207
914.566	3428
914.68	3249
914.793	3313
914.906	3180
915.019	3119
915.132	3058
915.245	3169
915.358	3195
915.47	3230
915.583	3279
915.696	3306
915.809	3416
915.921	3416
916.034	3230
916.146	3249
916.259	3260
916.371	3420
916.483	3359
916.595	3283
916.708	3351
916.82	3329
916.932	3287
917.044	3386
917.156	3367
917.268	3260
917.38	3291
917.491	3291
917.603	3351
917.715	3466
917.826	3462
917.938	3336
918.049	3291
918.161	3431
918.272	3564
918.384	3576
918.495	3477
918.606	3336
918.717	3294
918.828	3367
918.939	3386
919.05	3279
919.161	3389
919.272	3169
919.383	3253
919.494	3477
919.604	3618
919.715	3500
919.826	3386
919.936	3477
920.047	3591
920.157	3557
920.267	3766
920.378	3618
920.488	3564
920.598	3751
920.708	3918
920.818	3808
920.928	3835
921.038	4017
921.148	4013
921.258	3724
921.368	3644
921.477	3591
921.587	3530
921.697	3462
921.806	3610
921.916	3526
922.025	3363
922.134	3355
922.244	3298
922.353	3416
922.462	3283
922.571	3256
922.68	3066
922.789	3074
922.898	3131
923.007	3116
923.116	3203
923.224	3180
923.333	3184
923.442	3093
923.55	3074
923.659	3123
923.767	3199
923.876	3138
923.984	3264
924.092	3116
924.201	3180
924.309	3233
924.417	3237
924.525	3188
924.633	3260
924.741	3998
924.849	3081
924.956	3264
925.064	3085
925.172	3074
925.279	3112
925.387	3150
925.494	3157
925.602	3344
925.709	3363
925.816	3188
925.924	3275
926.031	3378
926.138	3332
926.245	3336
926.352	3237
926.459	3447
926.566	3469
926.673	3298
926.779	3272
926.886	3214
926.993	3157
927.099	3146
927.206	3100
927.312	3127
927.419	3237
927.525	3214
927.631	3237
927.737	3157
927.843	3112
927.95	2990
928.056	3169
928.162	3173
928.267	3241
928.373	3869
928.479	3268
928.585	3081
928.69	3230
928.796	3241
928.901	3176
929.007	3055
929.112	3192
929.218	3203
929.323	3161
929.428	3127
929.533	3351
929.638	3116
929.743	3173
929.848	3260
929.953	3184
930.058	3142
930.163	2990
930.267	3032
930.372	3218
930.477	3009
930.581	3279
930.685	3180
930.79	3070
930.894	3176
930.998	3108
931.103	3264
931.207	2956
931.311	2933
931.415	2929
931.519	2766
931.623	2800
