Data from test_V78500241_78.txt Node
Date: Fri Mar 25 16:15:44 CST 2022
User: usil
Spectrometer: V785-0024
Trigger mode: 0
Integration Time (sec): 4.000000E-1
Scans to average: 1
Nonlinearity correction enabled: false
Boxcar width: 0
Storing dark spectrum: false
XAxis mode: Wavelengths
Number of Pixels in Spectrum: 1024
>>>>>Begin Spectral Data<<<<<
801.071	2933
801.214	2975
801.356	2899
801.499	2941
801.641	2910
801.783	2971
801.926	3108
802.068	3024
802.211	3017
802.353	3043
802.496	3024
802.638	3043
802.78	3047
802.923	3081
803.065	3055
803.208	2944
803.35	2979
803.492	2956
803.635	2975
803.777	2800
803.919	2929
804.061	3233
804.204	2998
804.346	2979
804.488	2868
804.63	3055
804.773	2922
804.915	2963
805.057	3112
805.199	2982
805.341	3017
805.483	3085
805.626	3043
805.768	2975
805.91	3112
806.052	3131
806.194	3058
806.336	3264
806.478	3028
806.62	2960
806.762	2975
806.904	3104
807.046	3237
807.188	3024
807.33	2944
807.472	2982
807.614	2963
807.756	3013
807.898	2967
808.04	2914
808.182	2979
808.324	2990
808.465	2906
808.607	2895
808.749	2853
808.891	2861
809.033	3009
809.174	2994
809.316	2891
809.458	2944
809.6	2815
809.741	2826
809.883	2826
810.025	2876
810.166	2902
810.308	2891
810.45	2876
810.591	2792
810.733	2807
810.875	2891
811.016	2842
811.158	2777
811.299	2830
811.441	2971
811.582	2944
811.724	2853
811.865	2876
812.007	2914
812.148	2899
812.29	2883
812.431	2914
812.573	3001
812.714	3005
812.855	3070
812.997	3051
813.138	3123
813.279	3028
813.421	3036
813.562	2998
813.703	2902
813.845	2929
813.986	2830
814.127	2762
814.268	2823
814.41	2876
814.551	2830
814.692	2902
814.833	2826
814.974	2941
815.115	3009
815.256	2864
815.397	2838
815.539	2906
815.68	2815
815.821	2815
815.962	2979
816.103	2979
816.244	2899
816.385	2922
816.526	3013
816.666	2956
816.807	2758
816.948	2918
817.089	2918
817.23	2899
817.371	2819
817.512	2845
817.653	2887
817.793	2826
817.934	2906
818.075	3013
818.216	3051
818.356	3036
818.497	2933
818.638	2849
818.778	2872
818.919	2811
819.06	2788
819.2	2929
819.341	2826
819.481	2849
819.622	2948
819.762	3131
819.903	3089
820.043	3009
820.184	2929
820.324	2929
820.465	3066
820.605	3077
820.746	3051
820.886	2967
821.026	3123
821.167	3199
821.307	3287
821.447	3329
821.588	3268
821.728	3237
821.868	3203
822.008	3112
822.149	3241
822.289	3287
822.429	3157
822.569	3127
822.709	3253
822.849	3055
822.99	3112
823.13	3199
823.27	3237
823.41	3142
823.55	3192
823.69	3203
823.83	3256
823.97	3097
824.11	3077
824.25	3036
824.389	3138
824.529	3165
824.669	3093
824.809	3233
824.949	3329
825.089	3279
825.228	3176
825.368	3070
825.508	2975
825.648	2971
825.787	3077
825.927	3043
826.067	3017
826.206	3020
826.346	3077
826.485	3116
826.625	3112
826.765	3298
826.904	3249
827.044	2994
827.183	3013
827.323	2887
827.462	3020
827.601	2922
827.741	2952
827.88	3009
828.02	2902
828.159	3017
828.298	3062
828.437	3146
828.577	3116
828.716	3264
828.855	3112
828.994	2956
829.134	2944
829.273	2967
829.412	2861
829.551	2895
829.69	2887
829.829	3028
829.968	3203
830.107	3009
830.246	3066
830.385	2971
830.524	2922
830.663	2849
830.802	2754
830.941	2667
831.08	2674
831.219	2804
831.357	2830
831.496	2960
831.635	2735
831.774	2659
831.913	2720
832.051	2610
832.19	2606
832.329	2701
832.467	2560
832.606	2522
832.744	2648
832.883	2613
833.022	2621
833.16	2667
833.299	2708
833.437	2712
833.576	2689
833.714	2739
833.852	2712
833.991	2769
834.129	2880
834.267	2849
834.406	2807
834.544	2895
834.682	2906
834.821	2834
834.959	3089
835.097	2925
835.235	3093
835.373	3039
835.511	3066
835.65	2994
835.788	2971
835.926	2826
836.064	2849
836.202	2880
836.34	3127
836.478	3173
836.615	3104
836.753	3165
836.891	3245
837.029	3211
837.167	3150
837.305	3089
837.443	3070
837.58	3013
837.718	3180
837.856	3062
837.993	3032
838.131	3184
838.269	3161
838.406	3127
838.544	3089
838.681	2963
838.819	2937
838.956	2861
839.094	2883
839.231	2925
839.369	3039
839.506	3405
839.643	3237
839.781	3058
839.918	3001
840.055	3097
840.193	3097
840.33	3100
840.467	3119
840.604	3199
840.742	3420
840.879	3085
841.016	3055
841.153	3131
841.29	3397
841.427	3336
841.564	3294
841.701	3367
841.838	3245
841.975	3230
842.112	3279
842.249	3116
842.385	3047
842.522	3287
842.659	3135
842.796	3085
842.933	3131
843.069	3074
843.206	3077
843.343	3184
843.479	3157
843.616	3150
843.752	2944
843.889	2891
844.025	3116
844.162	2918
844.298	3135
844.435	2979
844.571	2929
844.708	3135
844.844	3195
844.98	3241
845.117	3237
845.253	3089
845.389	3013
845.525	3127
845.661	3135
845.798	3058
845.934	3176
846.07	3070
846.206	3233
846.342	3332
846.478	3275
846.614	3108
846.75	3089
846.886	3077
847.022	3310
847.158	3173
847.294	3184
847.429	3253
847.565	3260
847.701	3496
847.837	3085
847.972	3036
848.108	3180
848.244	3146
848.379	3009
848.515	2937
848.65	2948
848.786	3013
848.921	3081
849.057	3089
849.192	3135
849.328	3097
849.463	3127
849.598	3085
849.734	3100
849.869	3028
850.004	2933
850.14	3020
850.275	2944
850.41	2857
850.545	2918
850.68	2956
850.815	2979
850.95	2986
851.085	3245
851.22	3085
851.355	3066
851.49	3028
851.625	3028
851.76	3058
851.895	2960
852.03	2944
852.165	3032
852.299	3157
852.434	3222
852.569	3203
852.703	3211
852.838	3264
852.973	3367
853.107	3382
853.242	3207
853.376	3116
853.511	3047
853.645	3047
853.78	3245
853.914	3138
854.048	3138
854.183	3077
854.317	3184
854.451	3306
854.585	3169
854.72	3116
854.854	3203
854.988	3062
855.122	3123
855.256	3036
855.39	3138
855.524	3306
855.658	3199
855.792	3176
855.926	3218
856.06	3264
856.194	3291
856.327	3188
856.461	3112
856.595	3112
856.729	3112
856.862	3260
856.996	3184
857.13	3211
857.263	3272
857.397	3283
857.53	3154
857.664	3253
857.797	3264
857.931	3279
858.064	3161
858.197	3279
858.331	3157
858.464	3161
858.597	3009
858.731	3154
858.864	3127
858.997	3142
859.13	3176
859.263	3173
859.396	3233
859.529	3135
859.662	3108
859.795	3097
859.928	3176
860.061	3313
860.194	3287
860.327	3142
860.46	3180
860.592	3264
860.725	3287
860.858	3294
860.99	3127
861.123	3036
861.256	3097
861.388	3169
861.521	3785
861.653	3020
861.786	3009
861.918	3036
862.05	3108
862.183	3112
862.315	3199
862.447	3268
862.58	3077
862.712	3013
862.844	2910
862.976	3055
863.108	3028
863.24	3310
863.372	2883
863.504	3005
863.636	2986
863.768	3074
863.9	3017
864.032	2937
864.164	2979
864.296	3020
864.428	3123
864.559	3123
864.691	3081
864.823	3100
864.954	3013
865.086	3055
865.217	3005
865.349	2967
865.48	3028
865.612	3020
865.743	3214
865.875	3013
866.006	2960
866.137	3013
866.269	2952
866.4	2986
866.531	2906
866.662	2902
866.793	2914
866.924	2906
867.055	3032
867.186	2990
867.317	2929
867.448	2845
867.579	2861
867.71	2880
867.841	2845
867.972	2929
868.103	2925
868.233	2956
868.364	2918
868.495	2914
868.625	3070
868.756	3211
868.886	3005
869.017	3055
869.147	3203
869.278	3199
869.408	3077
869.539	3058
869.669	3150
869.799	3074
869.929	3165
870.06	3146
870.19	3359
870.32	3298
870.45	3321
870.58	3382
870.71	3500
870.84	3515
870.97	3298
871.1	3298
871.23	3500
871.36	3492
871.489	3389
871.619	3439
871.749	3454
871.879	3488
872.008	3542
872.138	3416
872.267	3332
872.397	3192
872.526	3142
872.656	3024
872.785	3116
872.915	3287
873.044	3348
873.173	3226
873.303	3272
873.432	3283
873.561	3283
873.69	3142
873.819	3165
873.948	3218
874.077	3131
874.206	3077
874.335	3097
874.464	3245
874.593	3405
874.722	3272
874.851	3412
874.979	3397
875.108	3351
875.237	3230
875.365	3218
875.494	3222
875.623	3283
875.751	3123
875.88	3146
876.008	3218
876.136	3253
876.265	3401
876.393	3545
876.521	3409
876.65	3435
876.778	3321
876.906	3291
877.034	3222
877.162	3264
877.29	3207
877.418	3275
877.546	3287
877.674	3237
877.802	3253
877.93	3283
878.058	3184
878.185	3116
878.313	3233
878.441	3253
878.568	3100
878.696	3188
878.824	3302
878.951	3340
879.079	3458
879.206	3671
879.333	3496
879.461	3332
879.588	3363
879.715	3557
879.842	3656
879.97	3363
880.097	3184
880.224	3188
880.351	3226
880.478	3264
880.605	3214
880.732	3211
880.859	3504
880.986	3310
881.112	3348
881.239	3237
881.366	3108
881.493	3062
881.619	3074
881.746	3104
881.872	3119
881.999	3142
882.125	3180
882.252	3287
882.378	3317
882.505	3439
882.631	3298
882.757	3150
882.883	3203
883.01	3241
883.136	3169
883.262	3123
883.388	3154
883.514	3325
883.64	3435
883.766	3264
883.892	3226
884.018	3272
884.143	3458
884.269	3553
884.395	3218
884.52	3188
884.646	3226
884.772	3173
884.897	3127
885.023	3222
885.148	3382
885.274	3428
885.399	3416
885.524	3321
885.65	3313
885.775	3355
885.9	3283
886.025	3450
886.15	3382
886.275	3355
886.4	3226
886.525	3336
886.65	3302
886.775	3287
886.9	3580
887.025	3682
887.149	3462
887.274	3325
887.399	3192
887.523	3214
887.648	3253
887.773	3203
887.897	3351
888.021	3469
888.146	3283
888.27	3469
888.395	3614
888.519	3515
888.643	3496
888.767	3504
888.891	3355
889.015	3287
889.139	3298
889.263	3291
889.387	3428
889.511	3553
889.635	3431
889.759	3317
889.883	3348
890.006	3420
890.13	3526
890.254	3291
890.377	3355
890.501	3176
890.624	3214
890.748	3374
890.871	3226
890.995	3150
891.118	3089
891.241	3226
891.364	3264
891.488	3321
891.611	3214
891.734	3264
891.857	3306
891.98	3260
892.103	3355
892.226	3310
892.349	3249
892.471	3150
892.594	3279
892.717	3313
892.839	3291
892.962	3325
893.085	3374
893.207	3340
893.33	3188
893.452	3218
893.575	3355
893.697	3268
893.819	3511
893.941	3553
894.064	3469
894.186	3298
894.308	3272
894.43	3420
894.552	3553
894.674	3526
894.796	3310
894.918	3313
895.04	3344
895.161	3454
895.283	3431
895.405	3321
895.526	3397
895.648	3469
895.769	3481
895.891	3511
896.012	3538
896.134	3523
896.255	3485
896.376	3397
896.498	3386
896.619	3443
896.74	3393
896.861	3466
896.982	3743
897.103	3869
897.224	3618
897.345	3576
897.466	3401
897.587	3466
897.708	3679
897.828	3553
897.949	3466
898.07	3359
898.19	3447
898.311	3637
898.431	3485
898.552	3564
898.672	3629
898.792	3614
898.913	3530
899.033	3431
899.153	3363
899.273	3230
899.393	3321
899.513	3351
899.633	3336
899.753	3344
899.873	3355
899.993	3412
900.113	3359
900.232	3412
900.352	3370
900.472	3291
900.591	3237
900.711	3306
900.83	3283
900.95	3492
901.069	3557
901.189	3374
901.308	3207
901.427	3157
901.546	3253
901.665	3367
901.784	3378
901.904	3241
902.023	3233
902.141	3051
902.26	2998
902.379	3199
902.498	3108
902.617	3085
902.735	3207
902.854	3256
902.973	3233
903.091	3081
903.21	3093
903.328	3176
903.446	3131
903.565	3142
903.683	3230
903.801	3180
903.919	3272
904.038	3332
904.156	3199
904.274	3321
904.392	3275
904.51	3317
904.627	3363
904.745	3481
904.863	3584
904.981	3272
905.098	3218
905.216	3272
905.334	3298
905.451	3370
905.569	3355
905.686	3485
905.803	3473
905.921	3298
906.038	3450
906.155	3382
906.272	3325
906.389	3393
906.506	3241
906.623	3298
906.74	3298
906.857	3188
906.974	3275
907.091	3485
907.208	3629
907.324	3523
907.441	3428
907.557	3214
907.674	3264
907.79	3241
907.907	3302
908.023	3443
908.139	3393
908.256	3382
908.372	3412
908.488	3420
908.604	3310
908.72	3298
908.836	3340
908.952	3310
909.068	3386
909.184	3523
909.3	3428
909.415	3549
909.531	3542
909.647	3355
909.762	3344
909.878	3332
909.993	3412
910.108	3332
910.224	3416
910.339	3420
910.454	3386
910.57	3329
910.685	3302
910.8	3622
910.915	3599
911.03	3462
911.145	3306
911.259	3378
911.374	3336
911.489	3310
911.604	3233
911.718	3184
911.833	3203
911.947	3085
912.062	3017
912.176	3230
912.291	3207
912.405	3222
912.519	3454
912.633	3462
912.748	3340
912.862	3283
912.976	3214
913.09	3093
913.204	3195
913.318	3260
913.431	3386
913.545	3374
913.659	3420
913.772	3363
913.886	3245
914	3222
914.113	3401
914.226	3416
914.34	3412
914.453	3272
914.566	3466
914.68	3275
914.793	3370
914.906	3176
915.019	3161
915.132	3138
915.245	3207
915.358	3226
915.47	3294
915.583	3317
915.696	3306
915.809	3409
915.921	3424
916.034	3294
916.146	3291
916.259	3268
916.371	3447
916.483	3355
916.595	3325
916.708	3355
916.82	3389
916.932	3363
917.044	3393
917.156	3370
917.268	3272
917.38	3351
917.491	3298
917.603	3416
917.715	3488
917.826	3469
917.938	3424
918.049	3287
918.161	3462
918.272	3603
918.384	3637
918.495	3519
918.606	3416
918.717	3329
918.828	3401
918.939	3481
919.05	3313
919.161	3401
919.272	3203
919.383	3325
919.494	3561
919.604	3713
919.715	3519
919.826	3443
919.936	3534
920.047	3614
920.157	3584
920.267	3816
920.378	3644
920.488	3618
920.598	3846
920.708	3987
920.818	3831
920.928	3842
921.038	4051
921.148	4055
921.258	3740
921.368	3633
921.477	3622
921.587	3568
921.697	3496
921.806	3663
921.916	3515
922.025	3370
922.134	3424
922.244	3340
922.353	3462
922.462	3306
922.571	3287
922.68	3188
922.789	3100
922.898	3161
923.007	3104
923.116	3287
923.224	3207
923.333	3207
923.442	3100
923.55	3138
923.659	3195
923.767	3256
923.876	3157
923.984	3287
924.092	3108
924.201	3226
924.309	3275
924.417	3294
924.525	3207
924.633	3268
924.741	4253
924.849	3097
924.956	3298
925.064	3100
925.172	3039
925.279	3131
925.387	3222
925.494	3184
925.602	3393
925.709	3397
925.816	3222
925.924	3340
926.031	3409
926.138	3397
926.245	3367
926.352	3268
926.459	3435
926.566	3473
926.673	3355
926.779	3287
926.886	3291
926.993	3146
927.099	3173
927.206	3123
927.312	3123
927.419	3241
927.525	3233
927.631	3329
927.737	3169
927.843	3119
927.95	3058
928.056	3195
928.162	3180
928.267	3245
928.373	3793
928.479	3348
928.585	3085
928.69	3218
928.796	3302
928.901	3207
929.007	3055
929.112	3237
929.218	3195
929.323	3199
929.428	3169
929.533	3344
929.638	3123
929.743	3226
929.848	3332
929.953	3264
930.058	3176
930.163	3036
930.267	3062
930.372	3233
930.477	3077
930.581	3329
930.685	3226
930.79	3085
930.894	3157
930.998	3146
931.103	3310
931.207	2979
931.311	2975
931.415	2933
931.519	2838
931.623	2834
