Data from test_V78500241_1127.txt Node
Date: Fri Mar 25 16:23:00 CST 2022
User: usil
Spectrometer: V785-0024
Trigger mode: 0
Integration Time (sec): 4.000000E-1
Scans to average: 1
Nonlinearity correction enabled: false
Boxcar width: 0
Storing dark spectrum: false
XAxis mode: Wavelengths
Number of Pixels in Spectrum: 1024
>>>>>Begin Spectral Data<<<<<
801.071	2914
801.214	2929
801.356	2891
801.499	2883
801.641	2887
801.783	2937
801.926	3055
802.068	2963
802.211	3017
802.353	3028
802.496	2971
802.638	3036
802.78	3062
802.923	3074
803.065	3028
803.208	2918
803.35	2925
803.492	2971
803.635	2952
803.777	2792
803.919	2819
804.061	3226
804.204	2952
804.346	2899
804.488	2842
804.63	2990
804.773	2842
804.915	2941
805.057	3097
805.199	2925
805.341	3013
805.483	3005
805.626	3005
805.768	2994
805.91	3081
806.052	3085
806.194	3047
806.336	3253
806.478	3028
806.62	2975
806.762	2941
806.904	3009
807.046	3173
807.188	2982
807.33	2922
807.472	2982
807.614	2899
807.756	2960
807.898	2941
808.04	2868
808.182	2975
808.324	2956
808.465	2861
808.607	2868
808.749	2819
808.891	2853
809.033	2994
809.174	2967
809.316	2861
809.458	2883
809.6	2762
809.741	2792
809.883	2769
810.025	2849
810.166	2811
810.308	2811
810.45	2857
810.591	2785
810.733	2766
810.875	2864
811.016	2773
811.158	2762
811.299	2792
811.441	2929
811.582	2922
811.724	2804
811.865	2838
812.007	2918
812.148	2872
812.29	2857
812.431	2880
812.573	2941
812.714	2982
812.855	3009
812.997	3032
813.138	3123
813.279	2998
813.421	2971
813.562	2963
813.703	2864
813.845	2910
813.986	2788
814.127	2735
814.268	2830
814.41	2834
814.551	2815
814.692	2914
814.833	2792
814.974	2864
815.115	2941
815.256	2811
815.397	2811
815.539	2845
815.68	2781
815.821	2777
815.962	2952
816.103	2918
816.244	2895
816.385	2853
816.526	2967
816.666	2880
816.807	2766
816.948	2887
817.089	2864
817.23	2826
817.371	2796
817.512	2766
817.653	2823
817.793	2834
817.934	2883
818.075	2967
818.216	2982
818.356	2994
818.497	2864
818.638	2777
818.778	2834
818.919	2762
819.06	2750
819.2	2876
819.341	2823
819.481	2804
819.622	2902
819.762	3077
819.903	3043
820.043	2960
820.184	2891
820.324	2876
820.465	3020
820.605	3013
820.746	3013
820.886	2929
821.026	3112
821.167	3116
821.307	3199
821.447	3291
821.588	3253
821.728	3211
821.868	3184
822.008	3032
822.149	3173
822.289	3230
822.429	3062
822.569	3097
822.709	3184
822.849	3039
822.99	3051
823.13	3142
823.27	3199
823.41	3100
823.55	3131
823.69	3138
823.83	3184
823.97	3093
824.11	3001
824.25	2986
824.389	3062
824.529	3104
824.669	3055
824.809	3211
824.949	3264
825.089	3207
825.228	3169
825.368	3009
825.508	2952
825.648	2956
825.787	3005
825.927	3005
826.067	2948
826.206	2956
826.346	3062
826.485	3089
826.625	3112
826.765	3313
826.904	3218
827.044	2998
827.183	2933
827.323	2899
827.462	2982
827.601	2948
827.741	2944
827.88	2971
828.02	2876
828.159	2944
828.298	3070
828.437	3127
828.577	3074
828.716	3275
828.855	3097
828.994	2956
829.134	2895
829.273	2956
829.412	2857
829.551	2883
829.69	2925
829.829	3043
829.968	3104
830.107	3051
830.246	3047
830.385	2967
830.524	2918
830.663	2834
830.802	2754
830.941	2708
831.08	2697
831.219	2819
831.357	2834
831.496	2994
831.635	2758
831.774	2689
831.913	2674
832.051	2552
832.19	2621
832.329	2701
832.467	2587
832.606	2507
832.744	2625
832.883	2625
833.022	2613
833.16	2674
833.299	2746
833.437	2731
833.576	2758
833.714	2762
833.852	2777
833.991	2834
834.129	2876
834.267	2853
834.406	2838
834.544	2933
834.682	2929
834.821	2902
834.959	3066
835.097	2944
835.235	3100
835.373	3051
835.511	3066
835.65	2967
835.788	3001
835.926	2857
836.064	2815
836.202	2845
836.34	3131
836.478	3188
836.615	3081
836.753	3173
836.891	3249
837.029	3180
837.167	3150
837.305	3104
837.443	3062
837.58	3001
837.718	3188
837.856	3104
837.993	3039
838.131	3135
838.269	3100
838.406	3135
838.544	3127
838.681	3001
838.819	2937
838.956	2834
839.094	2849
839.231	2990
839.369	3032
839.506	3405
839.643	3264
839.781	3036
839.918	2982
840.055	3100
840.193	3055
840.33	3112
840.467	3135
840.604	3157
840.742	3389
840.879	3108
841.016	3093
841.153	3138
841.29	3367
841.427	3317
841.564	3283
841.701	3340
841.838	3241
841.975	3188
842.112	3249
842.249	3119
842.385	3055
842.522	3283
842.659	3150
842.796	3100
842.933	3104
843.069	3100
843.206	3089
843.343	3241
843.479	3138
843.616	3173
843.752	2937
843.889	2887
844.025	3077
844.162	2868
844.298	3085
844.435	2944
844.571	2990
844.708	3093
844.844	3226
844.98	3268
845.117	3222
845.253	3077
845.389	3047
845.525	3131
845.661	3165
845.798	3055
845.934	3146
846.07	3097
846.206	3230
846.342	3359
846.478	3272
846.614	3097
846.75	3077
846.886	3062
847.022	3272
847.158	3138
847.294	3222
847.429	3230
847.565	3241
847.701	3515
847.837	3089
847.972	3017
848.108	3214
848.244	3199
848.379	2994
848.515	3020
848.65	2975
848.786	3001
848.921	3009
849.057	3127
849.192	3138
849.328	3036
849.463	3112
849.598	3112
849.734	3070
849.869	2975
850.004	2963
850.14	2998
850.275	2918
850.41	2876
850.545	2887
850.68	2941
850.815	2986
850.95	3009
851.085	3211
851.22	3154
851.355	3074
851.49	2986
851.625	3020
851.76	2982
851.895	2948
852.03	2929
852.165	3055
852.299	3169
852.434	3207
852.569	3142
852.703	3241
852.838	3260
852.973	3359
853.107	3374
853.242	3192
853.376	3097
853.511	2990
853.645	3066
853.78	3237
853.914	3123
854.048	3173
854.183	3081
854.317	3157
854.451	3298
854.585	3123
854.72	3119
854.854	3222
854.988	3081
855.122	3119
855.256	2975
855.39	3169
855.524	3237
855.658	3222
855.792	3173
855.926	3199
856.06	3207
856.194	3241
856.327	3169
856.461	3142
856.595	3131
856.729	3119
856.862	3245
856.996	3199
857.13	3237
857.263	3245
857.397	3283
857.53	3127
857.664	3214
857.797	3264
857.931	3283
858.064	3192
858.197	3249
858.331	3150
858.464	3135
858.597	3062
858.731	3108
858.864	3173
858.997	3100
859.13	3165
859.263	3180
859.396	3241
859.529	3097
859.662	3127
859.795	3100
859.928	3142
860.061	3302
860.194	3310
860.327	3146
860.46	3116
860.592	3233
860.725	3272
860.858	3287
860.99	3116
861.123	3051
861.256	3081
861.388	3131
861.521	3740
861.653	3039
861.786	3024
861.918	3017
862.05	3093
862.183	3100
862.315	3176
862.447	3237
862.58	3131
862.712	3001
862.844	2922
862.976	3036
863.108	3005
863.24	3340
863.372	2933
863.504	2925
863.636	2994
863.768	3055
863.9	2982
864.032	2941
864.164	3005
864.296	3051
864.428	3104
864.559	3157
864.691	3074
864.823	3081
864.954	3058
865.086	3051
865.217	3032
865.349	2986
865.48	3020
865.612	3047
865.743	3184
865.875	3001
866.006	2956
866.137	2948
866.269	2982
866.4	2956
866.531	2929
866.662	2887
866.793	2918
866.924	2895
867.055	2986
867.186	2960
867.317	2910
867.448	2876
867.579	2842
867.71	2899
867.841	2853
867.972	2933
868.103	2933
868.233	2887
868.364	2899
868.495	2902
868.625	3081
868.756	3169
868.886	2990
869.017	3051
869.147	3214
869.278	3184
869.408	3066
869.539	3043
869.669	3142
869.799	3070
869.929	3169
870.06	3157
870.19	3363
870.32	3302
870.45	3283
870.58	3393
870.71	3477
870.84	3447
870.97	3336
871.1	3291
871.23	3496
871.36	3488
871.489	3393
871.619	3401
871.749	3431
871.879	3477
872.008	3481
872.138	3405
872.267	3298
872.397	3157
872.526	3131
872.656	3013
872.785	3077
872.915	3245
873.044	3325
873.173	3256
873.303	3291
873.432	3233
873.561	3230
873.69	3199
873.819	3138
873.948	3195
874.077	3116
874.206	3043
874.335	3104
874.464	3203
874.593	3370
874.722	3298
874.851	3370
874.979	3344
875.108	3329
875.237	3222
875.365	3203
875.494	3184
875.623	3249
875.751	3055
875.88	3135
876.008	3214
876.136	3245
876.265	3378
876.393	3576
876.521	3458
876.65	3454
876.778	3389
876.906	3249
877.034	3207
877.162	3245
877.29	3203
877.418	3275
877.546	3264
877.674	3321
877.802	3253
877.93	3264
878.058	3173
878.185	3112
878.313	3253
878.441	3230
878.568	3104
878.696	3165
878.824	3253
878.951	3348
879.079	3443
879.206	3660
879.333	3450
879.461	3313
879.588	3370
879.715	3496
879.842	3576
879.97	3431
880.097	3154
880.224	3146
880.351	3203
880.478	3241
880.605	3173
880.732	3203
880.859	3515
880.986	3332
881.112	3374
881.239	3195
881.366	3138
881.493	3051
881.619	3043
881.746	3104
881.872	3150
881.999	3104
882.125	3173
882.252	3275
882.378	3317
882.505	3488
882.631	3348
882.757	3218
882.883	3222
883.01	3199
883.136	3165
883.262	3108
883.388	3142
883.514	3382
883.64	3409
883.766	3336
883.892	3249
884.018	3249
884.143	3431
884.269	3553
884.395	3192
884.52	3184
884.646	3218
884.772	3138
884.897	3116
885.023	3214
885.148	3355
885.274	3409
885.399	3382
885.524	3268
885.65	3279
885.775	3348
885.9	3332
886.025	3462
886.15	3374
886.275	3310
886.4	3253
886.525	3340
886.65	3275
886.775	3302
886.9	3538
887.025	3644
887.149	3447
887.274	3287
887.399	3195
887.523	3237
887.648	3195
887.773	3218
887.897	3359
888.021	3420
888.146	3317
888.27	3428
888.395	3553
888.519	3488
888.643	3462
888.767	3515
888.891	3306
889.015	3272
889.139	3321
889.263	3264
889.387	3409
889.511	3542
889.635	3485
889.759	3317
889.883	3325
890.006	3424
890.13	3488
890.254	3310
890.377	3344
890.501	3241
890.624	3211
890.748	3287
890.871	3211
890.995	3131
891.118	3100
891.241	3214
891.364	3275
891.488	3363
891.611	3214
891.734	3256
891.857	3302
891.98	3237
892.103	3359
892.226	3275
892.349	3214
892.471	3146
892.594	3249
892.717	3321
892.839	3287
892.962	3291
893.085	3382
893.207	3298
893.33	3146
893.452	3218
893.575	3359
893.697	3264
893.819	3485
893.941	3530
894.064	3485
894.186	3260
894.308	3268
894.43	3393
894.552	3542
894.674	3473
894.796	3268
894.918	3340
895.04	3287
895.161	3416
895.283	3378
895.405	3355
895.526	3397
895.648	3458
895.769	3443
895.891	3458
896.012	3504
896.134	3450
896.255	3416
896.376	3405
896.498	3382
896.619	3416
896.74	3351
896.861	3401
896.982	3717
897.103	3838
897.224	3584
897.345	3564
897.466	3420
897.587	3511
897.708	3614
897.828	3572
897.949	3443
898.07	3370
898.19	3431
898.311	3637
898.431	3458
898.552	3519
898.672	3633
898.792	3572
898.913	3545
899.033	3439
899.153	3310
899.273	3211
899.393	3313
899.513	3313
899.633	3348
899.753	3321
899.873	3317
899.993	3374
900.113	3370
900.232	3405
900.352	3367
900.472	3313
900.591	3230
900.711	3294
900.83	3245
900.95	3416
901.069	3523
901.189	3344
901.308	3199
901.427	3146
901.546	3233
901.665	3264
901.784	3351
901.904	3218
902.023	3146
902.141	3074
902.26	2990
902.379	3157
902.498	3089
902.617	3085
902.735	3226
902.854	3279
902.973	3207
903.091	3051
903.21	3070
903.328	3173
903.446	3116
903.565	3097
903.683	3237
903.801	3154
903.919	3241
904.038	3283
904.156	3173
904.274	3306
904.392	3249
904.51	3344
904.627	3317
904.745	3431
904.863	3492
904.981	3260
905.098	3192
905.216	3298
905.334	3294
905.451	3291
905.569	3287
905.686	3412
905.803	3409
905.921	3291
906.038	3458
906.155	3389
906.272	3272
906.389	3374
906.506	3241
906.623	3256
906.74	3298
906.857	3188
906.974	3253
907.091	3416
907.208	3561
907.324	3511
907.441	3348
907.557	3279
907.674	3264
907.79	3226
907.907	3283
908.023	3336
908.139	3370
908.256	3351
908.372	3389
908.488	3351
908.604	3260
908.72	3214
908.836	3272
908.952	3325
909.068	3340
909.184	3500
909.3	3351
909.415	3507
909.531	3515
909.647	3283
909.762	3279
909.878	3245
909.993	3401
910.108	3355
910.224	3367
910.339	3424
910.454	3336
910.57	3275
910.685	3260
910.8	3584
910.915	3576
911.03	3409
911.145	3264
911.259	3268
911.374	3321
911.489	3260
911.604	3249
911.718	3104
911.833	3169
911.947	3036
912.062	2986
912.176	3154
912.291	3176
912.405	3237
912.519	3409
912.633	3450
912.748	3367
912.862	3230
912.976	3218
913.09	3062
913.204	3154
913.318	3245
913.431	3336
913.545	3370
913.659	3409
913.772	3325
913.886	3230
914	3203
914.113	3355
914.226	3409
914.34	3382
914.453	3222
914.566	3397
914.68	3287
914.793	3325
914.906	3108
915.019	3131
915.132	3081
915.245	3161
915.358	3226
915.47	3249
915.583	3264
915.696	3275
915.809	3447
915.921	3420
916.034	3272
916.146	3237
916.259	3233
916.371	3443
916.483	3382
916.595	3260
916.708	3340
916.82	3359
916.932	3336
917.044	3382
917.156	3321
917.268	3253
917.38	3348
917.491	3298
917.603	3336
917.715	3458
917.826	3466
917.938	3370
918.049	3260
918.161	3439
918.272	3606
918.384	3553
918.495	3443
918.606	3378
918.717	3256
918.828	3393
918.939	3428
919.05	3294
919.161	3378
919.272	3203
919.383	3302
919.494	3458
919.604	3682
919.715	3511
919.826	3409
919.936	3431
920.047	3553
920.157	3618
920.267	3797
920.378	3644
920.488	3564
920.598	3774
920.708	3960
920.818	3823
920.928	3823
921.038	4067
921.148	3991
921.258	3720
921.368	3648
921.477	3584
921.587	3523
921.697	3511
921.806	3633
921.916	3530
922.025	3348
922.134	3367
922.244	3317
922.353	3439
922.462	3272
922.571	3230
922.68	3112
922.789	3100
922.898	3119
923.007	3100
923.116	3226
923.224	3180
923.333	3195
923.442	3081
923.55	3097
923.659	3157
923.767	3207
923.876	3135
923.984	3226
924.092	3093
924.201	3226
924.309	3264
924.417	3279
924.525	3199
924.633	3233
924.741	4029
924.849	3058
924.956	3283
925.064	3104
925.172	3039
925.279	3097
925.387	3184
925.494	3211
925.602	3363
925.709	3325
925.816	3233
925.924	3260
926.031	3386
926.138	3291
926.245	3355
926.352	3245
926.459	3386
926.566	3454
926.673	3336
926.779	3264
926.886	3249
926.993	3157
927.099	3119
927.206	3093
927.312	3131
927.419	3241
927.525	3211
927.631	3245
927.737	3138
927.843	3093
927.95	3005
928.056	3108
928.162	3188
928.267	3233
928.373	3884
928.479	3310
928.585	3089
928.69	3253
928.796	3249
928.901	3169
929.007	3097
929.112	3184
929.218	3207
929.323	3161
929.428	3119
929.533	3332
929.638	3116
929.743	3161
929.848	3249
929.953	3226
930.058	3131
930.163	3032
930.267	3062
930.372	3184
930.477	3043
930.581	3283
930.685	3127
930.79	3100
930.894	3131
930.998	3077
931.103	3298
931.207	2990
931.311	2941
931.415	2880
931.519	2769
931.623	2838
