Data from test_V78500241_1869.txt Node
Date: Fri Mar 25 16:28:09 CST 2022
User: usil
Spectrometer: V785-0024
Trigger mode: 0
Integration Time (sec): 4.000000E-1
Scans to average: 1
Nonlinearity correction enabled: false
Boxcar width: 0
Storing dark spectrum: false
XAxis mode: Wavelengths
Number of Pixels in Spectrum: 1024
>>>>>Begin Spectral Data<<<<<
801.071	2922
801.214	2971
801.356	2883
801.499	2941
801.641	2902
801.783	3017
801.926	3070
802.068	3039
802.211	3036
802.353	3017
802.496	3009
802.638	3062
802.78	3047
802.923	3146
803.065	3036
803.208	2902
803.35	2941
803.492	2971
803.635	2948
803.777	2785
803.919	2902
804.061	3214
804.204	2948
804.346	2952
804.488	2823
804.63	3028
804.773	2899
804.915	2929
805.057	3104
805.199	2944
805.341	2994
805.483	3047
805.626	3058
805.768	2941
805.91	3119
806.052	3131
806.194	3036
806.336	3268
806.478	3032
806.62	2952
806.762	2994
806.904	3089
807.046	3180
807.188	2982
807.33	2906
807.472	2986
807.614	2922
807.756	2967
807.898	2941
808.04	2906
808.182	2967
808.324	2982
808.465	2868
808.607	2887
808.749	2796
808.891	2857
809.033	2975
809.174	2982
809.316	2880
809.458	2880
809.6	2804
809.741	2804
809.883	2769
810.025	2857
810.166	2868
810.308	2842
810.45	2849
810.591	2781
810.733	2815
810.875	2830
811.016	2773
811.158	2762
811.299	2842
811.441	2952
811.582	2891
811.724	2861
811.865	2834
812.007	2906
812.148	2906
812.29	2872
812.431	2918
812.573	2941
812.714	2982
812.855	3020
812.997	3047
813.138	3173
813.279	3009
813.421	2986
813.562	2982
813.703	2872
813.845	2902
813.986	2807
814.127	2727
814.268	2838
814.41	2880
814.551	2804
814.692	2880
814.833	2861
814.974	2899
815.115	2944
815.256	2800
815.397	2830
815.539	2842
815.68	2769
815.821	2800
815.962	2933
816.103	2914
816.244	2883
816.385	2883
816.526	2979
816.666	2925
816.807	2739
816.948	2929
817.089	2914
817.23	2853
817.371	2792
817.512	2815
817.653	2857
817.793	2823
817.934	2868
818.075	2960
818.216	3001
818.356	3001
818.497	2914
818.638	2788
818.778	2826
818.919	2811
819.06	2792
819.2	2914
819.341	2815
819.481	2823
819.622	2914
819.762	3100
819.903	3058
820.043	2967
820.184	2914
820.324	2910
820.465	3005
820.605	3047
820.746	3051
820.886	2914
821.026	3116
821.167	3184
821.307	3245
821.447	3317
821.588	3256
821.728	3211
821.868	3192
822.008	3066
822.149	3184
822.289	3241
822.429	3131
822.569	3089
822.709	3173
822.849	3013
822.99	3093
823.13	3154
823.27	3135
823.41	3097
823.55	3165
823.69	3157
823.83	3214
823.97	3081
824.11	2998
824.25	3020
824.389	3036
824.529	3119
824.669	3074
824.809	3203
824.949	3279
825.089	3165
825.228	3131
825.368	3009
825.508	2971
825.648	2979
825.787	2986
825.927	2990
826.067	2967
826.206	2952
826.346	3017
826.485	3085
826.625	3097
826.765	3272
826.904	3222
827.044	3013
827.183	2941
827.323	2868
827.462	3001
827.601	2933
827.741	2925
827.88	2914
828.02	2861
828.159	2990
828.298	3047
828.437	3104
828.577	3043
828.716	3249
828.855	3062
828.994	2956
829.134	2864
829.273	2922
829.412	2857
829.551	2891
829.69	2891
829.829	2986
829.968	3161
830.107	3039
830.246	3017
830.385	2891
830.524	2891
830.663	2811
830.802	2735
830.941	2663
831.08	2693
831.219	2766
831.357	2781
831.496	2941
831.635	2720
831.774	2659
831.913	2667
832.051	2575
832.19	2587
832.329	2674
832.467	2545
832.606	2480
832.744	2568
832.883	2590
833.022	2594
833.16	2640
833.299	2712
833.437	2655
833.576	2686
833.714	2746
833.852	2731
833.991	2769
834.129	2872
834.267	2838
834.406	2788
834.544	2853
834.682	2857
834.821	2857
834.959	3043
835.097	2899
835.235	3047
835.373	2994
835.511	3024
835.65	2998
835.788	2918
835.926	2849
836.064	2800
836.202	2861
836.34	3112
836.478	3123
836.615	3047
836.753	3131
836.891	3173
837.029	3176
837.167	3154
837.305	3043
837.443	3051
837.58	2960
837.718	3119
837.856	3074
837.993	3055
838.131	3104
838.269	3097
838.406	3112
838.544	3119
838.681	2956
838.819	2910
838.956	2823
839.094	2864
839.231	2899
839.369	3020
839.506	3363
839.643	3222
839.781	3066
839.918	2998
840.055	3017
840.193	3055
840.33	3085
840.467	3074
840.604	3176
840.742	3382
840.879	3081
841.016	3013
841.153	3093
841.29	3340
841.427	3283
841.564	3287
841.701	3336
841.838	3203
841.975	3176
842.112	3180
842.249	3077
842.385	3043
842.522	3233
842.659	3100
842.796	3077
842.933	3138
843.069	3017
843.206	3036
843.343	3222
843.479	3123
843.616	3150
843.752	2861
843.889	2861
844.025	3097
844.162	2914
844.298	3058
844.435	2948
844.571	2906
844.708	3062
844.844	3233
844.98	3222
845.117	3184
845.253	3051
845.389	2971
845.525	3116
845.661	3074
845.798	2994
845.934	3089
846.07	3081
846.206	3222
846.342	3332
846.478	3230
846.614	3039
846.75	3077
846.886	3047
847.022	3268
847.158	3161
847.294	3188
847.429	3275
847.565	3199
847.701	3485
847.837	3058
847.972	3028
848.108	3157
848.244	3138
848.379	3005
848.515	2941
848.65	2944
848.786	2971
848.921	3009
849.057	3119
849.192	3127
849.328	3112
849.463	3131
849.598	3039
849.734	3024
849.869	2994
850.004	2937
850.14	3009
850.275	2891
850.41	2864
850.545	2876
850.68	2933
850.815	2944
850.95	2971
851.085	3157
851.22	3108
851.355	3039
851.49	3001
851.625	2998
851.76	3009
851.895	2967
852.03	2887
852.165	3062
852.299	3066
852.434	3203
852.569	3135
852.703	3180
852.838	3275
852.973	3332
853.107	3317
853.242	3131
853.376	3066
853.511	2971
853.645	3020
853.78	3218
853.914	3104
854.048	3104
854.183	3100
854.317	3127
854.451	3253
854.585	3119
854.72	3047
854.854	3180
854.988	3066
855.122	3070
855.256	2960
855.39	3135
855.524	3211
855.658	3180
855.792	3161
855.926	3192
856.06	3218
856.194	3260
856.327	3169
856.461	3043
856.595	3089
856.729	3085
856.862	3203
856.996	3184
857.13	3233
857.263	3207
857.397	3268
857.53	3062
857.664	3165
857.797	3233
857.931	3260
858.064	3146
858.197	3207
858.331	3093
858.464	3097
858.597	3005
858.731	3074
858.864	3154
858.997	3077
859.13	3150
859.263	3184
859.396	3218
859.529	3077
859.662	3081
859.795	3024
859.928	3108
860.061	3287
860.194	3283
860.327	3135
860.46	3104
860.592	3207
860.725	3237
860.858	3241
860.99	3146
861.123	3058
861.256	3077
861.388	3131
861.521	3793
861.653	3024
861.786	2982
861.918	2971
862.05	3070
862.183	3074
862.315	3135
862.447	3214
862.58	3116
862.712	2933
862.844	2895
862.976	3024
863.108	2994
863.24	3313
863.372	2891
863.504	2994
863.636	3005
863.768	3062
863.9	2963
864.032	2891
864.164	2929
864.296	2998
864.428	3100
864.559	3077
864.691	3085
864.823	3051
864.954	2998
865.086	3020
865.217	2986
865.349	2929
865.48	2963
865.612	3043
865.743	3135
865.875	3001
866.006	2925
866.137	2948
866.269	2979
866.4	2929
866.531	2918
866.662	2902
866.793	2906
866.924	2895
867.055	2971
867.186	2914
867.317	2883
867.448	2849
867.579	2872
867.71	2807
867.841	2823
867.972	2914
868.103	2891
868.233	2861
868.364	2868
868.495	2891
868.625	3077
868.756	3146
868.886	3017
869.017	3013
869.147	3161
869.278	3146
869.408	3066
869.539	2994
869.669	3074
869.799	3047
869.929	3089
870.06	3123
870.19	3348
870.32	3306
870.45	3294
870.58	3367
870.71	3454
870.84	3431
870.97	3264
871.1	3237
871.23	3469
871.36	3458
871.489	3363
871.619	3401
871.749	3405
871.879	3409
872.008	3485
872.138	3306
872.267	3226
872.397	3138
872.526	3119
872.656	3013
872.785	3119
872.915	3218
873.044	3275
873.173	3233
873.303	3245
873.432	3237
873.561	3279
873.69	3150
873.819	3154
873.948	3230
874.077	3123
874.206	3028
874.335	3077
874.464	3184
874.593	3321
874.722	3218
874.851	3420
874.979	3329
875.108	3359
875.237	3154
875.365	3165
875.494	3199
875.623	3249
875.751	3074
875.88	3089
876.008	3207
876.136	3218
876.265	3348
876.393	3507
876.521	3420
876.65	3409
876.778	3325
876.906	3211
877.034	3188
877.162	3233
877.29	3176
877.418	3256
877.546	3249
877.674	3226
877.802	3233
877.93	3237
878.058	3161
878.185	3123
878.313	3199
878.441	3245
878.568	3074
878.696	3165
878.824	3256
878.951	3302
879.079	3466
879.206	3633
879.333	3450
879.461	3317
879.588	3355
879.715	3469
879.842	3584
879.97	3405
880.097	3192
880.224	3127
880.351	3207
880.478	3222
880.605	3222
880.732	3218
880.859	3469
880.986	3291
881.112	3336
881.239	3233
881.366	3051
881.493	3032
881.619	3020
881.746	3066
881.872	3085
881.999	3085
882.125	3138
882.252	3245
882.378	3298
882.505	3450
882.631	3329
882.757	3135
882.883	3207
883.01	3218
883.136	3176
883.262	3097
883.388	3104
883.514	3317
883.64	3351
883.766	3260
883.892	3195
884.018	3241
884.143	3401
884.269	3507
884.395	3207
884.52	3142
884.646	3176
884.772	3104
884.897	3104
885.023	3195
885.148	3325
885.274	3409
885.399	3329
885.524	3256
885.65	3260
885.775	3340
885.9	3302
886.025	3439
886.15	3359
886.275	3241
886.4	3279
886.525	3272
886.65	3268
886.775	3268
886.9	3507
887.025	3629
887.149	3386
887.274	3275
887.399	3165
887.523	3192
887.648	3184
887.773	3218
887.897	3340
888.021	3393
888.146	3306
888.27	3443
888.395	3504
888.519	3450
888.643	3401
888.767	3462
888.891	3332
889.015	3253
889.139	3310
889.263	3245
889.387	3386
889.511	3515
889.635	3454
889.759	3310
889.883	3298
890.006	3409
890.13	3526
890.254	3222
890.377	3348
890.501	3230
890.624	3157
890.748	3302
890.871	3184
890.995	3100
891.118	3047
891.241	3218
891.364	3211
891.488	3321
891.611	3176
891.734	3218
891.857	3298
891.98	3233
892.103	3340
892.226	3249
892.349	3241
892.471	3119
892.594	3218
892.717	3313
892.839	3253
892.962	3317
893.085	3340
893.207	3321
893.33	3142
893.452	3169
893.575	3317
893.697	3256
893.819	3496
893.941	3515
894.064	3420
894.186	3249
894.308	3272
894.43	3466
894.552	3511
894.674	3439
894.796	3249
894.918	3294
895.04	3298
895.161	3397
895.283	3393
895.405	3306
895.526	3359
895.648	3416
895.769	3393
895.891	3454
896.012	3439
896.134	3477
896.255	3397
896.376	3363
896.498	3359
896.619	3428
896.74	3359
896.861	3447
896.982	3713
897.103	3838
897.224	3614
897.345	3530
897.466	3420
897.587	3504
897.708	3618
897.828	3561
897.949	3435
898.07	3329
898.19	3428
898.311	3637
898.431	3500
898.552	3492
898.672	3526
898.792	3576
898.913	3504
899.033	3409
899.153	3268
899.273	3218
899.393	3283
899.513	3317
899.633	3329
899.753	3359
899.873	3317
899.993	3439
900.113	3340
900.232	3378
900.352	3359
900.472	3275
900.591	3218
900.711	3287
900.83	3245
900.95	3397
901.069	3496
901.189	3336
901.308	3184
901.427	3165
901.546	3150
901.665	3310
901.784	3291
901.904	3188
902.023	3112
902.141	3032
902.26	3001
902.379	3123
902.498	3077
902.617	3051
902.735	3184
902.854	3214
902.973	3230
903.091	3039
903.21	3074
903.328	3150
903.446	3154
903.565	3112
903.683	3237
903.801	3138
903.919	3245
904.038	3237
904.156	3180
904.274	3275
904.392	3226
904.51	3268
904.627	3348
904.745	3458
904.863	3462
904.981	3256
905.098	3176
905.216	3211
905.334	3313
905.451	3298
905.569	3260
905.686	3424
905.803	3393
905.921	3294
906.038	3447
906.155	3325
906.272	3268
906.389	3306
906.506	3264
906.623	3241
906.74	3253
906.857	3161
906.974	3283
907.091	3405
907.208	3538
907.324	3435
907.441	3389
907.557	3245
907.674	3203
907.79	3192
907.907	3279
908.023	3382
908.139	3393
908.256	3302
908.372	3363
908.488	3355
908.604	3253
908.72	3237
908.836	3313
908.952	3275
909.068	3313
909.184	3450
909.3	3443
909.415	3488
909.531	3496
909.647	3275
909.762	3279
909.878	3237
909.993	3336
910.108	3321
910.224	3351
910.339	3443
910.454	3313
910.57	3256
910.685	3264
910.8	3622
910.915	3515
911.03	3424
911.145	3237
911.259	3241
911.374	3287
911.489	3264
911.604	3237
911.718	3108
911.833	3138
911.947	3032
912.062	2960
912.176	3157
912.291	3161
912.405	3188
912.519	3412
912.633	3530
912.748	3332
912.862	3260
912.976	3135
913.09	3039
913.204	3146
913.318	3211
913.431	3340
913.545	3344
913.659	3397
913.772	3348
913.886	3237
914	3199
914.113	3351
914.226	3412
914.34	3321
914.453	3245
914.566	3409
914.68	3272
914.793	3336
914.906	3157
915.019	3119
915.132	3020
915.245	3180
915.358	3218
915.47	3230
915.583	3283
915.696	3329
915.809	3386
915.921	3428
916.034	3264
916.146	3241
916.259	3233
916.371	3351
916.483	3367
916.595	3275
916.708	3336
916.82	3317
916.932	3306
917.044	3329
917.156	3321
917.268	3249
917.38	3291
917.491	3306
917.603	3393
917.715	3466
917.826	3462
917.938	3405
918.049	3237
918.161	3397
918.272	3606
918.384	3572
918.495	3469
918.606	3351
918.717	3264
918.828	3367
918.939	3439
919.05	3283
919.161	3348
919.272	3176
919.383	3253
919.494	3507
919.604	3656
919.715	3515
919.826	3393
919.936	3458
920.047	3584
920.157	3504
920.267	3766
920.378	3606
920.488	3538
920.598	3781
920.708	3934
920.818	3781
920.928	3831
921.038	4002
921.148	3972
921.258	3682
921.368	3644
921.477	3572
921.587	3515
921.697	3439
921.806	3595
921.916	3519
922.025	3321
922.134	3329
922.244	3317
922.353	3428
922.462	3233
922.571	3199
922.68	3055
922.789	3108
922.898	3146
923.007	3108
923.116	3188
923.224	3180
923.333	3169
923.442	3081
923.55	3112
923.659	3119
923.767	3211
923.876	3123
923.984	3218
924.092	3077
924.201	3192
924.309	3199
924.417	3230
924.525	3218
924.633	3226
924.741	4021
924.849	3039
924.956	3302
925.064	3112
925.172	3047
925.279	3135
925.387	3203
925.494	3180
925.602	3370
925.709	3355
925.816	3192
925.924	3268
926.031	3409
926.138	3306
926.245	3401
926.352	3226
926.459	3412
926.566	3447
926.673	3332
926.779	3253
926.886	3237
926.993	3161
927.099	3135
927.206	3089
927.312	3119
927.419	3260
927.525	3195
927.631	3233
927.737	3104
927.843	3108
927.95	3024
928.056	3142
928.162	3169
928.267	3226
928.373	3762
928.479	3287
928.585	3058
928.69	3222
928.796	3313
928.901	3150
929.007	3005
929.112	3195
929.218	3157
929.323	3135
929.428	3150
929.533	3321
929.638	3123
929.743	3176
929.848	3275
929.953	3222
930.058	3146
930.163	2979
930.267	3051
930.372	3180
930.477	3043
930.581	3306
930.685	3165
930.79	3017
930.894	3138
930.998	3077
931.103	3279
931.207	2967
931.311	2937
931.415	2925
931.519	2781
931.623	2811
