Data from test_V78500241_392.txt Node
Date: Fri Mar 25 16:17:55 CST 2022
User: usil
Spectrometer: V785-0024
Trigger mode: 0
Integration Time (sec): 4.000000E-1
Scans to average: 1
Nonlinearity correction enabled: false
Boxcar width: 0
Storing dark spectrum: false
XAxis mode: Wavelengths
Number of Pixels in Spectrum: 1024
>>>>>Begin Spectral Data<<<<<
801.071	2872
801.214	2979
801.356	2891
801.499	2845
801.641	2830
801.783	2925
801.926	3036
802.068	2948
802.211	2979
802.353	3039
802.496	2944
802.638	2979
802.78	3074
802.923	3085
803.065	3005
803.208	2872
803.35	2906
803.492	2941
803.635	2941
803.777	2769
803.919	2868
804.061	3188
804.204	2971
804.346	2910
804.488	2861
804.63	2982
804.773	2861
804.915	2891
805.057	3089
805.199	2941
805.341	2952
805.483	3047
805.626	2990
805.768	2944
805.91	3100
806.052	3123
806.194	2990
806.336	3218
806.478	2998
806.62	2941
806.762	2975
806.904	3043
807.046	3150
807.188	2975
807.33	2883
807.472	3005
807.614	2914
807.756	2960
807.898	2891
808.04	2883
808.182	2944
808.324	2918
808.465	2853
808.607	2891
808.749	2807
808.891	2834
809.033	2975
809.174	2967
809.316	2887
809.458	2880
809.6	2773
809.741	2746
809.883	2777
810.025	2861
810.166	2868
810.308	2864
810.45	2849
810.591	2819
810.733	2773
810.875	2861
811.016	2773
811.158	2792
811.299	2815
811.441	2902
811.582	2880
811.724	2834
811.865	2826
812.007	2861
812.148	2868
812.29	2849
812.431	2895
812.573	2929
812.714	2956
812.855	3001
812.997	3055
813.138	3089
813.279	3005
813.421	2948
813.562	2948
813.703	2883
813.845	2872
813.986	2788
814.127	2708
814.268	2811
814.41	2826
814.551	2815
814.692	2853
814.833	2823
814.974	2899
815.115	2971
815.256	2834
815.397	2792
815.539	2853
815.68	2788
815.821	2792
815.962	2933
816.103	2902
816.244	2876
816.385	2868
816.526	2960
816.666	2887
816.807	2754
816.948	2880
817.089	2880
817.23	2826
817.371	2792
817.512	2807
817.653	2845
817.793	2849
817.934	2876
818.075	2963
818.216	2952
818.356	2994
818.497	2883
818.638	2777
818.778	2766
818.919	2796
819.06	2766
819.2	2883
819.341	2811
819.481	2819
819.622	2944
819.762	3039
819.903	3104
820.043	2906
820.184	2902
820.324	2899
820.465	2990
820.605	3024
820.746	3024
820.886	2925
821.026	3108
821.167	3173
821.307	3272
821.447	3230
821.588	3199
821.728	3169
821.868	3184
822.008	3100
822.149	3188
822.289	3245
822.429	3062
822.569	3066
822.709	3169
822.849	3028
822.99	3062
823.13	3176
823.27	3199
823.41	3112
823.55	3116
823.69	3176
823.83	3192
823.97	3043
824.11	3005
824.25	2994
824.389	3066
824.529	3070
824.669	3055
824.809	3184
824.949	3233
825.089	3203
825.228	3154
825.368	2986
825.508	2986
825.648	2975
825.787	3020
825.927	3017
826.067	2937
826.206	2975
826.346	3017
826.485	3100
826.625	3089
826.765	3237
826.904	3184
827.044	2975
827.183	2925
827.323	2899
827.462	3001
827.601	2902
827.741	2937
827.88	2933
828.02	2849
828.159	2979
828.298	3024
828.437	3108
828.577	3009
828.716	3233
828.855	3093
828.994	2906
829.134	2906
829.273	2902
829.412	2883
829.551	2887
829.69	2891
829.829	3001
829.968	3131
830.107	3013
830.246	3036
830.385	2944
830.524	2883
830.663	2758
830.802	2724
830.941	2629
831.08	2640
831.219	2811
831.357	2777
831.496	2944
831.635	2724
831.774	2636
831.913	2670
832.051	2530
832.19	2556
832.329	2705
832.467	2541
832.606	2503
832.744	2587
832.883	2587
833.022	2575
833.16	2655
833.299	2678
833.437	2708
833.576	2640
833.714	2720
833.852	2743
833.991	2781
834.129	2845
834.267	2830
834.406	2766
834.544	2872
834.682	2845
834.821	2845
834.959	3070
835.097	2838
835.235	3055
835.373	2990
835.511	2960
835.65	2933
835.788	2929
835.926	2849
836.064	2815
836.202	2830
836.34	3062
836.478	3176
836.615	3017
836.753	3138
836.891	3226
837.029	3184
837.167	3154
837.305	3077
837.443	3024
837.58	2990
837.718	3108
837.856	2994
837.993	3005
838.131	3070
838.269	3074
838.406	3081
838.544	3085
838.681	2952
838.819	2880
838.956	2788
839.094	2826
839.231	2937
839.369	3032
839.506	3348
839.643	3211
839.781	2979
839.918	2937
840.055	3036
840.193	2998
840.33	3070
840.467	3089
840.604	3154
840.742	3363
840.879	3001
841.016	3066
841.153	3135
841.29	3351
841.427	3283
841.564	3298
841.701	3313
841.838	3180
841.975	3195
842.112	3218
842.249	3074
842.385	3036
842.522	3230
842.659	3085
842.796	3062
842.933	3051
843.069	3005
843.206	3017
843.343	3188
843.479	3131
843.616	3154
843.752	2883
843.889	2845
844.025	3085
844.162	2887
844.298	3055
844.435	2929
844.571	2933
844.708	3055
844.844	3184
844.98	3184
845.117	3199
845.253	3043
845.389	2994
845.525	3123
845.661	3070
845.798	3005
845.934	3119
846.07	3055
846.206	3199
846.342	3351
846.478	3230
846.614	3062
846.75	3070
846.886	3017
847.022	3279
847.158	3161
847.294	3203
847.429	3211
847.565	3211
847.701	3481
847.837	3039
847.972	3017
848.108	3165
848.244	3176
848.379	2986
848.515	2929
848.65	2906
848.786	2960
848.921	2979
849.057	3100
849.192	3169
849.328	3028
849.463	3127
849.598	3062
849.734	3001
849.869	2929
850.004	2944
850.14	2914
850.275	2948
850.41	2815
850.545	2872
850.68	2891
850.815	2891
850.95	2975
851.085	3161
851.22	3135
851.355	2994
851.49	2967
851.625	3009
851.76	2986
851.895	2929
852.03	2925
852.165	3047
852.299	3138
852.434	3161
852.569	3154
852.703	3154
852.838	3226
852.973	3336
853.107	3294
853.242	3176
853.376	3070
853.511	2933
853.645	3024
853.78	3249
853.914	3100
854.048	3116
854.183	3085
854.317	3150
854.451	3275
854.585	3123
854.72	3036
854.854	3214
854.988	3058
855.122	3055
855.256	2982
855.39	3127
855.524	3253
855.658	3157
855.792	3154
855.926	3180
856.06	3256
856.194	3260
856.327	3127
856.461	3055
856.595	3070
856.729	3066
856.862	3218
856.996	3195
857.13	3188
857.263	3211
857.397	3275
857.53	3123
857.664	3230
857.797	3253
857.931	3253
858.064	3161
858.197	3161
858.331	3116
858.464	3058
858.597	3001
858.731	3127
858.864	3135
858.997	3066
859.13	3161
859.263	3161
859.396	3195
859.529	3104
859.662	3100
859.795	3032
859.928	3169
860.061	3264
860.194	3317
860.327	3097
860.46	3104
860.592	3237
860.725	3233
860.858	3241
860.99	3093
861.123	3070
861.256	3051
861.388	3116
861.521	3816
861.653	3009
861.786	2975
861.918	3036
862.05	3032
862.183	3062
862.315	3123
862.447	3176
862.58	3127
862.712	2929
862.844	2891
862.976	3039
863.108	3001
863.24	3386
863.372	2864
863.504	2963
863.636	2899
863.768	3017
863.9	2952
864.032	2872
864.164	2982
864.296	3036
864.428	3062
864.559	3100
864.691	3055
864.823	3062
864.954	2994
865.086	3017
865.217	3013
865.349	2941
865.48	2967
865.612	2990
865.743	3131
865.875	3013
866.006	2933
866.137	2963
866.269	2941
866.4	2902
866.531	2925
866.662	2861
866.793	2891
866.924	2899
867.055	2990
867.186	2925
867.317	2887
867.448	2853
867.579	2849
867.71	2842
867.841	2811
867.972	2902
868.103	2922
868.233	2883
868.364	2872
868.495	2906
868.625	3123
868.756	3138
868.886	2952
869.017	2998
869.147	3135
869.278	3135
869.408	3047
869.539	3009
869.669	3089
869.799	3020
869.929	3085
870.06	3089
870.19	3325
870.32	3291
870.45	3283
870.58	3367
870.71	3397
870.84	3428
870.97	3279
871.1	3245
871.23	3515
871.36	3454
871.489	3313
871.619	3409
871.749	3355
871.879	3435
872.008	3504
872.138	3348
872.267	3256
872.397	3173
872.526	3085
872.656	2982
872.785	3100
872.915	3203
873.044	3310
873.173	3256
873.303	3256
873.432	3214
873.561	3230
873.69	3203
873.819	3135
873.948	3195
874.077	3089
874.206	3062
874.335	3085
874.464	3199
874.593	3336
874.722	3207
874.851	3367
874.979	3355
875.108	3344
875.237	3207
875.365	3176
875.494	3154
875.623	3222
875.751	3066
875.88	3089
876.008	3195
876.136	3214
876.265	3359
876.393	3515
876.521	3420
876.65	3412
876.778	3317
876.906	3233
877.034	3173
877.162	3275
877.29	3138
877.418	3230
877.546	3268
877.674	3264
877.802	3233
877.93	3249
878.058	3195
878.185	3100
878.313	3169
878.441	3188
878.568	3051
878.696	3146
878.824	3226
878.951	3313
879.079	3420
879.206	3622
879.333	3435
879.461	3302
879.588	3310
879.715	3500
879.842	3618
879.97	3374
880.097	3173
880.224	3097
880.351	3150
880.478	3195
880.605	3199
880.732	3218
880.859	3450
880.986	3306
881.112	3336
881.239	3230
881.366	3081
881.493	3005
881.619	3017
881.746	3085
881.872	3093
881.999	3104
882.125	3127
882.252	3241
882.378	3264
882.505	3435
882.631	3279
882.757	3142
882.883	3184
883.01	3199
883.136	3142
883.262	3089
883.388	3112
883.514	3317
883.64	3336
883.766	3294
883.892	3180
884.018	3237
884.143	3386
884.269	3526
884.395	3169
884.52	3161
884.646	3195
884.772	3100
884.897	3089
885.023	3180
885.148	3291
885.274	3412
885.399	3389
885.524	3272
885.65	3237
885.775	3298
885.9	3260
886.025	3370
886.15	3393
886.275	3306
886.4	3226
886.525	3283
886.65	3264
886.775	3272
886.9	3439
887.025	3603
887.149	3389
887.274	3249
887.399	3157
887.523	3188
887.648	3169
887.773	3199
887.897	3348
888.021	3416
888.146	3317
888.27	3420
888.395	3504
888.519	3420
888.643	3458
888.767	3481
888.891	3291
889.015	3230
889.139	3306
889.263	3222
889.387	3363
889.511	3519
889.635	3435
889.759	3291
889.883	3264
890.006	3370
890.13	3492
890.254	3268
890.377	3344
890.501	3211
890.624	3180
890.748	3275
890.871	3180
890.995	3097
891.118	3066
891.241	3180
891.364	3195
891.488	3291
891.611	3169
891.734	3218
891.857	3302
891.98	3249
892.103	3317
892.226	3272
892.349	3207
892.471	3085
892.594	3241
892.717	3275
892.839	3245
892.962	3287
893.085	3386
893.207	3264
893.33	3135
893.452	3230
893.575	3325
893.697	3230
893.819	3431
893.941	3485
894.064	3458
894.186	3260
894.308	3260
894.43	3435
894.552	3561
894.674	3420
894.796	3268
894.918	3313
895.04	3298
895.161	3462
895.283	3389
895.405	3317
895.526	3359
895.648	3382
895.769	3397
895.891	3462
896.012	3469
896.134	3439
896.255	3409
896.376	3393
896.498	3321
896.619	3420
896.74	3348
896.861	3389
896.982	3648
897.103	3812
897.224	3576
897.345	3485
897.466	3412
897.587	3496
897.708	3644
897.828	3538
897.949	3405
898.07	3306
898.19	3370
898.311	3576
898.431	3420
898.552	3500
898.672	3580
898.792	3545
898.913	3511
899.033	3389
899.153	3268
899.273	3203
899.393	3306
899.513	3275
899.633	3291
899.753	3306
899.873	3321
899.993	3367
900.113	3332
900.232	3367
900.352	3336
900.472	3283
900.591	3195
900.711	3272
900.83	3256
900.95	3401
901.069	3485
901.189	3317
901.308	3192
901.427	3123
901.546	3165
901.665	3264
901.784	3317
901.904	3199
902.023	3142
902.141	3051
902.26	2963
902.379	3085
902.498	3062
902.617	3058
902.735	3180
902.854	3226
902.973	3203
903.091	3070
903.21	3047
903.328	3142
903.446	3112
903.565	3089
903.683	3176
903.801	3100
903.919	3245
904.038	3241
904.156	3161
904.274	3279
904.392	3226
904.51	3237
904.627	3332
904.745	3416
904.863	3523
904.981	3245
905.098	3165
905.216	3233
905.334	3283
905.451	3264
905.569	3321
905.686	3454
905.803	3397
905.921	3321
906.038	3412
906.155	3405
906.272	3275
906.389	3325
906.506	3233
906.623	3264
906.74	3264
906.857	3165
906.974	3272
907.091	3401
907.208	3580
907.324	3507
907.441	3351
907.557	3260
907.674	3218
907.79	3218
907.907	3260
908.023	3393
908.139	3351
908.256	3329
908.372	3344
908.488	3313
908.604	3256
908.72	3237
908.836	3275
908.952	3279
909.068	3321
909.184	3481
909.3	3386
909.415	3504
909.531	3473
909.647	3237
909.762	3260
909.878	3222
909.993	3355
910.108	3321
910.224	3294
910.339	3378
910.454	3351
910.57	3275
910.685	3264
910.8	3568
910.915	3511
911.03	3439
911.145	3253
911.259	3275
911.374	3279
911.489	3222
911.604	3256
911.718	3108
911.833	3127
911.947	2986
912.062	2960
912.176	3119
912.291	3157
912.405	3260
912.519	3378
912.633	3450
912.748	3310
912.862	3306
912.976	3157
913.09	3051
913.204	3112
913.318	3218
913.431	3306
913.545	3344
913.659	3393
913.772	3340
913.886	3211
914	3199
914.113	3329
914.226	3409
914.34	3412
914.453	3207
914.566	3428
914.68	3287
914.793	3275
914.906	3116
915.019	3104
915.132	3062
915.245	3123
915.358	3214
915.47	3226
915.583	3256
915.696	3283
915.809	3359
915.921	3409
916.034	3264
916.146	3230
916.259	3230
916.371	3386
916.483	3386
916.595	3253
916.708	3355
916.82	3317
916.932	3329
917.044	3378
917.156	3321
917.268	3230
917.38	3294
917.491	3310
917.603	3340
917.715	3439
917.826	3450
917.938	3348
918.049	3256
918.161	3420
918.272	3553
918.384	3568
918.495	3469
918.606	3351
918.717	3253
918.828	3340
918.939	3370
919.05	3260
919.161	3325
919.272	3184
919.383	3253
919.494	3500
919.604	3675
919.715	3439
919.826	3416
919.936	3424
920.047	3599
920.157	3523
920.267	3785
920.378	3584
920.488	3553
920.598	3789
920.708	3945
920.818	3823
920.928	3800
921.038	3994
921.148	3987
921.258	3717
921.368	3599
921.477	3568
921.587	3538
921.697	3428
921.806	3656
921.916	3515
922.025	3321
922.134	3344
922.244	3298
922.353	3397
922.462	3283
922.571	3218
922.68	3112
922.789	3051
922.898	3131
923.007	3097
923.116	3218
923.224	3176
923.333	3131
923.442	3089
923.55	3058
923.659	3119
923.767	3207
923.876	3074
923.984	3237
924.092	3138
924.201	3199
924.309	3176
924.417	3283
924.525	3203
924.633	3275
924.741	4185
924.849	3051
924.956	3302
925.064	3112
925.172	3032
925.279	3127
925.387	3214
925.494	3199
925.602	3370
925.709	3378
925.816	3192
925.924	3302
926.031	3401
926.138	3367
926.245	3359
926.352	3241
926.459	3447
926.566	3504
926.673	3329
926.779	3283
926.886	3298
926.993	3161
927.099	3169
927.206	3112
927.312	3150
927.419	3233
927.525	3241
927.631	3306
927.737	3199
927.843	3161
927.95	3066
928.056	3199
928.162	3237
928.267	3264
928.373	3926
928.479	3348
928.585	3097
928.69	3237
928.796	3313
928.901	3203
929.007	3077
929.112	3260
929.218	3237
929.323	3127
929.428	3203
929.533	3363
929.638	3154
929.743	3192
929.848	3256
929.953	3291
930.058	3150
930.163	3001
930.267	3108
930.372	3260
930.477	3081
930.581	3310
930.685	3230
930.79	3112
930.894	3165
930.998	3131
931.103	3329
931.207	2956
931.311	2975
931.415	2979
931.519	2796
931.623	2834
