Data from test_V78500241_1427.txt Node
Date: Fri Mar 25 16:25:05 CST 2022
User: usil
Spectrometer: V785-0024
Trigger mode: 0
Integration Time (sec): 4.000000E-1
Scans to average: 1
Nonlinearity correction enabled: false
Boxcar width: 0
Storing dark spectrum: false
XAxis mode: Wavelengths
Number of Pixels in Spectrum: 1024
>>>>>Begin Spectral Data<<<<<
801.071	2971
801.214	2952
801.356	2887
801.499	2937
801.641	2902
801.783	2925
801.926	3074
802.068	3005
802.211	3032
802.353	2998
802.496	2963
802.638	3028
802.78	3074
802.923	3047
803.065	3009
803.208	2941
803.35	2925
803.492	2937
803.635	2918
803.777	2773
803.919	2857
804.061	3195
804.204	2967
804.346	2960
804.488	2887
804.63	2963
804.773	2880
804.915	2883
805.057	3104
805.199	2944
805.341	3001
805.483	3070
805.626	2990
805.768	2956
805.91	3108
806.052	3135
806.194	3043
806.336	3249
806.478	3009
806.62	2960
806.762	2986
806.904	3089
807.046	3176
807.188	3001
807.33	2918
807.472	2982
807.614	2899
807.756	2986
807.898	2944
808.04	2918
808.182	2952
808.324	2971
808.465	2891
808.607	2891
808.749	2819
808.891	2819
809.033	2975
809.174	2922
809.316	2918
809.458	2868
809.6	2773
809.741	2777
809.883	2739
810.025	2834
810.166	2830
810.308	2845
810.45	2845
810.591	2788
810.733	2788
810.875	2845
811.016	2766
811.158	2731
811.299	2830
811.441	2918
811.582	2899
811.724	2857
811.865	2864
812.007	2929
812.148	2861
812.29	2842
812.431	2929
812.573	2948
812.714	2941
812.855	3032
812.997	3089
813.138	3108
813.279	2998
813.421	2963
813.562	2933
813.703	2853
813.845	2891
813.986	2807
814.127	2746
814.268	2777
814.41	2819
814.551	2815
814.692	2895
814.833	2800
814.974	2891
815.115	2952
815.256	2830
815.397	2781
815.539	2906
815.68	2754
815.821	2758
815.962	2929
816.103	2914
816.244	2891
816.385	2868
816.526	2963
816.666	2922
816.807	2769
816.948	2861
817.089	2922
817.23	2861
817.371	2796
817.512	2804
817.653	2834
817.793	2830
817.934	2861
818.075	2948
818.216	2967
818.356	3043
818.497	2906
818.638	2819
818.778	2830
818.919	2773
819.06	2777
819.2	2883
819.341	2785
819.481	2781
819.622	2922
819.762	3104
819.903	3062
820.043	2906
820.184	2891
820.324	2868
820.465	3013
820.605	2994
820.746	3039
820.886	2933
821.026	3074
821.167	3146
821.307	3275
821.447	3287
821.588	3245
821.728	3192
821.868	3192
822.008	3062
822.149	3203
822.289	3256
822.429	3116
822.569	3077
822.709	3157
822.849	3058
822.99	3089
823.13	3135
823.27	3195
823.41	3146
823.55	3135
823.69	3176
823.83	3207
823.97	3123
824.11	3028
824.25	3020
824.389	3100
824.529	3135
824.669	3085
824.809	3237
824.949	3279
825.089	3218
825.228	3226
825.368	3047
825.508	3013
825.648	3024
825.787	3062
825.927	3085
826.067	3013
826.206	3020
826.346	3070
826.485	3131
826.625	3135
826.765	3306
826.904	3264
827.044	3047
827.183	2979
827.323	2895
827.462	3043
827.601	2971
827.741	2971
827.88	2975
828.02	2918
828.159	3009
828.298	3055
828.437	3112
828.577	3058
828.716	3275
828.855	3108
828.994	2956
829.134	2944
829.273	2914
829.412	2910
829.551	2910
829.69	2944
829.829	3020
829.968	3146
830.107	3058
830.246	3097
830.385	2956
830.524	2922
830.663	2838
830.802	2766
830.941	2716
831.08	2682
831.219	2804
831.357	2811
831.496	2971
831.635	2754
831.774	2686
831.913	2720
832.051	2571
832.19	2617
832.329	2712
832.467	2587
832.606	2530
832.744	2613
832.883	2625
833.022	2629
833.16	2667
833.299	2708
833.437	2739
833.576	2754
833.714	2762
833.852	2769
833.991	2773
834.129	2857
834.267	2868
834.406	2811
834.544	2883
834.682	2922
834.821	2914
834.959	3100
835.097	2937
835.235	3093
835.373	3039
835.511	3066
835.65	2967
835.788	2990
835.926	2834
836.064	2868
836.202	2819
836.34	3131
836.478	3173
836.615	3112
836.753	3154
836.891	3237
837.029	3195
837.167	3154
837.305	3055
837.443	3074
837.58	3005
837.718	3127
837.856	3066
837.993	3081
838.131	3142
838.269	3138
838.406	3127
838.544	3142
838.681	2933
838.819	2925
838.956	2872
839.094	2872
839.231	2925
839.369	3058
839.506	3374
839.643	3237
839.781	3104
839.918	3005
840.055	3093
840.193	3077
840.33	3066
840.467	3138
840.604	3173
840.742	3435
840.879	3089
841.016	3081
841.153	3123
841.29	3378
841.427	3348
841.564	3298
841.701	3348
841.838	3260
841.975	3184
842.112	3256
842.249	3116
842.385	3066
842.522	3275
842.659	3154
842.796	3058
842.933	3100
843.069	3085
843.206	3062
843.343	3230
843.479	3108
843.616	3127
843.752	2914
843.889	2902
844.025	3131
844.162	2922
844.298	3131
844.435	2967
844.571	2922
844.708	3074
844.844	3226
844.98	3241
845.117	3233
845.253	3085
845.389	3036
845.525	3119
845.661	3154
845.798	3020
845.934	3157
846.07	3112
846.206	3211
846.342	3310
846.478	3279
846.614	3100
846.75	3085
846.886	3066
847.022	3275
847.158	3188
847.294	3211
847.429	3279
847.565	3264
847.701	3534
847.837	3047
847.972	3032
848.108	3173
848.244	3116
848.379	2986
848.515	2944
848.65	2982
848.786	2994
848.921	3043
849.057	3119
849.192	3142
849.328	3039
849.463	3176
849.598	3100
849.734	3062
849.869	2998
850.004	2986
850.14	2998
850.275	2933
850.41	2887
850.545	2922
850.68	2948
850.815	2986
850.95	2986
851.085	3214
851.22	3119
851.355	3028
851.49	3036
851.625	3005
851.76	3032
851.895	2929
852.03	2941
852.165	3062
852.299	3093
852.434	3233
852.569	3188
852.703	3241
852.838	3268
852.973	3370
853.107	3351
853.242	3203
853.376	3104
853.511	2986
853.645	3077
853.78	3268
853.914	3142
854.048	3127
854.183	3066
854.317	3173
854.451	3317
854.585	3138
854.72	3097
854.854	3275
854.988	3055
855.122	3089
855.256	3009
855.39	3138
855.524	3253
855.658	3203
855.792	3192
855.926	3192
856.06	3233
856.194	3321
856.327	3176
856.461	3074
856.595	3108
856.729	3097
856.862	3253
856.996	3199
857.13	3230
857.263	3253
857.397	3264
857.53	3142
857.664	3218
857.797	3260
857.931	3245
858.064	3127
858.197	3207
858.331	3180
858.464	3081
858.597	3009
858.731	3135
858.864	3180
858.997	3154
859.13	3176
859.263	3230
859.396	3226
859.529	3089
859.662	3104
859.795	3058
859.928	3154
860.061	3256
860.194	3268
860.327	3154
860.46	3093
860.592	3256
860.725	3260
860.858	3241
860.99	3123
861.123	3047
861.256	3036
861.388	3176
861.521	3869
861.653	3024
861.786	3020
861.918	2994
862.05	3100
862.183	3112
862.315	3123
862.447	3230
862.58	3127
862.712	2960
862.844	2864
862.976	3009
863.108	3013
863.24	3363
863.372	2918
863.504	2971
863.636	2956
863.768	3074
863.9	3013
864.032	2914
864.164	2963
864.296	3028
864.428	3112
864.559	3131
864.691	3047
864.823	3032
864.954	3070
865.086	3047
865.217	3005
865.349	2967
865.48	2990
865.612	3028
865.743	3157
865.875	3024
866.006	2952
866.137	3013
866.269	2944
866.4	2952
866.531	2963
866.662	2910
866.793	2880
866.924	2929
867.055	3036
867.186	2952
867.317	2895
867.448	2876
867.579	2872
867.71	2864
867.841	2807
867.972	2906
868.103	2944
868.233	2906
868.364	2902
868.495	2963
868.625	3097
868.756	3192
868.886	3005
869.017	3055
869.147	3188
869.278	3154
869.408	3051
869.539	3085
869.669	3123
869.799	3066
869.929	3173
870.06	3176
870.19	3321
870.32	3306
870.45	3332
870.58	3386
870.71	3485
870.84	3447
870.97	3332
871.1	3275
871.23	3530
871.36	3481
871.489	3291
871.619	3428
871.749	3409
871.879	3450
872.008	3507
872.138	3363
872.267	3325
872.397	3142
872.526	3089
872.656	3047
872.785	3108
872.915	3256
873.044	3336
873.173	3218
873.303	3264
873.432	3275
873.561	3256
873.69	3180
873.819	3176
873.948	3222
874.077	3146
874.206	3047
874.335	3085
874.464	3226
874.593	3359
874.722	3253
874.851	3409
874.979	3416
875.108	3336
875.237	3157
875.365	3188
875.494	3192
875.623	3264
875.751	3119
875.88	3173
876.008	3264
876.136	3218
876.265	3386
876.393	3492
876.521	3424
876.65	3401
876.778	3355
876.906	3264
877.034	3199
877.162	3256
877.29	3214
877.418	3256
877.546	3272
877.674	3275
877.802	3317
877.93	3222
878.058	3176
878.185	3123
878.313	3203
878.441	3214
878.568	3093
878.696	3131
878.824	3298
878.951	3272
879.079	3428
879.206	3644
879.333	3496
879.461	3351
879.588	3389
879.715	3439
879.842	3656
879.97	3386
880.097	3176
880.224	3146
880.351	3199
880.478	3230
880.605	3173
880.732	3195
880.859	3500
880.986	3325
881.112	3348
881.239	3245
881.366	3116
881.493	3051
881.619	3024
881.746	3074
881.872	3135
881.999	3127
882.125	3176
882.252	3249
882.378	3317
882.505	3458
882.631	3313
882.757	3165
882.883	3218
883.01	3230
883.136	3180
883.262	3108
883.388	3135
883.514	3302
883.64	3370
883.766	3367
883.892	3184
884.018	3260
884.143	3412
884.269	3606
884.395	3249
884.52	3157
884.646	3184
884.772	3154
884.897	3135
885.023	3253
885.148	3351
885.274	3458
885.399	3389
885.524	3272
885.65	3264
885.775	3313
885.9	3260
886.025	3477
886.15	3351
886.275	3291
886.4	3211
886.525	3336
886.65	3264
886.775	3291
886.9	3519
887.025	3637
887.149	3397
887.274	3249
887.399	3184
887.523	3237
887.648	3173
887.773	3157
887.897	3374
888.021	3439
888.146	3302
888.27	3454
888.395	3557
888.519	3462
888.643	3416
888.767	3466
888.891	3321
889.015	3245
889.139	3302
889.263	3226
889.387	3439
889.511	3519
889.635	3466
889.759	3313
889.883	3291
890.006	3412
890.13	3466
890.254	3241
890.377	3367
890.501	3169
890.624	3188
890.748	3317
890.871	3184
890.995	3131
891.118	3024
891.241	3233
891.364	3207
891.488	3378
891.611	3207
891.734	3233
891.857	3306
891.98	3256
892.103	3351
892.226	3272
892.349	3226
892.471	3100
892.594	3256
892.717	3302
892.839	3279
892.962	3336
893.085	3378
893.207	3310
893.33	3161
893.452	3233
893.575	3378
893.697	3253
893.819	3450
893.941	3530
894.064	3439
894.186	3233
894.308	3298
894.43	3450
894.552	3538
894.674	3481
894.796	3279
894.918	3340
895.04	3310
895.161	3450
895.283	3378
895.405	3332
895.526	3370
895.648	3450
895.769	3458
895.891	3473
896.012	3443
896.134	3466
896.255	3477
896.376	3363
896.498	3336
896.619	3409
896.74	3340
896.861	3386
896.982	3709
897.103	3861
897.224	3584
897.345	3545
897.466	3447
897.587	3473
897.708	3606
897.828	3576
897.949	3466
898.07	3329
898.19	3401
898.311	3625
898.431	3458
898.552	3504
898.672	3603
898.792	3614
898.913	3507
899.033	3405
899.153	3313
899.273	3241
899.393	3260
899.513	3294
899.633	3313
899.753	3313
899.873	3310
899.993	3332
900.113	3321
900.232	3382
900.352	3374
900.472	3283
900.591	3237
900.711	3321
900.83	3237
900.95	3401
901.069	3507
901.189	3355
901.308	3180
901.427	3131
901.546	3214
901.665	3306
901.784	3351
901.904	3218
902.023	3142
902.141	2998
902.26	2960
902.379	3169
902.498	3089
902.617	3070
902.735	3214
902.854	3237
902.973	3233
903.091	3058
903.21	3047
903.328	3138
903.446	3123
903.565	3100
903.683	3214
903.801	3123
903.919	3256
904.038	3256
904.156	3207
904.274	3264
904.392	3260
904.51	3321
904.627	3325
904.745	3401
904.863	3492
904.981	3241
905.098	3192
905.216	3222
905.334	3336
905.451	3329
905.569	3351
905.686	3428
905.803	3450
905.921	3264
906.038	3405
906.155	3351
906.272	3294
906.389	3370
906.506	3241
906.623	3249
906.74	3249
906.857	3184
906.974	3249
907.091	3439
907.208	3625
907.324	3485
907.441	3378
907.557	3279
907.674	3237
907.79	3199
907.907	3283
908.023	3355
908.139	3382
908.256	3344
908.372	3389
908.488	3374
908.604	3256
908.72	3211
908.836	3302
908.952	3298
909.068	3329
909.184	3466
909.3	3412
909.415	3519
909.531	3488
909.647	3272
909.762	3291
909.878	3279
909.993	3344
910.108	3367
910.224	3374
910.339	3420
910.454	3325
910.57	3321
910.685	3291
910.8	3595
910.915	3511
911.03	3481
911.145	3256
911.259	3245
911.374	3306
911.489	3218
911.604	3214
911.718	3131
911.833	3211
911.947	3024
912.062	2994
912.176	3157
912.291	3218
912.405	3211
912.519	3405
912.633	3450
912.748	3291
912.862	3302
912.976	3161
913.09	3066
913.204	3116
913.318	3222
913.431	3302
913.545	3355
913.659	3382
913.772	3329
913.886	3199
914	3207
914.113	3367
914.226	3386
914.34	3435
914.453	3207
914.566	3416
914.68	3249
914.793	3325
914.906	3108
915.019	3138
915.132	3081
915.245	3218
915.358	3203
915.47	3233
915.583	3230
915.696	3287
915.809	3405
915.921	3416
916.034	3260
916.146	3302
916.259	3241
916.371	3374
916.483	3355
916.595	3287
916.708	3336
916.82	3317
916.932	3321
917.044	3359
917.156	3317
917.268	3283
917.38	3310
917.491	3268
917.603	3370
917.715	3428
917.826	3450
917.938	3351
918.049	3241
918.161	3428
918.272	3576
918.384	3568
918.495	3496
918.606	3329
918.717	3249
918.828	3401
918.939	3443
919.05	3321
919.161	3359
919.272	3184
919.383	3294
919.494	3485
919.604	3743
919.715	3507
919.826	3378
919.936	3481
920.047	3610
920.157	3572
920.267	3778
920.378	3591
920.488	3557
920.598	3812
920.708	4006
920.818	3804
920.928	3804
921.038	4006
921.148	3964
921.258	3732
921.368	3682
921.477	3599
921.587	3564
921.697	3492
921.806	3614
921.916	3500
922.025	3363
922.134	3363
922.244	3260
922.353	3462
922.462	3260
922.571	3230
922.68	3108
922.789	3093
922.898	3146
923.007	3081
923.116	3222
923.224	3165
923.333	3161
923.442	3062
923.55	3123
923.659	3169
923.767	3199
923.876	3142
923.984	3260
924.092	3097
924.201	3199
924.309	3237
924.417	3253
924.525	3203
924.633	3214
924.741	4223
924.849	3039
924.956	3260
925.064	3097
925.172	3062
925.279	3074
925.387	3184
925.494	3218
925.602	3386
925.709	3321
925.816	3241
925.924	3298
926.031	3397
926.138	3340
926.245	3351
926.352	3203
926.459	3401
926.566	3458
926.673	3329
926.779	3268
926.886	3222
926.993	3135
927.099	3142
927.206	3119
927.312	3116
927.419	3199
927.525	3222
927.631	3287
927.737	3154
927.843	3108
927.95	2986
928.056	3127
928.162	3157
928.267	3283
928.373	3831
928.479	3256
928.585	3047
928.69	3222
928.796	3253
928.901	3157
929.007	3051
929.112	3188
929.218	3211
929.323	3135
929.428	3138
929.533	3310
929.638	3119
929.743	3165
929.848	3268
929.953	3211
930.058	3112
930.163	2975
930.267	3058
930.372	3207
930.477	3032
930.581	3294
930.685	3154
930.79	3058
930.894	3119
930.998	3097
931.103	3313
931.207	2982
931.311	2967
931.415	2914
931.519	2804
931.623	2781
