Data from test_V78500241_1709.txt Node
Date: Fri Mar 25 16:27:02 CST 2022
User: usil
Spectrometer: V785-0024
Trigger mode: 0
Integration Time (sec): 4.000000E-1
Scans to average: 1
Nonlinearity correction enabled: false
Boxcar width: 0
Storing dark spectrum: false
XAxis mode: Wavelengths
Number of Pixels in Spectrum: 1024
>>>>>Begin Spectral Data<<<<<
801.071	2876
801.214	2956
801.356	2872
801.499	2887
801.641	2861
801.783	2891
801.926	3055
802.068	3001
802.211	2990
802.353	3017
802.496	2933
802.638	2986
802.78	3062
802.923	3051
803.065	2998
803.208	2876
803.35	2929
803.492	2925
803.635	2906
803.777	2720
803.919	2853
804.061	3199
804.204	2960
804.346	2902
804.488	2861
804.63	3001
804.773	2906
804.915	2902
805.057	3104
805.199	2937
805.341	2960
805.483	3005
805.626	2998
805.768	2971
805.91	3066
806.052	3089
806.194	3017
806.336	3230
806.478	3055
806.62	2963
806.762	2914
806.904	3074
807.046	3150
807.188	2975
807.33	2864
807.472	2990
807.614	2883
807.756	2979
807.898	2910
808.04	2887
808.182	2937
808.324	2910
808.465	2864
808.607	2826
808.749	2815
808.891	2857
809.033	2979
809.174	2982
809.316	2864
809.458	2902
809.6	2750
809.741	2754
809.883	2777
810.025	2838
810.166	2842
810.308	2861
810.45	2868
810.591	2750
810.733	2800
810.875	2857
811.016	2769
811.158	2758
811.299	2785
811.441	2933
811.582	2876
811.724	2792
811.865	2823
812.007	2902
812.148	2902
812.29	2804
812.431	2861
812.573	2948
812.714	2971
812.855	3028
812.997	3051
813.138	3138
813.279	3001
813.421	2979
813.562	2975
813.703	2849
813.845	2883
813.986	2769
814.127	2727
814.268	2823
814.41	2834
814.551	2807
814.692	2857
814.833	2815
814.974	2887
815.115	2925
815.256	2842
815.397	2796
815.539	2872
815.68	2781
815.821	2788
815.962	2914
816.103	2914
816.244	2834
816.385	2857
816.526	2956
816.666	2861
816.807	2750
816.948	2853
817.089	2883
817.23	2830
817.371	2792
817.512	2807
817.653	2842
817.793	2788
817.934	2853
818.075	2971
818.216	2975
818.356	3009
818.497	2838
818.638	2758
818.778	2834
818.919	2807
819.06	2773
819.2	2887
819.341	2834
819.481	2781
819.622	2918
819.762	3070
819.903	3020
820.043	2914
820.184	2868
820.324	2918
820.465	3009
820.605	2998
820.746	3009
820.886	2918
821.026	3093
821.167	3138
821.307	3241
821.447	3298
821.588	3233
821.728	3222
821.868	3188
822.008	3058
822.149	3203
822.289	3195
822.429	3051
822.569	3085
822.709	3188
822.849	3058
822.99	3036
823.13	3138
823.27	3195
823.41	3097
823.55	3123
823.69	3154
823.83	3146
823.97	3119
824.11	2967
824.25	3013
824.389	3104
824.529	3036
824.669	3055
824.809	3188
824.949	3245
825.089	3211
825.228	3135
825.368	3001
825.508	2937
825.648	2975
825.787	3032
825.927	3013
826.067	2975
826.206	2925
826.346	3039
826.485	3055
826.625	3097
826.765	3241
826.904	3233
827.044	2967
827.183	2918
827.323	2853
827.462	2979
827.601	2902
827.741	2952
827.88	2948
828.02	2864
828.159	2944
828.298	3020
828.437	3123
828.577	3051
828.716	3253
828.855	3077
828.994	2929
829.134	2868
829.273	2906
829.412	2857
829.551	2826
829.69	2902
829.829	2986
829.968	3142
830.107	2975
830.246	2990
830.385	2914
830.524	2883
830.663	2815
830.802	2731
830.941	2636
831.08	2667
831.219	2766
831.357	2720
831.496	2929
831.635	2739
831.774	2644
831.913	2644
832.051	2549
832.19	2579
832.329	2674
832.467	2526
832.606	2461
832.744	2594
832.883	2575
833.022	2579
833.16	2655
833.299	2644
833.437	2716
833.576	2701
833.714	2750
833.852	2708
833.991	2769
834.129	2800
834.267	2838
834.406	2823
834.544	2872
834.682	2857
834.821	2823
834.959	3070
835.097	2880
835.235	3009
835.373	2994
835.511	3024
835.65	2963
835.788	2933
835.926	2826
836.064	2777
836.202	2830
836.34	3077
836.478	3097
836.615	3028
836.753	3119
836.891	3203
837.029	3169
837.167	3100
837.305	3085
837.443	3017
837.58	2971
837.718	3108
837.856	3066
837.993	3036
838.131	3097
838.269	3112
838.406	3108
838.544	3043
838.681	2929
838.819	2941
838.956	2823
839.094	2804
839.231	2891
839.369	3009
839.506	3401
839.643	3203
839.781	3032
839.918	2979
840.055	3085
840.193	3032
840.33	3081
840.467	3070
840.604	3176
840.742	3416
840.879	3062
841.016	3032
841.153	3135
841.29	3340
841.427	3313
841.564	3256
841.701	3279
841.838	3214
841.975	3146
842.112	3237
842.249	3100
842.385	3017
842.522	3233
842.659	3100
842.796	3066
842.933	3104
843.069	3043
843.206	3051
843.343	3176
843.479	3138
843.616	3131
843.752	2872
843.889	2853
844.025	3085
844.162	2864
844.298	3089
844.435	2925
844.571	2902
844.708	3055
844.844	3173
844.98	3222
845.117	3150
845.253	3005
845.389	2982
845.525	3116
845.661	3093
845.798	3043
845.934	3123
846.07	3028
846.206	3256
846.342	3291
846.478	3192
846.614	3100
846.75	3066
846.886	3036
847.022	3245
847.158	3089
847.294	3165
847.429	3222
847.565	3173
847.701	3473
847.837	3001
847.972	3028
848.108	3146
848.244	3135
848.379	2975
848.515	2944
848.65	2956
848.786	2956
848.921	2998
849.057	3051
849.192	3138
849.328	3062
849.463	3093
849.598	3074
849.734	3039
849.869	2963
850.004	2956
850.14	2925
850.275	2929
850.41	2807
850.545	2891
850.68	2902
850.815	2948
850.95	3001
851.085	3195
851.22	3070
851.355	3043
851.49	2937
851.625	2990
851.76	3005
851.895	2937
852.03	2914
852.165	3024
852.299	3100
852.434	3195
852.569	3116
852.703	3180
852.838	3207
852.973	3336
853.107	3302
853.242	3154
853.376	3077
853.511	2975
853.645	3001
853.78	3195
853.914	3100
854.048	3119
854.183	3070
854.317	3127
854.451	3310
854.585	3112
854.72	3074
854.854	3203
854.988	3024
855.122	3116
855.256	2975
855.39	3077
855.524	3214
855.658	3180
855.792	3142
855.926	3195
856.06	3195
856.194	3249
856.327	3150
856.461	3047
856.595	3066
856.729	3093
856.862	3180
856.996	3154
857.13	3222
857.263	3199
857.397	3230
857.53	3112
857.664	3199
857.797	3237
857.931	3218
858.064	3108
858.197	3214
858.331	3093
858.464	3062
858.597	3024
858.731	3119
858.864	3100
858.997	3093
859.13	3116
859.263	3214
859.396	3253
859.529	3108
859.662	3070
859.795	3051
859.928	3150
860.061	3283
860.194	3264
860.327	3108
860.46	3081
860.592	3203
860.725	3253
860.858	3241
860.99	3112
861.123	3036
861.256	3039
861.388	3192
861.521	3922
861.653	2994
861.786	2998
861.918	2998
862.05	3058
862.183	3089
862.315	3112
862.447	3211
862.58	3097
862.712	2937
862.844	2845
862.976	3032
863.108	2990
863.24	3428
863.372	2861
863.504	2975
863.636	2941
863.768	3032
863.9	2948
864.032	2906
864.164	2986
864.296	3001
864.428	3089
864.559	3108
864.691	3085
864.823	3066
864.954	3013
865.086	3036
865.217	2975
865.349	2906
865.48	2941
865.612	3024
865.743	3131
865.875	2979
866.006	2933
866.137	2960
866.269	2952
866.4	2914
866.531	2902
866.662	2910
866.793	2887
866.924	2883
867.055	2963
867.186	2933
867.317	2883
867.448	2811
867.579	2861
867.71	2853
867.841	2800
867.972	2922
868.103	2891
868.233	2902
868.364	2902
868.495	2883
868.625	3100
868.756	3146
868.886	3017
869.017	3013
869.147	3169
869.278	3157
869.408	3036
869.539	3036
869.669	3070
869.799	3005
869.929	3165
870.06	3081
870.19	3313
870.32	3272
870.45	3306
870.58	3374
870.71	3428
870.84	3431
870.97	3260
871.1	3222
871.23	3481
871.36	3412
871.489	3374
871.619	3401
871.749	3405
871.879	3405
872.008	3519
872.138	3340
872.267	3226
872.397	3154
872.526	3070
872.656	3043
872.785	3104
872.915	3241
873.044	3329
873.173	3241
873.303	3237
873.432	3249
873.561	3264
873.69	3131
873.819	3176
873.948	3138
874.077	3093
874.206	3058
874.335	3017
874.464	3176
874.593	3332
874.722	3256
874.851	3405
874.979	3329
875.108	3321
875.237	3188
875.365	3150
875.494	3169
875.623	3253
875.751	3070
875.88	3138
876.008	3222
876.136	3203
876.265	3359
876.393	3481
876.521	3405
876.65	3389
876.778	3340
876.906	3275
877.034	3241
877.162	3226
877.29	3165
877.418	3241
877.546	3245
877.674	3253
877.802	3310
877.93	3237
878.058	3173
878.185	3131
878.313	3176
878.441	3180
878.568	3074
878.696	3146
878.824	3226
878.951	3291
879.079	3439
879.206	3633
879.333	3431
879.461	3340
879.588	3340
879.715	3454
879.842	3606
879.97	3370
880.097	3157
880.224	3123
880.351	3188
880.478	3222
880.605	3218
880.732	3169
880.859	3500
880.986	3294
881.112	3329
881.239	3188
881.366	3093
881.493	3055
881.619	3013
881.746	3077
881.872	3074
881.999	3074
882.125	3142
882.252	3211
882.378	3298
882.505	3462
882.631	3249
882.757	3165
882.883	3184
883.01	3245
883.136	3154
883.262	3093
883.388	3119
883.514	3336
883.64	3378
883.766	3291
883.892	3214
884.018	3256
884.143	3416
884.269	3564
884.395	3188
884.52	3188
884.646	3192
884.772	3104
884.897	3097
885.023	3176
885.148	3283
885.274	3443
885.399	3344
885.524	3275
885.65	3272
885.775	3272
885.9	3279
886.025	3393
886.15	3389
886.275	3272
886.4	3245
886.525	3291
886.65	3214
886.775	3298
886.9	3500
887.025	3625
887.149	3424
887.274	3260
887.399	3184
887.523	3218
887.648	3195
887.773	3192
887.897	3393
888.021	3382
888.146	3298
888.27	3439
888.395	3507
888.519	3447
888.643	3481
888.767	3473
888.891	3294
889.015	3211
889.139	3287
889.263	3237
889.387	3431
889.511	3458
889.635	3447
889.759	3260
889.883	3310
890.006	3405
890.13	3515
890.254	3241
890.377	3336
890.501	3192
890.624	3169
890.748	3302
890.871	3192
890.995	3108
891.118	3074
891.241	3169
891.364	3218
891.488	3298
891.611	3184
891.734	3218
891.857	3287
891.98	3230
892.103	3329
892.226	3260
892.349	3214
892.471	3138
892.594	3241
892.717	3306
892.839	3317
892.962	3241
893.085	3386
893.207	3279
893.33	3154
893.452	3214
893.575	3348
893.697	3245
893.819	3439
893.941	3488
894.064	3416
894.186	3249
894.308	3264
894.43	3397
894.552	3496
894.674	3466
894.796	3256
894.918	3321
895.04	3279
895.161	3409
895.283	3389
895.405	3279
895.526	3386
895.648	3439
895.769	3401
895.891	3462
896.012	3439
896.134	3485
896.255	3416
896.376	3428
896.498	3340
896.619	3428
896.74	3370
896.861	3389
896.982	3660
897.103	3827
897.224	3557
897.345	3538
897.466	3447
897.587	3485
897.708	3637
897.828	3549
897.949	3424
898.07	3340
898.19	3443
898.311	3564
898.431	3454
898.552	3469
898.672	3599
898.792	3572
898.913	3538
899.033	3428
899.153	3260
899.273	3173
899.393	3275
899.513	3310
899.633	3279
899.753	3329
899.873	3291
899.993	3359
900.113	3332
900.232	3386
900.352	3317
900.472	3272
900.591	3222
900.711	3272
900.83	3230
900.95	3401
901.069	3504
901.189	3336
901.308	3176
901.427	3108
901.546	3195
901.665	3275
901.784	3302
901.904	3199
902.023	3138
902.141	3020
902.26	3005
902.379	3173
902.498	3089
902.617	3043
902.735	3176
902.854	3237
902.973	3218
903.091	3036
903.21	3062
903.328	3135
903.446	3146
903.565	3097
903.683	3184
903.801	3138
903.919	3226
904.038	3237
904.156	3161
904.274	3272
904.392	3253
904.51	3275
904.627	3310
904.745	3424
904.863	3485
904.981	3264
905.098	3173
905.216	3222
905.334	3256
905.451	3249
905.569	3275
905.686	3401
905.803	3462
905.921	3283
906.038	3393
906.155	3370
906.272	3272
906.389	3355
906.506	3253
906.623	3260
906.74	3260
906.857	3188
906.974	3294
907.091	3389
907.208	3545
907.324	3481
907.441	3359
907.557	3249
907.674	3264
907.79	3218
907.907	3298
908.023	3351
908.139	3325
908.256	3325
908.372	3355
908.488	3336
908.604	3241
908.72	3214
908.836	3268
908.952	3275
909.068	3367
909.184	3504
909.3	3393
909.415	3504
909.531	3439
909.647	3275
909.762	3302
909.878	3256
909.993	3321
910.108	3348
910.224	3359
910.339	3378
910.454	3351
910.57	3310
910.685	3264
910.8	3610
910.915	3553
911.03	3420
911.145	3249
911.259	3272
911.374	3306
911.489	3199
911.604	3214
911.718	3104
911.833	3081
911.947	3047
912.062	2967
912.176	3169
912.291	3180
912.405	3192
912.519	3416
912.633	3466
912.748	3332
912.862	3291
912.976	3146
913.09	3070
913.204	3135
913.318	3222
913.431	3382
913.545	3355
913.659	3397
913.772	3355
913.886	3230
914	3199
914.113	3370
914.226	3420
914.34	3386
914.453	3199
914.566	3447
914.68	3321
914.793	3317
914.906	3112
915.019	3081
915.132	3032
915.245	3161
915.358	3211
915.47	3165
915.583	3279
915.696	3256
915.809	3424
915.921	3397
916.034	3287
916.146	3268
916.259	3214
916.371	3401
916.483	3351
916.595	3294
916.708	3310
916.82	3332
916.932	3317
917.044	3329
917.156	3389
917.268	3260
917.38	3306
917.491	3268
917.603	3386
917.715	3431
917.826	3462
917.938	3370
918.049	3279
918.161	3416
918.272	3595
918.384	3591
918.495	3477
918.606	3374
918.717	3268
918.828	3325
918.939	3424
919.05	3298
919.161	3374
919.272	3150
919.383	3294
919.494	3500
919.604	3694
919.715	3519
919.826	3424
919.936	3431
920.047	3576
920.157	3538
920.267	3762
920.378	3587
920.488	3576
920.598	3785
920.708	3934
920.818	3823
920.928	3831
921.038	4032
921.148	3991
921.258	3709
921.368	3679
921.477	3614
921.587	3572
921.697	3500
921.806	3618
921.916	3530
922.025	3374
922.134	3340
922.244	3317
922.353	3428
922.462	3268
922.571	3245
922.68	3108
922.789	3070
922.898	3146
923.007	3081
923.116	3173
923.224	3154
923.333	3173
923.442	3085
923.55	3123
923.659	3138
923.767	3218
923.876	3100
923.984	3211
924.092	3112
924.201	3195
924.309	3199
924.417	3237
924.525	3192
924.633	3256
924.741	3987
924.849	3024
924.956	3256
925.064	3108
925.172	3024
925.279	3077
925.387	3180
925.494	3176
925.602	3355
925.709	3287
925.816	3180
925.924	3256
926.031	3367
926.138	3279
926.245	3340
926.352	3218
926.459	3420
926.566	3473
926.673	3329
926.779	3203
926.886	3233
926.993	3161
927.099	3123
927.206	3146
927.312	3112
927.419	3218
927.525	3222
927.631	3291
927.737	3131
927.843	3131
927.95	3024
928.056	3146
928.162	3192
928.267	3287
928.373	3896
928.479	3329
928.585	3100
928.69	3195
928.796	3332
928.901	3184
929.007	3062
929.112	3199
929.218	3192
929.323	3131
929.428	3188
929.533	3344
929.638	3150
929.743	3161
929.848	3275
929.953	3207
930.058	3165
930.163	2963
930.267	3036
930.372	3195
930.477	3028
930.581	3325
930.685	3169
930.79	3039
930.894	3104
930.998	3077
931.103	3241
931.207	2956
931.311	2967
931.415	2925
931.519	2777
931.623	2826
