Data from test_V78500241_692.txt Node
Date: Fri Mar 25 16:19:59 CST 2022
User: usil
Spectrometer: V785-0024
Trigger mode: 0
Integration Time (sec): 4.000000E-1
Scans to average: 1
Nonlinearity correction enabled: false
Boxcar width: 0
Storing dark spectrum: false
XAxis mode: Wavelengths
Number of Pixels in Spectrum: 1024
>>>>>Begin Spectral Data<<<<<
801.071	2902
801.214	2948
801.356	2853
801.499	2887
801.641	2834
801.783	2910
801.926	3047
802.068	2990
802.211	2998
802.353	3024
802.496	2960
802.638	3009
802.78	3005
802.923	3070
803.065	3017
803.208	2910
803.35	2899
803.492	2933
803.635	2922
803.777	2758
803.919	2823
804.061	3218
804.204	2937
804.346	2933
804.488	2819
804.63	2994
804.773	2864
804.915	2906
805.057	3081
805.199	2922
805.341	2960
805.483	3051
805.626	2998
805.768	2975
805.91	3093
806.052	3066
806.194	3024
806.336	3226
806.478	3009
806.62	2952
806.762	2952
806.904	3017
807.046	3165
807.188	2982
807.33	2906
807.472	2982
807.614	2891
807.756	2982
807.898	2906
808.04	2899
808.182	2967
808.324	2971
808.465	2876
808.607	2857
808.749	2746
808.891	2868
809.033	2963
809.174	3001
809.316	2906
809.458	2902
809.6	2724
809.741	2750
809.883	2727
810.025	2826
810.166	2842
810.308	2788
810.45	2857
810.591	2800
810.733	2754
810.875	2800
811.016	2800
811.158	2777
811.299	2804
811.441	2899
811.582	2880
811.724	2857
811.865	2861
812.007	2914
812.148	2880
812.29	2864
812.431	2899
812.573	2922
812.714	2986
812.855	3020
812.997	3081
813.138	3112
813.279	2986
813.421	2956
813.562	2956
813.703	2883
813.845	2849
813.986	2769
814.127	2731
814.268	2842
814.41	2834
814.551	2853
814.692	2887
814.833	2811
814.974	2906
815.115	2918
815.256	2876
815.397	2796
815.539	2842
815.68	2796
815.821	2773
815.962	2906
816.103	2918
816.244	2857
816.385	2849
816.526	2986
816.666	2933
816.807	2724
816.948	2872
817.089	2883
817.23	2864
817.371	2758
817.512	2788
817.653	2857
817.793	2788
817.934	2876
818.075	2952
818.216	3001
818.356	3017
818.497	2845
818.638	2800
818.778	2800
818.919	2769
819.06	2762
819.2	2891
819.341	2826
819.481	2823
819.622	2887
819.762	3093
819.903	3055
820.043	2899
820.184	2895
820.324	2887
820.465	3013
820.605	2998
820.746	3020
820.886	2918
821.026	3093
821.167	3112
821.307	3256
821.447	3275
821.588	3233
821.728	3192
821.868	3169
822.008	3085
822.149	3180
822.289	3241
822.429	3131
822.569	3081
822.709	3157
822.849	3058
822.99	3085
823.13	3150
823.27	3192
823.41	3146
823.55	3142
823.69	3142
823.83	3195
823.97	3074
824.11	3017
824.25	2941
824.389	3074
824.529	3097
824.669	3066
824.809	3199
824.949	3256
825.089	3211
825.228	3169
825.368	3013
825.508	2941
825.648	2967
825.787	2994
825.927	3032
826.067	2948
826.206	2956
826.346	3032
826.485	3066
826.625	3123
826.765	3245
826.904	3264
827.044	2998
827.183	2967
827.323	2864
827.462	2967
827.601	2883
827.741	2910
827.88	2952
828.02	2819
828.159	2986
828.298	3051
828.437	3119
828.577	3055
828.716	3256
828.855	3070
828.994	2887
829.134	2895
829.273	2925
829.412	2868
829.551	2883
829.69	2899
829.829	2929
829.968	3138
830.107	3017
830.246	2998
830.385	2883
830.524	2891
830.663	2792
830.802	2750
830.941	2636
831.08	2621
831.219	2754
831.357	2739
831.496	2933
831.635	2716
831.774	2629
831.913	2670
832.051	2533
832.19	2583
832.329	2678
832.467	2549
832.606	2469
832.744	2571
832.883	2583
833.022	2568
833.16	2674
833.299	2670
833.437	2678
833.576	2708
833.714	2727
833.852	2743
833.991	2754
834.129	2826
834.267	2872
834.406	2800
834.544	2819
834.682	2861
834.821	2826
834.959	3051
835.097	2906
835.235	3017
835.373	2979
835.511	3005
835.65	2944
835.788	2982
835.926	2849
836.064	2811
836.202	2834
836.34	3116
836.478	3119
836.615	3013
836.753	3127
836.891	3211
837.029	3173
837.167	3112
837.305	3058
837.443	3013
837.58	2956
837.718	3108
837.856	3055
837.993	3058
838.131	3070
838.269	3077
838.406	3108
838.544	3081
838.681	2948
838.819	2914
838.956	2777
839.094	2804
839.231	2925
839.369	3051
839.506	3367
839.643	3195
839.781	2998
839.918	2982
840.055	3058
840.193	3070
840.33	3032
840.467	3077
840.604	3116
840.742	3374
840.879	3055
841.016	3077
841.153	3131
841.29	3306
841.427	3272
841.564	3264
841.701	3313
841.838	3192
841.975	3150
842.112	3237
842.249	3081
842.385	3043
842.522	3241
842.659	3070
842.796	3062
842.933	3058
843.069	3051
843.206	3043
843.343	3180
843.479	3093
843.616	3127
843.752	2902
843.889	2868
844.025	3093
844.162	2838
844.298	3024
844.435	2975
844.571	2887
844.708	3058
844.844	3180
844.98	3211
845.117	3173
845.253	3066
845.389	2971
845.525	3089
845.661	3135
845.798	3020
845.934	3138
846.07	3047
846.206	3237
846.342	3302
846.478	3173
846.614	3070
846.75	3055
846.886	3013
847.022	3211
847.158	3119
847.294	3192
847.429	3241
847.565	3207
847.701	3515
847.837	3051
847.972	2990
848.108	3135
848.244	3138
848.379	2990
848.515	2895
848.65	2922
848.786	2998
848.921	2982
849.057	3108
849.192	3150
849.328	3062
849.463	3119
849.598	3055
849.734	3051
849.869	3013
850.004	2899
850.14	2952
850.275	2918
850.41	2872
850.545	2861
850.68	2906
850.815	2922
850.95	2963
851.085	3173
851.22	3085
851.355	3036
851.49	2925
851.625	3013
851.76	2994
851.895	2902
852.03	2902
852.165	3043
852.299	3146
852.434	3207
852.569	3173
852.703	3161
852.838	3241
852.973	3332
853.107	3340
853.242	3146
853.376	3024
853.511	2960
853.645	3013
853.78	3245
853.914	3131
854.048	3108
854.183	3077
854.317	3146
854.451	3264
854.585	3127
854.72	3081
854.854	3230
854.988	3070
855.122	3070
855.256	2963
855.39	3157
855.524	3245
855.658	3135
855.792	3146
855.926	3173
856.06	3203
856.194	3302
856.327	3081
856.461	3112
856.595	3055
856.729	3093
856.862	3207
856.996	3161
857.13	3146
857.263	3218
857.397	3302
857.53	3138
857.664	3184
857.797	3207
857.931	3226
858.064	3142
858.197	3154
858.331	3127
858.464	3100
858.597	2990
858.731	3055
858.864	3123
858.997	3039
859.13	3138
859.263	3173
859.396	3222
859.529	3108
859.662	3081
859.795	3020
859.928	3146
860.061	3260
860.194	3260
860.327	3112
860.46	3100
860.592	3207
860.725	3264
860.858	3283
860.99	3077
861.123	3051
861.256	3039
861.388	3142
861.521	3949
861.653	2979
861.786	2960
861.918	3001
862.05	3032
862.183	3070
862.315	3131
862.447	3173
862.58	3108
862.712	2918
862.844	2876
862.976	3009
863.108	2982
863.24	3386
863.372	2872
863.504	2967
863.636	2937
863.768	2998
863.9	2960
864.032	2906
864.164	2929
864.296	3028
864.428	3089
864.559	3074
864.691	3066
864.823	3074
864.954	3020
865.086	3039
865.217	2990
865.349	2948
865.48	2979
865.612	3009
865.743	3127
865.875	2956
866.006	2914
866.137	2979
866.269	2948
866.4	2922
866.531	2944
866.662	2895
866.793	2906
866.924	2880
867.055	2956
867.186	2918
867.317	2891
867.448	2853
867.579	2849
867.71	2864
867.841	2800
867.972	2887
868.103	2895
868.233	2883
868.364	2857
868.495	2918
868.625	3074
868.756	3184
868.886	2979
869.017	3047
869.147	3157
869.278	3169
869.408	3043
869.539	3024
869.669	3093
869.799	3051
869.929	3119
870.06	3135
870.19	3325
870.32	3298
870.45	3272
870.58	3348
870.71	3431
870.84	3431
870.97	3294
871.1	3226
871.23	3519
871.36	3462
871.489	3344
871.619	3416
871.749	3397
871.879	3405
872.008	3496
872.138	3344
872.267	3268
872.397	3135
872.526	3123
872.656	2994
872.785	3112
872.915	3218
873.044	3291
873.173	3237
873.303	3253
873.432	3199
873.561	3241
873.69	3150
873.819	3161
873.948	3199
874.077	3036
874.206	3047
874.335	3062
874.464	3218
874.593	3344
874.722	3237
874.851	3348
874.979	3344
875.108	3272
875.237	3176
875.365	3180
875.494	3195
875.623	3226
875.751	3055
875.88	3081
876.008	3135
876.136	3195
876.265	3317
876.393	3481
876.521	3393
876.65	3359
876.778	3294
876.906	3256
877.034	3173
877.162	3222
877.29	3180
877.418	3256
877.546	3245
877.674	3241
877.802	3203
877.93	3180
878.058	3135
878.185	3119
878.313	3173
878.441	3199
878.568	3066
878.696	3176
878.824	3245
878.951	3272
879.079	3428
879.206	3595
879.333	3416
879.461	3287
879.588	3294
879.715	3481
879.842	3580
879.97	3363
880.097	3176
880.224	3161
880.351	3184
880.478	3226
880.605	3214
880.732	3176
880.859	3466
880.986	3268
881.112	3329
881.239	3180
881.366	3123
881.493	3051
881.619	3017
881.746	3066
881.872	3081
881.999	3104
882.125	3100
882.252	3249
882.378	3294
882.505	3397
882.631	3313
882.757	3184
882.883	3184
883.01	3230
883.136	3123
883.262	3100
883.388	3146
883.514	3291
883.64	3378
883.766	3298
883.892	3150
884.018	3203
884.143	3424
884.269	3534
884.395	3188
884.52	3135
884.646	3188
884.772	3119
884.897	3085
885.023	3218
885.148	3302
885.274	3389
885.399	3382
885.524	3275
885.65	3294
885.775	3283
885.9	3272
886.025	3416
886.15	3359
886.275	3287
886.4	3233
886.525	3256
886.65	3272
886.775	3275
886.9	3477
887.025	3667
887.149	3367
887.274	3233
887.399	3188
887.523	3230
887.648	3169
887.773	3184
887.897	3405
888.021	3397
888.146	3275
888.27	3431
888.395	3564
888.519	3431
888.643	3428
888.767	3439
888.891	3325
889.015	3256
889.139	3241
889.263	3249
889.387	3389
889.511	3500
889.635	3473
889.759	3306
889.883	3249
890.006	3351
890.13	3485
890.254	3253
890.377	3351
890.501	3211
890.624	3203
890.748	3256
890.871	3154
890.995	3097
891.118	3051
891.241	3199
891.364	3226
891.488	3325
891.611	3199
891.734	3230
891.857	3310
891.98	3233
892.103	3298
892.226	3279
892.349	3222
892.471	3127
892.594	3222
892.717	3279
892.839	3268
892.962	3332
893.085	3367
893.207	3298
893.33	3154
893.452	3157
893.575	3355
893.697	3237
893.819	3443
893.941	3485
894.064	3469
894.186	3268
894.308	3279
894.43	3435
894.552	3530
894.674	3469
894.796	3249
894.918	3329
895.04	3275
895.161	3450
895.283	3405
895.405	3313
895.526	3340
895.648	3401
895.769	3428
895.891	3409
896.012	3447
896.134	3450
896.255	3412
896.376	3378
896.498	3367
896.619	3424
896.74	3332
896.861	3382
896.982	3671
897.103	3819
897.224	3576
897.345	3492
897.466	3420
897.587	3500
897.708	3637
897.828	3534
897.949	3420
898.07	3302
898.19	3397
898.311	3584
898.431	3420
898.552	3530
898.672	3564
898.792	3549
898.913	3530
899.033	3397
899.153	3283
899.273	3230
899.393	3298
899.513	3310
899.633	3332
899.753	3310
899.873	3306
899.993	3374
900.113	3325
900.232	3325
900.352	3325
900.472	3272
900.591	3176
900.711	3313
900.83	3256
900.95	3420
901.069	3458
901.189	3325
901.308	3207
901.427	3154
901.546	3154
901.665	3310
901.784	3348
901.904	3241
902.023	3131
902.141	3028
902.26	3001
902.379	3161
902.498	3074
902.617	3058
902.735	3207
902.854	3237
902.973	3226
903.091	3039
903.21	3074
903.328	3123
903.446	3074
903.565	3108
903.683	3192
903.801	3135
903.919	3218
904.038	3287
904.156	3161
904.274	3275
904.392	3233
904.51	3332
904.627	3313
904.745	3435
904.863	3488
904.981	3260
905.098	3188
905.216	3195
905.334	3260
905.451	3310
905.569	3332
905.686	3439
905.803	3447
905.921	3302
906.038	3401
906.155	3359
906.272	3253
906.389	3321
906.506	3214
906.623	3245
906.74	3268
906.857	3199
906.974	3264
907.091	3428
907.208	3557
907.324	3511
907.441	3348
907.557	3253
907.674	3230
907.79	3180
907.907	3291
908.023	3351
908.139	3386
908.256	3329
908.372	3389
908.488	3332
908.604	3214
908.72	3245
908.836	3291
908.952	3283
909.068	3329
909.184	3492
909.3	3397
909.415	3496
909.531	3481
909.647	3275
909.762	3264
909.878	3253
909.993	3340
910.108	3340
910.224	3291
910.339	3424
910.454	3317
910.57	3310
910.685	3253
910.8	3587
910.915	3526
911.03	3412
911.145	3237
911.259	3264
911.374	3302
911.489	3226
911.604	3230
911.718	3119
911.833	3142
911.947	3032
912.062	2994
912.176	3207
912.291	3207
912.405	3176
912.519	3435
912.633	3485
912.748	3348
912.862	3275
912.976	3188
913.09	3066
913.204	3135
913.318	3233
913.431	3336
913.545	3310
913.659	3386
913.772	3321
913.886	3256
914	3173
914.113	3306
914.226	3428
914.34	3359
914.453	3253
914.566	3435
914.68	3272
914.793	3317
914.906	3119
915.019	3097
915.132	3070
915.245	3169
915.358	3195
915.47	3214
915.583	3260
915.696	3291
915.809	3416
915.921	3435
916.034	3245
916.146	3260
916.259	3218
916.371	3386
916.483	3329
916.595	3264
916.708	3374
916.82	3351
916.932	3363
917.044	3348
917.156	3367
917.268	3272
917.38	3302
917.491	3294
917.603	3348
917.715	3439
917.826	3450
917.938	3409
918.049	3291
918.161	3393
918.272	3568
918.384	3591
918.495	3492
918.606	3348
918.717	3279
918.828	3348
918.939	3401
919.05	3306
919.161	3348
919.272	3184
919.383	3306
919.494	3450
919.604	3667
919.715	3454
919.826	3401
919.936	3511
920.047	3584
920.157	3542
920.267	3785
920.378	3618
920.488	3564
920.598	3743
920.708	3953
920.818	3827
920.928	3876
921.038	4010
921.148	3979
921.258	3713
921.368	3599
921.477	3591
921.587	3557
921.697	3424
921.806	3641
921.916	3534
922.025	3317
922.134	3351
922.244	3287
922.353	3477
922.462	3306
922.571	3214
922.68	3093
922.789	3055
922.898	3138
923.007	3112
923.116	3184
923.224	3203
923.333	3180
923.442	3123
923.55	3123
923.659	3157
923.767	3203
923.876	3157
923.984	3256
924.092	3116
924.201	3199
924.309	3241
924.417	3256
924.525	3199
924.633	3211
924.741	4006
924.849	3058
924.956	3275
925.064	3066
925.172	3058
925.279	3119
925.387	3173
925.494	3173
925.602	3332
925.709	3306
925.816	3173
925.924	3294
926.031	3393
926.138	3298
926.245	3409
926.352	3222
926.459	3428
926.566	3473
926.673	3294
926.779	3237
926.886	3260
926.993	3157
927.099	3097
927.206	3112
927.312	3127
927.419	3203
927.525	3188
927.631	3268
927.737	3116
927.843	3100
927.95	2998
928.056	3108
928.162	3173
928.267	3233
928.373	3884
928.479	3298
928.585	3024
928.69	3188
928.796	3306
928.901	3127
929.007	3039
929.112	3195
929.218	3165
929.323	3119
929.428	3108
929.533	3313
929.638	3142
929.743	3157
929.848	3294
929.953	3233
930.058	3161
930.163	2986
930.267	3036
930.372	3180
930.477	3009
930.581	3298
930.685	3173
930.79	3055
930.894	3108
930.998	3077
931.103	3249
931.207	2990
931.311	2902
931.415	2914
931.519	2796
931.623	2807
