Data from test_V78500241_397.txt Node
Date: Fri Mar 25 16:17:57 CST 2022
User: usil
Spectrometer: V785-0024
Trigger mode: 0
Integration Time (sec): 4.000000E-1
Scans to average: 1
Nonlinearity correction enabled: false
Boxcar width: 0
Storing dark spectrum: false
XAxis mode: Wavelengths
Number of Pixels in Spectrum: 1024
>>>>>Begin Spectral Data<<<<<
801.071	2918
801.214	2982
801.356	2880
801.499	2906
801.641	2883
801.783	2944
801.926	3081
802.068	3020
802.211	2990
802.353	3047
802.496	3005
802.638	3020
802.78	3077
802.923	3104
803.065	3036
803.208	2933
803.35	2910
803.492	2956
803.635	2941
803.777	2739
803.919	2883
804.061	3199
804.204	2967
804.346	2956
804.488	2842
804.63	2975
804.773	2895
804.915	2963
805.057	3093
805.199	2941
805.341	3017
805.483	3024
805.626	2990
805.768	2933
805.91	3100
806.052	3108
806.194	3047
806.336	3230
806.478	3013
806.62	2960
806.762	2990
806.904	3032
807.046	3135
807.188	2994
807.33	2925
807.472	2975
807.614	2914
807.756	3009
807.898	2925
808.04	2944
808.182	2956
808.324	2971
808.465	2895
808.607	2876
808.749	2834
808.891	2864
809.033	2982
809.174	2994
809.316	2918
809.458	2876
809.6	2758
809.741	2792
809.883	2762
810.025	2849
810.166	2872
810.308	2864
810.45	2883
810.591	2781
810.733	2777
810.875	2845
811.016	2811
811.158	2785
811.299	2853
811.441	2925
811.582	2910
811.724	2857
811.865	2857
812.007	2948
812.148	2880
812.29	2845
812.431	2922
812.573	2963
812.714	2944
812.855	3066
812.997	3036
813.138	3150
813.279	3058
813.421	2971
813.562	2967
813.703	2864
813.845	2861
813.986	2811
814.127	2754
814.268	2830
814.41	2826
814.551	2777
814.692	2899
814.833	2830
814.974	2925
815.115	2944
815.256	2849
815.397	2807
815.539	2857
815.68	2773
815.821	2823
815.962	2967
816.103	2941
816.244	2883
816.385	2876
816.526	2963
816.666	2925
816.807	2731
816.948	2872
817.089	2887
817.23	2857
817.371	2785
817.512	2796
817.653	2853
817.793	2834
817.934	2876
818.075	2967
818.216	3013
818.356	3028
818.497	2910
818.638	2857
818.778	2781
818.919	2773
819.06	2766
819.2	2883
819.341	2826
819.481	2792
819.622	2941
819.762	3138
819.903	3039
820.043	2948
820.184	2906
820.324	2902
820.465	3043
820.605	3032
820.746	3062
820.886	2906
821.026	3100
821.167	3199
821.307	3268
821.447	3279
821.588	3211
821.728	3192
821.868	3218
822.008	3066
822.149	3180
822.289	3241
822.429	3108
822.569	3119
822.709	3180
822.849	3028
822.99	3085
823.13	3180
823.27	3180
823.41	3081
823.55	3146
823.69	3131
823.83	3154
823.97	3112
824.11	3043
824.25	2975
824.389	3074
824.529	3116
824.669	3089
824.809	3150
824.949	3214
825.089	3211
825.228	3211
825.368	3051
825.508	2956
825.648	2975
825.787	3032
825.927	3039
826.067	2960
826.206	2979
826.346	3032
826.485	3085
826.625	3097
826.765	3256
826.904	3211
827.044	3017
827.183	2948
827.323	2891
827.462	2979
827.601	2937
827.741	2925
827.88	2944
828.02	2857
828.159	3032
828.298	3066
828.437	3131
828.577	3051
828.716	3260
828.855	3077
828.994	2929
829.134	2868
829.273	2914
829.412	2872
829.551	2819
829.69	2864
829.829	3020
829.968	3108
830.107	3013
830.246	3009
830.385	2941
830.524	2880
830.663	2834
830.802	2712
830.941	2674
831.08	2655
831.219	2754
831.357	2746
831.496	2986
831.635	2724
831.774	2613
831.913	2659
832.051	2545
832.19	2552
832.329	2693
832.467	2560
832.606	2492
832.744	2564
832.883	2579
833.022	2579
833.16	2667
833.299	2659
833.437	2708
833.576	2708
833.714	2727
833.852	2727
833.991	2762
834.129	2845
834.267	2823
834.406	2781
834.544	2861
834.682	2899
834.821	2868
834.959	3077
835.097	2933
835.235	3077
835.373	2994
835.511	3005
835.65	2918
835.788	2963
835.926	2830
836.064	2826
836.202	2830
836.34	3051
836.478	3150
836.615	3032
836.753	3154
836.891	3199
837.029	3154
837.167	3066
837.305	3108
837.443	3020
837.58	2944
837.718	3104
837.856	3074
837.993	3036
838.131	3131
838.269	3093
838.406	3100
838.544	3074
838.681	2914
838.819	2948
838.956	2815
839.094	2826
839.231	2944
839.369	3024
839.506	3367
839.643	3222
839.781	2994
839.918	2971
840.055	3066
840.193	3009
840.33	3077
840.467	3127
840.604	3123
840.742	3431
840.879	3058
841.016	3085
841.153	3146
841.29	3325
841.427	3321
841.564	3279
841.701	3317
841.838	3237
841.975	3192
842.112	3233
842.249	3108
842.385	3055
842.522	3233
842.659	3108
842.796	3062
842.933	3138
843.069	3062
843.206	3013
843.343	3146
843.479	3116
843.616	3150
843.752	2914
843.889	2876
844.025	3097
844.162	2857
844.298	3039
844.435	2910
844.571	2944
844.708	3081
844.844	3188
844.98	3233
845.117	3199
845.253	3074
845.389	3009
845.525	3116
845.661	3077
845.798	3009
845.934	3127
846.07	3051
846.206	3218
846.342	3321
846.478	3237
846.614	3100
846.75	3047
846.886	3047
847.022	3264
847.158	3146
847.294	3180
847.429	3211
847.565	3222
847.701	3507
847.837	2990
847.972	2994
848.108	3165
848.244	3146
848.379	3009
848.515	2967
848.65	2925
848.786	2948
848.921	3024
849.057	3112
849.192	3116
849.328	3051
849.463	3108
849.598	3051
849.734	3062
849.869	2967
850.004	2941
850.14	2967
850.275	2929
850.41	2819
850.545	2876
850.68	2933
850.815	2952
850.95	2944
851.085	3195
851.22	3119
851.355	3055
851.49	2979
851.625	3009
851.76	3017
851.895	2967
852.03	2902
852.165	3013
852.299	3127
852.434	3207
852.569	3123
852.703	3169
852.838	3264
852.973	3344
853.107	3332
853.242	3214
853.376	3081
853.511	3001
853.645	3024
853.78	3222
853.914	3089
854.048	3070
854.183	3104
854.317	3154
854.451	3279
854.585	3169
854.72	3055
854.854	3184
854.988	3028
855.122	3070
855.256	2994
855.39	3097
855.524	3245
855.658	3203
855.792	3142
855.926	3203
856.06	3199
856.194	3279
856.327	3188
856.461	3066
856.595	3104
856.729	3116
856.862	3256
856.996	3184
857.13	3184
857.263	3199
857.397	3287
857.53	3142
857.664	3195
857.797	3188
857.931	3268
858.064	3195
858.197	3222
858.331	3138
858.464	3112
858.597	3024
858.731	3108
858.864	3138
858.997	3108
859.13	3169
859.263	3150
859.396	3184
859.529	3074
859.662	3055
859.795	3032
859.928	3180
860.061	3233
860.194	3287
860.327	3127
860.46	3119
860.592	3237
860.725	3253
860.858	3249
860.99	3135
861.123	3058
861.256	3055
861.388	3150
861.521	3850
861.653	3001
861.786	2952
861.918	3005
862.05	3100
862.183	3116
862.315	3165
862.447	3199
862.58	3097
862.712	2944
862.844	2891
862.976	3036
863.108	3017
863.24	3416
863.372	2914
863.504	2929
863.636	2922
863.768	3024
863.9	2990
864.032	2902
864.164	2960
864.296	2986
864.428	3066
864.559	3104
864.691	3093
864.823	3093
864.954	3066
865.086	3039
865.217	2994
865.349	2933
865.48	2975
865.612	3020
865.743	3150
865.875	2998
866.006	2922
866.137	2971
866.269	2944
866.4	2910
866.531	2910
866.662	2895
866.793	2902
866.924	2895
867.055	2952
867.186	2941
867.317	2895
867.448	2830
867.579	2830
867.71	2834
867.841	2819
867.972	2899
868.103	2914
868.233	2876
868.364	2864
868.495	2937
868.625	3074
868.756	3192
868.886	2963
869.017	2986
869.147	3180
869.278	3180
869.408	3066
869.539	2998
869.669	3108
869.799	3039
869.929	3089
870.06	3104
870.19	3291
870.32	3268
870.45	3310
870.58	3348
870.71	3458
870.84	3466
870.97	3245
871.1	3226
871.23	3473
871.36	3454
871.489	3359
871.619	3409
871.749	3405
871.879	3443
872.008	3458
872.138	3348
872.267	3264
872.397	3154
872.526	3112
872.656	3024
872.785	3062
872.915	3245
873.044	3340
873.173	3203
873.303	3264
873.432	3249
873.561	3226
873.69	3195
873.819	3074
873.948	3123
874.077	3127
874.206	3032
874.335	3055
874.464	3218
874.593	3332
874.722	3241
874.851	3370
874.979	3359
875.108	3268
875.237	3188
875.365	3119
875.494	3150
875.623	3249
875.751	3066
875.88	3112
876.008	3176
876.136	3249
876.265	3363
876.393	3523
876.521	3428
876.65	3374
876.778	3363
876.906	3237
877.034	3207
877.162	3199
877.29	3211
877.418	3207
877.546	3230
877.674	3249
877.802	3233
877.93	3230
878.058	3131
878.185	3112
878.313	3214
878.441	3203
878.568	3055
878.696	3138
878.824	3260
878.951	3310
879.079	3447
879.206	3648
879.333	3454
879.461	3393
879.588	3367
879.715	3454
879.842	3564
879.97	3386
880.097	3150
880.224	3138
880.351	3184
880.478	3195
880.605	3207
880.732	3237
880.859	3481
880.986	3317
881.112	3294
881.239	3176
881.366	3013
881.493	3055
881.619	3055
881.746	3074
881.872	3055
881.999	3097
882.125	3138
882.252	3249
882.378	3275
882.505	3389
882.631	3298
882.757	3127
882.883	3184
883.01	3207
883.136	3142
883.262	3100
883.388	3070
883.514	3332
883.64	3374
883.766	3321
883.892	3188
884.018	3211
884.143	3420
884.269	3492
884.395	3192
884.52	3173
884.646	3131
884.772	3108
884.897	3074
885.023	3176
885.148	3348
885.274	3428
885.399	3348
885.524	3264
885.65	3241
885.775	3325
885.9	3218
886.025	3435
886.15	3344
886.275	3268
886.4	3230
886.525	3310
886.65	3245
886.775	3249
886.9	3469
887.025	3614
887.149	3397
887.274	3226
887.399	3165
887.523	3218
887.648	3180
887.773	3184
887.897	3359
888.021	3386
888.146	3306
888.27	3439
888.395	3545
888.519	3428
888.643	3428
888.767	3450
888.891	3310
889.015	3256
889.139	3294
889.263	3253
889.387	3382
889.511	3496
889.635	3435
889.759	3310
889.883	3313
890.006	3401
890.13	3485
890.254	3253
890.377	3321
890.501	3218
890.624	3180
890.748	3302
890.871	3142
890.995	3116
891.118	3070
891.241	3150
891.364	3249
891.488	3302
891.611	3184
891.734	3195
891.857	3287
891.98	3245
892.103	3313
892.226	3275
892.349	3199
892.471	3097
892.594	3249
892.717	3283
892.839	3272
892.962	3264
893.085	3344
893.207	3264
893.33	3173
893.452	3207
893.575	3351
893.697	3222
893.819	3488
893.941	3496
894.064	3443
894.186	3268
894.308	3249
894.43	3405
894.552	3542
894.674	3454
894.796	3264
894.918	3313
895.04	3298
895.161	3409
895.283	3420
895.405	3283
895.526	3363
895.648	3428
895.769	3439
895.891	3458
896.012	3424
896.134	3466
896.255	3439
896.376	3367
896.498	3332
896.619	3447
896.74	3348
896.861	3424
896.982	3656
897.103	3842
897.224	3595
897.345	3507
897.466	3454
897.587	3439
897.708	3614
897.828	3561
897.949	3435
898.07	3332
898.19	3393
898.311	3576
898.431	3450
898.552	3466
898.672	3584
898.792	3572
898.913	3530
899.033	3435
899.153	3279
899.273	3241
899.393	3306
899.513	3298
899.633	3313
899.753	3310
899.873	3332
899.993	3374
900.113	3291
900.232	3374
900.352	3367
900.472	3283
900.591	3176
900.711	3302
900.83	3249
900.95	3412
901.069	3496
901.189	3386
901.308	3169
901.427	3146
901.546	3176
901.665	3321
901.784	3348
901.904	3161
902.023	3154
902.141	3024
902.26	2998
902.379	3135
902.498	3066
902.617	3055
902.735	3222
902.854	3230
902.973	3214
903.091	3055
903.21	3047
903.328	3150
903.446	3100
903.565	3077
903.683	3218
903.801	3154
903.919	3222
904.038	3272
904.156	3157
904.274	3272
904.392	3256
904.51	3275
904.627	3329
904.745	3428
904.863	3473
904.981	3249
905.098	3188
905.216	3218
905.334	3317
905.451	3264
905.569	3260
905.686	3424
905.803	3439
905.921	3287
906.038	3412
906.155	3355
906.272	3264
906.389	3279
906.506	3203
906.623	3279
906.74	3237
906.857	3195
906.974	3249
907.091	3435
907.208	3584
907.324	3454
907.441	3363
907.557	3264
907.674	3214
907.79	3180
907.907	3249
908.023	3351
908.139	3355
908.256	3351
908.372	3389
908.488	3340
908.604	3260
908.72	3222
908.836	3306
908.952	3260
909.068	3313
909.184	3504
909.3	3405
909.415	3466
909.531	3473
909.647	3245
909.762	3272
909.878	3241
909.993	3332
910.108	3370
910.224	3336
910.339	3420
910.454	3351
910.57	3256
910.685	3249
910.8	3587
910.915	3530
911.03	3447
911.145	3291
911.259	3302
911.374	3294
911.489	3203
911.604	3214
911.718	3123
911.833	3157
911.947	3036
912.062	2982
912.176	3188
912.291	3184
912.405	3241
912.519	3447
912.633	3454
912.748	3355
912.862	3279
912.976	3173
913.09	3032
913.204	3142
913.318	3184
913.431	3351
913.545	3291
913.659	3386
913.772	3317
913.886	3237
914	3184
914.113	3329
914.226	3412
914.34	3401
914.453	3218
914.566	3405
914.68	3298
914.793	3344
914.906	3146
915.019	3138
915.132	3058
915.245	3157
915.358	3249
915.47	3245
915.583	3237
915.696	3325
915.809	3405
915.921	3428
916.034	3302
916.146	3226
916.259	3245
916.371	3435
916.483	3382
916.595	3302
916.708	3325
916.82	3340
916.932	3348
917.044	3348
917.156	3329
917.268	3264
917.38	3283
917.491	3310
917.603	3336
917.715	3458
917.826	3500
917.938	3336
918.049	3264
918.161	3416
918.272	3599
918.384	3553
918.495	3500
918.606	3298
918.717	3272
918.828	3359
918.939	3416
919.05	3332
919.161	3389
919.272	3176
919.383	3279
919.494	3481
919.604	3660
919.715	3500
919.826	3420
919.936	3473
920.047	3614
920.157	3576
920.267	3732
920.378	3625
920.488	3553
920.598	3785
920.708	3934
920.818	3819
920.928	3835
921.038	4002
921.148	3953
921.258	3717
921.368	3629
921.477	3591
921.587	3538
921.697	3454
921.806	3610
921.916	3523
922.025	3336
922.134	3397
922.244	3310
922.353	3416
922.462	3264
922.571	3230
922.68	3112
922.789	3043
922.898	3123
923.007	3077
923.116	3203
923.224	3154
923.333	3169
923.442	3070
923.55	3074
923.659	3138
923.767	3173
923.876	3150
923.984	3233
924.092	3135
924.201	3203
924.309	3233
924.417	3241
924.525	3207
924.633	3245
924.741	4211
924.849	3020
924.956	3272
925.064	3138
925.172	3017
925.279	3108
925.387	3211
925.494	3195
925.602	3325
925.709	3321
925.816	3169
925.924	3237
926.031	3405
926.138	3325
926.245	3370
926.352	3245
926.459	3378
926.566	3469
926.673	3275
926.779	3256
926.886	3222
926.993	3180
927.099	3135
927.206	3112
927.312	3104
927.419	3226
927.525	3218
927.631	3253
927.737	3108
927.843	3123
927.95	2982
928.056	3119
928.162	3135
928.267	3275
928.373	3873
928.479	3325
928.585	3074
928.69	3214
928.796	3249
928.901	3161
929.007	3066
929.112	3218
929.218	3169
929.323	3138
929.428	3108
929.533	3294
929.638	3077
929.743	3173
929.848	3207
929.953	3211
930.058	3154
930.163	3001
930.267	3017
930.372	3169
930.477	3032
930.581	3287
930.685	3176
930.79	3047
930.894	3131
930.998	3116
931.103	3264
931.207	2948
931.311	2906
931.415	2925
931.519	2777
931.623	2819
