Data from test_V78500241_812.txt Node
Date: Fri Mar 25 16:20:49 CST 2022
User: usil
Spectrometer: V785-0024
Trigger mode: 0
Integration Time (sec): 4.000000E-1
Scans to average: 1
Nonlinearity correction enabled: false
Boxcar width: 0
Storing dark spectrum: false
XAxis mode: Wavelengths
Number of Pixels in Spectrum: 1024
>>>>>Begin Spectral Data<<<<<
801.071	2929
801.214	2922
801.356	2910
801.499	2914
801.641	2864
801.783	2929
801.926	3055
802.068	2971
802.211	3032
802.353	3047
802.496	2967
802.638	3047
802.78	3066
802.923	3066
803.065	3055
803.208	2914
803.35	2937
803.492	2922
803.635	2941
803.777	2777
803.919	2861
804.061	3207
804.204	2971
804.346	2918
804.488	2842
804.63	2998
804.773	2914
804.915	2883
805.057	3074
805.199	2933
805.341	2994
805.483	3013
805.626	2986
805.768	2975
805.91	3074
806.052	3104
806.194	3066
806.336	3180
806.478	3047
806.62	2960
806.762	2971
806.904	3062
807.046	3161
807.188	2948
807.33	2925
807.472	3028
807.614	2929
807.756	2975
807.898	2941
808.04	2887
808.182	3009
808.324	3005
808.465	2914
808.607	2880
808.749	2807
808.891	2861
809.033	3001
809.174	2982
809.316	2891
809.458	2895
809.6	2804
809.741	2758
809.883	2819
810.025	2845
810.166	2876
810.308	2842
810.45	2883
810.591	2796
810.733	2777
810.875	2849
811.016	2800
811.158	2735
811.299	2792
811.441	2933
811.582	2891
811.724	2785
811.865	2830
812.007	2910
812.148	2925
812.29	2853
812.431	2899
812.573	2960
812.714	3001
812.855	3055
812.997	3028
813.138	3119
813.279	3028
813.421	2986
813.562	2975
813.703	2902
813.845	2872
813.986	2762
814.127	2705
814.268	2842
814.41	2807
814.551	2853
814.692	2861
814.833	2830
814.974	2880
815.115	2941
815.256	2876
815.397	2834
815.539	2853
815.68	2804
815.821	2804
815.962	2929
816.103	2914
816.244	2864
816.385	2880
816.526	3001
816.666	2899
816.807	2758
816.948	2914
817.089	2922
817.23	2880
817.371	2762
817.512	2800
817.653	2853
817.793	2834
817.934	2902
818.075	2986
818.216	2994
818.356	3013
818.497	2910
818.638	2811
818.778	2834
818.919	2804
819.06	2762
819.2	2895
819.341	2815
819.481	2777
819.622	2925
819.762	3077
819.903	3020
820.043	2918
820.184	2937
820.324	2910
820.465	3017
820.605	3047
820.746	3013
820.886	2967
821.026	3154
821.167	3157
821.307	3272
821.447	3256
821.588	3275
821.728	3173
821.868	3165
822.008	3104
822.149	3165
822.289	3203
822.429	3112
822.569	3085
822.709	3161
822.849	3043
822.99	3081
823.13	3150
823.27	3195
823.41	3081
823.55	3176
823.69	3150
823.83	3161
823.97	3112
824.11	3047
824.25	2990
824.389	3070
824.529	3116
824.669	3070
824.809	3195
824.949	3291
825.089	3230
825.228	3135
825.368	3013
825.508	2979
825.648	2967
825.787	3001
825.927	3009
826.067	2998
826.206	2967
826.346	3043
826.485	3077
826.625	3108
826.765	3279
826.904	3203
827.044	3005
827.183	2956
827.323	2834
827.462	2990
827.601	2933
827.741	2929
827.88	2990
828.02	2830
828.159	2944
828.298	3043
828.437	3112
828.577	3062
828.716	3233
828.855	3089
828.994	2910
829.134	2902
829.273	2922
829.412	2895
829.551	2868
829.69	2887
829.829	2990
829.968	3146
830.107	3005
830.246	3024
830.385	2952
830.524	2857
830.663	2826
830.802	2735
830.941	2644
831.08	2648
831.219	2743
831.357	2750
831.496	2944
831.635	2735
831.774	2644
831.913	2667
832.051	2530
832.19	2583
832.329	2682
832.467	2541
832.606	2476
832.744	2594
832.883	2602
833.022	2610
833.16	2655
833.299	2724
833.437	2678
833.576	2720
833.714	2735
833.852	2724
833.991	2731
834.129	2842
834.267	2804
834.406	2807
834.544	2853
834.682	2895
834.821	2883
834.959	3100
835.097	2902
835.235	3074
835.373	2979
835.511	2998
835.65	2975
835.788	2994
835.926	2796
836.064	2785
836.202	2819
836.34	3077
836.478	3123
836.615	3047
836.753	3138
836.891	3176
837.029	3154
837.167	3104
837.305	3058
837.443	3039
837.58	2971
837.718	3165
837.856	3055
837.993	3036
838.131	3108
838.269	3127
838.406	3070
838.544	3085
838.681	2956
838.819	2922
838.956	2830
839.094	2842
839.231	2937
839.369	3028
839.506	3378
839.643	3233
839.781	2971
839.918	2960
840.055	3047
840.193	3055
840.33	3070
840.467	3123
840.604	3150
840.742	3454
840.879	3085
841.016	3043
841.153	3100
841.29	3348
841.427	3279
841.564	3256
841.701	3260
841.838	3241
841.975	3150
842.112	3199
842.249	3081
842.385	3043
842.522	3279
842.659	3100
842.796	3085
842.933	3146
843.069	3032
843.206	3077
843.343	3195
843.479	3100
843.616	3119
843.752	2933
843.889	2899
844.025	3074
844.162	2876
844.298	3039
844.435	2952
844.571	2906
844.708	3100
844.844	3184
844.98	3222
845.117	3203
845.253	3055
845.389	3017
845.525	3131
845.661	3116
845.798	2998
845.934	3138
846.07	3047
846.206	3222
846.342	3275
846.478	3218
846.614	3074
846.75	3051
846.886	3032
847.022	3245
847.158	3108
847.294	3207
847.429	3245
847.565	3203
847.701	3504
847.837	3020
847.972	3009
848.108	3146
848.244	3127
848.379	2967
848.515	2948
848.65	2906
848.786	2963
848.921	3009
849.057	3100
849.192	3161
849.328	3047
849.463	3116
849.598	3062
849.734	3020
849.869	2986
850.004	2883
850.14	2929
850.275	2910
850.41	2880
850.545	2868
850.68	2952
850.815	2963
850.95	2960
851.085	3195
851.22	3097
851.355	3039
851.49	2937
851.625	3013
851.76	3017
851.895	2990
852.03	2891
852.165	3001
852.299	3077
852.434	3165
852.569	3104
852.703	3142
852.838	3260
852.973	3306
853.107	3298
853.242	3119
853.376	3055
853.511	2963
853.645	3036
853.78	3253
853.914	3119
854.048	3108
854.183	3081
854.317	3169
854.451	3294
854.585	3100
854.72	3077
854.854	3157
854.988	3032
855.122	3119
855.256	2990
855.39	3112
855.524	3233
855.658	3207
855.792	3161
855.926	3188
856.06	3207
856.194	3237
856.327	3146
856.461	3097
856.595	3047
856.729	3108
856.862	3192
856.996	3112
857.13	3222
857.263	3199
857.397	3249
857.53	3100
857.664	3173
857.797	3245
857.931	3233
858.064	3184
858.197	3241
858.331	3108
858.464	3089
858.597	3009
858.731	3093
858.864	3123
858.997	3066
859.13	3112
859.263	3180
859.396	3203
859.529	3066
859.662	3077
859.795	3043
859.928	3157
860.061	3287
860.194	3306
860.327	3123
860.46	3104
860.592	3241
860.725	3230
860.858	3230
860.99	3142
861.123	3047
861.256	3047
861.388	3146
861.521	3930
861.653	3001
861.786	2967
861.918	2960
862.05	3058
862.183	3104
862.315	3176
862.447	3214
862.58	3093
862.712	2925
862.844	2876
862.976	3020
863.108	2994
863.24	3302
863.372	2899
863.504	2963
863.636	2902
863.768	3032
863.9	2960
864.032	2887
864.164	2914
864.296	3020
864.428	3085
864.559	3077
864.691	3085
864.823	3081
864.954	3047
865.086	2994
865.217	2960
865.349	2925
865.48	2975
865.612	2998
865.743	3188
865.875	2990
866.006	2941
866.137	2933
866.269	2914
866.4	2910
866.531	2933
866.662	2891
866.793	2872
866.924	2906
867.055	2944
867.186	2906
867.317	2876
867.448	2834
867.579	2811
867.71	2876
867.841	2811
867.972	2906
868.103	2902
868.233	2902
868.364	2910
868.495	2906
868.625	3058
868.756	3116
868.886	2960
869.017	3032
869.147	3218
869.278	3154
869.408	3032
869.539	3017
869.669	3085
869.799	3017
869.929	3127
870.06	3112
870.19	3317
870.32	3302
870.45	3287
870.58	3336
870.71	3469
870.84	3462
870.97	3287
871.1	3230
871.23	3469
871.36	3485
871.489	3351
871.619	3370
871.749	3431
871.879	3428
872.008	3477
872.138	3340
872.267	3283
872.397	3138
872.526	3051
872.656	3051
872.785	3116
872.915	3275
873.044	3283
873.173	3237
873.303	3272
873.432	3233
873.561	3241
873.69	3161
873.819	3131
873.948	3161
874.077	3131
874.206	3043
874.335	3077
874.464	3192
874.593	3363
874.722	3226
874.851	3397
874.979	3351
875.108	3306
875.237	3192
875.365	3150
875.494	3157
875.623	3256
875.751	3074
875.88	3108
876.008	3173
876.136	3245
876.265	3393
876.393	3538
876.521	3428
876.65	3401
876.778	3378
876.906	3233
877.034	3253
877.162	3237
877.29	3157
877.418	3283
877.546	3226
877.674	3275
877.802	3218
877.93	3249
878.058	3161
878.185	3104
878.313	3214
878.441	3195
878.568	3062
878.696	3127
878.824	3230
878.951	3283
879.079	3412
879.206	3629
879.333	3447
879.461	3329
879.588	3332
879.715	3469
879.842	3610
879.97	3378
880.097	3150
880.224	3100
880.351	3169
880.478	3180
880.605	3218
880.732	3180
880.859	3481
880.986	3313
881.112	3340
881.239	3203
881.366	3047
881.493	3047
881.619	3043
881.746	3066
881.872	3100
881.999	3116
882.125	3138
882.252	3260
882.378	3291
882.505	3409
882.631	3272
882.757	3184
882.883	3233
883.01	3214
883.136	3108
883.262	3089
883.388	3108
883.514	3279
883.64	3306
883.766	3275
883.892	3192
884.018	3249
884.143	3393
884.269	3526
884.395	3207
884.52	3165
884.646	3142
884.772	3089
884.897	3104
885.023	3279
885.148	3325
885.274	3405
885.399	3336
885.524	3256
885.65	3291
885.775	3321
885.9	3260
886.025	3454
886.15	3386
886.275	3310
886.4	3226
886.525	3279
886.65	3294
886.775	3291
886.9	3534
887.025	3625
887.149	3405
887.274	3275
887.399	3180
887.523	3195
887.648	3157
887.773	3180
887.897	3359
888.021	3378
888.146	3279
888.27	3424
888.395	3530
888.519	3420
888.643	3477
888.767	3435
888.891	3294
889.015	3226
889.139	3268
889.263	3230
889.387	3374
889.511	3504
889.635	3458
889.759	3291
889.883	3253
890.006	3389
890.13	3485
890.254	3272
890.377	3313
890.501	3192
890.624	3157
890.748	3310
890.871	3161
890.995	3127
891.118	3081
891.241	3203
891.364	3226
891.488	3317
891.611	3199
891.734	3233
891.857	3275
891.98	3226
892.103	3348
892.226	3272
892.349	3203
892.471	3116
892.594	3222
892.717	3256
892.839	3260
892.962	3310
893.085	3340
893.207	3283
893.33	3123
893.452	3249
893.575	3313
893.697	3233
893.819	3439
893.941	3511
894.064	3424
894.186	3268
894.308	3253
894.43	3447
894.552	3545
894.674	3458
894.796	3275
894.918	3294
895.04	3294
895.161	3401
895.283	3405
895.405	3294
895.526	3378
895.648	3386
895.769	3409
895.891	3420
896.012	3485
896.134	3477
896.255	3416
896.376	3389
896.498	3393
896.619	3420
896.74	3363
896.861	3389
896.982	3671
897.103	3816
897.224	3595
897.345	3504
897.466	3420
897.587	3466
897.708	3606
897.828	3519
897.949	3447
898.07	3332
898.19	3374
898.311	3618
898.431	3447
898.552	3481
898.672	3599
898.792	3606
898.913	3523
899.033	3412
899.153	3279
899.273	3207
899.393	3321
899.513	3310
899.633	3310
899.753	3332
899.873	3272
899.993	3378
900.113	3351
900.232	3367
900.352	3382
900.472	3279
900.591	3188
900.711	3302
900.83	3237
900.95	3420
901.069	3492
901.189	3321
901.308	3192
901.427	3089
901.546	3180
901.665	3260
901.784	3355
901.904	3237
902.023	3161
902.141	3036
902.26	2975
902.379	3123
902.498	3058
902.617	3055
902.735	3188
902.854	3230
902.973	3207
903.091	3020
903.21	3104
903.328	3138
903.446	3116
903.565	3116
903.683	3226
903.801	3116
903.919	3272
904.038	3264
904.156	3173
904.274	3275
904.392	3291
904.51	3317
904.627	3336
904.745	3462
904.863	3496
904.981	3264
905.098	3161
905.216	3218
905.334	3310
905.451	3279
905.569	3313
905.686	3443
905.803	3454
905.921	3275
906.038	3450
906.155	3386
906.272	3253
906.389	3313
906.506	3211
906.623	3279
906.74	3249
906.857	3226
906.974	3268
907.091	3450
907.208	3557
907.324	3458
907.441	3374
907.557	3230
907.674	3222
907.79	3237
907.907	3291
908.023	3382
908.139	3389
908.256	3329
908.372	3401
908.488	3363
908.604	3256
908.72	3222
908.836	3253
908.952	3317
909.068	3294
909.184	3466
909.3	3409
909.415	3488
909.531	3469
909.647	3298
909.762	3260
909.878	3253
909.993	3336
910.108	3367
910.224	3302
910.339	3374
910.454	3355
910.57	3329
910.685	3233
910.8	3564
910.915	3496
911.03	3405
911.145	3287
911.259	3233
911.374	3321
911.489	3253
911.604	3207
911.718	3127
911.833	3180
911.947	3017
912.062	2967
912.176	3180
912.291	3188
912.405	3207
912.519	3447
912.633	3454
912.748	3348
912.862	3249
912.976	3161
913.09	3062
913.204	3154
913.318	3245
913.431	3332
913.545	3321
913.659	3389
913.772	3348
913.886	3211
914	3188
914.113	3329
914.226	3374
914.34	3370
914.453	3272
914.566	3382
914.68	3310
914.793	3287
914.906	3146
915.019	3127
915.132	3055
915.245	3192
915.358	3222
915.47	3241
915.583	3298
915.696	3279
915.809	3389
915.921	3458
916.034	3253
916.146	3237
916.259	3233
916.371	3382
916.483	3389
916.595	3275
916.708	3370
916.82	3336
916.932	3359
917.044	3317
917.156	3374
917.268	3260
917.38	3294
917.491	3313
917.603	3382
917.715	3424
917.826	3481
917.938	3344
918.049	3283
918.161	3424
918.272	3576
918.384	3538
918.495	3496
918.606	3302
918.717	3264
918.828	3393
918.939	3412
919.05	3291
919.161	3340
919.272	3161
919.383	3279
919.494	3504
919.604	3682
919.715	3473
919.826	3435
919.936	3454
920.047	3561
920.157	3557
920.267	3774
920.378	3614
920.488	3572
920.598	3759
920.708	3960
920.818	3812
920.928	3800
921.038	4006
921.148	4002
921.258	3686
921.368	3660
921.477	3584
921.587	3549
921.697	3473
921.806	3644
921.916	3542
922.025	3355
922.134	3336
922.244	3313
922.353	3450
922.462	3245
922.571	3230
922.68	3100
922.789	3058
922.898	3142
923.007	3074
923.116	3249
923.224	3138
923.333	3131
923.442	3108
923.55	3066
923.659	3150
923.767	3222
923.876	3112
923.984	3233
924.092	3089
924.201	3184
924.309	3192
924.417	3272
924.525	3176
924.633	3211
924.741	4230
924.849	3055
924.956	3253
925.064	3104
925.172	3047
925.279	3123
925.387	3241
925.494	3173
925.602	3348
925.709	3279
925.816	3150
925.924	3298
926.031	3359
926.138	3378
926.245	3386
926.352	3249
926.459	3424
926.566	3469
926.673	3306
926.779	3211
926.886	3249
926.993	3150
927.099	3135
927.206	3127
927.312	3100
927.419	3214
927.525	3230
927.631	3272
927.737	3146
927.843	3131
927.95	3032
928.056	3127
928.162	3142
928.267	3226
928.373	3785
928.479	3268
928.585	3074
928.69	3203
928.796	3260
928.901	3176
929.007	3024
929.112	3203
929.218	3150
929.323	3161
929.428	3169
929.533	3340
929.638	3123
929.743	3192
929.848	3268
929.953	3203
930.058	3142
930.163	2990
930.267	3032
930.372	3184
930.477	3017
930.581	3291
930.685	3173
930.79	3070
930.894	3146
930.998	3104
931.103	3283
931.207	2960
931.311	2914
931.415	2914
931.519	2769
931.623	2815
