Data from test_V78500241_1435.txt Node
Date: Fri Mar 25 16:25:08 CST 2022
User: usil
Spectrometer: V785-0024
Trigger mode: 0
Integration Time (sec): 4.000000E-1
Scans to average: 1
Nonlinearity correction enabled: false
Boxcar width: 0
Storing dark spectrum: false
XAxis mode: Wavelengths
Number of Pixels in Spectrum: 1024
>>>>>Begin Spectral Data<<<<<
801.071	2883
801.214	2933
801.356	2876
801.499	2899
801.641	2853
801.783	2948
801.926	3051
802.068	2948
802.211	2986
802.353	3009
802.496	2948
802.638	3051
802.78	3039
802.923	3017
803.065	2975
803.208	2887
803.35	2914
803.492	2914
803.635	2937
803.777	2712
803.919	2853
804.061	3188
804.204	2952
804.346	2857
804.488	2849
804.63	2975
804.773	2887
804.915	2883
805.057	3062
805.199	2910
805.341	3005
805.483	3036
805.626	2998
805.768	2944
805.91	3081
806.052	3093
806.194	2998
806.336	3233
806.478	3028
806.62	2929
806.762	2979
806.904	3066
807.046	3154
807.188	2986
807.33	2902
807.472	2998
807.614	2922
807.756	3013
807.898	2944
808.04	2883
808.182	2967
808.324	2975
808.465	2872
808.607	2880
808.749	2788
808.891	2868
809.033	2952
809.174	2948
809.316	2887
809.458	2914
809.6	2785
809.741	2766
809.883	2773
810.025	2842
810.166	2864
810.308	2826
810.45	2857
810.591	2773
810.733	2750
810.875	2823
811.016	2777
811.158	2773
811.299	2815
811.441	2933
811.582	2883
811.724	2838
811.865	2800
812.007	2933
812.148	2857
812.29	2834
812.431	2853
812.573	2948
812.714	2963
812.855	3074
812.997	2998
813.138	3100
813.279	2982
813.421	2998
813.562	2941
813.703	2857
813.845	2849
813.986	2792
814.127	2739
814.268	2804
814.41	2872
814.551	2792
814.692	2895
814.833	2796
814.974	2849
815.115	2937
815.256	2838
815.397	2800
815.539	2842
815.68	2769
815.821	2750
815.962	2902
816.103	2929
816.244	2849
816.385	2838
816.526	2960
816.666	2910
816.807	2739
816.948	2883
817.089	2899
817.23	2853
817.371	2746
817.512	2792
817.653	2834
817.793	2807
817.934	2857
818.075	2941
818.216	2982
818.356	3013
818.497	2880
818.638	2781
818.778	2807
818.919	2796
819.06	2746
819.2	2845
819.341	2811
819.481	2815
819.622	2918
819.762	3108
819.903	3024
820.043	2937
820.184	2883
820.324	2891
820.465	3036
820.605	3055
820.746	3036
820.886	2899
821.026	3112
821.167	3142
821.307	3260
821.447	3268
821.588	3256
821.728	3195
821.868	3176
822.008	3104
822.149	3180
822.289	3226
822.429	3055
822.569	3104
822.709	3165
822.849	3036
822.99	3081
823.13	3150
823.27	3188
823.41	3127
823.55	3142
823.69	3116
823.83	3184
823.97	3104
824.11	3013
824.25	2967
824.389	3062
824.529	3150
824.669	3081
824.809	3195
824.949	3268
825.089	3180
825.228	3146
825.368	2990
825.508	2963
825.648	2990
825.787	2998
825.927	3020
826.067	2922
826.206	2952
826.346	3047
826.485	3077
826.625	3108
826.765	3237
826.904	3207
827.044	2994
827.183	2899
827.323	2864
827.462	2986
827.601	2963
827.741	2918
827.88	2925
828.02	2861
828.159	2937
828.298	3047
828.437	3104
828.577	3024
828.716	3291
828.855	3051
828.994	2914
829.134	2906
829.273	2922
829.412	2883
829.551	2861
829.69	2880
829.829	2986
829.968	3119
830.107	3013
830.246	2998
830.385	2925
830.524	2830
830.663	2785
830.802	2693
830.941	2644
831.08	2667
831.219	2766
831.357	2724
831.496	2937
831.635	2693
831.774	2640
831.913	2663
832.051	2556
832.19	2571
832.329	2663
832.467	2518
832.606	2476
832.744	2587
832.883	2575
833.022	2579
833.16	2640
833.299	2659
833.437	2655
833.576	2720
833.714	2708
833.852	2762
833.991	2746
834.129	2826
834.267	2788
834.406	2819
834.544	2868
834.682	2876
834.821	2853
834.959	3028
835.097	2891
835.235	3074
835.373	2994
835.511	3024
835.65	2963
835.788	2918
835.926	2792
836.064	2766
836.202	2849
836.34	3081
836.478	3157
836.615	3062
836.753	3184
836.891	3207
837.029	3127
837.167	3123
837.305	3051
837.443	3005
837.58	2933
837.718	3131
837.856	3036
837.993	3005
838.131	3051
838.269	3093
838.406	3074
838.544	3066
838.681	2922
838.819	2891
838.956	2800
839.094	2838
839.231	2941
839.369	3055
839.506	3370
839.643	3218
839.781	2994
839.918	2933
840.055	3058
840.193	3062
840.33	3062
840.467	3055
840.604	3165
840.742	3382
840.879	3009
841.016	3036
841.153	3161
841.29	3340
841.427	3283
841.564	3275
841.701	3298
841.838	3211
841.975	3165
842.112	3207
842.249	3112
842.385	3036
842.522	3214
842.659	3085
842.796	3055
842.933	3116
843.069	2990
843.206	3062
843.343	3180
843.479	3104
843.616	3184
843.752	2910
843.889	2834
844.025	3074
844.162	2887
844.298	3070
844.435	2918
844.571	2929
844.708	3066
844.844	3211
844.98	3176
845.117	3188
845.253	3055
845.389	2998
845.525	3119
845.661	3097
845.798	2990
845.934	3108
846.07	3081
846.206	3199
846.342	3313
846.478	3218
846.614	3062
846.75	3043
846.886	3036
847.022	3260
847.158	3123
847.294	3169
847.429	3218
847.565	3211
847.701	3447
847.837	3036
847.972	3005
848.108	3142
848.244	3157
848.379	2990
848.515	2986
848.65	2967
848.786	2990
848.921	3001
849.057	3116
849.192	3169
849.328	3074
849.463	3119
849.598	3043
849.734	3070
849.869	2963
850.004	2929
850.14	2971
850.275	2922
850.41	2845
850.545	2872
850.68	2918
850.815	2941
850.95	2960
851.085	3192
851.22	3089
851.355	3020
851.49	2971
851.625	3017
851.76	2971
851.895	2933
852.03	2937
852.165	3039
852.299	3123
852.434	3203
852.569	3097
852.703	3173
852.838	3233
852.973	3313
853.107	3279
853.242	3150
853.376	3081
853.511	2979
853.645	3032
853.78	3211
853.914	3116
854.048	3104
854.183	3112
854.317	3169
854.451	3298
854.585	3112
854.72	3085
854.854	3199
854.988	3051
855.122	3055
855.256	2971
855.39	3093
855.524	3218
855.658	3184
855.792	3135
855.926	3192
856.06	3199
856.194	3302
856.327	3131
856.461	3066
856.595	3051
856.729	3081
856.862	3218
856.996	3146
857.13	3169
857.263	3222
857.397	3291
857.53	3097
857.664	3165
857.797	3207
857.931	3241
858.064	3173
858.197	3222
858.331	3116
858.464	3127
858.597	3001
858.731	3093
858.864	3112
858.997	3112
859.13	3161
859.263	3157
859.396	3188
859.529	3104
859.662	3089
859.795	3047
859.928	3112
860.061	3294
860.194	3268
860.327	3112
860.46	3081
860.592	3283
860.725	3268
860.858	3233
860.99	3097
861.123	3032
861.256	3047
861.388	3150
861.521	3819
861.653	3020
861.786	2963
861.918	3009
862.05	3051
862.183	3077
862.315	3142
862.447	3154
862.58	3081
862.712	2963
862.844	2883
862.976	2990
863.108	3009
863.24	3321
863.372	2872
863.504	2979
863.636	2918
863.768	3055
863.9	2948
864.032	2925
864.164	2971
864.296	3009
864.428	3058
864.559	3135
864.691	3024
864.823	3055
864.954	3020
865.086	3062
865.217	2952
865.349	2956
865.48	2960
865.612	2971
865.743	3138
865.875	3001
866.006	2971
866.137	2982
866.269	2941
866.4	2918
866.531	2891
866.662	2899
866.793	2918
866.924	2941
867.055	2929
867.186	2952
867.317	2906
867.448	2830
867.579	2876
867.71	2861
867.841	2823
867.972	2918
868.103	2918
868.233	2899
868.364	2842
868.495	2868
868.625	3074
868.756	3165
868.886	2979
869.017	3005
869.147	3169
869.278	3180
869.408	3043
869.539	3005
869.669	3089
869.799	3036
869.929	3127
870.06	3085
870.19	3306
870.32	3260
870.45	3298
870.58	3344
870.71	3443
870.84	3416
870.97	3272
871.1	3264
871.23	3500
871.36	3431
871.489	3370
871.619	3412
871.749	3382
871.879	3443
872.008	3466
872.138	3378
872.267	3283
872.397	3146
872.526	3066
872.656	3032
872.785	3089
872.915	3237
873.044	3306
873.173	3253
873.303	3203
873.432	3260
873.561	3211
873.69	3142
873.819	3123
873.948	3203
874.077	3085
874.206	3009
874.335	3108
874.464	3233
874.593	3336
874.722	3268
874.851	3378
874.979	3332
875.108	3313
875.237	3173
875.365	3184
875.494	3188
875.623	3245
875.751	3077
875.88	3108
876.008	3161
876.136	3218
876.265	3336
876.393	3523
876.521	3450
876.65	3401
876.778	3382
876.906	3256
877.034	3214
877.162	3195
877.29	3154
877.418	3233
877.546	3230
877.674	3211
877.802	3233
877.93	3268
878.058	3173
878.185	3108
878.313	3199
878.441	3188
878.568	3039
878.696	3116
878.824	3237
878.951	3298
879.079	3466
879.206	3644
879.333	3412
879.461	3325
879.588	3359
879.715	3469
879.842	3622
879.97	3370
880.097	3192
880.224	3093
880.351	3146
880.478	3237
880.605	3157
880.732	3176
880.859	3466
880.986	3336
881.112	3306
881.239	3176
881.366	3100
881.493	3058
881.619	3005
881.746	3062
881.872	3077
881.999	3116
882.125	3100
882.252	3256
882.378	3317
882.505	3416
882.631	3233
882.757	3119
882.883	3176
883.01	3237
883.136	3142
883.262	3051
883.388	3123
883.514	3313
883.64	3344
883.766	3272
883.892	3188
884.018	3199
884.143	3462
884.269	3504
884.395	3203
884.52	3142
884.646	3173
884.772	3085
884.897	3089
885.023	3230
885.148	3317
885.274	3412
885.399	3336
885.524	3279
885.65	3230
885.775	3272
885.9	3264
886.025	3412
886.15	3367
886.275	3298
886.4	3195
886.525	3291
886.65	3256
886.775	3241
886.9	3454
887.025	3614
887.149	3412
887.274	3279
887.399	3173
887.523	3169
887.648	3233
887.773	3176
887.897	3348
888.021	3443
888.146	3283
888.27	3439
888.395	3530
888.519	3428
888.643	3435
888.767	3466
888.891	3294
889.015	3203
889.139	3253
889.263	3230
889.387	3428
889.511	3492
889.635	3439
889.759	3332
889.883	3298
890.006	3393
890.13	3420
890.254	3279
890.377	3332
890.501	3214
890.624	3154
890.748	3302
890.871	3207
890.995	3093
891.118	3077
891.241	3180
891.364	3241
891.488	3359
891.611	3150
891.734	3192
891.857	3283
891.98	3249
892.103	3310
892.226	3294
892.349	3237
892.471	3085
892.594	3233
892.717	3264
892.839	3260
892.962	3245
893.085	3336
893.207	3275
893.33	3146
893.452	3184
893.575	3340
893.697	3207
893.819	3469
893.941	3500
894.064	3439
894.186	3279
894.308	3298
894.43	3416
894.552	3519
894.674	3477
894.796	3279
894.918	3325
895.04	3268
895.161	3454
895.283	3367
895.405	3260
895.526	3363
895.648	3397
895.769	3443
895.891	3462
896.012	3458
896.134	3420
896.255	3416
896.376	3351
896.498	3397
896.619	3424
896.74	3348
896.861	3355
896.982	3641
897.103	3819
897.224	3641
897.345	3473
897.466	3412
897.587	3519
897.708	3610
897.828	3561
897.949	3450
898.07	3325
898.19	3431
898.311	3538
898.431	3473
898.552	3496
898.672	3587
898.792	3561
898.913	3549
899.033	3416
899.153	3306
899.273	3233
899.393	3256
899.513	3283
899.633	3332
899.753	3351
899.873	3283
899.993	3370
900.113	3336
900.232	3378
900.352	3321
900.472	3291
900.591	3222
900.711	3294
900.83	3222
900.95	3412
901.069	3454
901.189	3351
901.308	3184
901.427	3135
901.546	3192
901.665	3268
901.784	3310
901.904	3192
902.023	3165
902.141	3005
902.26	2998
902.379	3081
902.498	3055
902.617	3043
902.735	3268
902.854	3241
902.973	3184
903.091	3005
903.21	3081
903.328	3161
903.446	3089
903.565	3066
903.683	3188
903.801	3127
903.919	3264
904.038	3313
904.156	3150
904.274	3249
904.392	3253
904.51	3260
904.627	3302
904.745	3431
904.863	3511
904.981	3283
905.098	3180
905.216	3256
905.334	3264
905.451	3310
905.569	3283
905.686	3431
905.803	3450
905.921	3283
906.038	3424
906.155	3340
906.272	3283
906.389	3344
906.506	3237
906.623	3256
906.74	3279
906.857	3180
906.974	3222
907.091	3443
907.208	3545
907.324	3462
907.441	3363
907.557	3203
907.674	3256
907.79	3203
907.907	3253
908.023	3386
908.139	3363
908.256	3287
908.372	3386
908.488	3332
908.604	3233
908.72	3222
908.836	3294
908.952	3302
909.068	3313
909.184	3428
909.3	3382
909.415	3473
909.531	3447
909.647	3264
909.762	3249
909.878	3253
909.993	3351
910.108	3340
910.224	3344
910.339	3397
910.454	3321
910.57	3275
910.685	3237
910.8	3584
910.915	3523
911.03	3420
911.145	3279
911.259	3298
911.374	3298
911.489	3253
911.604	3222
911.718	3142
911.833	3135
911.947	3017
912.062	2986
912.176	3138
912.291	3161
912.405	3188
912.519	3409
912.633	3450
912.748	3291
912.862	3279
912.976	3176
913.09	3051
913.204	3150
913.318	3192
913.431	3344
913.545	3348
913.659	3393
913.772	3332
913.886	3218
914	3173
914.113	3298
914.226	3416
914.34	3378
914.453	3184
914.566	3405
914.68	3275
914.793	3283
914.906	3108
915.019	3058
915.132	3074
915.245	3169
915.358	3218
915.47	3230
915.583	3283
915.696	3237
915.809	3428
915.921	3416
916.034	3283
916.146	3211
916.259	3207
916.371	3401
916.483	3329
916.595	3321
916.708	3332
916.82	3279
916.932	3348
917.044	3363
917.156	3344
917.268	3294
917.38	3298
917.491	3329
917.603	3317
917.715	3466
917.826	3466
917.938	3340
918.049	3291
918.161	3420
918.272	3545
918.384	3557
918.495	3439
918.606	3310
918.717	3260
918.828	3374
918.939	3424
919.05	3325
919.161	3363
919.272	3169
919.383	3260
919.494	3469
919.604	3663
919.715	3443
919.826	3393
919.936	3420
920.047	3572
920.157	3557
920.267	3808
920.378	3576
920.488	3576
920.598	3831
920.708	3903
920.818	3793
920.928	3838
921.038	4002
921.148	3953
921.258	3698
921.368	3622
921.477	3572
921.587	3576
921.697	3462
921.806	3652
921.916	3538
922.025	3351
922.134	3389
922.244	3313
922.353	3428
922.462	3279
922.571	3233
922.68	3116
922.789	3070
922.898	3135
923.007	3104
923.116	3226
923.224	3154
923.333	3161
923.442	3112
923.55	3093
923.659	3131
923.767	3233
923.876	3127
923.984	3245
924.092	3074
924.201	3184
924.309	3237
924.417	3264
924.525	3157
924.633	3211
924.741	4135
924.849	3062
924.956	3230
925.064	3104
925.172	3036
925.279	3119
925.387	3230
925.494	3211
925.602	3355
925.709	3340
925.816	3180
925.924	3302
926.031	3374
926.138	3298
926.245	3351
926.352	3245
926.459	3409
926.566	3431
926.673	3302
926.779	3222
926.886	3260
926.993	3184
927.099	3142
927.206	3127
927.312	3138
927.419	3192
927.525	3211
927.631	3207
927.737	3150
927.843	3150
927.95	3009
928.056	3108
928.162	3199
928.267	3199
928.373	3869
928.479	3317
928.585	3089
928.69	3272
928.796	3264
928.901	3123
929.007	3020
929.112	3199
929.218	3146
929.323	3157
929.428	3188
929.533	3298
929.638	3100
929.743	3184
929.848	3260
929.953	3207
930.058	3161
930.163	3005
930.267	3051
930.372	3165
930.477	3024
930.581	3306
930.685	3157
930.79	3043
930.894	3135
930.998	3097
931.103	3287
931.207	2937
931.311	2902
931.415	2948
931.519	2773
931.623	2788
