Data from test_V78500241_1064.txt Node
Date: Fri Mar 25 16:22:34 CST 2022
User: usil
Spectrometer: V785-0024
Trigger mode: 0
Integration Time (sec): 4.000000E-1
Scans to average: 1
Nonlinearity correction enabled: false
Boxcar width: 0
Storing dark spectrum: false
XAxis mode: Wavelengths
Number of Pixels in Spectrum: 1024
>>>>>Begin Spectral Data<<<<<
801.071	2880
801.214	2918
801.356	2868
801.499	2864
801.641	2880
801.783	2922
801.926	3043
802.068	2956
802.211	3036
802.353	3032
802.496	2948
802.638	2971
802.78	3017
802.923	3051
803.065	3005
803.208	2883
803.35	2880
803.492	2929
803.635	2918
803.777	2773
803.919	2849
804.061	3192
804.204	2922
804.346	2922
804.488	2830
804.63	2979
804.773	2868
804.915	2883
805.057	3077
805.199	2948
805.341	2971
805.483	3013
805.626	3055
805.768	2956
805.91	3081
806.052	3119
806.194	3017
806.336	3237
806.478	3020
806.62	2956
806.762	2941
806.904	3043
807.046	3165
807.188	2956
807.33	2944
807.472	2998
807.614	2910
807.756	2975
807.898	2918
808.04	2887
808.182	2971
808.324	2975
808.465	2895
808.607	2868
808.749	2762
808.891	2834
809.033	2994
809.174	2944
809.316	2872
809.458	2902
809.6	2762
809.741	2769
809.883	2758
810.025	2849
810.166	2823
810.308	2838
810.45	2815
810.591	2781
810.733	2804
810.875	2834
811.016	2800
811.158	2769
811.299	2800
811.441	2941
811.582	2906
811.724	2826
811.865	2823
812.007	2899
812.148	2887
812.29	2842
812.431	2891
812.573	2922
812.714	2937
812.855	3013
812.997	3062
813.138	3119
813.279	3013
813.421	2982
813.562	2971
813.703	2857
813.845	2929
813.986	2766
814.127	2762
814.268	2826
814.41	2830
814.551	2826
814.692	2864
814.833	2826
814.974	2887
815.115	2975
815.256	2830
815.397	2815
815.539	2880
815.68	2743
815.821	2796
815.962	2956
816.103	2914
816.244	2887
816.385	2826
816.526	2948
816.666	2899
816.807	2735
816.948	2883
817.089	2910
817.23	2838
817.371	2807
817.512	2834
817.653	2857
817.793	2868
817.934	2902
818.075	2967
818.216	2998
818.356	2994
818.497	2842
818.638	2811
818.778	2777
818.919	2796
819.06	2773
819.2	2864
819.341	2807
819.481	2804
819.622	2899
819.762	3085
819.903	3055
820.043	2918
820.184	2891
820.324	2941
820.465	3062
820.605	3005
820.746	3024
820.886	2963
821.026	3093
821.167	3112
821.307	3253
821.447	3291
821.588	3241
821.728	3188
821.868	3165
822.008	3077
822.149	3150
822.289	3222
822.429	3097
822.569	3074
822.709	3161
822.849	3051
822.99	3081
823.13	3154
823.27	3199
823.41	3074
823.55	3192
823.69	3119
823.83	3218
823.97	3097
824.11	3001
824.25	2979
824.389	3055
824.529	3074
824.669	3062
824.809	3203
824.949	3275
825.089	3241
825.228	3157
825.368	2994
825.508	2975
825.648	2990
825.787	2960
825.927	3028
826.067	3005
826.206	2960
826.346	3005
826.485	3097
826.625	3085
826.765	3260
826.904	3207
827.044	2944
827.183	2929
827.323	2853
827.462	2998
827.601	2895
827.741	2899
827.88	2937
828.02	2838
828.159	2952
828.298	3043
828.437	3108
828.577	3036
828.716	3222
828.855	3032
828.994	2887
829.134	2910
829.273	2899
829.412	2861
829.551	2887
829.69	2883
829.829	2986
829.968	3100
830.107	2963
830.246	3036
830.385	2902
830.524	2876
830.663	2800
830.802	2724
830.941	2640
831.08	2610
831.219	2743
831.357	2754
831.496	2937
831.635	2705
831.774	2636
831.913	2674
832.051	2537
832.19	2556
832.329	2667
832.467	2537
832.606	2465
832.744	2575
832.883	2571
833.022	2587
833.16	2659
833.299	2693
833.437	2693
833.576	2697
833.714	2720
833.852	2697
833.991	2781
834.129	2819
834.267	2807
834.406	2773
834.544	2891
834.682	2887
834.821	2853
834.959	3093
835.097	2883
835.235	3032
835.373	3005
835.511	3001
835.65	2952
835.788	2941
835.926	2823
836.064	2800
836.202	2834
836.34	3097
836.478	3142
836.615	3062
836.753	3169
836.891	3184
837.029	3138
837.167	3127
837.305	3039
837.443	3020
837.58	2975
837.718	3135
837.856	3062
837.993	3020
838.131	3104
838.269	3089
838.406	3104
838.544	3097
838.681	2918
838.819	2925
838.956	2773
839.094	2823
839.231	2902
839.369	3017
839.506	3325
839.643	3203
839.781	2967
839.918	2975
840.055	3062
840.193	3028
840.33	3070
840.467	3085
840.604	3142
840.742	3370
840.879	3043
841.016	3024
841.153	3135
841.29	3313
841.427	3306
841.564	3275
841.701	3336
841.838	3222
841.975	3180
842.112	3222
842.249	3085
842.385	3024
842.522	3233
842.659	3070
842.796	3085
842.933	3116
843.069	3055
843.206	3009
843.343	3180
843.479	3100
843.616	3135
843.752	2883
843.889	2861
844.025	3055
844.162	2876
844.298	3077
844.435	2971
844.571	2906
844.708	3093
844.844	3180
844.98	3207
845.117	3211
845.253	3047
845.389	2994
845.525	3074
845.661	3085
845.798	2998
845.934	3131
846.07	3070
846.206	3283
846.342	3275
846.478	3207
846.614	3066
846.75	3009
846.886	3062
847.022	3233
847.158	3116
847.294	3169
847.429	3264
847.565	3165
847.701	3462
847.837	3032
847.972	2998
848.108	3142
848.244	3138
848.379	2986
848.515	2952
848.65	2960
848.786	2971
848.921	3020
849.057	3131
849.192	3100
849.328	3085
849.463	3104
849.598	3055
849.734	3032
849.869	2952
850.004	2922
850.14	2967
850.275	2918
850.41	2826
850.545	2853
850.68	2922
850.815	2941
850.95	2979
851.085	3188
851.22	3058
851.355	3032
851.49	2986
851.625	3036
851.76	2990
851.895	2910
852.03	2910
852.165	3028
852.299	3062
852.434	3176
852.569	3119
852.703	3192
852.838	3230
852.973	3332
853.107	3340
853.242	3142
853.376	3070
853.511	2975
853.645	3028
853.78	3195
853.914	3108
854.048	3074
854.183	3085
854.317	3119
854.451	3279
854.585	3142
854.72	3093
854.854	3195
854.988	3047
855.122	3085
855.256	2967
855.39	3112
855.524	3260
855.658	3161
855.792	3150
855.926	3131
856.06	3161
856.194	3245
856.327	3142
856.461	3070
856.595	3097
856.729	3112
856.862	3218
856.996	3169
857.13	3222
857.263	3207
857.397	3260
857.53	3100
857.664	3123
857.797	3222
857.931	3272
858.064	3157
858.197	3218
858.331	3119
858.464	3104
858.597	2998
858.731	3104
858.864	3154
858.997	3085
859.13	3154
859.263	3180
859.396	3180
859.529	3081
859.662	3085
859.795	3043
859.928	3097
860.061	3253
860.194	3272
860.327	3154
860.46	3066
860.592	3211
860.725	3230
860.858	3230
860.99	3081
861.123	3047
861.256	3036
861.388	3154
861.521	3888
861.653	3024
861.786	2979
861.918	2990
862.05	3051
862.183	3093
862.315	3116
862.447	3184
862.58	3112
862.712	2948
862.844	2880
862.976	3032
863.108	2998
863.24	3416
863.372	2887
863.504	2925
863.636	2941
863.768	2990
863.9	2960
864.032	2922
864.164	2914
864.296	3009
864.428	3093
864.559	3112
864.691	3066
864.823	3074
864.954	3013
865.086	3036
865.217	2967
865.349	2918
865.48	2971
865.612	3024
865.743	3100
865.875	2914
866.006	2941
866.137	2963
866.269	2933
866.4	2960
866.531	2937
866.662	2910
866.793	2902
866.924	2891
867.055	2982
867.186	2902
867.317	2895
867.448	2842
867.579	2842
867.71	2864
867.841	2796
867.972	2914
868.103	2902
868.233	2823
868.364	2864
868.495	2895
868.625	3077
868.756	3176
868.886	2994
869.017	2982
869.147	3150
869.278	3135
869.408	3039
869.539	3005
869.669	3066
869.799	3097
869.929	3123
870.06	3108
870.19	3287
870.32	3275
870.45	3256
870.58	3367
870.71	3401
870.84	3458
870.97	3317
871.1	3272
871.23	3504
871.36	3439
871.489	3393
871.619	3370
871.749	3428
871.879	3439
872.008	3469
872.138	3329
872.267	3264
872.397	3165
872.526	3138
872.656	3024
872.785	3119
872.915	3241
873.044	3306
873.173	3207
873.303	3222
873.432	3218
873.561	3214
873.69	3157
873.819	3142
873.948	3192
874.077	3081
874.206	3036
874.335	3108
874.464	3195
874.593	3336
874.722	3192
874.851	3382
874.979	3344
875.108	3317
875.237	3195
875.365	3135
875.494	3142
875.623	3237
875.751	3070
875.88	3127
876.008	3154
876.136	3230
876.265	3389
876.393	3526
876.521	3382
876.65	3386
876.778	3313
876.906	3226
877.034	3214
877.162	3199
877.29	3192
877.418	3264
877.546	3199
877.674	3253
877.802	3253
877.93	3207
878.058	3150
878.185	3085
878.313	3195
878.441	3173
878.568	3036
878.696	3165
878.824	3279
878.951	3306
879.079	3431
879.206	3618
879.333	3428
879.461	3306
879.588	3351
879.715	3462
879.842	3591
879.97	3359
880.097	3222
880.224	3093
880.351	3169
880.478	3207
880.605	3184
880.732	3165
880.859	3492
880.986	3256
881.112	3264
881.239	3154
881.366	3131
881.493	3032
881.619	3009
881.746	3020
881.872	3108
881.999	3093
882.125	3150
882.252	3226
882.378	3329
882.505	3420
882.631	3279
882.757	3127
882.883	3195
883.01	3188
883.136	3100
883.262	3104
883.388	3100
883.514	3313
883.64	3416
883.766	3306
883.892	3184
884.018	3256
884.143	3416
884.269	3542
884.395	3199
884.52	3123
884.646	3161
884.772	3100
884.897	3066
885.023	3199
885.148	3291
885.274	3378
885.399	3306
885.524	3211
885.65	3226
885.775	3302
885.9	3245
886.025	3424
886.15	3359
886.275	3310
886.4	3218
886.525	3256
886.65	3245
886.775	3264
886.9	3450
887.025	3606
887.149	3367
887.274	3237
887.399	3165
887.523	3188
887.648	3146
887.773	3135
887.897	3329
888.021	3370
888.146	3294
888.27	3435
888.395	3492
888.519	3416
888.643	3420
888.767	3431
888.891	3302
889.015	3218
889.139	3287
889.263	3272
889.387	3382
889.511	3504
889.635	3450
889.759	3230
889.883	3306
890.006	3409
890.13	3500
890.254	3260
890.377	3348
890.501	3222
890.624	3203
890.748	3256
890.871	3184
890.995	3108
891.118	3100
891.241	3192
891.364	3226
891.488	3321
891.611	3207
891.734	3199
891.857	3233
891.98	3222
892.103	3340
892.226	3291
892.349	3241
892.471	3146
892.594	3283
892.717	3275
892.839	3272
892.962	3325
893.085	3382
893.207	3306
893.33	3188
893.452	3230
893.575	3363
893.697	3283
893.819	3519
893.941	3496
894.064	3469
894.186	3279
894.308	3298
894.43	3477
894.552	3526
894.674	3488
894.796	3287
894.918	3325
895.04	3310
895.161	3477
895.283	3416
895.405	3340
895.526	3378
895.648	3443
895.769	3481
895.891	3496
896.012	3553
896.134	3511
896.255	3466
896.376	3454
896.498	3405
896.619	3447
896.74	3389
896.861	3428
896.982	3698
897.103	3884
897.224	3644
897.345	3549
897.466	3477
897.587	3561
897.708	3652
897.828	3591
897.949	3500
898.07	3332
898.19	3420
898.311	3667
898.431	3485
898.552	3545
898.672	3637
898.792	3610
898.913	3606
899.033	3431
899.153	3344
899.273	3260
899.393	3291
899.513	3359
899.633	3332
899.753	3393
899.873	3344
899.993	3420
900.113	3367
900.232	3424
900.352	3420
900.472	3336
900.591	3249
900.711	3325
900.83	3287
900.95	3469
901.069	3507
901.189	3374
901.308	3226
901.427	3142
901.546	3218
901.665	3313
901.784	3351
901.904	3226
902.023	3211
902.141	3028
902.26	3005
902.379	3138
902.498	3108
902.617	3108
902.735	3230
902.854	3275
902.973	3233
903.091	3074
903.21	3112
903.328	3157
903.446	3142
903.565	3165
903.683	3249
903.801	3157
903.919	3294
904.038	3332
904.156	3192
904.274	3325
904.392	3268
904.51	3321
904.627	3348
904.745	3492
904.863	3515
904.981	3329
905.098	3192
905.216	3256
905.334	3325
905.451	3348
905.569	3321
905.686	3492
905.803	3485
905.921	3348
906.038	3485
906.155	3416
906.272	3321
906.389	3348
906.506	3283
906.623	3298
906.74	3268
906.857	3211
906.974	3279
907.091	3439
907.208	3603
907.324	3485
907.441	3428
907.557	3294
907.674	3272
907.79	3233
907.907	3313
908.023	3439
908.139	3405
908.256	3386
908.372	3405
908.488	3401
908.604	3256
908.72	3283
908.836	3302
908.952	3325
909.068	3382
909.184	3504
909.3	3428
909.415	3515
909.531	3469
909.647	3291
909.762	3355
909.878	3298
909.993	3336
910.108	3367
910.224	3336
910.339	3412
910.454	3348
910.57	3310
910.685	3279
910.8	3625
910.915	3610
911.03	3466
911.145	3268
911.259	3332
911.374	3332
911.489	3245
911.604	3256
911.718	3131
911.833	3192
911.947	3039
912.062	3009
912.176	3207
912.291	3218
912.405	3253
912.519	3466
912.633	3519
912.748	3367
912.862	3321
912.976	3214
913.09	3081
913.204	3169
913.318	3245
913.431	3325
913.545	3363
913.659	3443
913.772	3367
913.886	3253
914	3230
914.113	3374
914.226	3458
914.34	3382
914.453	3226
914.566	3447
914.68	3279
914.793	3310
914.906	3165
915.019	3146
915.132	3135
915.245	3222
915.358	3245
915.47	3313
915.583	3298
915.696	3306
915.809	3447
915.921	3481
916.034	3310
916.146	3279
916.259	3233
916.371	3428
916.483	3412
916.595	3275
916.708	3401
916.82	3344
916.932	3340
917.044	3409
917.156	3367
917.268	3283
917.38	3321
917.491	3348
917.603	3397
917.715	3462
917.826	3488
917.938	3431
918.049	3294
918.161	3450
918.272	3599
918.384	3595
918.495	3534
918.606	3386
918.717	3332
918.828	3405
918.939	3450
919.05	3332
919.161	3393
919.272	3241
919.383	3336
919.494	3504
919.604	3709
919.715	3511
919.826	3462
919.936	3481
920.047	3629
920.157	3603
920.267	3747
920.378	3656
920.488	3614
920.598	3800
920.708	3968
920.818	3831
920.928	3861
921.038	4048
921.148	4044
921.258	3713
921.368	3701
921.477	3564
921.587	3534
921.697	3477
921.806	3629
921.916	3538
922.025	3420
922.134	3386
922.244	3317
922.353	3462
922.462	3287
922.571	3256
922.68	3154
922.789	3108
922.898	3173
923.007	3123
923.116	3203
923.224	3233
923.333	3207
923.442	3135
923.55	3108
923.659	3195
923.767	3279
923.876	3154
923.984	3275
924.092	3169
924.201	3214
924.309	3233
924.417	3256
924.525	3211
924.633	3264
924.741	4204
924.849	3062
924.956	3294
925.064	3116
925.172	3074
925.279	3146
925.387	3226
925.494	3233
925.602	3374
925.709	3382
925.816	3222
925.924	3302
926.031	3401
926.138	3370
926.245	3409
926.352	3245
926.459	3424
926.566	3519
926.673	3367
926.779	3291
926.886	3291
926.993	3184
927.099	3192
927.206	3165
927.312	3116
927.419	3230
927.525	3268
927.631	3325
927.737	3169
927.843	3131
927.95	3058
928.056	3146
928.162	3184
928.267	3283
928.373	3911
928.479	3348
928.585	3085
928.69	3245
928.796	3306
928.901	3184
929.007	3081
929.112	3253
929.218	3199
929.323	3203
929.428	3180
929.533	3348
929.638	3150
929.743	3138
929.848	3268
929.953	3245
930.058	3173
930.163	3001
930.267	3066
930.372	3222
930.477	3070
930.581	3310
930.685	3203
930.79	3066
930.894	3112
930.998	3097
931.103	3310
931.207	2979
931.311	2986
931.415	2963
931.519	2796
931.623	2804
