Data from test_V78500241_1677.txt Node
Date: Fri Mar 25 16:26:49 CST 2022
User: usil
Spectrometer: V785-0024
Trigger mode: 0
Integration Time (sec): 4.000000E-1
Scans to average: 1
Nonlinearity correction enabled: false
Boxcar width: 0
Storing dark spectrum: false
XAxis mode: Wavelengths
Number of Pixels in Spectrum: 1024
>>>>>Begin Spectral Data<<<<<
801.071	2922
801.214	2941
801.356	2876
801.499	2880
801.641	2876
801.783	2925
801.926	3055
802.068	3005
802.211	2941
802.353	3032
802.496	2986
802.638	3036
802.78	3028
802.923	3066
803.065	3009
803.208	2883
803.35	2902
803.492	2929
803.635	2979
803.777	2773
803.919	2868
804.061	3230
804.204	2944
804.346	2944
804.488	2849
804.63	2963
804.773	2876
804.915	2910
805.057	3104
805.199	2929
805.341	2982
805.483	3028
805.626	3013
805.768	2967
805.91	3066
806.052	3119
806.194	3036
806.336	3245
806.478	3005
806.62	2967
806.762	2990
806.904	3097
807.046	3176
807.188	2975
807.33	2929
807.472	3017
807.614	2933
807.756	2990
807.898	2929
808.04	2925
808.182	2971
808.324	2929
808.465	2883
808.607	2887
808.749	2807
808.891	2864
809.033	2956
809.174	2960
809.316	2887
809.458	2925
809.6	2800
809.741	2750
809.883	2815
810.025	2864
810.166	2845
810.308	2830
810.45	2849
810.591	2773
810.733	2762
810.875	2845
811.016	2796
811.158	2781
811.299	2842
811.441	2906
811.582	2906
811.724	2819
811.865	2861
812.007	2922
812.148	2872
812.29	2880
812.431	2876
812.573	2952
812.714	2967
812.855	3039
812.997	3043
813.138	3100
813.279	3028
813.421	2986
813.562	2952
813.703	2876
813.845	2914
813.986	2792
814.127	2724
814.268	2826
814.41	2857
814.551	2819
814.692	2895
814.833	2834
814.974	2895
815.115	2994
815.256	2826
815.397	2807
815.539	2842
815.68	2792
815.821	2796
815.962	2963
816.103	2891
816.244	2891
816.385	2876
816.526	2960
816.666	2914
816.807	2758
816.948	2876
817.089	2899
817.23	2857
817.371	2743
817.512	2823
817.653	2845
817.793	2819
817.934	2880
818.075	2963
818.216	2982
818.356	3013
818.497	2880
818.638	2800
818.778	2819
818.919	2804
819.06	2785
819.2	2864
819.341	2788
819.481	2785
819.622	2941
819.762	3100
819.903	3024
820.043	2952
820.184	2887
820.324	2906
820.465	3005
820.605	2990
820.746	3055
820.886	2944
821.026	3070
821.167	3135
821.307	3233
821.447	3287
821.588	3226
821.728	3226
821.868	3188
822.008	3081
822.149	3169
822.289	3188
822.429	3074
822.569	3062
822.709	3199
822.849	2990
822.99	3036
823.13	3180
823.27	3203
823.41	3112
823.55	3157
823.69	3161
823.83	3150
823.97	3074
824.11	2986
824.25	3020
824.389	3047
824.529	3112
824.669	3055
824.809	3192
824.949	3237
825.089	3203
825.228	3150
825.368	2994
825.508	2971
825.648	2979
825.787	2994
825.927	3013
826.067	2967
826.206	2929
826.346	3032
826.485	3051
826.625	3100
826.765	3264
826.904	3211
827.044	2979
827.183	2963
827.323	2902
827.462	2971
827.601	2895
827.741	2922
827.88	2971
828.02	2853
828.159	2986
828.298	3051
828.437	3123
828.577	3051
828.716	3237
828.855	3066
828.994	2922
829.134	2899
829.273	2899
829.412	2876
829.551	2876
829.69	2918
829.829	2960
829.968	3138
830.107	3009
830.246	3055
830.385	2952
830.524	2876
830.663	2811
830.802	2727
830.941	2636
831.08	2655
831.219	2743
831.357	2754
831.496	2937
831.635	2697
831.774	2659
831.913	2659
832.051	2549
832.19	2568
832.329	2686
832.467	2537
832.606	2503
832.744	2579
832.883	2606
833.022	2564
833.16	2693
833.299	2727
833.437	2712
833.576	2716
833.714	2705
833.852	2727
833.991	2731
834.129	2819
834.267	2811
834.406	2788
834.544	2864
834.682	2861
834.821	2880
834.959	3058
835.097	2895
835.235	3077
835.373	3005
835.511	3024
835.65	2941
835.788	2963
835.926	2838
836.064	2823
836.202	2842
836.34	3066
836.478	3157
836.615	3028
836.753	3127
836.891	3184
837.029	3150
837.167	3100
837.305	3081
837.443	3005
837.58	2937
837.718	3123
837.856	3066
837.993	2998
838.131	3131
838.269	3081
838.406	3081
838.544	3066
838.681	2899
838.819	2899
838.956	2796
839.094	2834
839.231	2948
839.369	3009
839.506	3393
839.643	3237
839.781	2998
839.918	2975
840.055	3051
840.193	3036
840.33	3074
840.467	3077
840.604	3169
840.742	3370
840.879	3058
841.016	3058
841.153	3131
841.29	3340
841.427	3302
841.564	3230
841.701	3321
841.838	3218
841.975	3184
842.112	3222
842.249	3051
842.385	3039
842.522	3233
842.659	3051
842.796	3051
842.933	3074
843.069	3024
843.206	3055
843.343	3154
843.479	3116
843.616	3135
843.752	2895
843.889	2849
844.025	3074
844.162	2868
844.298	3028
844.435	2944
844.571	2910
844.708	3123
844.844	3195
844.98	3218
845.117	3188
845.253	3074
845.389	2994
845.525	3108
845.661	3081
845.798	2990
845.934	3104
846.07	3066
846.206	3222
846.342	3325
846.478	3214
846.614	3043
846.75	3047
846.886	2998
847.022	3237
847.158	3138
847.294	3150
847.429	3245
847.565	3184
847.701	3511
847.837	2975
847.972	2998
848.108	3161
848.244	3127
848.379	3024
848.515	2937
848.65	2887
848.786	2960
848.921	2998
849.057	3077
849.192	3123
849.328	3055
849.463	3081
849.598	3047
849.734	3043
849.869	2990
850.004	2902
850.14	2990
850.275	2868
850.41	2834
850.545	2838
850.68	2925
850.815	2941
850.95	2971
851.085	3199
851.22	3085
851.355	3028
851.49	3009
851.625	2994
851.76	3028
851.895	2944
852.03	2914
852.165	3009
852.299	3112
852.434	3184
852.569	3150
852.703	3142
852.838	3230
852.973	3344
853.107	3344
853.242	3123
853.376	3097
853.511	2948
853.645	3020
853.78	3237
853.914	3112
854.048	3070
854.183	3032
854.317	3157
854.451	3302
854.585	3104
854.72	3043
854.854	3199
854.988	3051
855.122	3074
855.256	2998
855.39	3100
855.524	3249
855.658	3157
855.792	3112
855.926	3180
856.06	3211
856.194	3283
856.327	3142
856.461	3112
856.595	3093
856.729	3070
856.862	3241
856.996	3157
857.13	3207
857.263	3230
857.397	3264
857.53	3131
857.664	3207
857.797	3214
857.931	3249
858.064	3207
858.197	3222
858.331	3119
858.464	3074
858.597	2979
858.731	3104
858.864	3135
858.997	3081
859.13	3112
859.263	3173
859.396	3218
859.529	3055
859.662	3085
859.795	3062
859.928	3131
860.061	3264
860.194	3287
860.327	3146
860.46	3104
860.592	3260
860.725	3226
860.858	3264
860.99	3104
861.123	3058
861.256	3039
861.388	3146
861.521	3831
861.653	3005
861.786	2982
861.918	3013
862.05	3055
862.183	3066
862.315	3138
862.447	3188
862.58	3074
862.712	2948
862.844	2868
862.976	3051
863.108	3005
863.24	3439
863.372	2861
863.504	2975
863.636	2956
863.768	3036
863.9	2986
864.032	2922
864.164	2975
864.296	2963
864.428	3089
864.559	3077
864.691	3108
864.823	3032
864.954	3024
865.086	3047
865.217	2986
865.349	2952
865.48	3005
865.612	3020
865.743	3165
865.875	2971
866.006	2963
866.137	3005
866.269	2918
866.4	2948
866.531	2906
866.662	2910
866.793	2876
866.924	2910
867.055	2944
867.186	2910
867.317	2876
867.448	2876
867.579	2842
867.71	2876
867.841	2807
867.972	2887
868.103	2902
868.233	2895
868.364	2876
868.495	2918
868.625	3062
868.756	3150
868.886	2944
869.017	3013
869.147	3176
869.278	3157
869.408	3028
869.539	3013
869.669	3081
869.799	3001
869.929	3112
870.06	3116
870.19	3332
870.32	3279
870.45	3260
870.58	3397
870.71	3466
870.84	3405
870.97	3275
871.1	3211
871.23	3485
871.36	3450
871.489	3393
871.619	3374
871.749	3405
871.879	3405
872.008	3458
872.138	3340
872.267	3291
872.397	3165
872.526	3119
872.656	3005
872.785	3119
872.915	3241
873.044	3325
873.173	3203
873.303	3222
873.432	3249
873.561	3245
873.69	3169
873.819	3184
873.948	3199
874.077	3119
874.206	3028
874.335	3116
874.464	3199
874.593	3370
874.722	3241
874.851	3416
874.979	3302
875.108	3313
875.237	3218
875.365	3180
875.494	3135
875.623	3233
875.751	3051
875.88	3081
876.008	3173
876.136	3260
876.265	3389
876.393	3481
876.521	3405
876.65	3416
876.778	3336
876.906	3268
877.034	3226
877.162	3233
877.29	3195
877.418	3211
877.546	3211
877.674	3211
877.802	3188
877.93	3207
878.058	3161
878.185	3089
878.313	3211
878.441	3199
878.568	3051
878.696	3135
878.824	3268
878.951	3344
879.079	3454
879.206	3599
879.333	3462
879.461	3291
879.588	3367
879.715	3477
879.842	3564
879.97	3329
880.097	3150
880.224	3138
880.351	3199
880.478	3203
880.605	3199
880.732	3165
880.859	3507
880.986	3287
881.112	3329
881.239	3188
881.366	3093
881.493	3055
881.619	3024
881.746	3036
881.872	3119
881.999	3085
882.125	3161
882.252	3272
882.378	3294
882.505	3420
882.631	3294
882.757	3116
882.883	3222
883.01	3226
883.136	3165
883.262	3085
883.388	3104
883.514	3306
883.64	3340
883.766	3298
883.892	3154
884.018	3222
884.143	3428
884.269	3549
884.395	3203
884.52	3180
884.646	3180
884.772	3097
884.897	3081
885.023	3195
885.148	3336
885.274	3401
885.399	3348
885.524	3302
885.65	3226
885.775	3321
885.9	3268
886.025	3389
886.15	3348
886.275	3275
886.4	3272
886.525	3317
886.65	3260
886.775	3325
886.9	3485
887.025	3644
887.149	3367
887.274	3237
887.399	3211
887.523	3169
887.648	3157
887.773	3180
887.897	3340
888.021	3363
888.146	3283
888.27	3393
888.395	3515
888.519	3450
888.643	3412
888.767	3447
888.891	3306
889.015	3245
889.139	3275
889.263	3249
889.387	3397
889.511	3530
889.635	3439
889.759	3298
889.883	3313
890.006	3401
890.13	3492
890.254	3310
890.377	3325
890.501	3211
890.624	3199
890.748	3298
890.871	3157
890.995	3112
891.118	3066
891.241	3192
891.364	3222
891.488	3302
891.611	3161
891.734	3203
891.857	3272
891.98	3214
892.103	3344
892.226	3272
892.349	3180
892.471	3142
892.594	3233
892.717	3313
892.839	3294
892.962	3253
893.085	3351
893.207	3310
893.33	3157
893.452	3176
893.575	3298
893.697	3260
893.819	3462
893.941	3500
894.064	3462
894.186	3268
894.308	3272
894.43	3420
894.552	3496
894.674	3477
894.796	3245
894.918	3313
895.04	3287
895.161	3443
895.283	3386
895.405	3283
895.526	3405
895.648	3405
895.769	3428
895.891	3473
896.012	3496
896.134	3485
896.255	3431
896.376	3389
896.498	3355
896.619	3393
896.74	3355
896.861	3389
896.982	3713
897.103	3835
897.224	3618
897.345	3507
897.466	3389
897.587	3462
897.708	3629
897.828	3534
897.949	3405
898.07	3351
898.19	3424
898.311	3610
898.431	3424
898.552	3534
898.672	3606
898.792	3580
898.913	3504
899.033	3401
899.153	3306
899.273	3218
899.393	3283
899.513	3287
899.633	3310
899.753	3306
899.873	3317
899.993	3359
900.113	3283
900.232	3348
900.352	3313
900.472	3275
900.591	3180
900.711	3279
900.83	3253
900.95	3393
901.069	3462
901.189	3329
901.308	3165
901.427	3123
901.546	3157
901.665	3272
901.784	3306
901.904	3222
902.023	3165
902.141	3036
902.26	3009
902.379	3161
902.498	3070
902.617	3043
902.735	3165
902.854	3233
902.973	3207
903.091	3039
903.21	3070
903.328	3138
903.446	3116
903.565	3093
903.683	3214
903.801	3100
903.919	3233
904.038	3306
904.156	3135
904.274	3279
904.392	3241
904.51	3268
904.627	3348
904.745	3393
904.863	3450
904.981	3260
905.098	3180
905.216	3214
905.334	3287
905.451	3291
905.569	3264
905.686	3481
905.803	3435
905.921	3272
906.038	3409
906.155	3363
906.272	3283
906.389	3321
906.506	3203
906.623	3226
906.74	3233
906.857	3226
906.974	3283
907.091	3409
907.208	3507
907.324	3462
907.441	3397
907.557	3233
907.674	3253
907.79	3214
907.907	3272
908.023	3370
908.139	3370
908.256	3367
908.372	3363
908.488	3351
908.604	3237
908.72	3241
908.836	3287
908.952	3287
909.068	3348
909.184	3530
909.3	3409
909.415	3515
909.531	3443
909.647	3245
909.762	3275
909.878	3291
909.993	3393
910.108	3313
910.224	3355
910.339	3424
910.454	3340
910.57	3302
910.685	3233
910.8	3572
910.915	3496
911.03	3439
911.145	3268
911.259	3260
911.374	3306
911.489	3237
911.604	3241
911.718	3119
911.833	3127
911.947	3001
912.062	2982
912.176	3173
912.291	3237
912.405	3233
912.519	3466
912.633	3462
912.748	3329
912.862	3283
912.976	3165
913.09	3051
913.204	3116
913.318	3199
913.431	3344
913.545	3340
913.659	3469
913.772	3332
913.886	3249
914	3169
914.113	3386
914.226	3412
914.34	3351
914.453	3207
914.566	3435
914.68	3291
914.793	3275
914.906	3108
915.019	3116
915.132	3070
915.245	3173
915.358	3249
915.47	3264
915.583	3275
915.696	3283
915.809	3393
915.921	3428
916.034	3249
916.146	3241
916.259	3199
916.371	3367
916.483	3329
916.595	3253
916.708	3329
916.82	3359
916.932	3321
917.044	3321
917.156	3370
917.268	3249
917.38	3321
917.491	3321
917.603	3370
917.715	3447
917.826	3466
917.938	3370
918.049	3275
918.161	3409
918.272	3561
918.384	3606
918.495	3481
918.606	3344
918.717	3237
918.828	3401
918.939	3409
919.05	3306
919.161	3378
919.272	3165
919.383	3272
919.494	3496
919.604	3717
919.715	3473
919.826	3424
919.936	3431
920.047	3595
920.157	3557
920.267	3724
920.378	3606
920.488	3530
920.598	3766
920.708	3930
920.818	3846
920.928	3835
921.038	4017
921.148	3956
921.258	3713
921.368	3682
921.477	3595
921.587	3564
921.697	3458
921.806	3595
921.916	3515
922.025	3340
922.134	3401
922.244	3272
922.353	3431
922.462	3294
922.571	3249
922.68	3085
922.789	3074
922.898	3119
923.007	3112
923.116	3192
923.224	3176
923.333	3154
923.442	3097
923.55	3100
923.659	3154
923.767	3214
923.876	3089
923.984	3207
924.092	3112
924.201	3176
924.309	3222
924.417	3249
924.525	3199
924.633	3211
924.741	4215
924.849	3043
924.956	3298
925.064	3116
925.172	3009
925.279	3119
925.387	3184
925.494	3203
925.602	3351
925.709	3321
925.816	3157
925.924	3264
926.031	3348
926.138	3321
926.245	3359
926.352	3268
926.459	3389
926.566	3481
926.673	3317
926.779	3233
926.886	3226
926.993	3127
927.099	3154
927.206	3089
927.312	3142
927.419	3188
927.525	3199
927.631	3294
927.737	3123
927.843	3165
927.95	3070
928.056	3093
928.162	3157
928.267	3249
928.373	3869
928.479	3302
928.585	3058
928.69	3207
928.796	3253
928.901	3150
929.007	3024
929.112	3218
929.218	3169
929.323	3112
929.428	3116
929.533	3302
929.638	3066
929.743	3161
929.848	3233
929.953	3211
930.058	3154
930.163	3013
930.267	3055
930.372	3195
930.477	3028
930.581	3306
930.685	3199
930.79	3074
930.894	3135
930.998	3116
931.103	3268
931.207	2906
931.311	2960
931.415	2929
931.519	2788
931.623	2788
