Data from test_V78500241_965.txt Node
Date: Fri Mar 25 16:21:53 CST 2022
User: usil
Spectrometer: V785-0024
Trigger mode: 0
Integration Time (sec): 4.000000E-1
Scans to average: 1
Nonlinearity correction enabled: false
Boxcar width: 0
Storing dark spectrum: false
XAxis mode: Wavelengths
Number of Pixels in Spectrum: 1024
>>>>>Begin Spectral Data<<<<<
801.071	2956
801.214	2963
801.356	2857
801.499	2956
801.641	2872
801.783	2944
801.926	3081
802.068	2986
802.211	2998
802.353	3024
802.496	2952
802.638	3024
802.78	3043
802.923	3074
803.065	3005
803.208	2929
803.35	2922
803.492	2941
803.635	2895
803.777	2781
803.919	2857
804.061	3211
804.204	2952
804.346	2925
804.488	2864
804.63	2994
804.773	2876
804.915	2895
805.057	3089
805.199	2948
805.341	2975
805.483	3032
805.626	2956
805.768	2937
805.91	3104
806.052	3127
806.194	3039
806.336	3211
806.478	3047
806.62	2952
806.762	2952
806.904	3062
807.046	3142
807.188	2948
807.33	2883
807.472	2963
807.614	2895
807.756	3036
807.898	2941
808.04	2910
808.182	2963
808.324	2944
808.465	2861
808.607	2853
808.749	2815
808.891	2876
809.033	2948
809.174	2986
809.316	2906
809.458	2880
809.6	2773
809.741	2754
809.883	2762
810.025	2830
810.166	2838
810.308	2857
810.45	2880
810.591	2766
810.733	2746
810.875	2845
811.016	2758
811.158	2746
811.299	2815
811.441	2960
811.582	2895
811.724	2830
811.865	2834
812.007	2895
812.148	2922
812.29	2849
812.431	2861
812.573	2925
812.714	2937
812.855	3020
812.997	3032
813.138	3112
813.279	2979
813.421	2982
813.562	3009
813.703	2887
813.845	2868
813.986	2766
814.127	2716
814.268	2804
814.41	2857
814.551	2781
814.692	2864
814.833	2815
814.974	2872
815.115	2963
815.256	2800
815.397	2830
815.539	2857
815.68	2766
815.821	2800
815.962	2914
816.103	2906
816.244	2887
816.385	2876
816.526	2979
816.666	2883
816.807	2766
816.948	2880
817.089	2902
817.23	2864
817.371	2773
817.512	2750
817.653	2845
817.793	2807
817.934	2876
818.075	2994
818.216	2979
818.356	3009
818.497	2880
818.638	2781
818.778	2830
818.919	2800
819.06	2773
819.2	2876
819.341	2807
819.481	2796
819.622	2899
819.762	3085
819.903	3062
820.043	2910
820.184	2910
820.324	2899
820.465	3039
820.605	3005
820.746	3005
820.886	2929
821.026	3112
821.167	3195
821.307	3237
821.447	3332
821.588	3245
821.728	3230
821.868	3237
822.008	3135
822.149	3195
822.289	3260
822.429	3142
822.569	3135
822.709	3207
822.849	3036
822.99	3112
823.13	3180
823.27	3222
823.41	3142
823.55	3157
823.69	3214
823.83	3188
823.97	3154
824.11	3020
824.25	3036
824.389	3089
824.529	3195
824.669	3097
824.809	3214
824.949	3268
825.089	3272
825.228	3199
825.368	3032
825.508	2975
825.648	3024
825.787	3047
825.927	3028
826.067	3001
826.206	3013
826.346	3093
826.485	3161
826.625	3165
826.765	3329
826.904	3226
827.044	3043
827.183	2963
827.323	2876
827.462	3005
827.601	2944
827.741	2944
827.88	2998
828.02	2899
828.159	3009
828.298	3058
828.437	3131
828.577	3066
828.716	3302
828.855	3123
828.994	2948
829.134	2895
829.273	2990
829.412	2883
829.551	2922
829.69	2922
829.829	3062
829.968	3207
830.107	3017
830.246	3043
830.385	2944
830.524	2906
830.663	2857
830.802	2758
830.941	2678
831.08	2674
831.219	2788
831.357	2788
831.496	2990
831.635	2777
831.774	2716
831.913	2720
832.051	2564
832.19	2613
832.329	2697
832.467	2575
832.606	2541
832.744	2640
832.883	2590
833.022	2587
833.16	2689
833.299	2701
833.437	2727
833.576	2754
833.714	2754
833.852	2788
833.991	2800
834.129	2868
834.267	2849
834.406	2811
834.544	2906
834.682	2857
834.821	2902
834.959	3085
835.097	2929
835.235	3127
835.373	3043
835.511	3100
835.65	3009
835.788	3020
835.926	2899
836.064	2853
836.202	2853
836.34	3131
836.478	3146
836.615	3077
836.753	3165
836.891	3264
837.029	3199
837.167	3108
837.305	3097
837.443	3047
837.58	2967
837.718	3195
837.856	3093
837.993	3097
838.131	3112
838.269	3100
838.406	3104
838.544	3108
838.681	2944
838.819	2937
838.956	2853
839.094	2868
839.231	2948
839.369	3047
839.506	3412
839.643	3272
839.781	3039
839.918	3001
840.055	3097
840.193	3066
840.33	3093
840.467	3142
840.604	3192
840.742	3450
840.879	3077
841.016	3074
841.153	3165
841.29	3348
841.427	3321
841.564	3279
841.701	3313
841.838	3256
841.975	3199
842.112	3233
842.249	3131
842.385	3081
842.522	3264
842.659	3135
842.796	3081
842.933	3154
843.069	3062
843.206	3066
843.343	3226
843.479	3104
843.616	3176
843.752	2910
843.889	2899
844.025	3085
844.162	2918
844.298	3108
844.435	2971
844.571	2933
844.708	3100
844.844	3207
844.98	3268
845.117	3226
845.253	3066
845.389	3017
845.525	3135
845.661	3146
845.798	3062
845.934	3161
846.07	3119
846.206	3275
846.342	3306
846.478	3275
846.614	3077
846.75	3039
846.886	3055
847.022	3249
847.158	3199
847.294	3222
847.429	3256
847.565	3249
847.701	3534
847.837	3055
847.972	3013
848.108	3195
848.244	3176
848.379	3017
848.515	2971
848.65	3013
848.786	3001
848.921	3024
849.057	3161
849.192	3165
849.328	3081
849.463	3142
849.598	3089
849.734	3032
849.869	3020
850.004	2960
850.14	3017
850.275	2933
850.41	2868
850.545	2925
850.68	2941
850.815	2941
850.95	2963
851.085	3192
851.22	3112
851.355	3047
851.49	2979
851.625	3020
851.76	3062
851.895	2948
852.03	2937
852.165	3051
852.299	3119
852.434	3180
852.569	3169
852.703	3176
852.838	3283
852.973	3397
853.107	3336
853.242	3173
853.376	3116
853.511	2998
853.645	3062
853.78	3253
853.914	3142
854.048	3112
854.183	3123
854.317	3157
854.451	3329
854.585	3146
854.72	3089
854.854	3222
854.988	3089
855.122	3150
855.256	3005
855.39	3123
855.524	3279
855.658	3195
855.792	3157
855.926	3195
856.06	3233
856.194	3264
856.327	3161
856.461	3123
856.595	3127
856.729	3100
856.862	3218
856.996	3165
857.13	3249
857.263	3226
857.397	3317
857.53	3119
857.664	3222
857.797	3253
857.931	3260
858.064	3218
858.197	3264
858.331	3184
858.464	3123
858.597	3036
858.731	3161
858.864	3146
858.997	3104
859.13	3146
859.263	3184
859.396	3203
859.529	3108
859.662	3100
859.795	3066
859.928	3165
860.061	3298
860.194	3279
860.327	3169
860.46	3108
860.592	3245
860.725	3275
860.858	3287
860.99	3116
861.123	3055
861.256	3085
861.388	3173
861.521	3850
861.653	3047
861.786	3005
861.918	3009
862.05	3089
862.183	3093
862.315	3135
862.447	3241
862.58	3104
862.712	2986
862.844	2883
862.976	3039
863.108	3028
863.24	3443
863.372	2918
863.504	2960
863.636	2994
863.768	3043
863.9	2979
864.032	2941
864.164	2956
864.296	3055
864.428	3123
864.559	3131
864.691	3062
864.823	3055
864.954	3077
865.086	3093
865.217	3028
865.349	2971
865.48	3013
865.612	3028
865.743	3184
865.875	2990
866.006	2944
866.137	2979
866.269	2956
866.4	2986
866.531	2922
866.662	2895
866.793	2929
866.924	2922
867.055	2944
867.186	2967
867.317	2910
867.448	2853
867.579	2899
867.71	2883
867.841	2834
867.972	2933
868.103	2922
868.233	2902
868.364	2883
868.495	2887
868.625	3116
868.756	3154
868.886	3009
869.017	3020
869.147	3192
869.278	3207
869.408	3093
869.539	3066
869.669	3119
869.799	3062
869.929	3116
870.06	3112
870.19	3344
870.32	3287
870.45	3298
870.58	3359
870.71	3462
870.84	3450
870.97	3336
871.1	3264
871.23	3481
871.36	3488
871.489	3389
871.619	3401
871.749	3435
871.879	3462
872.008	3496
872.138	3397
872.267	3279
872.397	3169
872.526	3100
872.656	3024
872.785	3138
872.915	3272
873.044	3294
873.173	3264
873.303	3272
873.432	3245
873.561	3268
873.69	3150
873.819	3176
873.948	3241
874.077	3119
874.206	3043
874.335	3135
874.464	3260
874.593	3393
874.722	3256
874.851	3424
874.979	3386
875.108	3370
875.237	3165
875.365	3161
875.494	3173
875.623	3260
875.751	3108
875.88	3074
876.008	3241
876.136	3241
876.265	3393
876.393	3553
876.521	3439
876.65	3443
876.778	3332
876.906	3279
877.034	3218
877.162	3233
877.29	3176
877.418	3272
877.546	3226
877.674	3233
877.802	3241
877.93	3237
878.058	3165
878.185	3077
878.313	3192
878.441	3245
878.568	3066
878.696	3135
878.824	3272
878.951	3294
879.079	3450
879.206	3648
879.333	3466
879.461	3313
879.588	3416
879.715	3485
879.842	3595
879.97	3363
880.097	3195
880.224	3154
880.351	3142
880.478	3245
880.605	3195
880.732	3249
880.859	3496
880.986	3283
881.112	3378
881.239	3161
881.366	3123
881.493	3043
881.619	3020
881.746	3081
881.872	3112
881.999	3123
882.125	3150
882.252	3287
882.378	3310
882.505	3462
882.631	3264
882.757	3161
882.883	3279
883.01	3207
883.136	3135
883.262	3093
883.388	3154
883.514	3332
883.64	3382
883.766	3291
883.892	3188
884.018	3291
884.143	3428
884.269	3530
884.395	3230
884.52	3138
884.646	3192
884.772	3146
884.897	3169
885.023	3169
885.148	3332
885.274	3393
885.399	3370
885.524	3287
885.65	3253
885.775	3298
885.9	3287
886.025	3428
886.15	3367
886.275	3283
886.4	3249
886.525	3310
886.65	3279
886.775	3302
886.9	3473
887.025	3667
887.149	3401
887.274	3302
887.399	3184
887.523	3218
887.648	3203
887.773	3184
887.897	3389
888.021	3412
888.146	3325
888.27	3462
888.395	3542
888.519	3424
888.643	3450
888.767	3428
888.891	3329
889.015	3237
889.139	3313
889.263	3233
889.387	3401
889.511	3473
889.635	3447
889.759	3298
889.883	3245
890.006	3370
890.13	3492
890.254	3264
890.377	3374
890.501	3184
890.624	3195
890.748	3336
890.871	3192
890.995	3108
891.118	3074
891.241	3218
891.364	3245
891.488	3306
891.611	3188
891.734	3237
891.857	3291
891.98	3253
892.103	3344
892.226	3272
892.349	3249
892.471	3112
892.594	3256
892.717	3291
892.839	3275
892.962	3291
893.085	3355
893.207	3336
893.33	3173
893.452	3218
893.575	3355
893.697	3233
893.819	3481
893.941	3504
894.064	3412
894.186	3260
894.308	3256
894.43	3420
894.552	3534
894.674	3431
894.796	3287
894.918	3329
895.04	3272
895.161	3450
895.283	3412
895.405	3325
895.526	3363
895.648	3443
895.769	3443
895.891	3462
896.012	3458
896.134	3466
896.255	3420
896.376	3359
896.498	3397
896.619	3412
896.74	3393
896.861	3450
896.982	3682
897.103	3850
897.224	3580
897.345	3492
897.466	3397
897.587	3500
897.708	3637
897.828	3545
897.949	3420
898.07	3317
898.19	3405
898.311	3580
898.431	3435
898.552	3526
898.672	3595
898.792	3561
898.913	3519
899.033	3412
899.153	3260
899.273	3203
899.393	3294
899.513	3287
899.633	3321
899.753	3351
899.873	3332
899.993	3405
900.113	3348
900.232	3374
900.352	3351
900.472	3370
900.591	3180
900.711	3298
900.83	3253
900.95	3409
901.069	3553
901.189	3332
901.308	3180
901.427	3123
901.546	3165
901.665	3340
901.784	3351
901.904	3199
902.023	3150
902.141	3051
902.26	2998
902.379	3100
902.498	3100
902.617	3077
902.735	3188
902.854	3241
902.973	3184
903.091	3055
903.21	3070
903.328	3135
903.446	3135
903.565	3116
903.683	3237
903.801	3146
903.919	3253
904.038	3302
904.156	3161
904.274	3275
904.392	3253
904.51	3264
904.627	3321
904.745	3431
904.863	3462
904.981	3256
905.098	3157
905.216	3226
905.334	3291
905.451	3279
905.569	3325
905.686	3435
905.803	3454
905.921	3313
906.038	3393
906.155	3378
906.272	3268
906.389	3302
906.506	3253
906.623	3253
906.74	3260
906.857	3188
906.974	3256
907.091	3424
907.208	3572
907.324	3492
907.441	3393
907.557	3226
907.674	3218
907.79	3245
907.907	3264
908.023	3412
908.139	3348
908.256	3283
908.372	3382
908.488	3355
908.604	3230
908.72	3241
908.836	3294
908.952	3264
909.068	3340
909.184	3454
909.3	3393
909.415	3515
909.531	3462
909.647	3332
909.762	3294
909.878	3279
909.993	3351
910.108	3332
910.224	3351
910.339	3420
910.454	3325
910.57	3275
910.685	3264
910.8	3599
910.915	3534
911.03	3401
911.145	3253
911.259	3218
911.374	3321
911.489	3241
911.604	3226
911.718	3100
911.833	3146
911.947	3047
912.062	3009
912.176	3184
912.291	3218
912.405	3214
912.519	3401
912.633	3435
912.748	3329
912.862	3272
912.976	3138
913.09	3043
913.204	3123
913.318	3195
913.431	3344
913.545	3325
913.659	3431
913.772	3363
913.886	3218
914	3230
914.113	3351
914.226	3393
914.34	3340
914.453	3195
914.566	3428
914.68	3298
914.793	3317
914.906	3157
915.019	3131
915.132	3051
915.245	3180
915.358	3188
915.47	3233
915.583	3279
915.696	3283
915.809	3397
915.921	3447
916.034	3260
916.146	3264
916.259	3226
916.371	3367
916.483	3386
916.595	3260
916.708	3355
916.82	3283
916.932	3317
917.044	3359
917.156	3363
917.268	3241
917.38	3294
917.491	3291
917.603	3393
917.715	3443
917.826	3431
917.938	3386
918.049	3283
918.161	3416
918.272	3580
918.384	3549
918.495	3496
918.606	3340
918.717	3260
918.828	3313
918.939	3443
919.05	3329
919.161	3351
919.272	3180
919.383	3294
919.494	3466
919.604	3652
919.715	3458
919.826	3454
919.936	3428
920.047	3595
920.157	3538
920.267	3762
920.378	3580
920.488	3511
920.598	3755
920.708	3937
920.818	3876
920.928	3827
921.038	4044
921.148	3949
921.258	3641
921.368	3606
921.477	3591
921.587	3511
921.697	3431
921.806	3652
921.916	3519
922.025	3367
922.134	3340
922.244	3302
922.353	3378
922.462	3260
922.571	3230
922.68	3104
922.789	3058
922.898	3146
923.007	3131
923.116	3222
923.224	3154
923.333	3150
923.442	3089
923.55	3089
923.659	3131
923.767	3161
923.876	3119
923.984	3241
924.092	3123
924.201	3188
924.309	3226
924.417	3226
924.525	3203
924.633	3230
924.741	4116
924.849	3020
924.956	3230
925.064	3093
925.172	3043
925.279	3093
925.387	3176
925.494	3154
925.602	3344
925.709	3332
925.816	3180
925.924	3294
926.031	3370
926.138	3317
926.245	3378
926.352	3249
926.459	3393
926.566	3481
926.673	3317
926.779	3237
926.886	3256
926.993	3127
927.099	3150
927.206	3100
927.312	3112
927.419	3195
927.525	3161
927.631	3283
927.737	3100
927.843	3112
927.95	3013
928.056	3131
928.162	3142
928.267	3241
928.373	3865
928.479	3256
928.585	3062
928.69	3203
928.796	3256
928.901	3173
929.007	3047
929.112	3169
929.218	3207
929.323	3119
929.428	3154
929.533	3298
929.638	3108
929.743	3127
929.848	3241
929.953	3192
930.058	3127
930.163	2990
930.267	3055
930.372	3176
930.477	3036
930.581	3275
930.685	3135
930.79	3020
930.894	3123
930.998	3123
931.103	3275
931.207	2933
931.311	2960
931.415	2899
931.519	2758
931.623	2815
