Data from test_V78500241_1898.txt Node
Date: Fri Mar 25 16:28:21 CST 2022
User: usil
Spectrometer: V785-0024
Trigger mode: 0
Integration Time (sec): 4.000000E-1
Scans to average: 1
Nonlinearity correction enabled: false
Boxcar width: 0
Storing dark spectrum: false
XAxis mode: Wavelengths
Number of Pixels in Spectrum: 1024
>>>>>Begin Spectral Data<<<<<
801.071	2937
801.214	2952
801.356	2914
801.499	2922
801.641	2910
801.783	2952
801.926	3036
802.068	3009
802.211	3013
802.353	3077
802.496	2979
802.638	3055
802.78	3043
802.923	3119
803.065	3020
803.208	2922
803.35	2891
803.492	2960
803.635	2948
803.777	2781
803.919	2887
804.061	3176
804.204	2952
804.346	2887
804.488	2899
804.63	2986
804.773	2876
804.915	2937
805.057	3066
805.199	2941
805.341	2982
805.483	3024
805.626	3009
805.768	2971
805.91	3085
806.052	3154
806.194	3039
806.336	3226
806.478	3013
806.62	2937
806.762	2998
806.904	3077
807.046	3146
807.188	2982
807.33	2918
807.472	3020
807.614	2925
807.756	2982
807.898	2933
808.04	2918
808.182	3020
808.324	2994
808.465	2891
808.607	2876
808.749	2815
808.891	2883
809.033	2982
809.174	3005
809.316	2941
809.458	2937
809.6	2792
809.741	2773
809.883	2769
810.025	2883
810.166	2876
810.308	2891
810.45	2880
810.591	2819
810.733	2823
810.875	2861
811.016	2788
811.158	2766
811.299	2834
811.441	2925
811.582	2952
811.724	2853
811.865	2868
812.007	2929
812.148	2891
812.29	2899
812.431	2929
812.573	2956
812.714	2975
812.855	3081
812.997	3036
813.138	3131
813.279	3051
813.421	2975
813.562	2979
813.703	2876
813.845	2922
813.986	2781
814.127	2727
814.268	2857
814.41	2864
814.551	2800
814.692	2876
814.833	2864
814.974	2941
815.115	2979
815.256	2838
815.397	2891
815.539	2899
815.68	2815
815.821	2807
815.962	2933
816.103	2906
816.244	2891
816.385	2857
816.526	2986
816.666	2944
816.807	2746
816.948	2880
817.089	2925
817.23	2922
817.371	2807
817.512	2826
817.653	2895
817.793	2830
817.934	2910
818.075	2990
818.216	3028
818.356	3051
818.497	2918
818.638	2838
818.778	2838
818.919	2811
819.06	2823
819.2	2922
819.341	2834
819.481	2815
819.622	2941
819.762	3104
819.903	3097
820.043	2937
820.184	2925
820.324	2910
820.465	3017
820.605	3036
820.746	3051
820.886	2952
821.026	3112
821.167	3184
821.307	3275
821.447	3279
821.588	3272
821.728	3253
821.868	3173
822.008	3089
822.149	3199
822.289	3245
822.429	3074
822.569	3097
822.709	3169
822.849	3066
822.99	3081
823.13	3135
823.27	3230
823.41	3123
823.55	3165
823.69	3192
823.83	3218
823.97	3119
824.11	3020
824.25	2986
824.389	3093
824.529	3116
824.669	3074
824.809	3188
824.949	3260
825.089	3218
825.228	3138
825.368	3028
825.508	2960
825.648	2994
825.787	3009
825.927	2998
826.067	2963
826.206	3020
826.346	3058
826.485	3058
826.625	3127
826.765	3256
826.904	3226
827.044	2967
827.183	2960
827.323	2883
827.462	3020
827.601	2910
827.741	2906
827.88	2971
828.02	2880
828.159	2975
828.298	3062
828.437	3108
828.577	3077
828.716	3218
828.855	3085
828.994	2929
829.134	2902
829.273	2914
829.412	2845
829.551	2872
829.69	2914
829.829	2994
829.968	3138
830.107	3005
830.246	3058
830.385	2899
830.524	2891
830.663	2864
830.802	2724
830.941	2667
831.08	2636
831.219	2792
831.357	2792
831.496	2971
831.635	2712
831.774	2663
831.913	2644
832.051	2594
832.19	2594
832.329	2697
832.467	2556
832.606	2465
832.744	2617
832.883	2606
833.022	2610
833.16	2670
833.299	2693
833.437	2701
833.576	2754
833.714	2708
833.852	2766
833.991	2777
834.129	2887
834.267	2819
834.406	2823
834.544	2895
834.682	2880
834.821	2853
834.959	3100
835.097	2918
835.235	3043
835.373	2982
835.511	3036
835.65	2986
835.788	2979
835.926	2826
836.064	2819
836.202	2845
836.34	3093
836.478	3154
836.615	3119
836.753	3138
836.891	3188
837.029	3161
837.167	3119
837.305	3081
837.443	3055
837.58	2990
837.718	3173
837.856	3077
837.993	3039
838.131	3154
838.269	3123
838.406	3066
838.544	3116
838.681	2944
838.819	2922
838.956	2800
839.094	2872
839.231	2925
839.369	3047
839.506	3378
839.643	3245
839.781	3020
839.918	2990
840.055	3081
840.193	3047
840.33	3066
840.467	3070
840.604	3154
840.742	3409
840.879	3039
841.016	3058
841.153	3085
841.29	3344
841.427	3260
841.564	3253
841.701	3287
841.838	3188
841.975	3176
842.112	3188
842.249	3097
842.385	3036
842.522	3279
842.659	3127
842.796	3062
842.933	3100
843.069	3070
843.206	3058
843.343	3188
843.479	3089
843.616	3131
843.752	2895
843.889	2899
844.025	3089
844.162	2895
844.298	3108
844.435	2960
844.571	2895
844.708	3089
844.844	3207
844.98	3241
845.117	3218
845.253	3081
845.389	3001
845.525	3116
845.661	3116
845.798	2994
845.934	3165
846.07	3066
846.206	3233
846.342	3336
846.478	3237
846.614	3093
846.75	3062
846.886	3024
847.022	3211
847.158	3131
847.294	3226
847.429	3268
847.565	3218
847.701	3500
847.837	3077
847.972	2986
848.108	3150
848.244	3165
848.379	3013
848.515	2941
848.65	2956
848.786	2967
848.921	3001
849.057	3138
849.192	3157
849.328	3093
849.463	3154
849.598	3066
849.734	3055
849.869	2990
850.004	2933
850.14	2956
850.275	2918
850.41	2853
850.545	2918
850.68	2960
850.815	2952
850.95	2971
851.085	3176
851.22	3127
851.355	3039
851.49	3001
851.625	2990
851.76	3005
851.895	2948
852.03	2914
852.165	3013
852.299	3116
852.434	3173
852.569	3157
852.703	3173
852.838	3184
852.973	3344
853.107	3306
853.242	3157
853.376	3089
853.511	2975
853.645	3020
853.78	3203
853.914	3089
854.048	3104
854.183	3097
854.317	3165
854.451	3336
854.585	3142
854.72	3093
854.854	3214
854.988	3062
855.122	3104
855.256	2967
855.39	3154
855.524	3226
855.658	3184
855.792	3146
855.926	3214
856.06	3237
856.194	3253
856.327	3142
856.461	3093
856.595	3062
856.729	3089
856.862	3241
856.996	3184
857.13	3184
857.263	3230
857.397	3325
857.53	3150
857.664	3214
857.797	3268
857.931	3272
858.064	3226
858.197	3272
858.331	3146
858.464	3131
858.597	3020
858.731	3188
858.864	3188
858.997	3131
859.13	3192
859.263	3207
859.396	3260
859.529	3100
859.662	3116
859.795	3047
859.928	3199
860.061	3317
860.194	3325
860.327	3184
860.46	3089
860.592	3249
860.725	3294
860.858	3249
860.99	3146
861.123	3097
861.256	3093
861.388	3192
861.521	3876
861.653	3043
861.786	3020
861.918	3005
862.05	3116
862.183	3093
862.315	3241
862.447	3230
862.58	3161
862.712	2963
862.844	2899
862.976	3058
863.108	3066
863.24	3359
863.372	2956
863.504	3020
863.636	2990
863.768	3062
863.9	3013
864.032	2941
864.164	3001
864.296	3039
864.428	3146
864.559	3150
864.691	3085
864.823	3074
864.954	3093
865.086	3081
865.217	3058
865.349	2948
865.48	3013
865.612	3036
865.743	3173
865.875	3047
866.006	2952
866.137	3020
866.269	2979
866.4	2971
866.531	2986
866.662	2960
866.793	2925
866.924	2891
867.055	2971
867.186	2941
867.317	2937
867.448	2868
867.579	2914
867.71	2876
867.841	2849
867.972	2960
868.103	2922
868.233	2944
868.364	2906
868.495	2910
868.625	3089
868.756	3211
868.886	2971
869.017	3039
869.147	3214
869.278	3222
869.408	3058
869.539	3070
869.669	3116
869.799	3100
869.929	3165
870.06	3127
870.19	3310
870.32	3298
870.45	3363
870.58	3393
870.71	3431
870.84	3538
870.97	3344
871.1	3310
871.23	3469
871.36	3477
871.489	3416
871.619	3435
871.749	3409
871.879	3496
872.008	3507
872.138	3409
872.267	3336
872.397	3165
872.526	3104
872.656	3036
872.785	3123
872.915	3329
873.044	3336
873.173	3253
873.303	3268
873.432	3264
873.561	3237
873.69	3245
873.819	3184
873.948	3176
874.077	3138
874.206	3070
874.335	3123
874.464	3226
874.593	3374
874.722	3275
874.851	3409
874.979	3389
875.108	3332
875.237	3207
875.365	3222
875.494	3199
875.623	3283
875.751	3127
875.88	3195
876.008	3233
876.136	3272
876.265	3428
876.393	3523
876.521	3443
876.65	3431
876.778	3348
876.906	3283
877.034	3195
877.162	3306
877.29	3214
877.418	3291
877.546	3302
877.674	3241
877.802	3298
877.93	3275
878.058	3173
878.185	3112
878.313	3253
878.441	3237
878.568	3123
878.696	3173
878.824	3279
878.951	3355
879.079	3504
879.206	3614
879.333	3523
879.461	3348
879.588	3416
879.715	3496
879.842	3686
879.97	3363
880.097	3195
880.224	3184
880.351	3207
880.478	3253
880.605	3241
880.732	3211
880.859	3530
880.986	3348
881.112	3336
881.239	3226
881.366	3104
881.493	3089
881.619	3013
881.746	3066
881.872	3093
881.999	3127
882.125	3176
882.252	3264
882.378	3321
882.505	3496
882.631	3298
882.757	3192
882.883	3233
883.01	3275
883.136	3211
883.262	3108
883.388	3142
883.514	3317
883.64	3382
883.766	3302
883.892	3226
884.018	3268
884.143	3443
884.269	3511
884.395	3256
884.52	3180
884.646	3226
884.772	3135
884.897	3146
885.023	3195
885.148	3386
885.274	3401
885.399	3428
885.524	3275
885.65	3279
885.775	3340
885.9	3291
886.025	3481
886.15	3412
886.275	3332
886.4	3222
886.525	3329
886.65	3291
886.775	3287
886.9	3538
887.025	3614
887.149	3382
887.274	3302
887.399	3222
887.523	3253
887.648	3195
887.773	3214
887.897	3416
888.021	3428
888.146	3359
888.27	3462
888.395	3564
888.519	3458
888.643	3435
888.767	3481
888.891	3298
889.015	3283
889.139	3336
889.263	3287
889.387	3393
889.511	3515
889.635	3439
889.759	3329
889.883	3279
890.006	3412
890.13	3507
890.254	3298
890.377	3336
890.501	3241
890.624	3184
890.748	3279
890.871	3165
890.995	3119
891.118	3097
891.241	3199
891.364	3253
891.488	3344
891.611	3214
891.734	3249
891.857	3348
891.98	3214
892.103	3332
892.226	3291
892.349	3260
892.471	3154
892.594	3260
892.717	3313
892.839	3332
892.962	3310
893.085	3382
893.207	3310
893.33	3207
893.452	3214
893.575	3393
893.697	3298
893.819	3469
893.941	3523
894.064	3469
894.186	3310
894.308	3306
894.43	3477
894.552	3561
894.674	3500
894.796	3264
894.918	3359
895.04	3294
895.161	3450
895.283	3397
895.405	3370
895.526	3386
895.648	3492
895.769	3435
895.891	3462
896.012	3481
896.134	3450
896.255	3439
896.376	3389
896.498	3389
896.619	3447
896.74	3405
896.861	3420
896.982	3713
897.103	3857
897.224	3633
897.345	3568
897.466	3466
897.587	3515
897.708	3644
897.828	3572
897.949	3469
898.07	3351
898.19	3477
898.311	3675
898.431	3462
898.552	3538
898.672	3587
898.792	3580
898.913	3580
899.033	3409
899.153	3317
899.273	3192
899.393	3317
899.513	3382
899.633	3325
899.753	3329
899.873	3306
899.993	3382
900.113	3325
900.232	3397
900.352	3332
900.472	3306
900.591	3218
900.711	3298
900.83	3260
900.95	3428
901.069	3561
901.189	3370
901.308	3188
901.427	3161
901.546	3226
901.665	3272
901.784	3370
901.904	3241
902.023	3176
902.141	3047
902.26	2998
902.379	3188
902.498	3097
902.617	3077
902.735	3195
902.854	3260
902.973	3184
903.091	3070
903.21	3058
903.328	3150
903.446	3161
903.565	3131
903.683	3207
903.801	3161
903.919	3287
904.038	3291
904.156	3218
904.274	3321
904.392	3294
904.51	3264
904.627	3370
904.745	3469
904.863	3515
904.981	3291
905.098	3192
905.216	3279
905.334	3306
905.451	3313
905.569	3382
905.686	3450
905.803	3420
905.921	3321
906.038	3443
906.155	3378
906.272	3306
906.389	3363
906.506	3275
906.623	3313
906.74	3313
906.857	3203
906.974	3272
907.091	3424
907.208	3629
907.324	3507
907.441	3405
907.557	3218
907.674	3253
907.79	3218
907.907	3344
908.023	3416
908.139	3397
908.256	3355
908.372	3310
908.488	3363
908.604	3287
908.72	3272
908.836	3256
908.952	3344
909.068	3336
909.184	3526
909.3	3378
909.415	3496
909.531	3458
909.647	3329
909.762	3298
909.878	3275
909.993	3386
910.108	3344
910.224	3332
910.339	3439
910.454	3363
910.57	3313
910.685	3256
910.8	3557
910.915	3542
911.03	3424
911.145	3287
911.259	3268
911.374	3355
911.489	3222
911.604	3226
911.718	3112
911.833	3165
911.947	3055
912.062	3024
912.176	3199
912.291	3192
912.405	3195
912.519	3458
912.633	3519
912.748	3332
912.862	3321
912.976	3154
913.09	3085
913.204	3157
913.318	3230
913.431	3325
913.545	3363
913.659	3416
913.772	3321
913.886	3249
914	3214
914.113	3412
914.226	3428
914.34	3348
914.453	3192
914.566	3439
914.68	3245
914.793	3310
914.906	3135
915.019	3135
915.132	3085
915.245	3169
915.358	3207
915.47	3260
915.583	3294
915.696	3329
915.809	3416
915.921	3428
916.034	3268
916.146	3272
916.259	3237
916.371	3367
916.483	3355
916.595	3264
916.708	3329
916.82	3351
916.932	3355
917.044	3355
917.156	3355
917.268	3321
917.38	3268
917.491	3329
917.603	3386
917.715	3473
917.826	3443
917.938	3386
918.049	3321
918.161	3443
918.272	3572
918.384	3561
918.495	3496
918.606	3359
918.717	3313
918.828	3393
918.939	3469
919.05	3317
919.161	3367
919.272	3203
919.383	3283
919.494	3511
919.604	3644
919.715	3447
919.826	3397
919.936	3485
920.047	3557
920.157	3561
920.267	3755
920.378	3614
920.488	3572
920.598	3800
920.708	3956
920.818	3842
920.928	3827
921.038	4032
921.148	4021
921.258	3724
921.368	3618
921.477	3591
921.587	3519
921.697	3439
921.806	3660
921.916	3538
922.025	3348
922.134	3348
922.244	3313
922.353	3424
922.462	3306
922.571	3233
922.68	3150
922.789	3093
922.898	3173
923.007	3089
923.116	3226
923.224	3142
923.333	3199
923.442	3142
923.55	3043
923.659	3146
923.767	3245
923.876	3127
923.984	3256
924.092	3142
924.201	3165
924.309	3241
924.417	3298
924.525	3199
924.633	3207
924.741	4036
924.849	3085
924.956	3291
925.064	3085
925.172	3024
925.279	3119
925.387	3188
925.494	3195
925.602	3393
925.709	3355
925.816	3230
925.924	3245
926.031	3351
926.138	3329
926.245	3405
926.352	3199
926.459	3409
926.566	3500
926.673	3348
926.779	3233
926.886	3237
926.993	3165
927.099	3093
927.206	3131
927.312	3138
927.419	3241
927.525	3214
927.631	3287
927.737	3161
927.843	3138
927.95	3043
928.056	3169
928.162	3154
928.267	3313
928.373	3876
928.479	3321
928.585	3058
928.69	3237
928.796	3256
928.901	3169
929.007	3043
929.112	3214
929.218	3188
929.323	3150
929.428	3169
929.533	3294
929.638	3085
929.743	3199
929.848	3272
929.953	3268
930.058	3123
930.163	3043
930.267	3058
930.372	3207
930.477	3032
930.581	3336
930.685	3184
930.79	3081
930.894	3157
930.998	3138
931.103	3275
931.207	2963
931.311	2937
931.415	2944
931.519	2788
931.623	2781
