Data from test_V78500241_1652.txt Node
Date: Fri Mar 25 16:26:38 CST 2022
User: usil
Spectrometer: V785-0024
Trigger mode: 0
Integration Time (sec): 4.000000E-1
Scans to average: 1
Nonlinearity correction enabled: false
Boxcar width: 0
Storing dark spectrum: false
XAxis mode: Wavelengths
Number of Pixels in Spectrum: 1024
>>>>>Begin Spectral Data<<<<<
801.071	2952
801.214	2998
801.356	2899
801.499	2937
801.641	2902
801.783	2952
801.926	3051
802.068	2967
802.211	3009
802.353	3055
802.496	2956
802.638	3024
802.78	3051
802.923	3081
803.065	3028
803.208	2914
803.35	2914
803.492	2948
803.635	2948
803.777	2800
803.919	2895
804.061	3207
804.204	2929
804.346	2906
804.488	2880
804.63	2960
804.773	2868
804.915	2925
805.057	3097
805.199	2937
805.341	2998
805.483	3036
805.626	3039
805.768	2975
805.91	3077
806.052	3119
806.194	3058
806.336	3264
806.478	3062
806.62	2941
806.762	3005
806.904	3081
807.046	3146
807.188	3009
807.33	2906
807.472	2998
807.614	2925
807.756	2982
807.898	2948
808.04	2899
808.182	3001
808.324	2956
808.465	2902
808.607	2845
808.749	2826
808.891	2853
809.033	2948
809.174	2960
809.316	2902
809.458	2929
809.6	2796
809.741	2804
809.883	2773
810.025	2838
810.166	2914
810.308	2845
810.45	2868
810.591	2800
810.733	2766
810.875	2883
811.016	2800
811.158	2758
811.299	2819
811.441	2929
811.582	2883
811.724	2823
811.865	2849
812.007	2941
812.148	2906
812.29	2910
812.431	2906
812.573	2952
812.714	2960
812.855	3032
812.997	3058
813.138	3142
813.279	3024
813.421	2994
813.562	2975
813.703	2887
813.845	2906
813.986	2792
814.127	2708
814.268	2830
814.41	2849
814.551	2807
814.692	2868
814.833	2804
814.974	2861
815.115	3020
815.256	2845
815.397	2811
815.539	2853
815.68	2788
815.821	2819
815.962	2929
816.103	2952
816.244	2861
816.385	2872
816.526	2948
816.666	2918
816.807	2727
816.948	2895
817.089	2925
817.23	2868
817.371	2796
817.512	2773
817.653	2861
817.793	2838
817.934	2857
818.075	3005
818.216	2994
818.356	3036
818.497	2899
818.638	2811
818.778	2815
818.919	2807
819.06	2773
819.2	2880
819.341	2815
819.481	2823
819.622	2952
819.762	3104
819.903	3051
820.043	2937
820.184	2910
820.324	2891
820.465	3036
820.605	3001
820.746	3055
820.886	2967
821.026	3108
821.167	3165
821.307	3264
821.447	3298
821.588	3241
821.728	3199
821.868	3154
822.008	3119
822.149	3180
822.289	3218
822.429	3089
822.569	3077
822.709	3180
822.849	2998
822.99	3119
823.13	3150
823.27	3184
823.41	3119
823.55	3169
823.69	3188
823.83	3214
823.97	3108
824.11	2990
824.25	2998
824.389	3100
824.529	3131
824.669	3081
824.809	3203
824.949	3279
825.089	3272
825.228	3180
825.368	3024
825.508	2998
825.648	3017
825.787	3017
825.927	3100
826.067	3013
826.206	2963
826.346	3062
826.485	3089
826.625	3123
826.765	3325
826.904	3237
827.044	3051
827.183	2975
827.323	2910
827.462	3055
827.601	2979
827.741	2952
827.88	2994
828.02	2899
828.159	2986
828.298	3051
828.437	3180
828.577	3089
828.716	3310
828.855	3138
828.994	2937
829.134	2948
829.273	2990
829.412	2883
829.551	2906
829.69	2956
829.829	3036
829.968	3180
830.107	3055
830.246	3028
830.385	2963
830.524	2925
830.663	2880
830.802	2800
830.941	2655
831.08	2682
831.219	2815
831.357	2754
831.496	3001
831.635	2773
831.774	2693
831.913	2716
832.051	2571
832.19	2644
832.329	2724
832.467	2587
832.606	2499
832.744	2598
832.883	2617
833.022	2636
833.16	2682
833.299	2762
833.437	2773
833.576	2758
833.714	2754
833.852	2766
833.991	2792
834.129	2872
834.267	2868
834.406	2807
834.544	2883
834.682	2899
834.821	2880
834.959	3085
835.097	2941
835.235	3081
835.373	3028
835.511	3055
835.65	2998
835.788	2986
835.926	2868
836.064	2838
836.202	2868
836.34	3135
836.478	3188
836.615	3108
836.753	3169
836.891	3241
837.029	3199
837.167	3176
837.305	3104
837.443	3093
837.58	3001
837.718	3199
837.856	3085
837.993	3051
838.131	3165
838.269	3138
838.406	3146
838.544	3093
838.681	2979
838.819	2998
838.956	2834
839.094	2891
839.231	2944
839.369	3043
839.506	3412
839.643	3199
839.781	3062
839.918	2975
840.055	3097
840.193	3081
840.33	3112
840.467	3104
840.604	3173
840.742	3450
840.879	3093
841.016	3066
841.153	3131
841.29	3370
841.427	3291
841.564	3256
841.701	3325
841.838	3222
841.975	3230
842.112	3230
842.249	3100
842.385	3024
842.522	3310
842.659	3146
842.796	3074
842.933	3085
843.069	3112
843.206	3039
843.343	3207
843.479	3119
843.616	3169
843.752	2918
843.889	2906
844.025	3116
844.162	2906
844.298	3119
844.435	2963
844.571	2963
844.708	3112
844.844	3203
844.98	3275
845.117	3233
845.253	3089
845.389	3036
845.525	3093
845.661	3135
845.798	3036
845.934	3165
846.07	3093
846.206	3188
846.342	3313
846.478	3245
846.614	3138
846.75	3036
846.886	3047
847.022	3226
847.158	3161
847.294	3230
847.429	3283
847.565	3233
847.701	3519
847.837	3077
847.972	2998
848.108	3184
848.244	3176
848.379	3005
848.515	2933
848.65	2948
848.786	3005
848.921	3024
849.057	3169
849.192	3165
849.328	3108
849.463	3100
849.598	3085
849.734	3074
849.869	3009
850.004	2967
850.14	3017
850.275	2952
850.41	2868
850.545	2872
850.68	2933
850.815	2986
850.95	2941
851.085	3195
851.22	3138
851.355	3028
851.49	3017
851.625	3013
851.76	3074
851.895	2967
852.03	2922
852.165	3074
852.299	3142
852.434	3199
852.569	3157
852.703	3188
852.838	3283
852.973	3370
853.107	3378
853.242	3161
853.376	3116
853.511	2990
853.645	3070
853.78	3260
853.914	3150
854.048	3135
854.183	3116
854.317	3211
854.451	3302
854.585	3188
854.72	3104
854.854	3249
854.988	3077
855.122	3112
855.256	2967
855.39	3123
855.524	3272
855.658	3245
855.792	3233
855.926	3195
856.06	3268
856.194	3279
856.327	3188
856.461	3093
856.595	3066
856.729	3097
856.862	3253
856.996	3184
857.13	3241
857.263	3249
857.397	3237
857.53	3119
857.664	3214
857.797	3256
857.931	3302
858.064	3218
858.197	3207
858.331	3165
858.464	3119
858.597	3032
858.731	3142
858.864	3138
858.997	3085
859.13	3165
859.263	3199
859.396	3253
859.529	3127
859.662	3108
859.795	3066
859.928	3150
860.061	3317
860.194	3332
860.327	3150
860.46	3127
860.592	3241
860.725	3272
860.858	3283
860.99	3119
861.123	3081
861.256	3070
861.388	3207
861.521	3861
861.653	3047
861.786	2982
861.918	3013
862.05	3085
862.183	3104
862.315	3154
862.447	3245
862.58	3116
862.712	2975
862.844	2895
862.976	3028
863.108	3024
863.24	3450
863.372	2891
863.504	2986
863.636	2948
863.768	3089
863.9	2994
864.032	2933
864.164	2960
864.296	3017
864.428	3169
864.559	3135
864.691	3119
864.823	3089
864.954	3028
865.086	3097
865.217	3032
865.349	3020
865.48	3036
865.612	3032
865.743	3184
865.875	3005
866.006	2963
866.137	3001
866.269	2952
866.4	2960
866.531	2948
866.662	2883
866.793	2925
866.924	2910
867.055	3009
867.186	2960
867.317	2891
867.448	2857
867.579	2861
867.71	2910
867.841	2845
867.972	2914
868.103	2952
868.233	2895
868.364	2895
868.495	2910
868.625	3104
868.756	3127
868.886	2986
869.017	3043
869.147	3157
869.278	3188
869.408	3032
869.539	3047
869.669	3081
869.799	3093
869.929	3123
870.06	3119
870.19	3374
870.32	3287
870.45	3313
870.58	3397
870.71	3424
870.84	3477
870.97	3283
871.1	3306
871.23	3542
871.36	3466
871.489	3401
871.619	3428
871.749	3439
871.879	3458
872.008	3504
872.138	3401
872.267	3294
872.397	3154
872.526	3131
872.656	3070
872.785	3119
872.915	3237
873.044	3332
873.173	3264
873.303	3272
873.432	3272
873.561	3272
873.69	3176
873.819	3173
873.948	3230
874.077	3135
874.206	3043
874.335	3108
874.464	3218
874.593	3378
874.722	3253
874.851	3370
874.979	3382
875.108	3344
875.237	3218
875.365	3184
875.494	3180
875.623	3249
875.751	3112
875.88	3146
876.008	3233
876.136	3264
876.265	3378
876.393	3519
876.521	3424
876.65	3443
876.778	3348
876.906	3264
877.034	3218
877.162	3298
877.29	3211
877.418	3218
877.546	3287
877.674	3253
877.802	3249
877.93	3287
878.058	3157
878.185	3131
878.313	3253
878.441	3230
878.568	3077
878.696	3146
878.824	3264
878.951	3329
879.079	3428
879.206	3633
879.333	3466
879.461	3370
879.588	3374
879.715	3561
879.842	3568
879.97	3370
880.097	3150
880.224	3142
880.351	3154
880.478	3275
880.605	3237
880.732	3214
880.859	3496
880.986	3313
881.112	3329
881.239	3214
881.366	3123
881.493	3043
881.619	2998
881.746	3100
881.872	3093
881.999	3119
882.125	3184
882.252	3260
882.378	3279
882.505	3428
882.631	3287
882.757	3207
882.883	3222
883.01	3260
883.136	3184
883.262	3104
883.388	3127
883.514	3287
883.64	3389
883.766	3325
883.892	3184
884.018	3256
884.143	3462
884.269	3545
884.395	3237
884.52	3176
884.646	3188
884.772	3150
884.897	3127
885.023	3218
885.148	3348
885.274	3439
885.399	3389
885.524	3302
885.65	3332
885.775	3306
885.9	3279
886.025	3462
886.15	3405
886.275	3310
886.4	3207
886.525	3348
886.65	3294
886.775	3298
886.9	3534
887.025	3633
887.149	3401
887.274	3260
887.399	3173
887.523	3218
887.648	3184
887.773	3207
887.897	3367
888.021	3416
888.146	3313
888.27	3462
888.395	3557
888.519	3447
888.643	3500
888.767	3473
888.891	3302
889.015	3294
889.139	3294
889.263	3237
889.387	3431
889.511	3545
889.635	3469
889.759	3260
889.883	3321
890.006	3397
890.13	3496
890.254	3275
890.377	3340
890.501	3203
890.624	3199
890.748	3332
890.871	3161
890.995	3081
891.118	3043
891.241	3218
891.364	3237
891.488	3298
891.611	3184
891.734	3214
891.857	3306
891.98	3249
892.103	3359
892.226	3332
892.349	3264
892.471	3123
892.594	3268
892.717	3348
892.839	3268
892.962	3332
893.085	3344
893.207	3298
893.33	3138
893.452	3237
893.575	3367
893.697	3249
893.819	3439
893.941	3500
894.064	3492
894.186	3253
894.308	3287
894.43	3473
894.552	3549
894.674	3485
894.796	3287
894.918	3306
895.04	3306
895.161	3473
895.283	3374
895.405	3317
895.526	3382
895.648	3424
895.769	3416
895.891	3447
896.012	3515
896.134	3500
896.255	3412
896.376	3412
896.498	3355
896.619	3447
896.74	3382
896.861	3412
896.982	3690
897.103	3903
897.224	3629
897.345	3504
897.466	3469
897.587	3500
897.708	3648
897.828	3580
897.949	3454
898.07	3389
898.19	3405
898.311	3614
898.431	3469
898.552	3526
898.672	3618
898.792	3576
898.913	3507
899.033	3412
899.153	3291
899.273	3222
899.393	3264
899.513	3310
899.633	3340
899.753	3370
899.873	3294
899.993	3397
900.113	3348
900.232	3409
900.352	3321
900.472	3321
900.591	3207
900.711	3332
900.83	3260
900.95	3409
901.069	3481
901.189	3355
901.308	3211
901.427	3165
901.546	3165
901.665	3325
901.784	3344
901.904	3184
902.023	3154
902.141	3032
902.26	3028
902.379	3146
902.498	3116
902.617	3017
902.735	3214
902.854	3264
902.973	3214
903.091	3085
903.21	3039
903.328	3138
903.446	3131
903.565	3097
903.683	3180
903.801	3131
903.919	3211
904.038	3275
904.156	3146
904.274	3310
904.392	3245
904.51	3310
904.627	3340
904.745	3454
904.863	3519
904.981	3279
905.098	3184
905.216	3218
905.334	3325
905.451	3306
905.569	3329
905.686	3447
905.803	3439
905.921	3325
906.038	3424
906.155	3336
906.272	3291
906.389	3310
906.506	3253
906.623	3256
906.74	3264
906.857	3154
906.974	3253
907.091	3443
907.208	3580
907.324	3466
907.441	3401
907.557	3253
907.674	3233
907.79	3203
907.907	3264
908.023	3340
908.139	3401
908.256	3359
908.372	3382
908.488	3351
908.604	3256
908.72	3211
908.836	3294
908.952	3302
909.068	3332
909.184	3477
909.3	3389
909.415	3507
909.531	3492
909.647	3294
909.762	3325
909.878	3272
909.993	3355
910.108	3340
910.224	3374
910.339	3412
910.454	3378
910.57	3294
910.685	3214
910.8	3576
910.915	3519
911.03	3424
911.145	3294
911.259	3268
911.374	3313
911.489	3218
911.604	3226
911.718	3154
911.833	3157
911.947	3062
912.062	2990
912.176	3154
912.291	3211
912.405	3237
912.519	3416
912.633	3466
912.748	3325
912.862	3275
912.976	3176
913.09	3077
913.204	3135
913.318	3214
913.431	3325
913.545	3340
913.659	3412
913.772	3298
913.886	3199
914	3222
914.113	3332
914.226	3435
914.34	3363
914.453	3245
914.566	3416
914.68	3306
914.793	3283
914.906	3138
915.019	3085
915.132	3058
915.245	3150
915.358	3218
915.47	3199
915.583	3237
915.696	3298
915.809	3386
915.921	3409
916.034	3241
916.146	3245
916.259	3226
916.371	3393
916.483	3367
916.595	3249
916.708	3325
916.82	3363
916.932	3336
917.044	3329
917.156	3325
917.268	3306
917.38	3332
917.491	3306
917.603	3393
917.715	3409
917.826	3466
917.938	3386
918.049	3275
918.161	3405
918.272	3553
918.384	3610
918.495	3488
918.606	3321
918.717	3317
918.828	3359
918.939	3447
919.05	3336
919.161	3386
919.272	3180
919.383	3283
919.494	3477
919.604	3679
919.715	3469
919.826	3393
919.936	3420
920.047	3580
920.157	3584
920.267	3743
920.378	3629
920.488	3591
920.598	3770
920.708	3941
920.818	3819
920.928	3812
921.038	4040
921.148	3983
921.258	3682
921.368	3637
921.477	3587
921.587	3564
921.697	3492
921.806	3652
921.916	3530
922.025	3336
922.134	3355
922.244	3340
922.353	3389
922.462	3283
922.571	3207
922.68	3093
922.789	3074
922.898	3119
923.007	3142
923.116	3203
923.224	3161
923.333	3176
923.442	3077
923.55	3119
923.659	3150
923.767	3230
923.876	3135
923.984	3253
924.092	3116
924.201	3173
924.309	3230
924.417	3245
924.525	3180
924.633	3268
924.741	4177
924.849	3024
924.956	3279
925.064	3093
925.172	3089
925.279	3066
925.387	3207
925.494	3199
925.602	3370
925.709	3317
925.816	3195
925.924	3325
926.031	3374
926.138	3332
926.245	3310
926.352	3245
926.459	3389
926.566	3469
926.673	3294
926.779	3226
926.886	3211
926.993	3142
927.099	3165
927.206	3104
927.312	3135
927.419	3241
927.525	3199
927.631	3275
927.737	3154
927.843	3157
927.95	3017
928.056	3150
928.162	3184
928.267	3245
928.373	3785
928.479	3340
928.585	3058
928.69	3211
928.796	3230
928.901	3150
929.007	3051
929.112	3226
929.218	3173
929.323	3138
929.428	3142
929.533	3329
929.638	3127
929.743	3146
929.848	3283
929.953	3211
930.058	3169
930.163	2956
930.267	3070
930.372	3211
930.477	3051
930.581	3294
930.685	3188
930.79	3074
930.894	3104
930.998	3100
931.103	3260
931.207	2963
931.311	2967
931.415	2922
931.519	2781
931.623	2815
