Data from test_V78500241_188.txt Node
Date: Fri Mar 25 16:16:30 CST 2022
User: usil
Spectrometer: V785-0024
Trigger mode: 0
Integration Time (sec): 4.000000E-1
Scans to average: 1
Nonlinearity correction enabled: false
Boxcar width: 0
Storing dark spectrum: false
XAxis mode: Wavelengths
Number of Pixels in Spectrum: 1024
>>>>>Begin Spectral Data<<<<<
801.071	2906
801.214	2982
801.356	2861
801.499	2880
801.641	2887
801.783	2948
801.926	3089
802.068	2971
802.211	2979
802.353	3047
802.496	2998
802.638	3032
802.78	3039
802.923	3074
803.065	2998
803.208	2899
803.35	2948
803.492	2952
803.635	2960
803.777	2777
803.919	2887
804.061	3195
804.204	2952
804.346	2876
804.488	2864
804.63	2975
804.773	2887
804.915	2944
805.057	3104
805.199	2963
805.341	2990
805.483	3028
805.626	3005
805.768	3009
805.91	3131
806.052	3119
806.194	3058
806.336	3256
806.478	3028
806.62	2982
806.762	2990
806.904	3062
807.046	3169
807.188	3009
807.33	2929
807.472	3005
807.614	2925
807.756	3009
807.898	2937
808.04	2933
808.182	3013
808.324	2960
808.465	2864
808.607	2864
808.749	2804
808.891	2842
809.033	3005
809.174	3001
809.316	2887
809.458	2918
809.6	2758
809.741	2773
809.883	2785
810.025	2872
810.166	2887
810.308	2864
810.45	2872
810.591	2788
810.733	2807
810.875	2826
811.016	2773
811.158	2746
811.299	2834
811.441	2899
811.582	2895
811.724	2842
811.865	2864
812.007	2891
812.148	2910
812.29	2849
812.431	2876
812.573	2963
812.714	2963
812.855	3066
812.997	3104
813.138	3135
813.279	3028
813.421	2982
813.562	2956
813.703	2834
813.845	2883
813.986	2758
814.127	2720
814.268	2815
814.41	2842
814.551	2830
814.692	2864
814.833	2838
814.974	2929
815.115	2975
815.256	2883
815.397	2834
815.539	2899
815.68	2800
815.821	2800
815.962	2960
816.103	2941
816.244	2861
816.385	2902
816.526	3001
816.666	2899
816.807	2750
816.948	2902
817.089	2902
817.23	2857
817.371	2792
817.512	2807
817.653	2857
817.793	2830
817.934	2857
818.075	2971
818.216	2979
818.356	3032
818.497	2883
818.638	2788
818.778	2807
818.919	2826
819.06	2754
819.2	2872
819.341	2773
819.481	2800
819.622	2925
819.762	3081
819.903	3074
820.043	2925
820.184	2906
820.324	2914
820.465	3028
820.605	3024
820.746	3043
820.886	2948
821.026	3108
821.167	3173
821.307	3287
821.447	3268
821.588	3287
821.728	3214
821.868	3214
822.008	3112
822.149	3184
822.289	3249
822.429	3070
822.569	3074
822.709	3180
822.849	3058
822.99	3066
823.13	3135
823.27	3211
823.41	3093
823.55	3169
823.69	3135
823.83	3188
823.97	3123
824.11	3020
824.25	3013
824.389	3058
824.529	3123
824.669	3097
824.809	3192
824.949	3233
825.089	3233
825.228	3150
825.368	3017
825.508	2952
825.648	2971
825.787	3051
825.927	3066
826.067	2994
826.206	2975
826.346	3051
826.485	3043
826.625	3127
826.765	3302
826.904	3226
827.044	2967
827.183	2944
827.323	2880
827.462	2971
827.601	2925
827.741	2902
827.88	3017
828.02	2849
828.159	2994
828.298	3047
828.437	3135
828.577	3070
828.716	3237
828.855	3100
828.994	2952
829.134	2857
829.273	2933
829.412	2895
829.551	2861
829.69	2906
829.829	3005
829.968	3135
830.107	3005
830.246	3043
830.385	2910
830.524	2918
830.663	2834
830.802	2750
830.941	2682
831.08	2701
831.219	2781
831.357	2766
831.496	2963
831.635	2766
831.774	2651
831.913	2682
832.051	2568
832.19	2575
832.329	2670
832.467	2568
832.606	2499
832.744	2552
832.883	2590
833.022	2594
833.16	2659
833.299	2670
833.437	2727
833.576	2705
833.714	2769
833.852	2727
833.991	2754
834.129	2876
834.267	2849
834.406	2815
834.544	2891
834.682	2857
834.821	2849
834.959	3047
835.097	2922
835.235	3058
835.373	2998
835.511	3036
835.65	2944
835.788	2960
835.926	2883
836.064	2785
836.202	2830
836.34	3081
836.478	3131
836.615	3047
836.753	3119
836.891	3211
837.029	3192
837.167	3127
837.305	3108
837.443	3093
837.58	2948
837.718	3119
837.856	3047
837.993	2998
838.131	3108
838.269	3093
838.406	3135
838.544	3081
838.681	2918
838.819	2922
838.956	2788
839.094	2853
839.231	2944
839.369	3032
839.506	3409
839.643	3245
839.781	3043
839.918	2929
840.055	3051
840.193	3066
840.33	3074
840.467	3104
840.604	3146
840.742	3428
840.879	3074
841.016	3032
841.153	3131
841.29	3325
841.427	3291
841.564	3268
841.701	3294
841.838	3214
841.975	3207
842.112	3207
842.249	3051
842.385	3036
842.522	3272
842.659	3135
842.796	3051
842.933	3085
843.069	3062
843.206	3001
843.343	3173
843.479	3116
843.616	3154
843.752	2918
843.889	2872
844.025	3112
844.162	2876
844.298	3112
844.435	2956
844.571	2902
844.708	3085
844.844	3184
844.98	3241
845.117	3188
845.253	3055
845.389	2994
845.525	3081
845.661	3116
845.798	3043
845.934	3146
846.07	3066
846.206	3230
846.342	3386
846.478	3275
846.614	3081
846.75	3058
846.886	2998
847.022	3214
847.158	3131
847.294	3226
847.429	3233
847.565	3207
847.701	3488
847.837	3039
847.972	2986
848.108	3173
848.244	3176
848.379	3001
848.515	2975
848.65	2952
848.786	2948
848.921	3051
849.057	3108
849.192	3138
849.328	3097
849.463	3081
849.598	3062
849.734	3043
849.869	2967
850.004	2906
850.14	2982
850.275	2922
850.41	2838
850.545	2880
850.68	2948
850.815	2982
850.95	2990
851.085	3195
851.22	3081
851.355	3066
851.49	2982
851.625	3001
851.76	3039
851.895	2960
852.03	2925
852.165	3070
852.299	3142
852.434	3195
852.569	3142
852.703	3180
852.838	3214
852.973	3348
853.107	3374
853.242	3169
853.376	3119
853.511	3005
853.645	3055
853.78	3253
853.914	3131
854.048	3112
854.183	3085
854.317	3146
854.451	3279
854.585	3146
854.72	3119
854.854	3199
854.988	3074
855.122	3127
855.256	3013
855.39	3085
855.524	3256
855.658	3154
855.792	3161
855.926	3195
856.06	3184
856.194	3291
856.327	3135
856.461	3089
856.595	3077
856.729	3097
856.862	3211
856.996	3157
857.13	3218
857.263	3245
857.397	3294
857.53	3154
857.664	3211
857.797	3241
857.931	3264
858.064	3169
858.197	3199
858.331	3165
858.464	3081
858.597	3009
858.731	3108
858.864	3123
858.997	3074
859.13	3192
859.263	3176
859.396	3207
859.529	3089
859.662	3097
859.795	3055
859.928	3146
860.061	3302
860.194	3272
860.327	3127
860.46	3112
860.592	3272
860.725	3249
860.858	3245
860.99	3062
861.123	3043
861.256	3047
861.388	3150
861.521	3759
861.653	3032
861.786	2998
861.918	3020
862.05	3074
862.183	3127
862.315	3150
862.447	3241
862.58	3119
862.712	2979
862.844	2861
862.976	3009
863.108	3036
863.24	3306
863.372	2899
863.504	2975
863.636	2971
863.768	3017
863.9	2982
864.032	2933
864.164	2975
864.296	3062
864.428	3081
864.559	3100
864.691	3066
864.823	3036
864.954	3055
865.086	3074
865.217	2982
865.349	2971
865.48	2994
865.612	3005
865.743	3176
865.875	2979
866.006	2933
866.137	2982
866.269	2971
866.4	2963
866.531	2929
866.662	2922
866.793	2883
866.924	2929
867.055	2952
867.186	2922
867.317	2906
867.448	2849
867.579	2883
867.71	2830
867.841	2842
867.972	2906
868.103	2906
868.233	2906
868.364	2872
868.495	2925
868.625	3112
868.756	3146
868.886	2975
869.017	2998
869.147	3184
869.278	3188
869.408	3070
869.539	3024
869.669	3100
869.799	3062
869.929	3150
870.06	3085
870.19	3298
870.32	3313
870.45	3302
870.58	3340
870.71	3450
870.84	3454
870.97	3317
871.1	3256
871.23	3504
871.36	3435
871.489	3386
871.619	3382
871.749	3450
871.879	3443
872.008	3519
872.138	3370
872.267	3222
872.397	3142
872.526	3108
872.656	3039
872.785	3157
872.915	3260
873.044	3363
873.173	3226
873.303	3249
873.432	3222
873.561	3264
873.69	3154
873.819	3142
873.948	3214
874.077	3123
874.206	3055
874.335	3066
874.464	3211
874.593	3367
874.722	3237
874.851	3435
874.979	3367
875.108	3351
875.237	3207
875.365	3169
875.494	3142
875.623	3226
875.751	3077
875.88	3123
876.008	3222
876.136	3260
876.265	3374
876.393	3542
876.521	3428
876.65	3405
876.778	3359
876.906	3230
877.034	3199
877.162	3214
877.29	3169
877.418	3260
877.546	3222
877.674	3249
877.802	3245
877.93	3245
878.058	3214
878.185	3127
878.313	3199
878.441	3260
878.568	3070
878.696	3188
878.824	3253
878.951	3298
879.079	3473
879.206	3614
879.333	3458
879.461	3329
879.588	3340
879.715	3492
879.842	3599
879.97	3351
880.097	3237
880.224	3161
880.351	3192
880.478	3233
880.605	3275
880.732	3237
880.859	3523
880.986	3302
881.112	3367
881.239	3214
881.366	3085
881.493	3066
881.619	3047
881.746	3047
881.872	3104
881.999	3127
882.125	3154
882.252	3230
882.378	3302
882.505	3420
882.631	3317
882.757	3154
882.883	3199
883.01	3199
883.136	3165
883.262	3100
883.388	3081
883.514	3302
883.64	3382
883.766	3348
883.892	3173
884.018	3233
884.143	3454
884.269	3561
884.395	3249
884.52	3165
884.646	3226
884.772	3112
884.897	3085
885.023	3222
885.148	3397
885.274	3435
885.399	3386
885.524	3256
885.65	3283
885.775	3344
885.9	3275
886.025	3458
886.15	3378
886.275	3306
886.4	3214
886.525	3359
886.65	3310
886.775	3306
886.9	3511
887.025	3618
887.149	3409
887.274	3253
887.399	3180
887.523	3226
887.648	3169
887.773	3203
887.897	3363
888.021	3416
888.146	3329
888.27	3450
888.395	3549
888.519	3431
888.643	3473
888.767	3507
888.891	3321
889.015	3279
889.139	3336
889.263	3253
889.387	3405
889.511	3515
889.635	3447
889.759	3287
889.883	3306
890.006	3374
890.13	3511
890.254	3294
890.377	3367
890.501	3230
890.624	3211
890.748	3287
890.871	3161
890.995	3116
891.118	3062
891.241	3237
891.364	3256
891.488	3332
891.611	3195
891.734	3256
891.857	3291
891.98	3272
892.103	3378
892.226	3294
892.349	3230
892.471	3127
892.594	3233
892.717	3294
892.839	3268
892.962	3321
893.085	3405
893.207	3306
893.33	3169
893.452	3233
893.575	3397
893.697	3245
893.819	3523
893.941	3519
894.064	3450
894.186	3302
894.308	3241
894.43	3443
894.552	3542
894.674	3485
894.796	3279
894.918	3336
895.04	3325
895.161	3420
895.283	3439
895.405	3348
895.526	3367
895.648	3424
895.769	3447
895.891	3435
896.012	3462
896.134	3477
896.255	3428
896.376	3359
896.498	3363
896.619	3420
896.74	3367
896.861	3389
896.982	3709
897.103	3835
897.224	3648
897.345	3542
897.466	3454
897.587	3477
897.708	3629
897.828	3542
897.949	3401
898.07	3359
898.19	3435
898.311	3633
898.431	3481
898.552	3534
898.672	3614
898.792	3587
898.913	3568
899.033	3462
899.153	3302
899.273	3256
899.393	3272
899.513	3344
899.633	3306
899.753	3382
899.873	3344
899.993	3416
900.113	3344
900.232	3397
900.352	3351
900.472	3310
900.591	3192
900.711	3329
900.83	3256
900.95	3397
901.069	3542
901.189	3344
901.308	3184
901.427	3157
901.546	3195
901.665	3294
901.784	3340
901.904	3211
902.023	3165
902.141	3066
902.26	2994
902.379	3157
902.498	3058
902.617	3093
902.735	3184
902.854	3241
902.973	3199
903.091	3062
903.21	3089
903.328	3154
903.446	3150
903.565	3116
903.683	3214
903.801	3127
903.919	3287
904.038	3291
904.156	3173
904.274	3287
904.392	3298
904.51	3275
904.627	3348
904.745	3466
904.863	3496
904.981	3256
905.098	3226
905.216	3214
905.334	3317
905.451	3298
905.569	3317
905.686	3431
905.803	3473
905.921	3294
906.038	3462
906.155	3378
906.272	3313
906.389	3306
906.506	3245
906.623	3260
906.74	3287
906.857	3214
906.974	3302
907.091	3466
907.208	3618
907.324	3511
907.441	3420
907.557	3268
907.674	3249
907.79	3222
907.907	3287
908.023	3367
908.139	3416
908.256	3401
908.372	3370
908.488	3386
908.604	3313
908.72	3237
908.836	3283
908.952	3313
909.068	3367
909.184	3526
909.3	3416
909.415	3511
909.531	3485
909.647	3336
909.762	3294
909.878	3279
909.993	3382
910.108	3340
910.224	3367
910.339	3458
910.454	3386
910.57	3317
910.685	3264
910.8	3591
910.915	3538
911.03	3393
911.145	3279
911.259	3294
911.374	3348
911.489	3241
911.604	3214
911.718	3119
911.833	3176
911.947	3051
912.062	2982
912.176	3150
912.291	3241
912.405	3241
912.519	3428
912.633	3447
912.748	3294
912.862	3275
912.976	3180
913.09	3081
913.204	3108
913.318	3226
913.431	3359
913.545	3359
913.659	3409
913.772	3321
913.886	3260
914	3188
914.113	3367
914.226	3409
914.34	3378
914.453	3283
914.566	3466
914.68	3344
914.793	3363
914.906	3146
915.019	3135
915.132	3081
915.245	3211
915.358	3241
915.47	3230
915.583	3283
915.696	3298
915.809	3428
915.921	3458
916.034	3249
916.146	3268
916.259	3214
916.371	3416
916.483	3370
916.595	3253
916.708	3321
916.82	3363
916.932	3355
917.044	3374
917.156	3317
917.268	3237
917.38	3355
917.491	3294
917.603	3355
917.715	3492
917.826	3492
917.938	3405
918.049	3279
918.161	3409
918.272	3587
918.384	3580
918.495	3519
918.606	3351
918.717	3283
918.828	3382
918.939	3443
919.05	3313
919.161	3386
919.272	3184
919.383	3313
919.494	3526
919.604	3728
919.715	3534
919.826	3431
919.936	3485
920.047	3614
920.157	3625
920.267	3793
920.378	3603
920.488	3580
920.598	3793
920.708	3964
920.818	3869
920.928	3850
921.038	4017
921.148	4021
921.258	3736
921.368	3644
921.477	3599
921.587	3549
921.697	3481
921.806	3682
921.916	3564
922.025	3355
922.134	3416
922.244	3359
922.353	3439
922.462	3291
922.571	3241
922.68	3089
922.789	3100
922.898	3184
923.007	3100
923.116	3192
923.224	3165
923.333	3184
923.442	3157
923.55	3119
923.659	3123
923.767	3230
923.876	3127
923.984	3253
924.092	3138
924.201	3192
924.309	3207
924.417	3298
924.525	3195
924.633	3253
924.741	4234
924.849	3043
924.956	3264
925.064	3100
925.172	3077
925.279	3142
925.387	3199
925.494	3222
925.602	3370
925.709	3355
925.816	3157
925.924	3321
926.031	3401
926.138	3340
926.245	3370
926.352	3275
926.459	3431
926.566	3477
926.673	3260
926.779	3291
926.886	3241
926.993	3127
927.099	3165
927.206	3112
927.312	3127
927.419	3214
927.525	3157
927.631	3291
927.737	3119
927.843	3157
927.95	3032
928.056	3127
928.162	3176
928.267	3275
928.373	3884
928.479	3298
928.585	3070
928.69	3249
928.796	3245
928.901	3135
929.007	3020
929.112	3188
929.218	3184
929.323	3150
929.428	3203
929.533	3348
929.638	3138
929.743	3222
929.848	3291
929.953	3279
930.058	3184
930.163	2979
930.267	3039
930.372	3218
930.477	3032
930.581	3359
930.685	3173
930.79	3077
930.894	3173
930.998	3093
931.103	3291
931.207	2979
931.311	2948
931.415	2910
931.519	2807
931.623	2834
