Data from test_V78500241_2047.txt Node
Date: Fri Mar 25 16:29:23 CST 2022
User: usil
Spectrometer: V785-0024
Trigger mode: 0
Integration Time (sec): 4.000000E-1
Scans to average: 1
Nonlinearity correction enabled: false
Boxcar width: 0
Storing dark spectrum: false
XAxis mode: Wavelengths
Number of Pixels in Spectrum: 1024
>>>>>Begin Spectral Data<<<<<
801.071	2853
801.214	2929
801.356	2880
801.499	2906
801.641	2849
801.783	2963
801.926	3024
802.068	2952
802.211	2982
802.353	3036
802.496	2967
802.638	3024
802.78	3036
802.923	3051
803.065	2975
803.208	2853
803.35	2910
803.492	2937
803.635	2906
803.777	2743
803.919	2891
804.061	3161
804.204	2918
804.346	2918
804.488	2834
804.63	2952
804.773	2864
804.915	2883
805.057	3047
805.199	2918
805.341	2963
805.483	3020
805.626	2994
805.768	2948
805.91	3089
806.052	3108
806.194	2986
806.336	3180
806.478	3039
806.62	2944
806.762	2941
806.904	3032
807.046	3112
807.188	2982
807.33	2914
807.472	2971
807.614	2895
807.756	2952
807.898	2872
808.04	2910
808.182	2994
808.324	2929
808.465	2887
808.607	2838
808.749	2785
808.891	2826
809.033	2971
809.174	2948
809.316	2880
809.458	2876
809.6	2754
809.741	2743
809.883	2754
810.025	2815
810.166	2876
810.308	2804
810.45	2834
810.591	2773
810.733	2762
810.875	2815
811.016	2785
811.158	2766
811.299	2796
811.441	2929
811.582	2838
811.724	2800
811.865	2804
812.007	2891
812.148	2857
812.29	2864
812.431	2845
812.573	2933
812.714	2941
812.855	3077
812.997	3028
813.138	3112
813.279	2998
813.421	2982
813.562	2960
813.703	2922
813.845	2872
813.986	2743
814.127	2762
814.268	2792
814.41	2830
814.551	2815
814.692	2876
814.833	2811
814.974	2902
815.115	2944
815.256	2819
815.397	2823
815.539	2872
815.68	2807
815.821	2800
815.962	2937
816.103	2914
816.244	2895
816.385	2891
816.526	2967
816.666	2906
816.807	2743
816.948	2880
817.089	2849
817.23	2861
817.371	2781
817.512	2773
817.653	2823
817.793	2853
817.934	2918
818.075	2948
818.216	2956
818.356	3032
818.497	2868
818.638	2804
818.778	2819
818.919	2804
819.06	2766
819.2	2857
819.341	2804
819.481	2800
819.622	2922
819.762	3074
819.903	3036
820.043	2918
820.184	2891
820.324	2891
820.465	2994
820.605	3028
820.746	3028
820.886	2914
821.026	3093
821.167	3131
821.307	3222
821.447	3245
821.588	3203
821.728	3192
821.868	3165
822.008	3051
822.149	3173
822.289	3245
822.429	3097
822.569	3093
822.709	3192
822.849	3017
822.99	3020
823.13	3135
823.27	3180
823.41	3051
823.55	3169
823.69	3138
823.83	3188
823.97	3066
824.11	2971
824.25	2990
824.389	3051
824.529	3135
824.669	3089
824.809	3161
824.949	3214
825.089	3192
825.228	3135
825.368	2990
825.508	2971
825.648	2948
825.787	2998
825.927	3005
826.067	2960
826.206	2956
826.346	3036
826.485	3020
826.625	3097
826.765	3272
826.904	3218
827.044	3020
827.183	2922
827.323	2849
827.462	2994
827.601	2925
827.741	2918
827.88	2925
828.02	2868
828.159	2963
828.298	3001
828.437	3097
828.577	3017
828.716	3203
828.855	3077
828.994	2880
829.134	2883
829.273	2944
829.412	2842
829.551	2880
829.69	2845
829.829	2941
829.968	3093
830.107	2982
830.246	3017
830.385	2937
830.524	2906
830.663	2819
830.802	2708
830.941	2655
831.08	2644
831.219	2739
831.357	2758
831.496	2910
831.635	2670
831.774	2648
831.913	2682
832.051	2545
832.19	2533
832.329	2678
832.467	2537
832.606	2495
832.744	2571
832.883	2587
833.022	2568
833.16	2640
833.299	2678
833.437	2701
833.576	2686
833.714	2731
833.852	2727
833.991	2762
834.129	2804
834.267	2807
834.406	2766
834.544	2887
834.682	2864
834.821	2857
834.959	3058
835.097	2880
835.235	3047
835.373	3013
835.511	3001
835.65	2937
835.788	2918
835.926	2819
836.064	2788
836.202	2826
836.34	3085
836.478	3131
836.615	3024
836.753	3119
836.891	3176
837.029	3142
837.167	3093
837.305	3028
837.443	3017
837.58	2948
837.718	3104
837.856	3066
837.993	3001
838.131	3093
838.269	3077
838.406	3089
838.544	3081
838.681	2891
838.819	2933
838.956	2815
839.094	2834
839.231	2899
839.369	3028
839.506	3370
839.643	3226
839.781	3020
839.918	2925
840.055	3020
840.193	3009
840.33	3055
840.467	3112
840.604	3157
840.742	3428
840.879	3051
841.016	3020
841.153	3131
841.29	3329
841.427	3272
841.564	3275
841.701	3283
841.838	3192
841.975	3131
842.112	3176
842.249	3077
842.385	3017
842.522	3268
842.659	3112
842.796	3009
842.933	3077
843.069	3020
843.206	3009
843.343	3184
843.479	3074
843.616	3131
843.752	2891
843.889	2849
844.025	3074
844.162	2868
844.298	3043
844.435	2963
844.571	2910
844.708	3077
844.844	3176
844.98	3207
845.117	3161
845.253	3032
845.389	3039
845.525	3089
845.661	3108
845.798	2979
845.934	3135
846.07	3017
846.206	3211
846.342	3298
846.478	3226
846.614	3074
846.75	3005
846.886	2990
847.022	3233
847.158	3108
847.294	3180
847.429	3207
847.565	3173
847.701	3485
847.837	3013
847.972	2963
848.108	3161
848.244	3123
848.379	2986
848.515	2956
848.65	2876
848.786	2929
848.921	2990
849.057	3081
849.192	3131
849.328	3047
849.463	3112
849.598	3055
849.734	2998
849.869	2971
850.004	2902
850.14	2937
850.275	2895
850.41	2796
850.545	2864
850.68	2906
850.815	2994
850.95	2944
851.085	3173
851.22	3032
851.355	3005
851.49	2963
851.625	2982
851.76	3005
851.895	2906
852.03	2902
852.165	2998
852.299	3108
852.434	3131
852.569	3093
852.703	3161
852.838	3233
852.973	3336
853.107	3313
853.242	3131
853.376	3089
853.511	2975
853.645	3051
853.78	3195
853.914	3116
854.048	3093
854.183	3062
854.317	3176
854.451	3287
854.585	3112
854.72	3089
854.854	3207
854.988	3047
855.122	3089
855.256	2975
855.39	3104
855.524	3230
855.658	3188
855.792	3146
855.926	3237
856.06	3214
856.194	3256
856.327	3127
856.461	3093
856.595	3131
856.729	3089
856.862	3214
856.996	3176
857.13	3211
857.263	3230
857.397	3310
857.53	3119
857.664	3203
857.797	3294
857.931	3294
858.064	3199
858.197	3214
858.331	3119
858.464	3104
858.597	3017
858.731	3138
858.864	3157
858.997	3089
859.13	3184
859.263	3211
859.396	3245
859.529	3089
859.662	3146
859.795	3089
859.928	3135
860.061	3321
860.194	3325
860.327	3142
860.46	3123
860.592	3268
860.725	3268
860.858	3241
860.99	3135
861.123	3119
861.256	3074
861.388	3161
861.521	3896
861.653	3032
861.786	3028
861.918	3066
862.05	3097
862.183	3112
862.315	3157
862.447	3264
862.58	3142
862.712	2944
862.844	2887
862.976	3066
863.108	3047
863.24	3325
863.372	2925
863.504	3009
863.636	2979
863.768	3070
863.9	2994
864.032	2952
864.164	2952
864.296	2975
864.428	3100
864.559	3146
864.691	3066
864.823	3085
864.954	3032
865.086	3093
865.217	3055
865.349	2990
865.48	3001
865.612	3066
865.743	3157
865.875	2986
866.006	2960
866.137	3028
866.269	2925
866.4	3005
866.531	2948
866.662	2902
866.793	2899
866.924	2948
867.055	3013
867.186	2941
867.317	2922
867.448	2864
867.579	2868
867.71	2895
867.841	2849
867.972	2941
868.103	2902
868.233	2899
868.364	2910
868.495	2929
868.625	3085
868.756	3184
868.886	2998
869.017	3055
869.147	3184
869.278	3195
869.408	3058
869.539	3043
869.669	3131
869.799	3085
869.929	3165
870.06	3150
870.19	3329
870.32	3344
870.45	3310
870.58	3397
870.71	3485
870.84	3458
870.97	3298
871.1	3230
871.23	3504
871.36	3485
871.489	3344
871.619	3450
871.749	3443
871.879	3462
872.008	3504
872.138	3382
872.267	3298
872.397	3161
872.526	3085
872.656	3028
872.785	3116
872.915	3302
873.044	3340
873.173	3272
873.303	3268
873.432	3249
873.561	3214
873.69	3173
873.819	3180
873.948	3230
874.077	3085
874.206	3062
874.335	3100
874.464	3192
874.593	3397
874.722	3287
874.851	3412
874.979	3374
875.108	3344
875.237	3184
875.365	3161
875.494	3192
875.623	3256
875.751	3085
875.88	3138
876.008	3218
876.136	3268
876.265	3348
876.393	3542
876.521	3469
876.65	3389
876.778	3370
876.906	3230
877.034	3230
877.162	3230
877.29	3184
877.418	3268
877.546	3294
877.674	3306
877.802	3275
877.93	3245
878.058	3173
878.185	3127
878.313	3214
878.441	3245
878.568	3104
878.696	3207
878.824	3279
878.951	3325
879.079	3519
879.206	3618
879.333	3473
879.461	3363
879.588	3370
879.715	3492
879.842	3625
879.97	3386
880.097	3180
880.224	3161
880.351	3253
880.478	3253
880.605	3230
880.732	3218
880.859	3496
880.986	3367
881.112	3321
881.239	3226
881.366	3112
881.493	3043
881.619	3043
881.746	3104
881.872	3135
881.999	3104
882.125	3176
882.252	3298
882.378	3317
882.505	3450
882.631	3306
882.757	3184
882.883	3241
883.01	3279
883.136	3184
883.262	3157
883.388	3180
883.514	3332
883.64	3409
883.766	3325
883.892	3203
884.018	3241
884.143	3458
884.269	3568
884.395	3237
884.52	3207
884.646	3199
884.772	3108
884.897	3119
885.023	3249
885.148	3374
885.274	3409
885.399	3420
885.524	3340
885.65	3294
885.775	3340
885.9	3302
886.025	3496
886.15	3363
886.275	3325
886.4	3226
886.525	3298
886.65	3313
886.775	3332
886.9	3496
887.025	3701
887.149	3416
887.274	3302
887.399	3226
887.523	3203
887.648	3237
887.773	3237
887.897	3416
888.021	3435
888.146	3325
888.27	3473
888.395	3530
888.519	3473
888.643	3420
888.767	3458
888.891	3325
889.015	3249
889.139	3306
889.263	3256
889.387	3435
889.511	3545
889.635	3469
889.759	3332
889.883	3313
890.006	3454
890.13	3511
890.254	3260
890.377	3374
890.501	3226
890.624	3199
890.748	3310
890.871	3195
890.995	3142
891.118	3108
891.241	3203
891.364	3264
891.488	3351
891.611	3207
891.734	3241
891.857	3298
891.98	3241
892.103	3359
892.226	3332
892.349	3245
892.471	3157
892.594	3256
892.717	3272
892.839	3294
892.962	3325
893.085	3344
893.207	3329
893.33	3161
893.452	3226
893.575	3359
893.697	3279
893.819	3504
893.941	3485
894.064	3462
894.186	3321
894.308	3313
894.43	3477
894.552	3564
894.674	3485
894.796	3329
894.918	3306
895.04	3321
895.161	3412
895.283	3389
895.405	3287
895.526	3386
895.648	3450
895.769	3466
895.891	3492
896.012	3485
896.134	3481
896.255	3431
896.376	3359
896.498	3397
896.619	3454
896.74	3389
896.861	3412
896.982	3698
897.103	3812
897.224	3606
897.345	3492
897.466	3466
897.587	3530
897.708	3629
897.828	3595
897.949	3507
898.07	3378
898.19	3424
898.311	3641
898.431	3428
898.552	3500
898.672	3614
898.792	3606
898.913	3534
899.033	3420
899.153	3294
899.273	3233
899.393	3321
899.513	3344
899.633	3313
899.753	3336
899.873	3306
899.993	3378
900.113	3310
900.232	3378
900.352	3355
900.472	3302
900.591	3203
900.711	3302
900.83	3272
900.95	3450
901.069	3519
901.189	3325
901.308	3165
901.427	3176
901.546	3211
901.665	3294
901.784	3340
901.904	3245
902.023	3195
902.141	3039
902.26	3058
902.379	3176
902.498	3077
902.617	3058
902.735	3233
902.854	3222
902.973	3214
903.091	3051
903.21	3051
903.328	3157
903.446	3131
903.565	3119
903.683	3249
903.801	3135
903.919	3268
904.038	3321
904.156	3173
904.274	3310
904.392	3256
904.51	3298
904.627	3317
904.745	3428
904.863	3515
904.981	3275
905.098	3180
905.216	3298
905.334	3268
905.451	3298
905.569	3298
905.686	3458
905.803	3488
905.921	3268
906.038	3439
906.155	3370
906.272	3275
906.389	3336
906.506	3275
906.623	3279
906.74	3298
906.857	3203
906.974	3237
907.091	3447
907.208	3561
907.324	3515
907.441	3374
907.557	3245
907.674	3214
907.79	3230
907.907	3283
908.023	3393
908.139	3370
908.256	3317
908.372	3359
908.488	3370
908.604	3253
908.72	3245
908.836	3313
908.952	3291
909.068	3367
909.184	3507
909.3	3405
909.415	3481
909.531	3488
909.647	3302
909.762	3302
909.878	3279
909.993	3378
910.108	3329
910.224	3370
910.339	3462
910.454	3348
910.57	3310
910.685	3222
910.8	3603
910.915	3530
911.03	3462
911.145	3272
911.259	3340
911.374	3344
911.489	3283
911.604	3249
911.718	3138
911.833	3192
911.947	3039
912.062	2963
912.176	3199
912.291	3226
912.405	3218
912.519	3420
912.633	3488
912.748	3344
912.862	3291
912.976	3173
913.09	3089
913.204	3184
913.318	3241
913.431	3332
913.545	3298
913.659	3405
913.772	3355
913.886	3249
914	3230
914.113	3355
914.226	3428
914.34	3374
914.453	3237
914.566	3424
914.68	3317
914.793	3348
914.906	3142
915.019	3127
915.132	3097
915.245	3184
915.358	3211
915.47	3264
915.583	3306
915.696	3310
915.809	3405
915.921	3412
916.034	3260
916.146	3253
916.259	3195
916.371	3393
916.483	3367
916.595	3291
916.708	3363
916.82	3359
916.932	3340
917.044	3306
917.156	3329
917.268	3256
917.38	3291
917.491	3298
917.603	3386
917.715	3458
917.826	3477
917.938	3393
918.049	3294
918.161	3409
918.272	3549
918.384	3576
918.495	3466
918.606	3355
918.717	3283
918.828	3374
918.939	3412
919.05	3317
919.161	3397
919.272	3184
919.383	3313
919.494	3530
919.604	3656
919.715	3469
919.826	3420
919.936	3473
920.047	3595
920.157	3591
920.267	3812
920.378	3591
920.488	3584
920.598	3835
920.708	3926
920.818	3774
920.928	3835
921.038	4044
921.148	4013
921.258	3724
921.368	3660
921.477	3595
921.587	3553
921.697	3424
921.806	3629
921.916	3576
922.025	3393
922.134	3386
922.244	3351
922.353	3435
922.462	3279
922.571	3268
922.68	3116
922.789	3085
922.898	3146
923.007	3123
923.116	3249
923.224	3207
923.333	3233
923.442	3119
923.55	3097
923.659	3184
923.767	3264
923.876	3142
923.984	3233
924.092	3131
924.201	3264
924.309	3253
924.417	3313
924.525	3241
924.633	3279
924.741	4238
924.849	3100
924.956	3275
925.064	3127
925.172	3062
925.279	3184
925.387	3256
925.494	3241
925.602	3416
925.709	3397
925.816	3260
925.924	3329
926.031	3420
926.138	3351
926.245	3393
926.352	3283
926.459	3481
926.566	3515
926.673	3374
926.779	3287
926.886	3336
926.993	3192
927.099	3154
927.206	3150
927.312	3154
927.419	3264
927.525	3272
927.631	3348
927.737	3214
927.843	3157
927.95	3051
928.056	3199
928.162	3214
928.267	3302
928.373	3930
928.479	3378
928.585	3131
928.69	3291
928.796	3302
928.901	3154
929.007	3081
929.112	3275
929.218	3214
929.323	3192
929.428	3199
929.533	3367
929.638	3173
929.743	3203
929.848	3329
929.953	3275
930.058	3222
930.163	3070
930.267	3062
930.372	3268
930.477	3055
930.581	3355
930.685	3222
930.79	3093
930.894	3165
930.998	3157
931.103	3279
931.207	2975
931.311	2994
931.415	2937
931.519	2800
931.623	2864
