Data from test_V78500241_236.txt Node
Date: Fri Mar 25 16:16:50 CST 2022
User: usil
Spectrometer: V785-0024
Trigger mode: 0
Integration Time (sec): 4.000000E-1
Scans to average: 1
Nonlinearity correction enabled: false
Boxcar width: 0
Storing dark spectrum: false
XAxis mode: Wavelengths
Number of Pixels in Spectrum: 1024
>>>>>Begin Spectral Data<<<<<
801.071	2918
801.214	2944
801.356	2876
801.499	2899
801.641	2861
801.783	2960
801.926	3070
802.068	2975
802.211	3009
802.353	3039
802.496	2990
802.638	3020
802.78	3077
802.923	3081
803.065	3024
803.208	2933
803.35	2948
803.492	2975
803.635	2925
803.777	2746
803.919	2834
804.061	3169
804.204	2960
804.346	2937
804.488	2872
804.63	2994
804.773	2876
804.915	2941
805.057	3070
805.199	2941
805.341	2960
805.483	3055
805.626	3024
805.768	2941
805.91	3062
806.052	3146
806.194	3062
806.336	3203
806.478	3047
806.62	2975
806.762	2979
806.904	3066
807.046	3146
807.188	3009
807.33	2918
807.472	2986
807.614	2929
807.756	2941
807.898	2963
808.04	2925
808.182	2998
808.324	2933
808.465	2861
808.607	2868
808.749	2819
808.891	2872
809.033	3001
809.174	2982
809.316	2872
809.458	2891
809.6	2773
809.741	2762
809.883	2792
810.025	2853
810.166	2842
810.308	2845
810.45	2826
810.591	2785
810.733	2762
810.875	2838
811.016	2800
811.158	2754
811.299	2800
811.441	2914
811.582	2883
811.724	2811
811.865	2800
812.007	2910
812.148	2906
812.29	2876
812.431	2914
812.573	2948
812.714	2967
812.855	3074
812.997	3066
813.138	3127
813.279	3013
813.421	2979
813.562	2960
813.703	2853
813.845	2899
813.986	2766
814.127	2750
814.268	2838
814.41	2883
814.551	2796
814.692	2906
814.833	2830
814.974	2906
815.115	2967
815.256	2788
815.397	2792
815.539	2811
815.68	2781
815.821	2838
815.962	2956
816.103	2910
816.244	2849
816.385	2876
816.526	2982
816.666	2948
816.807	2754
816.948	2910
817.089	2933
817.23	2857
817.371	2788
817.512	2796
817.653	2868
817.793	2834
817.934	2849
818.075	2956
818.216	2998
818.356	3032
818.497	2902
818.638	2788
818.778	2819
818.919	2823
819.06	2743
819.2	2910
819.341	2815
819.481	2800
819.622	2952
819.762	3100
819.903	3070
820.043	2902
820.184	2902
820.324	2883
820.465	3039
820.605	3028
820.746	3039
820.886	2944
821.026	3070
821.167	3161
821.307	3264
821.447	3291
821.588	3253
821.728	3184
821.868	3203
822.008	3100
822.149	3253
822.289	3233
822.429	3169
822.569	3093
822.709	3188
822.849	3017
822.99	3070
823.13	3123
823.27	3169
823.41	3093
823.55	3161
823.69	3116
823.83	3173
823.97	3108
824.11	3005
824.25	2994
824.389	3097
824.529	3116
824.669	3051
824.809	3207
824.949	3218
825.089	3226
825.228	3180
825.368	3013
825.508	2933
825.648	2963
825.787	2986
825.927	3024
826.067	2948
826.206	2979
826.346	3058
826.485	3036
826.625	3142
826.765	3287
826.904	3256
827.044	2982
827.183	2929
827.323	2876
827.462	2975
827.601	2914
827.741	2925
827.88	2975
828.02	2883
828.159	3017
828.298	3074
828.437	3123
828.577	3062
828.716	3203
828.855	3066
828.994	2937
829.134	2948
829.273	2933
829.412	2868
829.551	2876
829.69	2880
829.829	2979
829.968	3146
830.107	3005
830.246	2986
830.385	2982
830.524	2910
830.663	2826
830.802	2689
830.941	2644
831.08	2636
831.219	2758
831.357	2781
831.496	2967
831.635	2735
831.774	2686
831.913	2670
832.051	2533
832.19	2571
832.329	2678
832.467	2530
832.606	2503
832.744	2552
832.883	2571
833.022	2606
833.16	2655
833.299	2705
833.437	2701
833.576	2743
833.714	2727
833.852	2754
833.991	2762
834.129	2834
834.267	2849
834.406	2811
834.544	2887
834.682	2857
834.821	2864
834.959	3070
835.097	2891
835.235	3077
835.373	3013
835.511	3024
835.65	2952
835.788	2952
835.926	2861
836.064	2834
836.202	2861
836.34	3081
836.478	3150
836.615	3039
836.753	3135
836.891	3165
837.029	3195
837.167	3116
837.305	3047
837.443	3013
837.58	2971
837.718	3142
837.856	3028
837.993	3028
838.131	3131
838.269	3169
838.406	3100
838.544	3081
838.681	2998
838.819	2918
838.956	2796
839.094	2842
839.231	2899
839.369	2998
839.506	3386
839.643	3211
839.781	3043
839.918	2941
840.055	3074
840.193	3051
840.33	3055
840.467	3100
840.604	3146
840.742	3389
840.879	3112
841.016	3058
841.153	3127
841.29	3329
841.427	3268
841.564	3249
841.701	3340
841.838	3192
841.975	3165
842.112	3230
842.249	3077
842.385	3017
842.522	3256
842.659	3089
842.796	3085
842.933	3089
843.069	3074
843.206	3058
843.343	3192
843.479	3146
843.616	3146
843.752	2902
843.889	2883
844.025	3066
844.162	2857
844.298	3070
844.435	2941
844.571	2933
844.708	3058
844.844	3154
844.98	3260
845.117	3192
845.253	3081
845.389	3009
845.525	3131
845.661	3081
845.798	3043
845.934	3135
846.07	3047
846.206	3222
846.342	3302
846.478	3253
846.614	3108
846.75	3062
846.886	3017
847.022	3241
847.158	3154
847.294	3233
847.429	3203
847.565	3222
847.701	3466
847.837	3047
847.972	3036
848.108	3180
848.244	3135
848.379	3009
848.515	2944
848.65	2891
848.786	2975
848.921	3009
849.057	3077
849.192	3146
849.328	3066
849.463	3142
849.598	3070
849.734	3051
849.869	3005
850.004	2929
850.14	2960
850.275	2933
850.41	2868
850.545	2899
850.68	2914
850.815	2986
850.95	2960
851.085	3192
851.22	3112
851.355	3036
851.49	2979
851.625	2952
851.76	3017
851.895	2960
852.03	2929
852.165	3032
852.299	3123
852.434	3195
852.569	3169
852.703	3199
852.838	3283
852.973	3344
853.107	3325
853.242	3161
853.376	3108
853.511	2975
853.645	3058
853.78	3218
853.914	3116
854.048	3100
854.183	3116
854.317	3150
854.451	3275
854.585	3138
854.72	3097
854.854	3192
854.988	3024
855.122	3100
855.256	2956
855.39	3119
855.524	3218
855.658	3165
855.792	3207
855.926	3154
856.06	3249
856.194	3298
856.327	3169
856.461	3070
856.595	3081
856.729	3081
856.862	3211
856.996	3180
857.13	3211
857.263	3253
857.397	3298
857.53	3154
857.664	3199
857.797	3226
857.931	3256
858.064	3176
858.197	3260
858.331	3138
858.464	3077
858.597	2998
858.731	3173
858.864	3157
858.997	3089
859.13	3146
859.263	3207
859.396	3222
859.529	3089
859.662	3089
859.795	3074
859.928	3070
860.061	3294
860.194	3272
860.327	3116
860.46	3119
860.592	3230
860.725	3245
860.858	3237
860.99	3104
861.123	3116
861.256	3043
861.388	3097
861.521	3873
861.653	2994
861.786	2982
861.918	2982
862.05	3074
862.183	3077
862.315	3112
862.447	3188
862.58	3077
862.712	2975
862.844	2891
862.976	3043
863.108	2982
863.24	3313
863.372	2864
863.504	2929
863.636	2967
863.768	3055
863.9	2967
864.032	2902
864.164	2979
864.296	3024
864.428	3097
864.559	3112
864.691	3055
864.823	3062
864.954	3009
865.086	3036
865.217	3024
865.349	2910
865.48	3001
865.612	2998
865.743	3135
865.875	2960
866.006	2941
866.137	2979
866.269	2918
866.4	2933
866.531	2952
866.662	2883
866.793	2864
866.924	2925
867.055	2952
867.186	2918
867.317	2853
867.448	2868
867.579	2857
867.71	2826
867.841	2807
867.972	2902
868.103	2861
868.233	2876
868.364	2853
868.495	2899
868.625	3081
868.756	3157
868.886	2975
869.017	3013
869.147	3165
869.278	3180
869.408	3036
869.539	3055
869.669	3100
869.799	3055
869.929	3142
870.06	3100
870.19	3294
870.32	3272
870.45	3310
870.58	3420
870.71	3454
870.84	3450
870.97	3325
871.1	3245
871.23	3462
871.36	3447
871.489	3348
871.619	3420
871.749	3420
871.879	3443
872.008	3458
872.138	3378
872.267	3268
872.397	3188
872.526	3119
872.656	2979
872.785	3112
872.915	3188
873.044	3302
873.173	3226
873.303	3264
873.432	3233
873.561	3264
873.69	3192
873.819	3123
873.948	3184
874.077	3127
874.206	3047
874.335	3108
874.464	3226
874.593	3336
874.722	3272
874.851	3393
874.979	3332
875.108	3329
875.237	3214
875.365	3161
875.494	3188
875.623	3226
875.751	3066
875.88	3119
876.008	3188
876.136	3249
876.265	3363
876.393	3542
876.521	3405
876.65	3420
876.778	3340
876.906	3241
877.034	3188
877.162	3222
877.29	3199
877.418	3260
877.546	3222
877.674	3237
877.802	3222
877.93	3233
878.058	3135
878.185	3119
878.313	3226
878.441	3218
878.568	3051
878.696	3165
878.824	3245
878.951	3325
879.079	3412
879.206	3595
879.333	3435
879.461	3325
879.588	3359
879.715	3492
879.842	3618
879.97	3382
880.097	3127
880.224	3150
880.351	3184
880.478	3192
880.605	3161
880.732	3207
880.859	3500
880.986	3302
881.112	3336
881.239	3203
881.366	3119
881.493	3032
881.619	3062
881.746	3077
881.872	3093
881.999	3093
882.125	3157
882.252	3260
882.378	3317
882.505	3424
882.631	3291
882.757	3127
882.883	3226
883.01	3249
883.136	3169
883.262	3123
883.388	3142
883.514	3321
883.64	3351
883.766	3321
883.892	3180
884.018	3241
884.143	3454
884.269	3526
884.395	3188
884.52	3123
884.646	3180
884.772	3135
884.897	3138
885.023	3176
885.148	3344
885.274	3439
885.399	3348
885.524	3302
885.65	3279
885.775	3272
885.9	3264
886.025	3504
886.15	3397
886.275	3329
886.4	3241
886.525	3302
886.65	3294
886.775	3253
886.9	3469
887.025	3648
887.149	3420
887.274	3306
887.399	3173
887.523	3169
887.648	3203
887.773	3237
887.897	3382
888.021	3416
888.146	3336
888.27	3458
888.395	3538
888.519	3416
888.643	3500
888.767	3473
888.891	3332
889.015	3230
889.139	3340
889.263	3256
889.387	3386
889.511	3515
889.635	3462
889.759	3310
889.883	3287
890.006	3378
890.13	3492
890.254	3272
890.377	3359
890.501	3218
890.624	3207
890.748	3287
890.871	3192
890.995	3112
891.118	3100
891.241	3169
891.364	3218
891.488	3317
891.611	3161
891.734	3173
891.857	3283
891.98	3233
892.103	3336
892.226	3275
892.349	3230
892.471	3135
892.594	3260
892.717	3313
892.839	3256
892.962	3279
893.085	3370
893.207	3298
893.33	3127
893.452	3180
893.575	3367
893.697	3253
893.819	3462
893.941	3538
894.064	3485
894.186	3268
894.308	3298
894.43	3443
894.552	3557
894.674	3443
894.796	3256
894.918	3317
895.04	3291
895.161	3466
895.283	3378
895.405	3287
895.526	3363
895.648	3450
895.769	3439
895.891	3450
896.012	3466
896.134	3469
896.255	3393
896.376	3363
896.498	3348
896.619	3416
896.74	3344
896.861	3412
896.982	3686
897.103	3861
897.224	3553
897.345	3485
897.466	3496
897.587	3526
897.708	3610
897.828	3526
897.949	3466
898.07	3348
898.19	3409
898.311	3591
898.431	3435
898.552	3511
898.672	3591
898.792	3576
898.913	3534
899.033	3435
899.153	3336
899.273	3203
899.393	3275
899.513	3340
899.633	3336
899.753	3374
899.873	3336
899.993	3344
900.113	3359
900.232	3389
900.352	3359
900.472	3325
900.591	3188
900.711	3321
900.83	3253
900.95	3428
901.069	3496
901.189	3389
901.308	3188
901.427	3108
901.546	3199
901.665	3306
901.784	3310
901.904	3237
902.023	3165
902.141	3028
902.26	3017
902.379	3165
902.498	3085
902.617	3062
902.735	3233
902.854	3272
902.973	3203
903.091	3032
903.21	3081
903.328	3131
903.446	3112
903.565	3097
903.683	3214
903.801	3131
903.919	3203
904.038	3298
904.156	3131
904.274	3298
904.392	3241
904.51	3260
904.627	3344
904.745	3466
904.863	3511
904.981	3275
905.098	3184
905.216	3241
905.334	3313
905.451	3291
905.569	3332
905.686	3439
905.803	3443
905.921	3317
906.038	3397
906.155	3351
906.272	3283
906.389	3332
906.506	3237
906.623	3268
906.74	3294
906.857	3214
906.974	3264
907.091	3450
907.208	3572
907.324	3469
907.441	3359
907.557	3260
907.674	3256
907.79	3233
907.907	3256
908.023	3389
908.139	3367
908.256	3351
908.372	3367
908.488	3355
908.604	3275
908.72	3211
908.836	3264
908.952	3298
909.068	3336
909.184	3507
909.3	3359
909.415	3534
909.531	3409
909.647	3291
909.762	3329
909.878	3253
909.993	3351
910.108	3336
910.224	3332
910.339	3367
910.454	3351
910.57	3329
910.685	3283
910.8	3584
910.915	3549
911.03	3435
911.145	3272
911.259	3233
911.374	3313
911.489	3203
911.604	3230
911.718	3169
911.833	3150
911.947	3036
912.062	3001
912.176	3169
912.291	3195
912.405	3214
912.519	3397
912.633	3412
912.748	3355
912.862	3260
912.976	3188
913.09	3066
913.204	3138
913.318	3249
913.431	3340
913.545	3340
913.659	3401
913.772	3359
913.886	3256
914	3211
914.113	3378
914.226	3420
914.34	3374
914.453	3203
914.566	3435
914.68	3287
914.793	3306
914.906	3131
915.019	3127
915.132	3051
915.245	3180
915.358	3184
915.47	3256
915.583	3283
915.696	3340
915.809	3447
915.921	3409
916.034	3268
916.146	3268
916.259	3264
916.371	3405
916.483	3378
916.595	3260
916.708	3310
916.82	3336
916.932	3336
917.044	3359
917.156	3348
917.268	3241
917.38	3275
917.491	3275
917.603	3382
917.715	3454
917.826	3450
917.938	3416
918.049	3283
918.161	3420
918.272	3568
918.384	3599
918.495	3511
918.606	3340
918.717	3287
918.828	3401
918.939	3409
919.05	3287
919.161	3351
919.272	3161
919.383	3245
919.494	3511
919.604	3682
919.715	3473
919.826	3382
919.936	3454
920.047	3580
920.157	3545
920.267	3816
920.378	3610
920.488	3603
920.598	3724
920.708	3998
920.818	3789
920.928	3842
921.038	3983
921.148	3994
921.258	3675
921.368	3599
921.477	3580
921.587	3534
921.697	3477
921.806	3610
921.916	3523
922.025	3363
922.134	3363
922.244	3321
922.353	3435
922.462	3291
922.571	3218
922.68	3097
922.789	3074
922.898	3112
923.007	3081
923.116	3222
923.224	3188
923.333	3180
923.442	3066
923.55	3077
923.659	3135
923.767	3230
923.876	3123
923.984	3272
924.092	3131
924.201	3165
924.309	3253
924.417	3222
924.525	3195
924.633	3211
924.741	4177
924.849	3043
924.956	3268
925.064	3123
925.172	3043
925.279	3097
925.387	3207
925.494	3188
925.602	3397
925.709	3317
925.816	3146
925.924	3275
926.031	3409
926.138	3332
926.245	3378
926.352	3218
926.459	3409
926.566	3481
926.673	3359
926.779	3241
926.886	3253
926.993	3169
927.099	3131
927.206	3081
927.312	3138
927.419	3260
927.525	3218
927.631	3279
927.737	3146
927.843	3150
927.95	3047
928.056	3176
928.162	3173
928.267	3268
928.373	3918
928.479	3313
928.585	3116
928.69	3211
928.796	3275
928.901	3199
929.007	3058
929.112	3260
929.218	3226
929.323	3207
929.428	3207
929.533	3336
929.638	3173
929.743	3230
929.848	3279
929.953	3287
930.058	3192
930.163	3077
930.267	3112
930.372	3253
930.477	3089
930.581	3386
930.685	3222
930.79	3097
930.894	3150
930.998	3157
931.103	3332
931.207	2982
931.311	2960
931.415	2990
931.519	2811
931.623	2872
