Data from test_V78500241_1516.txt Node
Date: Fri Mar 25 16:25:42 CST 2022
User: usil
Spectrometer: V785-0024
Trigger mode: 0
Integration Time (sec): 4.000000E-1
Scans to average: 1
Nonlinearity correction enabled: false
Boxcar width: 0
Storing dark spectrum: false
XAxis mode: Wavelengths
Number of Pixels in Spectrum: 1024
>>>>>Begin Spectral Data<<<<<
801.071	2952
801.214	2998
801.356	2918
801.499	2944
801.641	2910
801.783	2948
801.926	3104
802.068	3005
802.211	3005
802.353	3036
802.496	2990
802.638	3017
802.78	3066
802.923	3100
803.065	3036
803.208	2864
803.35	2914
803.492	2990
803.635	2944
803.777	2804
803.919	2868
804.061	3230
804.204	2963
804.346	2910
804.488	2834
804.63	3001
804.773	2918
804.915	2914
805.057	3085
805.199	2956
805.341	3009
805.483	3089
805.626	3013
805.768	2960
805.91	3100
806.052	3119
806.194	3070
806.336	3268
806.478	3024
806.62	2956
806.762	2986
806.904	3085
807.046	3184
807.188	3039
807.33	2933
807.472	3055
807.614	2952
807.756	2998
807.898	2899
808.04	2899
808.182	3017
808.324	2963
808.465	2883
808.607	2883
808.749	2842
808.891	2868
809.033	3020
809.174	2986
809.316	2914
809.458	2891
809.6	2811
809.741	2796
809.883	2807
810.025	2868
810.166	2868
810.308	2845
810.45	2834
810.591	2823
810.733	2804
810.875	2861
811.016	2834
811.158	2804
811.299	2807
811.441	2941
811.582	2925
811.724	2853
811.865	2830
812.007	2918
812.148	2891
812.29	2891
812.431	2933
812.573	2948
812.714	2956
812.855	3039
812.997	3097
813.138	3127
813.279	3032
813.421	3005
813.562	2952
813.703	2899
813.845	2895
813.986	2807
814.127	2743
814.268	2838
814.41	2883
814.551	2819
814.692	2933
814.833	2807
814.974	2918
815.115	3009
815.256	2842
815.397	2826
815.539	2891
815.68	2823
815.821	2807
815.962	2979
816.103	2990
816.244	2876
816.385	2876
816.526	2994
816.666	2952
816.807	2785
816.948	2895
817.089	2941
817.23	2891
817.371	2811
817.512	2838
817.653	2853
817.793	2842
817.934	2868
818.075	2986
818.216	3032
818.356	3055
818.497	2948
818.638	2788
818.778	2845
818.919	2819
819.06	2724
819.2	2902
819.341	2823
819.481	2807
819.622	2948
819.762	3104
819.903	3070
820.043	2948
820.184	2887
820.324	2918
820.465	3028
820.605	3039
820.746	3024
820.886	2952
821.026	3131
821.167	3199
821.307	3268
821.447	3268
821.588	3230
821.728	3203
821.868	3268
822.008	3097
822.149	3211
822.289	3260
822.429	3104
822.569	3077
822.709	3195
822.849	3036
822.99	3089
823.13	3192
823.27	3230
823.41	3138
823.55	3146
823.69	3169
823.83	3230
823.97	3100
824.11	3028
824.25	3001
824.389	3070
824.529	3100
824.669	3089
824.809	3214
824.949	3279
825.089	3237
825.228	3138
825.368	3032
825.508	2956
825.648	2979
825.787	3058
825.927	3024
826.067	2994
826.206	2982
826.346	3051
826.485	3097
826.625	3097
826.765	3264
826.904	3211
827.044	3005
827.183	2941
827.323	2864
827.462	3013
827.601	2929
827.741	2941
827.88	2994
828.02	2834
828.159	2990
828.298	3055
828.437	3150
828.577	3058
828.716	3264
828.855	3097
828.994	2933
829.134	2941
829.273	2918
829.412	2864
829.551	2872
829.69	2895
829.829	2971
829.968	3108
830.107	3024
830.246	3005
830.385	2944
830.524	2887
830.663	2845
830.802	2750
830.941	2693
831.08	2644
831.219	2807
831.357	2777
831.496	2956
831.635	2781
831.774	2659
831.913	2689
832.051	2549
832.19	2590
832.329	2689
832.467	2526
832.606	2484
832.744	2590
832.883	2613
833.022	2610
833.16	2674
833.299	2705
833.437	2689
833.576	2743
833.714	2731
833.852	2743
833.991	2762
834.129	2830
834.267	2872
834.406	2788
834.544	2845
834.682	2864
834.821	2857
834.959	3081
835.097	2868
835.235	3066
835.373	3017
835.511	3009
835.65	2948
835.788	2975
835.926	2815
836.064	2830
836.202	2857
836.34	3097
836.478	3192
836.615	3039
836.753	3131
836.891	3184
837.029	3218
837.167	3123
837.305	3085
837.443	3066
837.58	2979
837.718	3146
837.856	3077
837.993	3036
838.131	3150
838.269	3104
838.406	3123
838.544	3100
838.681	2960
838.819	2952
838.956	2819
839.094	2872
839.231	2925
839.369	2998
839.506	3401
839.643	3218
839.781	3058
839.918	3001
840.055	3066
840.193	3028
840.33	3085
840.467	3123
840.604	3116
840.742	3462
840.879	3081
841.016	3043
841.153	3154
841.29	3329
841.427	3348
841.564	3275
841.701	3291
841.838	3287
841.975	3226
842.112	3173
842.249	3097
842.385	3043
842.522	3275
842.659	3104
842.796	3081
842.933	3100
843.069	3085
843.206	3036
843.343	3211
843.479	3100
843.616	3104
843.752	2910
843.889	2883
844.025	3058
844.162	2876
844.298	3081
844.435	2944
844.571	2948
844.708	3039
844.844	3214
844.98	3256
845.117	3165
845.253	3062
845.389	3032
845.525	3119
845.661	3081
845.798	3009
845.934	3131
846.07	3119
846.206	3203
846.342	3321
846.478	3249
846.614	3062
846.75	3074
846.886	3058
847.022	3207
847.158	3165
847.294	3226
847.429	3275
847.565	3241
847.701	3500
847.837	3058
847.972	3020
848.108	3165
848.244	3142
848.379	2967
848.515	2963
848.65	2944
848.786	2975
848.921	2998
849.057	3161
849.192	3150
849.328	3081
849.463	3127
849.598	3039
849.734	3085
849.869	3028
850.004	2914
850.14	2998
850.275	2883
850.41	2823
850.545	2902
850.68	2929
850.815	2967
850.95	2990
851.085	3218
851.22	3108
851.355	3066
851.49	2994
851.625	3032
851.76	3005
851.895	2941
852.03	2922
852.165	3055
852.299	3108
852.434	3211
852.569	3142
852.703	3195
852.838	3249
852.973	3382
853.107	3306
853.242	3165
853.376	3116
853.511	2990
853.645	3055
853.78	3230
853.914	3138
854.048	3135
854.183	3085
854.317	3180
854.451	3260
854.585	3104
854.72	3081
854.854	3222
854.988	3039
855.122	3062
855.256	2982
855.39	3104
855.524	3264
855.658	3154
855.792	3135
855.926	3184
856.06	3207
856.194	3298
856.327	3157
856.461	3043
856.595	3093
856.729	3131
856.862	3226
856.996	3146
857.13	3211
857.263	3218
857.397	3268
857.53	3157
857.664	3222
857.797	3264
857.931	3256
858.064	3192
858.197	3192
858.331	3150
858.464	3085
858.597	3013
858.731	3146
858.864	3100
858.997	3051
859.13	3142
859.263	3180
859.396	3199
859.529	3081
859.662	3085
859.795	3036
859.928	3173
860.061	3283
860.194	3336
860.327	3150
860.46	3055
860.592	3245
860.725	3283
860.858	3233
860.99	3112
861.123	3066
861.256	3036
861.388	3154
861.521	3941
861.653	3047
861.786	2967
861.918	3017
862.05	3055
862.183	3062
862.315	3142
862.447	3157
862.58	3119
862.712	2929
862.844	2887
862.976	3032
863.108	3013
863.24	3321
863.372	2880
863.504	2982
863.636	2925
863.768	2994
863.9	2986
864.032	2914
864.164	2937
864.296	3028
864.428	3062
864.559	3108
864.691	3119
864.823	3028
864.954	3077
865.086	3097
865.217	2975
865.349	2960
865.48	2982
865.612	3032
865.743	3150
865.875	3001
866.006	2933
866.137	2948
866.269	2967
866.4	2990
866.531	2944
866.662	2929
866.793	2891
866.924	2876
867.055	2979
867.186	2960
867.317	2872
867.448	2845
867.579	2853
867.71	2834
867.841	2804
867.972	2914
868.103	2887
868.233	2872
868.364	2876
868.495	2914
868.625	3074
868.756	3176
868.886	2960
869.017	3055
869.147	3180
869.278	3173
869.408	3062
869.539	3043
869.669	3077
869.799	3058
869.929	3142
870.06	3127
870.19	3275
870.32	3291
870.45	3306
870.58	3340
870.71	3454
870.84	3424
870.97	3294
871.1	3279
871.23	3477
871.36	3454
871.489	3367
871.619	3389
871.749	3412
871.879	3416
872.008	3447
872.138	3355
872.267	3268
872.397	3146
872.526	3089
872.656	3036
872.785	3112
872.915	3272
873.044	3355
873.173	3249
873.303	3279
873.432	3283
873.561	3256
873.69	3188
873.819	3150
873.948	3203
874.077	3127
874.206	3077
874.335	3085
874.464	3207
874.593	3367
874.722	3256
874.851	3382
874.979	3340
875.108	3351
875.237	3184
875.365	3165
875.494	3165
875.623	3230
875.751	3085
875.88	3097
876.008	3199
876.136	3237
876.265	3428
876.393	3515
876.521	3431
876.65	3409
876.778	3310
876.906	3245
877.034	3218
877.162	3253
877.29	3199
877.418	3260
877.546	3226
877.674	3226
877.802	3237
877.93	3169
878.058	3135
878.185	3119
878.313	3161
878.441	3222
878.568	3062
878.696	3131
878.824	3283
878.951	3287
879.079	3431
879.206	3614
879.333	3443
879.461	3355
879.588	3393
879.715	3473
879.842	3633
879.97	3389
880.097	3123
880.224	3138
880.351	3230
880.478	3203
880.605	3211
880.732	3180
880.859	3523
880.986	3287
881.112	3268
881.239	3188
881.366	3089
881.493	3036
881.619	3020
881.746	3017
881.872	3055
881.999	3097
882.125	3146
882.252	3233
882.378	3291
882.505	3424
882.631	3321
882.757	3173
882.883	3283
883.01	3230
883.136	3161
883.262	3100
883.388	3116
883.514	3291
883.64	3367
883.766	3313
883.892	3165
884.018	3253
884.143	3382
884.269	3553
884.395	3195
884.52	3169
884.646	3180
884.772	3127
884.897	3097
885.023	3195
885.148	3340
885.274	3416
885.399	3389
885.524	3253
885.65	3253
885.775	3302
885.9	3226
886.025	3450
886.15	3386
886.275	3310
886.4	3249
886.525	3294
886.65	3279
886.775	3260
886.9	3492
887.025	3633
887.149	3378
887.274	3211
887.399	3184
887.523	3211
887.648	3165
887.773	3188
887.897	3359
888.021	3397
888.146	3264
888.27	3458
888.395	3580
888.519	3405
888.643	3450
888.767	3431
888.891	3298
889.015	3279
889.139	3291
889.263	3249
889.387	3367
889.511	3519
889.635	3454
889.759	3294
889.883	3268
890.006	3424
890.13	3462
890.254	3245
890.377	3283
890.501	3157
890.624	3146
890.748	3298
890.871	3203
890.995	3108
891.118	3047
891.241	3184
891.364	3211
891.488	3340
891.611	3161
891.734	3241
891.857	3287
891.98	3260
892.103	3340
892.226	3272
892.349	3180
892.471	3085
892.594	3245
892.717	3302
892.839	3241
892.962	3321
893.085	3332
893.207	3321
893.33	3180
893.452	3222
893.575	3359
893.697	3245
893.819	3458
893.941	3492
894.064	3443
894.186	3245
894.308	3306
894.43	3405
894.552	3530
894.674	3466
894.796	3287
894.918	3321
895.04	3313
895.161	3416
895.283	3348
895.405	3317
895.526	3336
895.648	3462
895.769	3405
895.891	3466
896.012	3462
896.134	3458
896.255	3431
896.376	3378
896.498	3332
896.619	3428
896.74	3363
896.861	3374
896.982	3652
897.103	3876
897.224	3561
897.345	3511
897.466	3435
897.587	3526
897.708	3622
897.828	3534
897.949	3447
898.07	3298
898.19	3424
898.311	3595
898.431	3473
898.552	3473
898.672	3591
898.792	3576
898.913	3534
899.033	3428
899.153	3264
899.273	3253
899.393	3275
899.513	3298
899.633	3313
899.753	3348
899.873	3313
899.993	3420
900.113	3329
900.232	3386
900.352	3336
900.472	3283
900.591	3188
900.711	3302
900.83	3199
900.95	3378
901.069	3515
901.189	3332
901.308	3176
901.427	3116
901.546	3207
901.665	3260
901.784	3344
901.904	3226
902.023	3157
902.141	3009
902.26	3005
902.379	3135
902.498	3104
902.617	3074
902.735	3176
902.854	3237
902.973	3218
903.091	3036
903.21	3093
903.328	3146
903.446	3100
903.565	3081
903.683	3214
903.801	3127
903.919	3192
904.038	3264
904.156	3222
904.274	3321
904.392	3272
904.51	3279
904.627	3283
904.745	3424
904.863	3481
904.981	3230
905.098	3184
905.216	3268
905.334	3325
905.451	3302
905.569	3291
905.686	3431
905.803	3443
905.921	3283
906.038	3401
906.155	3363
906.272	3237
906.389	3363
906.506	3230
906.623	3264
906.74	3260
906.857	3199
906.974	3275
907.091	3416
907.208	3542
907.324	3500
907.441	3367
907.557	3241
907.674	3176
907.79	3199
907.907	3279
908.023	3359
908.139	3435
908.256	3332
908.372	3359
908.488	3386
908.604	3233
908.72	3260
908.836	3302
908.952	3287
909.068	3294
909.184	3500
909.3	3374
909.415	3492
909.531	3431
909.647	3245
909.762	3272
909.878	3275
909.993	3363
910.108	3336
910.224	3348
910.339	3386
910.454	3344
910.57	3283
910.685	3211
910.8	3584
910.915	3511
911.03	3454
911.145	3272
911.259	3272
911.374	3294
911.489	3253
911.604	3233
911.718	3135
911.833	3131
911.947	3051
912.062	3001
912.176	3112
912.291	3176
912.405	3188
912.519	3409
912.633	3492
912.748	3340
912.862	3283
912.976	3180
913.09	3062
913.204	3135
913.318	3211
913.431	3325
913.545	3291
913.659	3409
913.772	3344
913.886	3211
914	3165
914.113	3332
914.226	3428
914.34	3332
914.453	3176
914.566	3397
914.68	3272
914.793	3325
914.906	3123
915.019	3100
915.132	3066
915.245	3135
915.358	3169
915.47	3245
915.583	3253
915.696	3272
915.809	3393
915.921	3393
916.034	3230
916.146	3245
916.259	3230
916.371	3374
916.483	3348
916.595	3287
916.708	3306
916.82	3325
916.932	3363
917.044	3332
917.156	3329
917.268	3272
917.38	3302
917.491	3302
917.603	3348
917.715	3439
917.826	3458
917.938	3370
918.049	3294
918.161	3424
918.272	3591
918.384	3530
918.495	3481
918.606	3321
918.717	3302
918.828	3348
918.939	3420
919.05	3287
919.161	3321
919.272	3161
919.383	3268
919.494	3504
919.604	3705
919.715	3473
919.826	3412
919.936	3428
920.047	3561
920.157	3564
920.267	3778
920.378	3618
920.488	3545
920.598	3804
920.708	3918
920.818	3823
920.928	3861
921.038	3987
921.148	3964
921.258	3656
921.368	3603
921.477	3542
921.587	3519
921.697	3462
921.806	3656
921.916	3534
922.025	3317
922.134	3389
922.244	3302
922.353	3435
922.462	3279
922.571	3207
922.68	3070
922.789	3077
922.898	3142
923.007	3131
923.116	3192
923.224	3199
923.333	3195
923.442	3104
923.55	3097
923.659	3150
923.767	3226
923.876	3081
923.984	3214
924.092	3112
924.201	3218
924.309	3157
924.417	3249
924.525	3173
924.633	3207
924.741	4158
924.849	3070
924.956	3298
925.064	3070
925.172	3020
925.279	3131
925.387	3169
925.494	3188
925.602	3344
925.709	3336
925.816	3180
925.924	3283
926.031	3359
926.138	3336
926.245	3336
926.352	3283
926.459	3378
926.566	3469
926.673	3298
926.779	3260
926.886	3218
926.993	3146
927.099	3093
927.206	3085
927.312	3131
927.419	3222
927.525	3161
927.631	3275
927.737	3097
927.843	3119
927.95	3032
928.056	3142
928.162	3154
928.267	3226
928.373	3816
928.479	3298
928.585	3104
928.69	3237
928.796	3298
928.901	3161
929.007	3081
929.112	3184
929.218	3176
929.323	3154
929.428	3116
929.533	3321
929.638	3112
929.743	3146
929.848	3260
929.953	3218
930.058	3142
930.163	3013
930.267	3058
930.372	3192
930.477	3028
930.581	3298
930.685	3203
930.79	3066
930.894	3131
930.998	3077
931.103	3237
931.207	2971
931.311	2963
931.415	2902
931.519	2773
931.623	2792
