Data from test_V78500241_1624.txt Node
Date: Fri Mar 25 16:26:27 CST 2022
User: usil
Spectrometer: V785-0024
Trigger mode: 0
Integration Time (sec): 4.000000E-1
Scans to average: 1
Nonlinearity correction enabled: false
Boxcar width: 0
Storing dark spectrum: false
XAxis mode: Wavelengths
Number of Pixels in Spectrum: 1024
>>>>>Begin Spectral Data<<<<<
801.071	2986
801.214	2971
801.356	2857
801.499	2895
801.641	2883
801.783	2922
801.926	3051
802.068	2982
802.211	3017
802.353	3055
802.496	2960
802.638	3028
802.78	3070
802.923	3066
803.065	3017
803.208	2925
803.35	2944
803.492	2975
803.635	2910
803.777	2762
803.919	2880
804.061	3199
804.204	2975
804.346	2941
804.488	2891
804.63	3009
804.773	2880
804.915	2952
805.057	3093
805.199	2914
805.341	3017
805.483	3028
805.626	2956
805.768	2960
805.91	3081
806.052	3157
806.194	3009
806.336	3256
806.478	3039
806.62	2948
806.762	3013
806.904	3051
807.046	3169
807.188	3013
807.33	2963
807.472	2963
807.614	2933
807.756	3028
807.898	2925
808.04	2891
808.182	2933
808.324	2941
808.465	2914
808.607	2887
808.749	2781
808.891	2880
809.033	2971
809.174	2952
809.316	2857
809.458	2895
809.6	2724
809.741	2750
809.883	2777
810.025	2861
810.166	2880
810.308	2861
810.45	2849
810.591	2830
810.733	2785
810.875	2830
811.016	2766
811.158	2781
811.299	2819
811.441	2941
811.582	2895
811.724	2811
811.865	2842
812.007	2910
812.148	2880
812.29	2826
812.431	2880
812.573	2948
812.714	2944
812.855	3039
812.997	3051
813.138	3119
813.279	2998
813.421	2982
813.562	2960
813.703	2887
813.845	2880
813.986	2750
814.127	2720
814.268	2823
814.41	2804
814.551	2815
814.692	2868
814.833	2773
814.974	2883
815.115	2944
815.256	2800
815.397	2781
815.539	2880
815.68	2773
815.821	2792
815.962	2941
816.103	2918
816.244	2864
816.385	2849
816.526	2952
816.666	2883
816.807	2754
816.948	2857
817.089	2902
817.23	2868
817.371	2804
817.512	2823
817.653	2819
817.793	2842
817.934	2872
818.075	2944
818.216	2986
818.356	2998
818.497	2853
818.638	2781
818.778	2804
818.919	2766
819.06	2762
819.2	2864
819.341	2769
819.481	2777
819.622	2902
819.762	3070
819.903	3047
820.043	2895
820.184	2925
820.324	2902
820.465	3001
820.605	2998
820.746	3005
820.886	2918
821.026	3077
821.167	3169
821.307	3230
821.447	3245
821.588	3222
821.728	3192
821.868	3188
822.008	3062
822.149	3173
822.289	3237
822.429	3043
822.569	3085
822.709	3192
822.849	3047
822.99	3085
823.13	3135
823.27	3199
823.41	3097
823.55	3138
823.69	3176
823.83	3188
823.97	3100
824.11	2956
824.25	3005
824.389	3066
824.529	3142
824.669	3066
824.809	3154
824.949	3226
825.089	3207
825.228	3157
825.368	2990
825.508	2933
825.648	2933
825.787	3005
825.927	3009
826.067	2967
826.206	2971
826.346	3058
826.485	3055
826.625	3100
826.765	3268
826.904	3203
827.044	3009
827.183	2967
827.323	2906
827.462	2979
827.601	2929
827.741	2952
827.88	2986
828.02	2857
828.159	2994
828.298	3055
828.437	3119
828.577	3093
828.716	3199
828.855	3116
828.994	2963
829.134	2910
829.273	2960
829.412	2902
829.551	2876
829.69	2906
829.829	3028
829.968	3161
830.107	3028
830.246	3043
830.385	2975
830.524	2895
830.663	2826
830.802	2800
830.941	2682
831.08	2686
831.219	2785
831.357	2785
831.496	2944
831.635	2769
831.774	2708
831.913	2689
832.051	2621
832.19	2613
832.329	2731
832.467	2545
832.606	2533
832.744	2625
832.883	2610
833.022	2640
833.16	2701
833.299	2716
833.437	2766
833.576	2705
833.714	2781
833.852	2758
833.991	2788
834.129	2895
834.267	2891
834.406	2830
834.544	2883
834.682	2891
834.821	2899
834.959	3119
835.097	2937
835.235	3119
835.373	3028
835.511	3043
835.65	2982
835.788	3005
835.926	2849
836.064	2845
836.202	2910
836.34	3127
836.478	3226
836.615	3116
836.753	3127
836.891	3233
837.029	3195
837.167	3127
837.305	3085
837.443	3097
837.58	2967
837.718	3188
837.856	3108
837.993	3051
838.131	3135
838.269	3154
838.406	3108
838.544	3077
838.681	2960
838.819	2994
838.956	2838
839.094	2838
839.231	2960
839.369	3089
839.506	3378
839.643	3264
839.781	3066
839.918	3024
840.055	3089
840.193	3085
840.33	3077
840.467	3127
840.604	3184
840.742	3454
840.879	3055
841.016	3089
841.153	3150
841.29	3367
841.427	3348
841.564	3283
841.701	3329
841.838	3237
841.975	3245
842.112	3275
842.249	3097
842.385	3077
842.522	3275
842.659	3116
842.796	3119
842.933	3127
843.069	3108
843.206	3127
843.343	3157
843.479	3173
843.616	3161
843.752	2906
843.889	2895
844.025	3104
844.162	2933
844.298	3089
844.435	2982
844.571	2925
844.708	3104
844.844	3188
844.98	3287
845.117	3237
845.253	3104
845.389	3013
845.525	3104
845.661	3146
845.798	2975
845.934	3161
846.07	3070
846.206	3279
846.342	3351
846.478	3249
846.614	3142
846.75	3055
846.886	3055
847.022	3245
847.158	3192
847.294	3253
847.429	3275
847.565	3195
847.701	3511
847.837	3058
847.972	3062
848.108	3207
848.244	3192
848.379	2998
848.515	2967
848.65	2952
848.786	2990
848.921	3043
849.057	3169
849.192	3199
849.328	3097
849.463	3146
849.598	3108
849.734	3032
849.869	3028
850.004	2925
850.14	2990
850.275	2933
850.41	2880
850.545	2910
850.68	2948
850.815	3001
850.95	3017
851.085	3241
851.22	3173
851.355	3043
851.49	3013
851.625	3032
851.76	3055
851.895	2971
852.03	2960
852.165	3066
852.299	3104
852.434	3199
852.569	3188
852.703	3192
852.838	3291
852.973	3340
853.107	3363
853.242	3180
853.376	3135
853.511	3009
853.645	3062
853.78	3275
853.914	3131
854.048	3169
854.183	3123
854.317	3157
854.451	3317
854.585	3169
854.72	3146
854.854	3264
854.988	3112
855.122	3100
855.256	3024
855.39	3165
855.524	3253
855.658	3226
855.792	3226
855.926	3214
856.06	3253
856.194	3272
856.327	3173
856.461	3085
856.595	3116
856.729	3108
856.862	3226
856.996	3233
857.13	3222
857.263	3241
857.397	3321
857.53	3150
857.664	3230
857.797	3298
857.931	3279
858.064	3192
858.197	3245
858.331	3192
858.464	3123
858.597	3055
858.731	3207
858.864	3123
858.997	3135
859.13	3161
859.263	3188
859.396	3207
859.529	3104
859.662	3116
859.795	3085
859.928	3150
860.061	3302
860.194	3313
860.327	3173
860.46	3089
860.592	3268
860.725	3237
860.858	3306
860.99	3138
861.123	3070
861.256	3066
861.388	3173
861.521	3850
861.653	3047
861.786	2986
861.918	3051
862.05	3116
862.183	3085
862.315	3176
862.447	3211
862.58	3097
862.712	2982
862.844	2880
862.976	3066
863.108	3055
863.24	3348
863.372	2899
863.504	2994
863.636	2971
863.768	3039
863.9	3001
864.032	2925
864.164	2990
864.296	3055
864.428	3127
864.559	3119
864.691	3097
864.823	3138
864.954	3043
865.086	3062
865.217	3017
865.349	3001
865.48	3013
865.612	3043
865.743	3180
865.875	3039
866.006	2998
866.137	3043
866.269	2956
866.4	2971
866.531	2982
866.662	2914
866.793	2941
866.924	2918
867.055	2990
867.186	2952
867.317	2914
867.448	2830
867.579	2872
867.71	2872
867.841	2845
867.972	2956
868.103	2906
868.233	2887
868.364	2876
868.495	2902
868.625	3104
868.756	3207
868.886	3013
869.017	3055
869.147	3199
869.278	3207
869.408	3116
869.539	3032
869.669	3142
869.799	3043
869.929	3165
870.06	3146
870.19	3329
870.32	3317
870.45	3317
870.58	3405
870.71	3500
870.84	3466
870.97	3359
871.1	3275
871.23	3526
871.36	3496
871.489	3363
871.619	3439
871.749	3450
871.879	3485
872.008	3477
872.138	3351
872.267	3344
872.397	3100
872.526	3157
872.656	3051
872.785	3112
872.915	3264
873.044	3355
873.173	3245
873.303	3268
873.432	3268
873.561	3264
873.69	3176
873.819	3176
873.948	3211
874.077	3157
874.206	3074
874.335	3112
874.464	3245
874.593	3359
874.722	3283
874.851	3401
874.979	3389
875.108	3298
875.237	3237
875.365	3169
875.494	3173
875.623	3294
875.751	3097
875.88	3112
876.008	3230
876.136	3237
876.265	3382
876.393	3515
876.521	3435
876.65	3401
876.778	3386
876.906	3264
877.034	3226
877.162	3230
877.29	3192
877.418	3268
877.546	3237
877.674	3310
877.802	3249
877.93	3222
878.058	3169
878.185	3135
878.313	3222
878.441	3226
878.568	3058
878.696	3184
878.824	3241
878.951	3321
879.079	3481
879.206	3622
879.333	3496
879.461	3344
879.588	3359
879.715	3500
879.842	3580
879.97	3386
880.097	3203
880.224	3195
880.351	3214
880.478	3264
880.605	3222
880.732	3218
880.859	3496
880.986	3264
881.112	3348
881.239	3165
881.366	3104
881.493	3047
881.619	3001
881.746	3089
881.872	3089
881.999	3123
882.125	3192
882.252	3279
882.378	3313
882.505	3485
882.631	3321
882.757	3230
882.883	3230
883.01	3256
883.136	3192
883.262	3097
883.388	3138
883.514	3306
883.64	3412
883.766	3321
883.892	3218
884.018	3287
884.143	3458
884.269	3530
884.395	3226
884.52	3169
884.646	3180
884.772	3180
884.897	3112
885.023	3203
885.148	3340
885.274	3424
885.399	3401
885.524	3313
885.65	3283
885.775	3340
885.9	3256
886.025	3424
886.15	3386
886.275	3336
886.4	3256
886.525	3306
886.65	3329
886.775	3283
886.9	3526
887.025	3652
887.149	3466
887.274	3302
887.399	3218
887.523	3207
887.648	3211
887.773	3237
887.897	3374
888.021	3416
888.146	3291
888.27	3439
888.395	3576
888.519	3424
888.643	3469
888.767	3488
888.891	3329
889.015	3237
889.139	3298
889.263	3256
889.387	3412
889.511	3526
889.635	3447
889.759	3279
889.883	3336
890.006	3420
890.13	3496
890.254	3306
890.377	3367
890.501	3222
890.624	3207
890.748	3340
890.871	3184
890.995	3142
891.118	3043
891.241	3230
891.364	3253
891.488	3351
891.611	3199
891.734	3222
891.857	3329
891.98	3245
892.103	3321
892.226	3298
892.349	3230
892.471	3165
892.594	3287
892.717	3260
892.839	3245
892.962	3283
893.085	3370
893.207	3313
893.33	3173
893.452	3207
893.575	3344
893.697	3253
893.819	3450
893.941	3477
894.064	3431
894.186	3260
894.308	3310
894.43	3462
894.552	3492
894.674	3492
894.796	3294
894.918	3340
895.04	3340
895.161	3412
895.283	3409
895.405	3359
895.526	3382
895.648	3458
895.769	3424
895.891	3450
896.012	3500
896.134	3485
896.255	3424
896.376	3405
896.498	3374
896.619	3466
896.74	3370
896.861	3382
896.982	3663
897.103	3880
897.224	3580
897.345	3542
897.466	3450
897.587	3507
897.708	3587
897.828	3553
897.949	3473
898.07	3310
898.19	3428
898.311	3599
898.431	3447
898.552	3534
898.672	3614
898.792	3557
898.913	3561
899.033	3439
899.153	3332
899.273	3275
899.393	3264
899.513	3374
899.633	3306
899.753	3363
899.873	3321
899.993	3370
900.113	3306
900.232	3397
900.352	3317
900.472	3291
900.591	3207
900.711	3313
900.83	3260
900.95	3409
901.069	3485
901.189	3378
901.308	3165
901.427	3135
901.546	3184
901.665	3253
901.784	3363
901.904	3195
902.023	3165
902.141	3043
902.26	2986
902.379	3119
902.498	3089
902.617	3055
902.735	3241
902.854	3245
902.973	3207
903.091	3043
903.21	3070
903.328	3180
903.446	3119
903.565	3142
903.683	3245
903.801	3138
903.919	3287
904.038	3329
904.156	3237
904.274	3302
904.392	3279
904.51	3294
904.627	3370
904.745	3462
904.863	3500
904.981	3310
905.098	3195
905.216	3226
905.334	3313
905.451	3317
905.569	3298
905.686	3435
905.803	3469
905.921	3272
906.038	3458
906.155	3382
906.272	3272
906.389	3351
906.506	3253
906.623	3264
906.74	3268
906.857	3195
906.974	3233
907.091	3439
907.208	3530
907.324	3488
907.441	3355
907.557	3222
907.674	3260
907.79	3192
907.907	3317
908.023	3428
908.139	3389
908.256	3287
908.372	3355
908.488	3397
908.604	3279
908.72	3272
908.836	3298
908.952	3294
909.068	3348
909.184	3492
909.3	3393
909.415	3485
909.531	3477
909.647	3294
909.762	3359
909.878	3287
909.993	3405
910.108	3359
910.224	3348
910.339	3431
910.454	3351
910.57	3272
910.685	3253
910.8	3606
910.915	3515
911.03	3412
911.145	3275
911.259	3214
911.374	3340
911.489	3260
911.604	3253
911.718	3116
911.833	3157
911.947	3043
912.062	3017
912.176	3184
912.291	3161
912.405	3233
912.519	3428
912.633	3420
912.748	3344
912.862	3283
912.976	3161
913.09	3066
913.204	3104
913.318	3214
913.431	3298
913.545	3332
913.659	3412
913.772	3332
913.886	3253
914	3169
914.113	3389
914.226	3439
914.34	3393
914.453	3203
914.566	3409
914.68	3298
914.793	3302
914.906	3169
915.019	3180
915.132	3097
915.245	3184
915.358	3207
915.47	3241
915.583	3260
915.696	3321
915.809	3416
915.921	3412
916.034	3245
916.146	3310
916.259	3199
916.371	3428
916.483	3378
916.595	3294
916.708	3374
916.82	3325
916.932	3370
917.044	3351
917.156	3374
917.268	3241
917.38	3348
917.491	3310
917.603	3389
917.715	3450
917.826	3473
917.938	3389
918.049	3245
918.161	3443
918.272	3591
918.384	3568
918.495	3466
918.606	3329
918.717	3272
918.828	3454
918.939	3454
919.05	3313
919.161	3382
919.272	3161
919.383	3306
919.494	3485
919.604	3724
919.715	3511
919.826	3389
919.936	3500
920.047	3549
920.157	3549
920.267	3755
920.378	3595
920.488	3606
920.598	3785
920.708	3953
920.818	3770
920.928	3812
921.038	3991
921.148	3994
921.258	3728
921.368	3656
921.477	3625
921.587	3515
921.697	3454
921.806	3603
921.916	3507
922.025	3363
922.134	3351
922.244	3329
922.353	3420
922.462	3279
922.571	3275
922.68	3119
922.789	3051
922.898	3169
923.007	3070
923.116	3207
923.224	3173
923.333	3188
923.442	3116
923.55	3051
923.659	3142
923.767	3241
923.876	3123
923.984	3237
924.092	3119
924.201	3199
924.309	3207
924.417	3249
924.525	3192
924.633	3264
924.741	4219
924.849	3043
924.956	3298
925.064	3093
925.172	3043
925.279	3093
925.387	3226
925.494	3233
925.602	3348
925.709	3317
925.816	3218
925.924	3268
926.031	3409
926.138	3302
926.245	3374
926.352	3260
926.459	3439
926.566	3450
926.673	3321
926.779	3302
926.886	3287
926.993	3154
927.099	3100
927.206	3097
927.312	3135
927.419	3222
927.525	3184
927.631	3256
927.737	3135
927.843	3131
927.95	3001
928.056	3157
928.162	3165
928.267	3233
928.373	3850
928.479	3310
928.585	3051
928.69	3207
928.796	3272
928.901	3176
929.007	3036
929.112	3237
929.218	3199
929.323	3195
929.428	3161
929.533	3298
929.638	3127
929.743	3161
929.848	3264
929.953	3241
930.058	3165
930.163	3009
930.267	3070
930.372	3180
930.477	3074
930.581	3329
930.685	3142
930.79	3089
930.894	3138
930.998	3097
931.103	3313
931.207	3017
931.311	2960
931.415	2895
931.519	2777
931.623	2800
