Data from test_V78500241_834.txt Node
Date: Fri Mar 25 16:20:58 CST 2022
User: usil
Spectrometer: V785-0024
Trigger mode: 0
Integration Time (sec): 4.000000E-1
Scans to average: 1
Nonlinearity correction enabled: false
Boxcar width: 0
Storing dark spectrum: false
XAxis mode: Wavelengths
Number of Pixels in Spectrum: 1024
>>>>>Begin Spectral Data<<<<<
801.071	2922
801.214	2937
801.356	2872
801.499	2887
801.641	2857
801.783	2925
801.926	3024
802.068	2994
802.211	2982
802.353	2971
802.496	2948
802.638	3005
802.78	3024
802.923	3047
803.065	2971
803.208	2937
803.35	2906
803.492	2925
803.635	2899
803.777	2773
803.919	2887
804.061	3207
804.204	2933
804.346	2922
804.488	2819
804.63	2948
804.773	2876
804.915	2857
805.057	3085
805.199	2925
805.341	2971
805.483	3043
805.626	2990
805.768	2956
805.91	3070
806.052	3123
806.194	3077
806.336	3260
806.478	3028
806.62	2963
806.762	2975
806.904	3074
807.046	3157
807.188	2998
807.33	2899
807.472	3013
807.614	2861
807.756	2975
807.898	2914
808.04	2906
808.182	2967
808.324	2937
808.465	2853
808.607	2899
808.749	2807
808.891	2838
809.033	2967
809.174	2967
809.316	2895
809.458	2914
809.6	2788
809.741	2754
809.883	2773
810.025	2838
810.166	2857
810.308	2857
810.45	2872
810.591	2754
810.733	2758
810.875	2838
811.016	2727
811.158	2754
811.299	2792
811.441	2906
811.582	2899
811.724	2815
811.865	2849
812.007	2922
812.148	2876
812.29	2849
812.431	2861
812.573	2922
812.714	2948
812.855	3036
812.997	3039
813.138	3135
813.279	3005
813.421	2990
813.562	2952
813.703	2830
813.845	2845
813.986	2781
814.127	2754
814.268	2819
814.41	2853
814.551	2811
814.692	2891
814.833	2804
814.974	2902
815.115	2941
815.256	2861
815.397	2807
815.539	2864
815.68	2781
815.821	2758
815.962	2929
816.103	2922
816.244	2895
816.385	2895
816.526	2963
816.666	2902
816.807	2762
816.948	2868
817.089	2910
817.23	2842
817.371	2769
817.512	2800
817.653	2883
817.793	2842
817.934	2887
818.075	2967
818.216	2982
818.356	3009
818.497	2861
818.638	2781
818.778	2823
818.919	2792
819.06	2766
819.2	2929
819.341	2807
819.481	2819
819.622	2922
819.762	3100
819.903	3005
820.043	2925
820.184	2914
820.324	2914
820.465	3020
820.605	3005
820.746	3009
820.886	2933
821.026	3119
821.167	3157
821.307	3233
821.447	3310
821.588	3195
821.728	3154
821.868	3180
822.008	3043
822.149	3173
822.289	3233
822.429	3131
822.569	3093
822.709	3211
822.849	2994
822.99	3036
823.13	3146
823.27	3199
823.41	3100
823.55	3127
823.69	3135
823.83	3188
823.97	3089
824.11	2998
824.25	2986
824.389	3058
824.529	3131
824.669	3097
824.809	3207
824.949	3230
825.089	3260
825.228	3142
825.368	2990
825.508	2941
825.648	2967
825.787	2994
825.927	3024
826.067	2971
826.206	2952
826.346	3055
826.485	3047
826.625	3104
826.765	3249
826.904	3195
827.044	3009
827.183	2891
827.323	2853
827.462	2982
827.601	2918
827.741	2868
827.88	2941
828.02	2864
828.159	2998
828.298	3047
828.437	3116
828.577	3032
828.716	3218
828.855	3062
828.994	2887
829.134	2853
829.273	2891
829.412	2849
829.551	2880
829.69	2910
829.829	2986
829.968	3100
830.107	3005
830.246	3047
830.385	2929
830.524	2861
830.663	2838
830.802	2739
830.941	2579
831.08	2640
831.219	2769
831.357	2724
831.496	2929
831.635	2686
831.774	2602
831.913	2629
832.051	2522
832.19	2556
832.329	2655
832.467	2514
832.606	2473
832.744	2552
832.883	2594
833.022	2625
833.16	2636
833.299	2659
833.437	2712
833.576	2689
833.714	2705
833.852	2712
833.991	2743
834.129	2819
834.267	2788
834.406	2788
834.544	2845
834.682	2876
834.821	2872
834.959	3051
835.097	2876
835.235	3055
835.373	3005
835.511	3005
835.65	2963
835.788	2967
835.926	2826
836.064	2834
836.202	2845
836.34	3066
836.478	3123
836.615	3020
836.753	3116
836.891	3192
837.029	3119
837.167	3116
837.305	3066
837.443	3047
837.58	2937
837.718	3161
837.856	3070
837.993	2998
838.131	3104
838.269	3104
838.406	3104
838.544	3093
838.681	2960
838.819	2902
838.956	2800
839.094	2811
839.231	2918
839.369	3005
839.506	3359
839.643	3207
839.781	3013
839.918	2975
840.055	3047
840.193	3047
840.33	3070
840.467	3116
840.604	3119
840.742	3435
840.879	3043
841.016	3062
841.153	3123
841.29	3321
841.427	3294
841.564	3249
841.701	3321
841.838	3218
841.975	3173
842.112	3188
842.249	3085
842.385	3001
842.522	3294
842.659	3093
842.796	3070
842.933	3108
843.069	3009
843.206	3032
843.343	3207
843.479	3081
843.616	3142
843.752	2914
843.889	2895
844.025	3104
844.162	2868
844.298	3093
844.435	2925
844.571	2933
844.708	3051
844.844	3176
844.98	3211
845.117	3230
845.253	3039
845.389	3013
845.525	3085
845.661	3085
845.798	3013
845.934	3154
846.07	3051
846.206	3233
846.342	3287
846.478	3169
846.614	3051
846.75	3036
846.886	3028
847.022	3241
847.158	3108
847.294	3173
847.429	3283
847.565	3176
847.701	3473
847.837	3024
847.972	3001
848.108	3142
848.244	3161
848.379	2994
848.515	2963
848.65	2929
848.786	2990
848.921	3001
849.057	3077
849.192	3150
849.328	3047
849.463	3108
849.598	3066
849.734	3028
849.869	3009
850.004	2891
850.14	2952
850.275	2906
850.41	2857
850.545	2895
850.68	2922
850.815	2918
850.95	2941
851.085	3169
851.22	3070
851.355	3066
851.49	2933
851.625	2990
851.76	3013
851.895	2948
852.03	2880
852.165	3032
852.299	3142
852.434	3195
852.569	3135
852.703	3142
852.838	3256
852.973	3348
853.107	3306
853.242	3142
853.376	3097
853.511	2971
853.645	3043
853.78	3237
853.914	3100
854.048	3070
854.183	3043
854.317	3112
854.451	3283
854.585	3127
854.72	3093
854.854	3226
854.988	3058
855.122	3093
855.256	2941
855.39	3138
855.524	3245
855.658	3150
855.792	3169
855.926	3173
856.06	3169
856.194	3287
856.327	3154
856.461	3097
856.595	3093
856.729	3104
856.862	3207
856.996	3180
857.13	3176
857.263	3241
857.397	3260
857.53	3104
857.664	3165
857.797	3253
857.931	3268
858.064	3169
858.197	3214
858.331	3108
858.464	3047
858.597	3001
858.731	3093
858.864	3097
858.997	3085
859.13	3135
859.263	3127
859.396	3165
859.529	3085
859.662	3085
859.795	3047
859.928	3127
860.061	3264
860.194	3283
860.327	3135
860.46	3127
860.592	3203
860.725	3226
860.858	3233
860.99	3112
861.123	3058
861.256	3058
861.388	3116
861.521	3934
861.653	3020
861.786	2971
861.918	2979
862.05	3043
862.183	3074
862.315	3138
862.447	3199
862.58	3093
862.712	2941
862.844	2872
862.976	2994
863.108	2975
863.24	3302
863.372	2876
863.504	2933
863.636	2948
863.768	3020
863.9	2990
864.032	2925
864.164	2967
864.296	3047
864.428	3085
864.559	3062
864.691	3085
864.823	3058
864.954	3028
865.086	3020
865.217	3009
865.349	2963
865.48	2975
865.612	2998
865.743	3119
865.875	2963
866.006	2948
866.137	2998
866.269	2929
866.4	2899
866.531	2925
866.662	2906
866.793	2895
866.924	2883
867.055	2956
867.186	2899
867.317	2849
867.448	2857
867.579	2853
867.71	2857
867.841	2804
867.972	2929
868.103	2910
868.233	2883
868.364	2876
868.495	2902
868.625	3085
868.756	3131
868.886	2971
869.017	3051
869.147	3138
869.278	3173
869.408	3074
869.539	3036
869.669	3085
869.799	3005
869.929	3142
870.06	3070
870.19	3287
870.32	3317
870.45	3306
870.58	3355
870.71	3481
870.84	3443
870.97	3279
871.1	3241
871.23	3439
871.36	3462
871.489	3397
871.619	3397
871.749	3393
871.879	3447
872.008	3466
872.138	3351
872.267	3256
872.397	3135
872.526	3104
872.656	3001
872.785	3081
872.915	3192
873.044	3279
873.173	3207
873.303	3230
873.432	3272
873.561	3249
873.69	3195
873.819	3108
873.948	3173
874.077	3116
874.206	3024
874.335	3100
874.464	3207
874.593	3355
874.722	3226
874.851	3389
874.979	3393
875.108	3344
875.237	3207
875.365	3169
875.494	3157
875.623	3256
875.751	3043
875.88	3081
876.008	3214
876.136	3241
876.265	3363
876.393	3530
876.521	3428
876.65	3382
876.778	3317
876.906	3264
877.034	3195
877.162	3199
877.29	3154
877.418	3260
877.546	3233
877.674	3211
877.802	3249
877.93	3230
878.058	3165
878.185	3077
878.313	3180
878.441	3211
878.568	3062
878.696	3097
878.824	3207
878.951	3287
879.079	3443
879.206	3637
879.333	3450
879.461	3317
879.588	3355
879.715	3511
879.842	3599
879.97	3370
880.097	3169
880.224	3097
880.351	3211
880.478	3226
880.605	3199
880.732	3165
880.859	3523
880.986	3279
881.112	3291
881.239	3192
881.366	3112
881.493	3032
881.619	2998
881.746	3066
881.872	3135
881.999	3093
882.125	3173
882.252	3249
882.378	3275
882.505	3450
882.631	3313
882.757	3135
882.883	3195
883.01	3253
883.136	3161
883.262	3112
883.388	3077
883.514	3348
883.64	3393
883.766	3298
883.892	3176
884.018	3237
884.143	3378
884.269	3530
884.395	3176
884.52	3135
884.646	3211
884.772	3081
884.897	3085
885.023	3245
885.148	3363
885.274	3382
885.399	3355
885.524	3287
885.65	3256
885.775	3291
885.9	3294
886.025	3409
886.15	3370
886.275	3291
886.4	3256
886.525	3279
886.65	3249
886.775	3260
886.9	3458
887.025	3610
887.149	3481
887.274	3241
887.399	3176
887.523	3169
887.648	3169
887.773	3184
887.897	3344
888.021	3374
888.146	3298
888.27	3454
888.395	3553
888.519	3431
888.643	3424
888.767	3447
888.891	3313
889.015	3253
889.139	3298
889.263	3233
889.387	3416
889.511	3504
889.635	3416
889.759	3264
889.883	3306
890.006	3389
890.13	3469
890.254	3268
890.377	3317
890.501	3199
890.624	3203
890.748	3298
890.871	3154
890.995	3104
891.118	3066
891.241	3180
891.364	3226
891.488	3321
891.611	3165
891.734	3230
891.857	3287
891.98	3233
892.103	3389
892.226	3256
892.349	3241
892.471	3131
892.594	3237
892.717	3272
892.839	3237
892.962	3279
893.085	3348
893.207	3321
893.33	3192
893.452	3176
893.575	3310
893.697	3237
893.819	3469
893.941	3477
894.064	3469
894.186	3245
894.308	3302
894.43	3431
894.552	3523
894.674	3469
894.796	3275
894.918	3317
895.04	3268
895.161	3412
895.283	3363
895.405	3325
895.526	3355
895.648	3393
895.769	3416
895.891	3443
896.012	3454
896.134	3477
896.255	3412
896.376	3382
896.498	3374
896.619	3424
896.74	3355
896.861	3382
896.982	3690
897.103	3831
897.224	3591
897.345	3511
897.466	3409
897.587	3496
897.708	3614
897.828	3492
897.949	3412
898.07	3306
898.19	3420
898.311	3603
898.431	3488
898.552	3500
898.672	3584
898.792	3561
898.913	3466
899.033	3428
899.153	3253
899.273	3249
899.393	3291
899.513	3268
899.633	3306
899.753	3359
899.873	3298
899.993	3378
900.113	3351
900.232	3363
900.352	3329
900.472	3294
900.591	3233
900.711	3264
900.83	3230
900.95	3382
901.069	3466
901.189	3336
901.308	3188
901.427	3108
901.546	3192
901.665	3272
901.784	3329
901.904	3222
902.023	3154
902.141	2986
902.26	2994
902.379	3138
902.498	3089
902.617	3058
902.735	3176
902.854	3241
902.973	3237
903.091	3036
903.21	3058
903.328	3165
903.446	3123
903.565	3108
903.683	3188
903.801	3138
903.919	3249
904.038	3245
904.156	3123
904.274	3310
904.392	3245
904.51	3291
904.627	3321
904.745	3409
904.863	3435
904.981	3268
905.098	3173
905.216	3222
905.334	3283
905.451	3249
905.569	3313
905.686	3424
905.803	3458
905.921	3260
906.038	3428
906.155	3370
906.272	3249
906.389	3313
906.506	3264
906.623	3207
906.74	3253
906.857	3180
906.974	3294
907.091	3416
907.208	3545
907.324	3462
907.441	3344
907.557	3214
907.674	3268
907.79	3218
907.907	3287
908.023	3367
908.139	3359
908.256	3363
908.372	3378
908.488	3363
908.604	3241
908.72	3249
908.836	3275
908.952	3306
909.068	3344
909.184	3485
909.3	3378
909.415	3507
909.531	3462
909.647	3256
909.762	3294
909.878	3256
909.993	3374
910.108	3367
910.224	3344
910.339	3382
910.454	3310
910.57	3275
910.685	3233
910.8	3561
910.915	3542
911.03	3416
911.145	3199
911.259	3245
911.374	3332
911.489	3245
911.604	3256
911.718	3116
911.833	3123
911.947	3017
912.062	2990
912.176	3146
912.291	3195
912.405	3188
912.519	3412
912.633	3439
912.748	3355
912.862	3275
912.976	3154
913.09	3066
913.204	3150
913.318	3180
913.431	3348
913.545	3306
913.659	3397
913.772	3336
913.886	3230
914	3169
914.113	3359
914.226	3420
914.34	3336
914.453	3199
914.566	3378
914.68	3279
914.793	3268
914.906	3100
915.019	3112
915.132	3058
915.245	3184
915.358	3176
915.47	3256
915.583	3245
915.696	3253
915.809	3389
915.921	3393
916.034	3275
916.146	3218
916.259	3230
916.371	3405
916.483	3340
916.595	3245
916.708	3340
916.82	3321
916.932	3321
917.044	3294
917.156	3340
917.268	3253
917.38	3275
917.491	3287
917.603	3363
917.715	3443
917.826	3443
917.938	3351
918.049	3302
918.161	3420
918.272	3568
918.384	3591
918.495	3424
918.606	3291
918.717	3260
918.828	3397
918.939	3409
919.05	3291
919.161	3389
919.272	3176
919.383	3245
919.494	3481
919.604	3694
919.715	3500
919.826	3412
919.936	3409
920.047	3595
920.157	3538
920.267	3774
920.378	3587
920.488	3496
920.598	3785
920.708	3960
920.818	3846
920.928	3797
921.038	3994
921.148	3945
921.258	3679
921.368	3625
921.477	3557
921.587	3557
921.697	3466
921.806	3682
921.916	3496
922.025	3336
922.134	3367
922.244	3329
922.353	3431
922.462	3256
922.571	3195
922.68	3100
922.789	3093
922.898	3104
923.007	3127
923.116	3199
923.224	3161
923.333	3203
923.442	3097
923.55	3097
923.659	3161
923.767	3211
923.876	3100
923.984	3218
924.092	3093
924.201	3146
924.309	3192
924.417	3241
924.525	3173
924.633	3245
924.741	4025
924.849	3039
924.956	3226
925.064	3116
925.172	3024
925.279	3066
925.387	3184
925.494	3176
925.602	3359
925.709	3291
925.816	3230
925.924	3268
926.031	3378
926.138	3348
926.245	3363
926.352	3253
926.459	3393
926.566	3511
926.673	3336
926.779	3287
926.886	3260
926.993	3150
927.099	3161
927.206	3089
927.312	3104
927.419	3222
927.525	3188
927.631	3237
927.737	3142
927.843	3108
927.95	3032
928.056	3142
928.162	3131
928.267	3237
928.373	3781
928.479	3279
928.585	3081
928.69	3203
928.796	3241
928.901	3165
929.007	3032
929.112	3226
929.218	3180
929.323	3116
929.428	3161
929.533	3291
929.638	3097
929.743	3150
929.848	3325
929.953	3207
930.058	3161
930.163	2982
930.267	3055
930.372	3199
930.477	2998
930.581	3287
930.685	3146
930.79	3043
930.894	3074
930.998	3097
931.103	3279
931.207	2929
931.311	2929
931.415	2891
931.519	2785
931.623	2823
