Data from test_V78500241_595.txt Node
Date: Fri Mar 25 16:19:19 CST 2022
User: usil
Spectrometer: V785-0024
Trigger mode: 0
Integration Time (sec): 4.000000E-1
Scans to average: 1
Nonlinearity correction enabled: false
Boxcar width: 0
Storing dark spectrum: false
XAxis mode: Wavelengths
Number of Pixels in Spectrum: 1024
>>>>>Begin Spectral Data<<<<<
801.071	2902
801.214	2944
801.356	2853
801.499	2925
801.641	2876
801.783	2933
801.926	3051
802.068	3009
802.211	2994
802.353	3028
802.496	2941
802.638	3013
802.78	3066
802.923	3028
803.065	2998
803.208	2899
803.35	2887
803.492	2922
803.635	2952
803.777	2773
803.919	2849
804.061	3199
804.204	2902
804.346	2941
804.488	2796
804.63	2990
804.773	2891
804.915	2876
805.057	3070
805.199	2899
805.341	3005
805.483	3013
805.626	2990
805.768	2971
805.91	3127
806.052	3070
806.194	3013
806.336	3192
806.478	3066
806.62	2960
806.762	2982
806.904	3055
807.046	3169
807.188	2994
807.33	2918
807.472	3043
807.614	2929
807.756	2979
807.898	2906
808.04	2876
808.182	2944
808.324	2906
808.465	2880
808.607	2853
808.749	2766
808.891	2853
809.033	2937
809.174	2937
809.316	2880
809.458	2902
809.6	2777
809.741	2792
809.883	2769
810.025	2819
810.166	2819
810.308	2834
810.45	2849
810.591	2758
810.733	2777
810.875	2811
811.016	2777
811.158	2781
811.299	2823
811.441	2906
811.582	2895
811.724	2807
811.865	2826
812.007	2925
812.148	2880
812.29	2826
812.431	2887
812.573	2929
812.714	2944
812.855	3074
812.997	3051
813.138	3104
813.279	3009
813.421	2986
813.562	2998
813.703	2883
813.845	2895
813.986	2773
814.127	2712
814.268	2857
814.41	2838
814.551	2796
814.692	2868
814.833	2849
814.974	2868
815.115	2975
815.256	2819
815.397	2800
815.539	2849
815.68	2773
815.821	2800
815.962	2944
816.103	2948
816.244	2872
816.385	2876
816.526	2979
816.666	2902
816.807	2724
816.948	2895
817.089	2925
817.23	2834
817.371	2773
817.512	2788
817.653	2815
817.793	2800
817.934	2876
818.075	2948
818.216	2979
818.356	3001
818.497	2902
818.638	2785
818.778	2838
818.919	2762
819.06	2746
819.2	2845
819.341	2804
819.481	2788
819.622	2902
819.762	3104
819.903	3062
820.043	2952
820.184	2918
820.324	2887
820.465	2986
820.605	3001
820.746	3017
820.886	2956
821.026	3108
821.167	3176
821.307	3245
821.447	3260
821.588	3226
821.728	3222
821.868	3203
822.008	3066
822.149	3165
822.289	3230
822.429	3089
822.569	3112
822.709	3157
822.849	3058
822.99	3066
823.13	3161
823.27	3195
823.41	3112
823.55	3180
823.69	3138
823.83	3207
823.97	3085
824.11	3043
824.25	2982
824.389	3066
824.529	3119
824.669	3058
824.809	3195
824.949	3245
825.089	3218
825.228	3142
825.368	2986
825.508	2925
825.648	2910
825.787	2986
825.927	2979
826.067	2933
826.206	2956
826.346	3005
826.485	3036
826.625	3100
826.765	3256
826.904	3192
827.044	2990
827.183	2918
827.323	2864
827.462	3005
827.601	2918
827.741	2944
827.88	2956
828.02	2815
828.159	2982
828.298	3039
828.437	3093
828.577	3066
828.716	3230
828.855	3085
828.994	2902
829.134	2891
829.273	2929
829.412	2864
829.551	2845
829.69	2861
829.829	2967
829.968	3135
830.107	3005
830.246	3036
830.385	2906
830.524	2861
830.663	2815
830.802	2746
830.941	2674
831.08	2644
831.219	2743
831.357	2769
831.496	2960
831.635	2701
831.774	2659
831.913	2636
832.051	2526
832.19	2568
832.329	2697
832.467	2556
832.606	2492
832.744	2617
832.883	2583
833.022	2613
833.16	2632
833.299	2686
833.437	2678
833.576	2686
833.714	2754
833.852	2720
833.991	2800
834.129	2830
834.267	2807
834.406	2758
834.544	2880
834.682	2891
834.821	2838
834.959	3066
835.097	2891
835.235	3074
835.373	2990
835.511	3009
835.65	2914
835.788	2967
835.926	2823
836.064	2830
836.202	2849
836.34	3112
836.478	3146
836.615	3009
836.753	3119
836.891	3226
837.029	3192
837.167	3100
837.305	3001
837.443	3028
837.58	2952
837.718	3104
837.856	3032
837.993	2998
838.131	3093
838.269	3089
838.406	3070
838.544	3077
838.681	2982
838.819	2937
838.956	2785
839.094	2845
839.231	2925
839.369	3024
839.506	3416
839.643	3245
839.781	3005
839.918	2982
840.055	3036
840.193	3020
840.33	3058
840.467	3089
840.604	3173
840.742	3439
840.879	3055
841.016	3028
841.153	3119
841.29	3325
841.427	3321
841.564	3272
841.701	3325
841.838	3199
841.975	3180
842.112	3192
842.249	3058
842.385	3024
842.522	3241
842.659	3070
842.796	3058
842.933	3127
843.069	3055
843.206	3005
843.343	3173
843.479	3081
843.616	3112
843.752	2883
843.889	2883
844.025	3100
844.162	2880
844.298	3066
844.435	2933
844.571	2906
844.708	3070
844.844	3169
844.98	3249
845.117	3165
845.253	3013
845.389	3005
845.525	3104
845.661	3062
845.798	3028
845.934	3085
846.07	3043
846.206	3207
846.342	3329
846.478	3245
846.614	3062
846.75	3043
846.886	3001
847.022	3241
847.158	3157
847.294	3226
847.429	3283
847.565	3195
847.701	3443
847.837	3017
847.972	2986
848.108	3173
848.244	3131
848.379	2994
848.515	2925
848.65	2899
848.786	2982
848.921	2998
849.057	3108
849.192	3108
849.328	3062
849.463	3119
849.598	3058
849.734	3039
849.869	2960
850.004	2937
850.14	2971
850.275	2883
850.41	2830
850.545	2872
850.68	2937
850.815	2941
850.95	2937
851.085	3218
851.22	3127
851.355	3028
851.49	2975
851.625	3009
851.76	2990
851.895	2941
852.03	2922
852.165	2998
852.299	3093
852.434	3214
852.569	3146
852.703	3176
852.838	3260
852.973	3336
853.107	3351
853.242	3150
853.376	3100
853.511	2960
853.645	3043
853.78	3264
853.914	3108
854.048	3081
854.183	3047
854.317	3165
854.451	3294
854.585	3108
854.72	3062
854.854	3169
854.988	3036
855.122	3081
855.256	2975
855.39	3089
855.524	3218
855.658	3161
855.792	3138
855.926	3199
856.06	3230
856.194	3226
856.327	3161
856.461	3085
856.595	3089
856.729	3074
856.862	3241
856.996	3157
857.13	3211
857.263	3195
857.397	3253
857.53	3127
857.664	3192
857.797	3230
857.931	3226
858.064	3123
858.197	3214
858.331	3100
858.464	3093
858.597	2971
858.731	3112
858.864	3093
858.997	3066
859.13	3138
859.263	3127
859.396	3188
859.529	3020
859.662	3066
859.795	3051
859.928	3157
860.061	3241
860.194	3253
860.327	3104
860.46	3074
860.592	3214
860.725	3230
860.858	3253
860.99	3081
861.123	3047
861.256	3009
861.388	3169
861.521	3705
861.653	3024
861.786	2967
861.918	3001
862.05	3093
862.183	3081
862.315	3173
862.447	3169
862.58	3055
862.712	2990
862.844	2861
862.976	3024
863.108	2982
863.24	3435
863.372	2868
863.504	2963
863.636	2971
863.768	3017
863.9	2979
864.032	2876
864.164	2948
864.296	2990
864.428	3081
864.559	3116
864.691	3051
864.823	3043
864.954	3058
865.086	3043
865.217	3009
865.349	2971
865.48	2986
865.612	3024
865.743	3116
865.875	2971
866.006	2918
866.137	2952
866.269	2941
866.4	2929
866.531	2899
866.662	2906
866.793	2880
866.924	2895
867.055	2990
867.186	2910
867.317	2849
867.448	2823
867.579	2811
867.71	2834
867.841	2845
867.972	2899
868.103	2918
868.233	2883
868.364	2838
868.495	2864
868.625	3077
868.756	3127
868.886	3005
869.017	3028
869.147	3123
869.278	3180
869.408	3024
869.539	3020
869.669	3077
869.799	3051
869.929	3097
870.06	3074
870.19	3275
870.32	3279
870.45	3279
870.58	3397
870.71	3462
870.84	3481
870.97	3294
871.1	3222
871.23	3454
871.36	3488
871.489	3367
871.619	3401
871.749	3420
871.879	3450
872.008	3469
872.138	3389
872.267	3279
872.397	3127
872.526	3131
872.656	3024
872.785	3108
872.915	3253
873.044	3302
873.173	3233
873.303	3214
873.432	3245
873.561	3233
873.69	3180
873.819	3112
873.948	3211
874.077	3112
874.206	2971
874.335	3066
874.464	3203
874.593	3325
874.722	3272
874.851	3370
874.979	3313
875.108	3355
875.237	3207
875.365	3131
875.494	3157
875.623	3237
875.751	3081
875.88	3116
876.008	3180
876.136	3237
876.265	3374
876.393	3557
876.521	3405
876.65	3393
876.778	3291
876.906	3241
877.034	3169
877.162	3230
877.29	3165
877.418	3214
877.546	3218
877.674	3218
877.802	3226
877.93	3253
878.058	3154
878.185	3100
878.313	3199
878.441	3184
878.568	3062
878.696	3142
878.824	3256
878.951	3283
879.079	3428
879.206	3614
879.333	3431
879.461	3313
879.588	3367
879.715	3466
879.842	3572
879.97	3393
880.097	3169
880.224	3135
880.351	3195
880.478	3218
880.605	3188
880.732	3199
880.859	3488
880.986	3317
881.112	3287
881.239	3214
881.366	3089
881.493	3013
881.619	3055
881.746	3116
881.872	3058
881.999	3039
882.125	3173
882.252	3218
882.378	3283
882.505	3420
882.631	3287
882.757	3195
882.883	3195
883.01	3253
883.136	3180
883.262	3093
883.388	3127
883.514	3306
883.64	3344
883.766	3336
883.892	3173
884.018	3245
884.143	3386
884.269	3511
884.395	3214
884.52	3150
884.646	3199
884.772	3150
884.897	3154
885.023	3165
885.148	3279
885.274	3431
885.399	3363
885.524	3256
885.65	3283
885.775	3294
885.9	3245
886.025	3439
886.15	3382
886.275	3283
886.4	3176
886.525	3264
886.65	3302
886.775	3230
886.9	3488
887.025	3618
887.149	3416
887.274	3298
887.399	3169
887.523	3207
887.648	3142
887.773	3176
887.897	3412
888.021	3378
888.146	3226
888.27	3439
888.395	3534
888.519	3405
888.643	3401
888.767	3500
888.891	3275
889.015	3230
889.139	3272
889.263	3207
889.387	3393
889.511	3469
889.635	3450
889.759	3306
889.883	3272
890.006	3412
890.13	3462
890.254	3260
890.377	3329
890.501	3214
890.624	3176
890.748	3275
890.871	3176
890.995	3093
891.118	3066
891.241	3188
891.364	3207
891.488	3355
891.611	3165
891.734	3218
891.857	3302
891.98	3207
892.103	3329
892.226	3306
892.349	3230
892.471	3112
892.594	3264
892.717	3245
892.839	3268
892.962	3348
893.085	3340
893.207	3287
893.33	3161
893.452	3218
893.575	3329
893.697	3218
893.819	3462
893.941	3447
894.064	3454
894.186	3287
894.308	3317
894.43	3378
894.552	3557
894.674	3454
894.796	3287
894.918	3325
895.04	3272
895.161	3420
895.283	3378
895.405	3291
895.526	3359
895.648	3397
895.769	3412
895.891	3431
896.012	3454
896.134	3450
896.255	3405
896.376	3321
896.498	3348
896.619	3416
896.74	3336
896.861	3397
896.982	3713
897.103	3876
897.224	3572
897.345	3511
897.466	3466
897.587	3511
897.708	3603
897.828	3557
897.949	3450
898.07	3351
898.19	3386
898.311	3545
898.431	3412
898.552	3523
898.672	3572
898.792	3576
898.913	3488
899.033	3374
899.153	3272
899.273	3226
899.393	3283
899.513	3313
899.633	3325
899.753	3325
899.873	3359
899.993	3359
900.113	3325
900.232	3389
900.352	3325
900.472	3340
900.591	3184
900.711	3298
900.83	3237
900.95	3405
901.069	3504
901.189	3355
901.308	3173
901.427	3085
901.546	3192
901.665	3268
901.784	3313
901.904	3195
902.023	3150
902.141	3009
902.26	3032
902.379	3161
902.498	3081
902.617	3058
902.735	3199
902.854	3256
902.973	3188
903.091	3055
903.21	3070
903.328	3131
903.446	3108
903.565	3089
903.683	3253
903.801	3127
903.919	3207
904.038	3275
904.156	3150
904.274	3268
904.392	3230
904.51	3329
904.627	3329
904.745	3431
904.863	3523
904.981	3253
905.098	3188
905.216	3241
905.334	3294
905.451	3283
905.569	3359
905.686	3401
905.803	3428
905.921	3264
906.038	3401
906.155	3340
906.272	3241
906.389	3348
906.506	3192
906.623	3294
906.74	3260
906.857	3188
906.974	3237
907.091	3424
907.208	3580
907.324	3477
907.441	3344
907.557	3214
907.674	3188
907.79	3173
907.907	3275
908.023	3340
908.139	3367
908.256	3332
908.372	3405
908.488	3325
908.604	3272
908.72	3233
908.836	3294
908.952	3294
909.068	3340
909.184	3435
909.3	3397
909.415	3492
909.531	3435
909.647	3260
909.762	3306
909.878	3256
909.993	3374
910.108	3340
910.224	3336
910.339	3389
910.454	3317
910.57	3253
910.685	3256
910.8	3614
910.915	3587
911.03	3450
911.145	3222
911.259	3256
911.374	3291
911.489	3241
911.604	3249
911.718	3104
911.833	3184
911.947	3043
912.062	2982
912.176	3192
912.291	3237
912.405	3199
912.519	3409
912.633	3473
912.748	3291
912.862	3321
912.976	3173
913.09	3047
913.204	3123
913.318	3233
913.431	3332
913.545	3332
913.659	3420
913.772	3313
913.886	3222
914	3211
914.113	3340
914.226	3370
914.34	3370
914.453	3233
914.566	3443
914.68	3302
914.793	3287
914.906	3123
915.019	3074
915.132	3100
915.245	3165
915.358	3203
915.47	3241
915.583	3310
915.696	3298
915.809	3382
915.921	3439
916.034	3222
916.146	3253
916.259	3207
916.371	3378
916.483	3382
916.595	3264
916.708	3298
916.82	3336
916.932	3298
917.044	3325
917.156	3329
917.268	3283
917.38	3317
917.491	3283
917.603	3351
917.715	3439
917.826	3462
917.938	3393
918.049	3279
918.161	3458
918.272	3595
918.384	3538
918.495	3477
918.606	3336
918.717	3291
918.828	3378
918.939	3416
919.05	3302
919.161	3351
919.272	3184
919.383	3256
919.494	3488
919.604	3652
919.715	3492
919.826	3374
919.936	3435
920.047	3568
920.157	3557
920.267	3755
920.378	3606
920.488	3538
920.598	3774
920.708	3915
920.818	3785
920.928	3854
921.038	4002
921.148	4006
921.258	3679
921.368	3656
921.477	3591
921.587	3504
921.697	3477
921.806	3606
921.916	3511
922.025	3367
922.134	3359
922.244	3348
922.353	3435
922.462	3264
922.571	3237
922.68	3119
922.789	3104
922.898	3173
923.007	3104
923.116	3199
923.224	3176
923.333	3169
923.442	3123
923.55	3089
923.659	3135
923.767	3222
923.876	3104
923.984	3253
924.092	3127
924.201	3218
924.309	3256
924.417	3230
924.525	3211
924.633	3199
924.741	4040
924.849	3017
924.956	3233
925.064	3055
925.172	3039
925.279	3108
925.387	3207
925.494	3203
925.602	3306
925.709	3332
925.816	3169
925.924	3302
926.031	3401
926.138	3291
926.245	3393
926.352	3237
926.459	3397
926.566	3466
926.673	3329
926.779	3268
926.886	3275
926.993	3142
927.099	3131
927.206	3112
927.312	3127
927.419	3226
927.525	3211
927.631	3256
927.737	3138
927.843	3154
927.95	2994
928.056	3127
928.162	3154
928.267	3241
928.373	3812
928.479	3336
928.585	3081
928.69	3233
928.796	3287
928.901	3184
929.007	3074
929.112	3173
929.218	3165
929.323	3135
929.428	3165
929.533	3359
929.638	3089
929.743	3135
929.848	3287
929.953	3207
930.058	3135
930.163	3017
930.267	3028
930.372	3211
930.477	3043
930.581	3272
930.685	3176
930.79	3051
930.894	3100
930.998	3142
931.103	3317
931.207	2941
931.311	2933
931.415	2902
931.519	2777
931.623	2823
