Data from test_V78500241_1604.txt Node
Date: Fri Mar 25 16:26:18 CST 2022
User: usil
Spectrometer: V785-0024
Trigger mode: 0
Integration Time (sec): 4.000000E-1
Scans to average: 1
Nonlinearity correction enabled: false
Boxcar width: 0
Storing dark spectrum: false
XAxis mode: Wavelengths
Number of Pixels in Spectrum: 1024
>>>>>Begin Spectral Data<<<<<
801.071	2975
801.214	2990
801.356	2902
801.499	2914
801.641	2910
801.783	2925
801.926	3074
802.068	3013
802.211	3062
802.353	3055
802.496	2982
802.638	3070
802.78	3070
802.923	3100
803.065	3005
803.208	2933
803.35	2925
803.492	2918
803.635	2967
803.777	2769
803.919	2861
804.061	3230
804.204	2956
804.346	2925
804.488	2826
804.63	3005
804.773	2899
804.915	2929
805.057	3070
805.199	2925
805.341	2990
805.483	3055
805.626	3001
805.768	2979
805.91	3112
806.052	3100
806.194	3020
806.336	3291
806.478	3009
806.62	2982
806.762	3005
806.904	3024
807.046	3184
807.188	3009
807.33	2948
807.472	3017
807.614	2914
807.756	2990
807.898	2914
808.04	2906
808.182	2960
808.324	2952
808.465	2883
808.607	2899
808.749	2788
808.891	2880
809.033	2982
809.174	2952
809.316	2910
809.458	2918
809.6	2800
809.741	2819
809.883	2766
810.025	2864
810.166	2887
810.308	2845
810.45	2853
810.591	2796
810.733	2800
810.875	2834
811.016	2800
811.158	2754
811.299	2834
811.441	2937
811.582	2929
811.724	2853
811.865	2861
812.007	2872
812.148	2883
812.29	2849
812.431	2902
812.573	2967
812.714	2941
812.855	3047
812.997	3074
813.138	3165
813.279	3024
813.421	2952
813.562	3001
813.703	2906
813.845	2918
813.986	2823
814.127	2750
814.268	2826
814.41	2857
814.551	2800
814.692	2842
814.833	2830
814.974	2902
815.115	2971
815.256	2845
815.397	2826
815.539	2883
815.68	2777
815.821	2785
815.962	2925
816.103	2975
816.244	2895
816.385	2887
816.526	2960
816.666	2914
816.807	2769
816.948	2918
817.089	2914
817.23	2849
817.371	2807
817.512	2796
817.653	2842
817.793	2830
817.934	2849
818.075	2971
818.216	2994
818.356	3032
818.497	2922
818.638	2826
818.778	2823
818.919	2815
819.06	2773
819.2	2868
819.341	2792
819.481	2796
819.622	2944
819.762	3127
819.903	3074
820.043	2937
820.184	2902
820.324	2933
820.465	3036
820.605	3028
820.746	3009
820.886	2952
821.026	3112
821.167	3154
821.307	3260
821.447	3275
821.588	3241
821.728	3222
821.868	3192
822.008	3108
822.149	3192
822.289	3207
822.429	3104
822.569	3093
822.709	3157
822.849	3043
822.99	3104
823.13	3138
823.27	3214
823.41	3135
823.55	3161
823.69	3211
823.83	3207
823.97	3093
824.11	2994
824.25	3028
824.389	3058
824.529	3161
824.669	3024
824.809	3188
824.949	3283
825.089	3226
825.228	3176
825.368	3051
825.508	2944
825.648	2944
825.787	3005
825.927	3039
826.067	2994
826.206	2971
826.346	3036
826.485	3100
826.625	3127
826.765	3275
826.904	3237
827.044	2975
827.183	2952
827.323	2872
827.462	2960
827.601	2914
827.741	2922
827.88	2982
828.02	2868
828.159	2963
828.298	3055
828.437	3123
828.577	3043
828.716	3253
828.855	3104
828.994	2918
829.134	2891
829.273	2922
829.412	2853
829.551	2838
829.69	2864
829.829	2956
829.968	3142
830.107	3032
830.246	3055
830.385	2937
830.524	2902
830.663	2811
830.802	2720
830.941	2682
831.08	2663
831.219	2735
831.357	2769
831.496	2979
831.635	2720
831.774	2686
831.913	2651
832.051	2552
832.19	2579
832.329	2636
832.467	2560
832.606	2495
832.744	2606
832.883	2579
833.022	2606
833.16	2648
833.299	2682
833.437	2705
833.576	2693
833.714	2697
833.852	2762
833.991	2811
834.129	2853
834.267	2826
834.406	2796
834.544	2902
834.682	2891
834.821	2883
834.959	3066
835.097	2895
835.235	3055
835.373	2998
835.511	3017
835.65	2979
835.788	2975
835.926	2811
836.064	2785
836.202	2838
836.34	3112
836.478	3154
836.615	3062
836.753	3173
836.891	3188
837.029	3138
837.167	3097
837.305	3043
837.443	3077
837.58	2960
837.718	3127
837.856	3081
837.993	3017
838.131	3093
838.269	3131
838.406	3093
838.544	3089
838.681	2941
838.819	2937
838.956	2815
839.094	2830
839.231	2876
839.369	2986
839.506	3351
839.643	3211
839.781	2994
839.918	2960
840.055	3043
840.193	3055
840.33	3051
840.467	3112
840.604	3188
840.742	3416
840.879	3066
841.016	3077
841.153	3123
841.29	3302
841.427	3272
841.564	3310
841.701	3310
841.838	3207
841.975	3165
842.112	3211
842.249	3077
842.385	3051
842.522	3233
842.659	3100
842.796	3055
842.933	3100
843.069	3058
843.206	3077
843.343	3176
843.479	3070
843.616	3165
843.752	2876
843.889	2872
844.025	3100
844.162	2876
844.298	3043
844.435	2967
844.571	2929
844.708	3036
844.844	3218
844.98	3222
845.117	3192
845.253	3055
845.389	2998
845.525	3169
845.661	3074
845.798	3005
845.934	3127
846.07	3100
846.206	3203
846.342	3329
846.478	3237
846.614	3062
846.75	3043
846.886	3036
847.022	3249
847.158	3135
847.294	3192
847.429	3233
847.565	3207
847.701	3526
847.837	3051
847.972	2998
848.108	3157
848.244	3157
848.379	2986
848.515	2933
848.65	2941
848.786	2952
848.921	3024
849.057	3062
849.192	3169
849.328	3070
849.463	3108
849.598	3074
849.734	3013
849.869	2963
850.004	2929
850.14	2941
850.275	2918
850.41	2845
850.545	2899
850.68	2918
850.815	2929
850.95	2986
851.085	3188
851.22	3097
851.355	3020
851.49	2979
851.625	3013
851.76	2990
851.895	2910
852.03	2872
852.165	3020
852.299	3135
852.434	3138
852.569	3138
852.703	3184
852.838	3275
852.973	3317
853.107	3325
853.242	3150
853.376	3074
853.511	2971
853.645	3055
853.78	3214
853.914	3116
854.048	3104
854.183	3112
854.317	3138
854.451	3298
854.585	3108
854.72	3100
854.854	3192
854.988	3051
855.122	3055
855.256	2990
855.39	3089
855.524	3214
855.658	3173
855.792	3135
855.926	3214
856.06	3241
856.194	3233
856.327	3188
856.461	3112
856.595	3116
856.729	3100
856.862	3241
856.996	3131
857.13	3161
857.263	3226
857.397	3279
857.53	3127
857.664	3192
857.797	3233
857.931	3207
858.064	3176
858.197	3226
858.331	3104
858.464	3085
858.597	2998
858.731	3108
858.864	3173
858.997	3017
859.13	3161
859.263	3157
859.396	3184
859.529	3112
859.662	3097
859.795	3051
859.928	3123
860.061	3256
860.194	3249
860.327	3077
860.46	3077
860.592	3260
860.725	3237
860.858	3249
860.99	3081
861.123	3036
861.256	3062
861.388	3161
861.521	3854
861.653	3024
861.786	2986
861.918	2998
862.05	3070
862.183	3070
862.315	3154
862.447	3199
862.58	3100
862.712	2971
862.844	2861
862.976	3028
863.108	2982
863.24	3283
863.372	2842
863.504	2922
863.636	2925
863.768	2990
863.9	2982
864.032	2941
864.164	2956
864.296	3005
864.428	3100
864.559	3066
864.691	3085
864.823	3009
864.954	3020
865.086	3047
865.217	2963
865.349	2956
865.48	2937
865.612	3009
865.743	3154
865.875	3013
866.006	2944
866.137	2944
866.269	2948
866.4	2937
866.531	2929
866.662	2872
866.793	2880
866.924	2929
867.055	2960
867.186	2895
867.317	2838
867.448	2849
867.579	2834
867.71	2861
867.841	2788
867.972	2922
868.103	2929
868.233	2895
868.364	2883
868.495	2891
868.625	3055
868.756	3157
868.886	2982
869.017	3036
869.147	3146
869.278	3165
869.408	3043
869.539	3013
869.669	3070
869.799	3058
869.929	3169
870.06	3062
870.19	3351
870.32	3264
870.45	3313
870.58	3370
870.71	3458
870.84	3435
870.97	3291
871.1	3214
871.23	3507
871.36	3431
871.489	3367
871.619	3389
871.749	3409
871.879	3462
872.008	3435
872.138	3351
872.267	3298
872.397	3127
872.526	3097
872.656	3020
872.785	3070
872.915	3230
873.044	3317
873.173	3222
873.303	3233
873.432	3230
873.561	3230
873.69	3161
873.819	3161
873.948	3169
874.077	3077
874.206	3020
874.335	3058
874.464	3226
874.593	3374
874.722	3245
874.851	3386
874.979	3348
875.108	3310
875.237	3214
875.365	3138
875.494	3188
875.623	3253
875.751	3074
875.88	3100
876.008	3173
876.136	3222
876.265	3351
876.393	3511
876.521	3363
876.65	3393
876.778	3321
876.906	3260
877.034	3207
877.162	3230
877.29	3207
877.418	3241
877.546	3218
877.674	3237
877.802	3226
877.93	3230
878.058	3157
878.185	3100
878.313	3199
878.441	3192
878.568	3066
878.696	3138
878.824	3230
878.951	3302
879.079	3450
879.206	3629
879.333	3412
879.461	3313
879.588	3344
879.715	3458
879.842	3591
879.97	3389
880.097	3154
880.224	3123
880.351	3165
880.478	3195
880.605	3195
880.732	3199
880.859	3500
880.986	3310
881.112	3321
881.239	3192
881.366	3089
881.493	3028
881.619	3017
881.746	3077
881.872	3119
881.999	3135
882.125	3138
882.252	3264
882.378	3317
882.505	3443
882.631	3272
882.757	3154
882.883	3233
883.01	3256
883.136	3135
883.262	3097
883.388	3127
883.514	3298
883.64	3378
883.766	3298
883.892	3157
884.018	3245
884.143	3439
884.269	3553
884.395	3222
884.52	3142
884.646	3135
884.772	3146
884.897	3108
885.023	3226
885.148	3351
885.274	3412
885.399	3351
885.524	3272
885.65	3211
885.775	3325
885.9	3260
886.025	3458
886.15	3348
886.275	3306
886.4	3233
886.525	3294
886.65	3260
886.775	3264
886.9	3504
887.025	3675
887.149	3428
887.274	3237
887.399	3150
887.523	3157
887.648	3211
887.773	3207
887.897	3374
888.021	3382
888.146	3313
888.27	3439
888.395	3545
888.519	3443
888.643	3443
888.767	3405
888.891	3310
889.015	3260
889.139	3264
889.263	3253
889.387	3428
889.511	3500
889.635	3458
889.759	3275
889.883	3256
890.006	3382
890.13	3511
890.254	3279
890.377	3329
890.501	3199
890.624	3230
890.748	3279
890.871	3180
890.995	3112
891.118	3077
891.241	3192
891.364	3218
891.488	3332
891.611	3199
891.734	3199
891.857	3268
891.98	3222
892.103	3329
892.226	3264
892.349	3184
892.471	3123
892.594	3214
892.717	3317
892.839	3264
892.962	3237
893.085	3363
893.207	3287
893.33	3146
893.452	3207
893.575	3317
893.697	3249
893.819	3454
893.941	3492
894.064	3458
894.186	3260
894.308	3283
894.43	3409
894.552	3564
894.674	3454
894.796	3260
894.918	3287
895.04	3279
895.161	3412
895.283	3344
895.405	3306
895.526	3336
895.648	3443
895.769	3416
895.891	3458
896.012	3466
896.134	3450
896.255	3409
896.376	3389
896.498	3329
896.619	3405
896.74	3340
896.861	3454
896.982	3682
897.103	3846
897.224	3568
897.345	3511
897.466	3431
897.587	3481
897.708	3629
897.828	3538
897.949	3454
898.07	3306
898.19	3431
898.311	3595
898.431	3439
898.552	3488
898.672	3614
898.792	3599
898.913	3488
899.033	3405
899.153	3283
899.273	3180
899.393	3260
899.513	3325
899.633	3329
899.753	3329
899.873	3317
899.993	3355
900.113	3329
900.232	3393
900.352	3336
900.472	3294
900.591	3218
900.711	3283
900.83	3180
900.95	3416
901.069	3534
901.189	3382
901.308	3180
901.427	3104
901.546	3173
901.665	3302
901.784	3329
901.904	3176
902.023	3123
902.141	3013
902.26	2971
902.379	3127
902.498	3081
902.617	3051
902.735	3241
902.854	3214
902.973	3173
903.091	3051
903.21	3070
903.328	3142
903.446	3108
903.565	3081
903.683	3222
903.801	3108
903.919	3195
904.038	3268
904.156	3203
904.274	3302
904.392	3264
904.51	3283
904.627	3348
904.745	3389
904.863	3458
904.981	3230
905.098	3192
905.216	3245
905.334	3325
905.451	3317
905.569	3348
905.686	3393
905.803	3454
905.921	3287
906.038	3428
906.155	3340
906.272	3260
906.389	3317
906.506	3176
906.623	3260
906.74	3268
906.857	3226
906.974	3275
907.091	3462
907.208	3568
907.324	3428
907.441	3397
907.557	3237
907.674	3249
907.79	3237
907.907	3291
908.023	3370
908.139	3382
908.256	3317
908.372	3340
908.488	3310
908.604	3283
908.72	3226
908.836	3260
908.952	3256
909.068	3317
909.184	3458
909.3	3306
909.415	3485
909.531	3481
909.647	3279
909.762	3298
909.878	3260
909.993	3351
910.108	3336
910.224	3313
910.339	3367
910.454	3332
910.57	3283
910.685	3218
910.8	3538
910.915	3530
911.03	3435
911.145	3256
911.259	3237
911.374	3329
911.489	3222
911.604	3245
911.718	3119
911.833	3127
911.947	3005
912.062	2990
912.176	3116
912.291	3241
912.405	3233
912.519	3397
912.633	3450
912.748	3325
912.862	3306
912.976	3180
913.09	3055
913.204	3108
913.318	3199
913.431	3325
913.545	3348
913.659	3382
913.772	3325
913.886	3207
914	3169
914.113	3325
914.226	3412
914.34	3363
914.453	3211
914.566	3428
914.68	3256
914.793	3279
914.906	3138
915.019	3119
915.132	3036
915.245	3161
915.358	3173
915.47	3214
915.583	3287
915.696	3302
915.809	3405
915.921	3401
916.034	3260
916.146	3226
916.259	3214
916.371	3344
916.483	3355
916.595	3283
916.708	3359
916.82	3325
916.932	3336
917.044	3336
917.156	3363
917.268	3275
917.38	3283
917.491	3302
917.603	3397
917.715	3428
917.826	3458
917.938	3370
918.049	3256
918.161	3439
918.272	3561
918.384	3557
918.495	3485
918.606	3313
918.717	3264
918.828	3374
918.939	3370
919.05	3306
919.161	3370
919.272	3169
919.383	3302
919.494	3477
919.604	3663
919.715	3447
919.826	3367
919.936	3477
920.047	3572
920.157	3549
920.267	3732
920.378	3576
920.488	3576
920.598	3816
920.708	3941
920.818	3812
920.928	3793
921.038	4036
921.148	3991
921.258	3671
921.368	3580
921.477	3557
921.587	3603
921.697	3443
921.806	3599
921.916	3538
922.025	3355
922.134	3363
922.244	3332
922.353	3435
922.462	3306
922.571	3207
922.68	3081
922.789	3047
922.898	3146
923.007	3089
923.116	3226
923.224	3188
923.333	3180
923.442	3066
923.55	3066
923.659	3138
923.767	3214
923.876	3100
923.984	3275
924.092	3123
924.201	3237
924.309	3245
924.417	3245
924.525	3154
924.633	3272
924.741	4154
924.849	3051
924.956	3317
925.064	3093
925.172	3058
925.279	3081
925.387	3150
925.494	3233
925.602	3325
925.709	3325
925.816	3195
925.924	3287
926.031	3363
926.138	3332
926.245	3355
926.352	3283
926.459	3397
926.566	3443
926.673	3306
926.779	3268
926.886	3260
926.993	3142
927.099	3085
927.206	3146
927.312	3074
927.419	3218
927.525	3211
927.631	3260
927.737	3161
927.843	3146
927.95	3036
928.056	3135
928.162	3138
928.267	3260
928.373	3873
928.479	3321
928.585	3100
928.69	3237
928.796	3291
928.901	3180
929.007	3047
929.112	3199
929.218	3184
929.323	3150
929.428	3165
929.533	3317
929.638	3131
929.743	3127
929.848	3272
929.953	3199
930.058	3127
930.163	3009
930.267	3062
930.372	3161
930.477	3097
930.581	3329
930.685	3176
930.79	3070
930.894	3123
930.998	3066
931.103	3298
931.207	2967
931.311	2979
931.415	2933
931.519	2807
931.623	2842
