Data from test_V78500241_1180.txt Node
Date: Fri Mar 25 16:23:22 CST 2022
User: usil
Spectrometer: V785-0024
Trigger mode: 0
Integration Time (sec): 4.000000E-1
Scans to average: 1
Nonlinearity correction enabled: false
Boxcar width: 0
Storing dark spectrum: false
XAxis mode: Wavelengths
Number of Pixels in Spectrum: 1024
>>>>>Begin Spectral Data<<<<<
801.071	2883
801.214	2960
801.356	2861
801.499	2883
801.641	2861
801.783	2906
801.926	3062
802.068	2960
802.211	3020
802.353	3017
802.496	2933
802.638	3028
802.78	3043
802.923	3058
803.065	2994
803.208	2868
803.35	2933
803.492	2906
803.635	2883
803.777	2766
803.919	2853
804.061	3230
804.204	2941
804.346	2880
804.488	2819
804.63	2967
804.773	2864
804.915	2876
805.057	3036
805.199	2910
805.341	2979
805.483	3024
805.626	2975
805.768	2982
805.91	3077
806.052	3093
806.194	3005
806.336	3214
806.478	2998
806.62	2929
806.762	2948
806.904	3089
807.046	3165
807.188	2982
807.33	2914
807.472	2986
807.614	2891
807.756	2990
807.898	2933
808.04	2876
808.182	2967
808.324	2937
808.465	2861
808.607	2872
808.749	2773
808.891	2857
809.033	2933
809.174	2944
809.316	2899
809.458	2842
809.6	2796
809.741	2766
809.883	2777
810.025	2811
810.166	2830
810.308	2819
810.45	2899
810.591	2743
810.733	2788
810.875	2864
811.016	2754
811.158	2785
811.299	2845
811.441	2933
811.582	2937
811.724	2830
811.865	2864
812.007	2895
812.148	2914
812.29	2891
812.431	2887
812.573	2956
812.714	2956
812.855	3039
812.997	3020
813.138	3116
813.279	2994
813.421	2990
813.562	2952
813.703	2868
813.845	2830
813.986	2807
814.127	2754
814.268	2815
814.41	2834
814.551	2792
814.692	2861
814.833	2792
814.974	2891
815.115	2994
815.256	2830
815.397	2800
815.539	2838
815.68	2785
815.821	2758
815.962	2948
816.103	2918
816.244	2876
816.385	2849
816.526	2975
816.666	2906
816.807	2750
816.948	2853
817.089	2891
817.23	2834
817.371	2769
817.512	2785
817.653	2842
817.793	2804
817.934	2880
818.075	2956
818.216	2948
818.356	2979
818.497	2876
818.638	2823
818.778	2807
818.919	2739
819.06	2777
819.2	2880
819.341	2815
819.481	2807
819.622	2925
819.762	3116
819.903	3024
820.043	2861
820.184	2883
820.324	2880
820.465	3005
820.605	3013
820.746	2998
820.886	2918
821.026	3085
821.167	3138
821.307	3256
821.447	3256
821.588	3188
821.728	3192
821.868	3218
822.008	3070
822.149	3184
822.289	3199
822.429	3058
822.569	3077
822.709	3150
822.849	3051
822.99	3051
823.13	3123
823.27	3192
823.41	3127
823.55	3154
823.69	3108
823.83	3176
823.97	3123
824.11	2975
824.25	2948
824.389	3009
824.529	3100
824.669	3051
824.809	3214
824.949	3245
825.089	3214
825.228	3116
825.368	2971
825.508	2963
825.648	2941
825.787	2975
825.927	2982
826.067	2963
826.206	2971
826.346	3009
826.485	3108
826.625	3077
826.765	3272
826.904	3157
827.044	3009
827.183	2925
827.323	2876
827.462	2982
827.601	2883
827.741	2929
827.88	2956
828.02	2853
828.159	2948
828.298	3043
828.437	3131
828.577	3043
828.716	3188
828.855	3070
828.994	2914
829.134	2842
829.273	2925
829.412	2876
829.551	2857
829.69	2899
829.829	2948
829.968	3085
830.107	3036
830.246	3036
830.385	2906
830.524	2861
830.663	2796
830.802	2739
830.941	2674
831.08	2644
831.219	2727
831.357	2735
831.496	2956
831.635	2708
831.774	2663
831.913	2610
832.051	2541
832.19	2598
832.329	2678
832.467	2522
832.606	2499
832.744	2617
832.883	2610
833.022	2571
833.16	2640
833.299	2678
833.437	2724
833.576	2693
833.714	2712
833.852	2708
833.991	2724
834.129	2842
834.267	2845
834.406	2758
834.544	2853
834.682	2899
834.821	2880
834.959	3043
835.097	2895
835.235	3051
835.373	2998
835.511	2998
835.65	2975
835.788	2948
835.926	2823
836.064	2788
836.202	2872
836.34	3074
836.478	3131
836.615	3009
836.753	3116
836.891	3169
837.029	3173
837.167	3093
837.305	3058
837.443	3020
837.58	2933
837.718	3119
837.856	3074
837.993	3055
838.131	3100
838.269	3089
838.406	3119
838.544	3058
838.681	2914
838.819	2887
838.956	2800
839.094	2815
839.231	2906
839.369	2998
839.506	3378
839.643	3211
839.781	3024
839.918	2960
840.055	3081
840.193	3013
840.33	3070
840.467	3055
840.604	3116
840.742	3412
840.879	3058
841.016	3024
841.153	3138
841.29	3306
841.427	3279
841.564	3268
841.701	3287
841.838	3211
841.975	3176
842.112	3199
842.249	3066
842.385	3017
842.522	3245
842.659	3066
842.796	3047
842.933	3081
843.069	3047
843.206	3074
843.343	3169
843.479	3089
843.616	3157
843.752	2906
843.889	2834
844.025	3077
844.162	2876
844.298	3058
844.435	2948
844.571	2902
844.708	3036
844.844	3119
844.98	3245
845.117	3192
845.253	3028
845.389	3017
845.525	3112
845.661	3112
845.798	3020
845.934	3127
846.07	3032
846.206	3230
846.342	3279
846.478	3264
846.614	3066
846.75	3047
846.886	3009
847.022	3253
847.158	3116
847.294	3180
847.429	3173
847.565	3203
847.701	3473
847.837	2998
847.972	2982
848.108	3127
848.244	3131
848.379	2986
848.515	2906
848.65	2922
848.786	2956
848.921	2982
849.057	3104
849.192	3154
849.328	3066
849.463	3093
849.598	3062
849.734	3032
849.869	2990
850.004	2887
850.14	2956
850.275	2880
850.41	2849
850.545	2910
850.68	2891
850.815	2925
850.95	2941
851.085	3184
851.22	3100
851.355	3043
851.49	2925
851.625	2979
851.76	2971
851.895	2952
852.03	2857
852.165	3024
852.299	3112
852.434	3165
852.569	3154
852.703	3169
852.838	3218
852.973	3310
853.107	3313
853.242	3112
853.376	3074
853.511	2967
853.645	3058
853.78	3253
853.914	3074
854.048	3089
854.183	3104
854.317	3112
854.451	3302
854.585	3123
854.72	3070
854.854	3226
854.988	3039
855.122	3074
855.256	2990
855.39	3066
855.524	3199
855.658	3184
855.792	3180
855.926	3161
856.06	3214
856.194	3218
856.327	3119
856.461	3051
856.595	3077
856.729	3077
856.862	3222
856.996	3116
857.13	3214
857.263	3211
857.397	3268
857.53	3104
857.664	3146
857.797	3249
857.931	3283
858.064	3157
858.197	3214
858.331	3100
858.464	3100
858.597	3036
858.731	3135
858.864	3100
858.997	3058
859.13	3146
859.263	3142
859.396	3199
859.529	3074
859.662	3066
859.795	3062
859.928	3142
860.061	3237
860.194	3298
860.327	3154
860.46	3070
860.592	3176
860.725	3245
860.858	3233
860.99	3093
861.123	3039
861.256	3062
861.388	3135
861.521	3671
861.653	3013
861.786	2956
861.918	3005
862.05	3043
862.183	3089
862.315	3150
862.447	3157
862.58	3062
862.712	3005
862.844	2842
862.976	3039
863.108	2982
863.24	3298
863.372	2842
863.504	2910
863.636	2929
863.768	3028
863.9	2982
864.032	2895
864.164	2952
864.296	2956
864.428	3047
864.559	3119
864.691	3066
864.823	3066
864.954	3039
865.086	3024
865.217	2975
865.349	2895
865.48	2971
865.612	3013
865.743	3135
865.875	2994
866.006	2922
866.137	2967
866.269	2922
866.4	2941
866.531	2899
866.662	2853
866.793	2895
866.924	2876
867.055	2982
867.186	2918
867.317	2899
867.448	2834
867.579	2849
867.71	2834
867.841	2819
867.972	2861
868.103	2880
868.233	2857
868.364	2899
868.495	2887
868.625	3093
868.756	3154
868.886	2967
869.017	3005
869.147	3150
869.278	3142
869.408	3028
869.539	3051
869.669	3089
869.799	3028
869.929	3119
870.06	3135
870.19	3287
870.32	3283
870.45	3283
870.58	3359
870.71	3431
870.84	3397
870.97	3268
871.1	3241
871.23	3481
871.36	3435
871.489	3370
871.619	3355
871.749	3428
871.879	3386
872.008	3504
872.138	3351
872.267	3264
872.397	3176
872.526	3089
872.656	3036
872.785	3097
872.915	3218
873.044	3302
873.173	3241
873.303	3237
873.432	3249
873.561	3218
873.69	3104
873.819	3150
873.948	3173
874.077	3127
874.206	3036
874.335	3104
874.464	3203
874.593	3340
874.722	3245
874.851	3332
874.979	3359
875.108	3317
875.237	3157
875.365	3127
875.494	3176
875.623	3256
875.751	3097
875.88	3100
876.008	3184
876.136	3214
876.265	3363
876.393	3496
876.521	3447
876.65	3367
876.778	3302
876.906	3211
877.034	3230
877.162	3245
877.29	3184
877.418	3260
877.546	3241
877.674	3211
877.802	3195
877.93	3165
878.058	3135
878.185	3108
878.313	3188
878.441	3192
878.568	3047
878.696	3138
878.824	3199
878.951	3298
879.079	3435
879.206	3564
879.333	3435
879.461	3287
879.588	3348
879.715	3485
879.842	3595
879.97	3382
880.097	3142
880.224	3108
880.351	3169
880.478	3176
880.605	3150
880.732	3161
880.859	3545
880.986	3253
881.112	3329
881.239	3199
881.366	3108
881.493	3020
881.619	2998
881.746	3085
881.872	3051
881.999	3066
882.125	3154
882.252	3218
882.378	3287
882.505	3389
882.631	3272
882.757	3154
882.883	3218
883.01	3218
883.136	3150
883.262	3112
883.388	3108
883.514	3325
883.64	3367
883.766	3279
883.892	3169
884.018	3245
884.143	3386
884.269	3557
884.395	3253
884.52	3150
884.646	3184
884.772	3112
884.897	3074
885.023	3192
885.148	3313
885.274	3409
885.399	3378
885.524	3264
885.65	3230
885.775	3287
885.9	3245
886.025	3420
886.15	3389
886.275	3294
886.4	3237
886.525	3279
886.65	3256
886.775	3268
886.9	3454
887.025	3606
887.149	3397
887.274	3233
887.399	3203
887.523	3188
887.648	3199
887.773	3211
887.897	3348
888.021	3359
888.146	3268
888.27	3454
888.395	3500
888.519	3401
888.643	3469
888.767	3420
888.891	3306
889.015	3245
889.139	3268
889.263	3233
889.387	3382
889.511	3473
889.635	3424
889.759	3264
889.883	3287
890.006	3367
890.13	3450
890.254	3264
890.377	3359
890.501	3184
890.624	3180
890.748	3336
890.871	3146
890.995	3077
891.118	3039
891.241	3180
891.364	3241
891.488	3302
891.611	3146
891.734	3199
891.857	3268
891.98	3241
892.103	3272
892.226	3279
892.349	3207
892.471	3112
892.594	3237
892.717	3279
892.839	3302
892.962	3306
893.085	3306
893.207	3317
893.33	3123
893.452	3222
893.575	3313
893.697	3260
893.819	3428
893.941	3492
894.064	3447
894.186	3253
894.308	3260
894.43	3409
894.552	3511
894.674	3424
894.796	3237
894.918	3317
895.04	3272
895.161	3416
895.283	3382
895.405	3283
895.526	3359
895.648	3424
895.769	3409
895.891	3393
896.012	3469
896.134	3450
896.255	3420
896.376	3389
896.498	3363
896.619	3409
896.74	3367
896.861	3363
896.982	3656
897.103	3838
897.224	3564
897.345	3473
897.466	3386
897.587	3523
897.708	3648
897.828	3515
897.949	3428
898.07	3329
898.19	3401
898.311	3572
898.431	3447
898.552	3519
898.672	3584
898.792	3549
898.913	3507
899.033	3412
899.153	3214
899.273	3195
899.393	3283
899.513	3306
899.633	3287
899.753	3340
899.873	3302
899.993	3370
900.113	3370
900.232	3336
900.352	3336
900.472	3272
900.591	3195
900.711	3279
900.83	3211
900.95	3397
901.069	3488
901.189	3321
901.308	3157
901.427	3123
901.546	3214
901.665	3348
901.784	3325
901.904	3211
902.023	3150
902.141	3001
902.26	2990
902.379	3116
902.498	3081
902.617	3074
902.735	3233
902.854	3214
902.973	3218
903.091	3070
903.21	3047
903.328	3100
903.446	3150
903.565	3097
903.683	3218
903.801	3154
903.919	3272
904.038	3298
904.156	3199
904.274	3321
904.392	3245
904.51	3306
904.627	3336
904.745	3485
904.863	3507
904.981	3275
905.098	3184
905.216	3256
905.334	3332
905.451	3340
905.569	3329
905.686	3431
905.803	3485
905.921	3332
906.038	3454
906.155	3409
906.272	3287
906.389	3435
906.506	3283
906.623	3283
906.74	3340
906.857	3256
906.974	3291
907.091	3485
907.208	3610
907.324	3511
907.441	3378
907.557	3283
907.674	3272
907.79	3237
907.907	3336
908.023	3397
908.139	3389
908.256	3348
908.372	3401
908.488	3336
908.604	3291
908.72	3275
908.836	3321
908.952	3325
909.068	3344
909.184	3523
909.3	3435
909.415	3568
909.531	3515
909.647	3302
909.762	3336
909.878	3287
909.993	3378
910.108	3389
910.224	3416
910.339	3454
910.454	3431
910.57	3336
910.685	3279
910.8	3606
910.915	3553
911.03	3473
911.145	3321
911.259	3283
911.374	3355
911.489	3272
911.604	3275
911.718	3138
911.833	3245
911.947	3085
912.062	3032
912.176	3203
912.291	3233
912.405	3226
912.519	3523
912.633	3504
912.748	3355
912.862	3294
912.976	3226
913.09	3108
913.204	3169
913.318	3237
913.431	3348
913.545	3336
913.659	3405
913.772	3382
913.886	3260
914	3233
914.113	3374
914.226	3420
914.34	3397
914.453	3253
914.566	3409
914.68	3310
914.793	3329
914.906	3192
915.019	3161
915.132	3077
915.245	3195
915.358	3230
915.47	3245
915.583	3256
915.696	3291
915.809	3439
915.921	3439
916.034	3253
916.146	3272
916.259	3253
916.371	3370
916.483	3386
916.595	3249
916.708	3382
916.82	3389
916.932	3348
917.044	3363
917.156	3370
917.268	3287
917.38	3298
917.491	3348
917.603	3409
917.715	3462
917.826	3473
917.938	3409
918.049	3329
918.161	3416
918.272	3603
918.384	3603
918.495	3519
918.606	3367
918.717	3272
918.828	3355
918.939	3443
919.05	3355
919.161	3401
919.272	3199
919.383	3302
919.494	3542
919.604	3686
919.715	3526
919.826	3435
919.936	3488
920.047	3591
920.157	3584
920.267	3793
920.378	3637
920.488	3587
920.598	3785
920.708	3949
920.818	3865
920.928	3884
921.038	4036
921.148	4040
921.258	3736
921.368	3686
921.477	3599
921.587	3564
921.697	3454
921.806	3671
921.916	3576
922.025	3420
922.134	3367
922.244	3340
922.353	3458
922.462	3298
922.571	3264
922.68	3116
922.789	3108
922.898	3195
923.007	3138
923.116	3237
923.224	3237
923.333	3222
923.442	3097
923.55	3119
923.659	3161
923.767	3226
923.876	3184
923.984	3222
924.092	3154
924.201	3253
924.309	3264
924.417	3313
924.525	3195
924.633	3233
924.741	4059
924.849	3070
924.956	3287
925.064	3131
925.172	3070
925.279	3131
925.387	3207
925.494	3245
925.602	3359
925.709	3348
925.816	3218
925.924	3317
926.031	3386
926.138	3344
926.245	3405
926.352	3291
926.459	3424
926.566	3504
926.673	3332
926.779	3260
926.886	3294
926.993	3119
927.099	3138
927.206	3161
927.312	3150
927.419	3256
927.525	3241
927.631	3241
927.737	3176
927.843	3119
927.95	3047
928.056	3169
928.162	3192
928.267	3283
928.373	3911
928.479	3332
928.585	3097
928.69	3245
928.796	3294
928.901	3214
929.007	3051
929.112	3245
929.218	3241
929.323	3184
929.428	3146
929.533	3336
929.638	3138
929.743	3214
929.848	3313
929.953	3245
930.058	3173
930.163	3024
930.267	3062
930.372	3226
930.477	3066
930.581	3336
930.685	3176
930.79	3108
930.894	3161
930.998	3135
931.103	3287
931.207	2971
931.311	2998
931.415	2906
931.519	2769
931.623	2853
