Data from test_V78500241_548.txt Node
Date: Fri Mar 25 16:18:59 CST 2022
User: usil
Spectrometer: V785-0024
Trigger mode: 0
Integration Time (sec): 4.000000E-1
Scans to average: 1
Nonlinearity correction enabled: false
Boxcar width: 0
Storing dark spectrum: false
XAxis mode: Wavelengths
Number of Pixels in Spectrum: 1024
>>>>>Begin Spectral Data<<<<<
801.071	2899
801.214	2937
801.356	2880
801.499	2891
801.641	2880
801.783	2914
801.926	3081
802.068	2998
802.211	2982
802.353	3043
802.496	2933
802.638	3017
802.78	3001
802.923	3089
803.065	2982
803.208	2914
803.35	2956
803.492	2963
803.635	2941
803.777	2746
803.919	2895
804.061	3222
804.204	2944
804.346	2941
804.488	2861
804.63	3009
804.773	2887
804.915	2887
805.057	3085
805.199	2948
805.341	2941
805.483	3032
805.626	2986
805.768	2986
805.91	3062
806.052	3104
806.194	3024
806.336	3256
806.478	3028
806.62	2922
806.762	2948
806.904	3055
807.046	3154
807.188	2960
807.33	2906
807.472	2960
807.614	2941
807.756	3001
807.898	2948
808.04	2857
808.182	2979
808.324	3005
808.465	2891
808.607	2876
808.749	2804
808.891	2807
809.033	2998
809.174	2963
809.316	2902
809.458	2868
809.6	2766
809.741	2777
809.883	2785
810.025	2849
810.166	2864
810.308	2838
810.45	2906
810.591	2800
810.733	2746
810.875	2849
811.016	2781
811.158	2743
811.299	2804
811.441	2918
811.582	2883
811.724	2845
811.865	2819
812.007	2941
812.148	2876
812.29	2845
812.431	2899
812.573	2941
812.714	2960
812.855	3043
812.997	3020
813.138	3138
813.279	2994
813.421	2967
813.562	2948
813.703	2883
813.845	2925
813.986	2807
814.127	2739
814.268	2845
814.41	2838
814.551	2796
814.692	2891
814.833	2823
814.974	2918
815.115	2971
815.256	2826
815.397	2777
815.539	2842
815.68	2773
815.821	2781
815.962	2925
816.103	2906
816.244	2849
816.385	2880
816.526	2998
816.666	2918
816.807	2727
816.948	2906
817.089	2910
817.23	2838
817.371	2792
817.512	2777
817.653	2842
817.793	2815
817.934	2880
818.075	2960
818.216	2982
818.356	3047
818.497	2902
818.638	2785
818.778	2781
818.919	2762
819.06	2739
819.2	2872
819.341	2845
819.481	2792
819.622	2952
819.762	3074
819.903	3081
820.043	2956
820.184	2887
820.324	2895
820.465	2994
820.605	3020
820.746	2998
820.886	2918
821.026	3097
821.167	3157
821.307	3283
821.447	3302
821.588	3214
821.728	3222
821.868	3188
822.008	3058
822.149	3176
822.289	3214
822.429	3093
822.569	3074
822.709	3211
822.849	3013
822.99	3089
823.13	3150
823.27	3203
823.41	3085
823.55	3119
823.69	3112
823.83	3192
823.97	3138
824.11	2982
824.25	2963
824.389	3062
824.529	3131
824.669	3066
824.809	3199
824.949	3218
825.089	3184
825.228	3146
825.368	3013
825.508	2952
825.648	2929
825.787	2986
825.927	3013
826.067	2963
826.206	2948
826.346	3017
826.485	3066
826.625	3097
826.765	3226
826.904	3180
827.044	2982
827.183	2933
827.323	2853
827.462	2982
827.601	2918
827.741	2891
827.88	2960
828.02	2876
828.159	2982
828.298	3020
828.437	3127
828.577	3032
828.716	3253
828.855	3047
828.994	2929
829.134	2876
829.273	2941
829.412	2864
829.551	2857
829.69	2929
829.829	2975
829.968	3123
830.107	2994
830.246	3043
830.385	2922
830.524	2857
830.663	2807
830.802	2735
830.941	2655
831.08	2636
831.219	2743
831.357	2769
831.496	2922
831.635	2701
831.774	2636
831.913	2632
832.051	2522
832.19	2549
832.329	2708
832.467	2518
832.606	2503
832.744	2583
832.883	2564
833.022	2575
833.16	2644
833.299	2689
833.437	2701
833.576	2701
833.714	2724
833.852	2746
833.991	2743
834.129	2815
834.267	2842
834.406	2743
834.544	2815
834.682	2861
834.821	2872
834.959	3039
835.097	2891
835.235	3024
835.373	3009
835.511	3017
835.65	2960
835.788	2933
835.926	2823
836.064	2826
836.202	2834
836.34	3127
836.478	3093
836.615	3066
836.753	3135
836.891	3184
837.029	3176
837.167	3077
837.305	3047
837.443	3055
837.58	2937
837.718	3135
837.856	3043
837.993	3036
838.131	3165
838.269	3097
838.406	3119
838.544	3108
838.681	2918
838.819	2864
838.956	2800
839.094	2796
839.231	2868
839.369	2967
839.506	3374
839.643	3211
839.781	3028
839.918	2975
840.055	3039
840.193	3058
840.33	3093
840.467	3074
840.604	3108
840.742	3382
840.879	3055
841.016	3051
841.153	3116
841.29	3287
841.427	3298
841.564	3275
841.701	3264
841.838	3199
841.975	3150
842.112	3199
842.249	3043
842.385	3043
842.522	3249
842.659	3074
842.796	3058
842.933	3074
843.069	3047
843.206	3043
843.343	3203
843.479	3081
843.616	3142
843.752	2910
843.889	2876
844.025	3119
844.162	2902
844.298	3097
844.435	2933
844.571	2876
844.708	3051
844.844	3150
844.98	3211
845.117	3138
845.253	3047
845.389	2982
845.525	3093
845.661	3093
845.798	3017
845.934	3112
846.07	3009
846.206	3203
846.342	3291
846.478	3180
846.614	3100
846.75	3062
846.886	3032
847.022	3214
847.158	3131
847.294	3180
847.429	3260
847.565	3184
847.701	3473
847.837	3039
847.972	2967
848.108	3173
848.244	3150
848.379	3036
848.515	2933
848.65	2872
848.786	2986
848.921	3017
849.057	3112
849.192	3146
849.328	3043
849.463	3150
849.598	3024
849.734	3036
849.869	2941
850.004	2899
850.14	2937
850.275	2883
850.41	2823
850.545	2902
850.68	2902
850.815	2963
850.95	2963
851.085	3150
851.22	3058
851.355	3017
851.49	3032
851.625	2982
851.76	3005
851.895	2925
852.03	2899
852.165	3005
852.299	3100
852.434	3138
852.569	3135
852.703	3131
852.838	3245
852.973	3351
853.107	3344
853.242	3176
853.376	3081
853.511	2929
853.645	3036
853.78	3207
853.914	3135
854.048	3154
854.183	3100
854.317	3165
854.451	3268
854.585	3127
854.72	3089
854.854	3230
854.988	3058
855.122	3062
855.256	2941
855.39	3127
855.524	3241
855.658	3195
855.792	3142
855.926	3192
856.06	3230
856.194	3226
856.327	3146
856.461	3043
856.595	3058
856.729	3066
856.862	3203
856.996	3135
857.13	3165
857.263	3230
857.397	3233
857.53	3085
857.664	3180
857.797	3245
857.931	3260
858.064	3169
858.197	3249
858.331	3135
858.464	3074
858.597	2971
858.731	3108
858.864	3100
858.997	3112
859.13	3138
859.263	3127
859.396	3207
859.529	3112
859.662	3066
859.795	3055
859.928	3135
860.061	3279
860.194	3279
860.327	3135
860.46	3123
860.592	3241
860.725	3233
860.858	3230
860.99	3093
861.123	3017
861.256	3062
861.388	3112
861.521	3789
861.653	2994
861.786	2963
861.918	2979
862.05	3024
862.183	3097
862.315	3097
862.447	3176
862.58	3070
862.712	2922
862.844	2864
862.976	3032
863.108	2994
863.24	3424
863.372	2849
863.504	2967
863.636	2960
863.768	3024
863.9	2975
864.032	2922
864.164	2971
864.296	2994
864.428	3066
864.559	3085
864.691	3047
864.823	3024
864.954	3066
865.086	3043
865.217	2990
865.349	2937
865.48	2963
865.612	3032
865.743	3146
865.875	2990
866.006	2929
866.137	2986
866.269	2929
866.4	2941
866.531	2929
866.662	2868
866.793	2876
866.924	2906
867.055	2971
867.186	2906
867.317	2868
867.448	2838
867.579	2826
867.71	2872
867.841	2788
867.972	2887
868.103	2891
868.233	2861
868.364	2880
868.495	2895
868.625	3074
868.756	3146
868.886	2975
869.017	3043
869.147	3176
869.278	3142
869.408	3032
869.539	3005
869.669	3093
869.799	3032
869.929	3112
870.06	3119
870.19	3298
870.32	3287
870.45	3260
870.58	3386
870.71	3462
870.84	3447
870.97	3306
871.1	3180
871.23	3447
871.36	3466
871.489	3321
871.619	3409
871.749	3401
871.879	3416
872.008	3492
872.138	3359
872.267	3272
872.397	3123
872.526	3108
872.656	3001
872.785	3089
872.915	3249
873.044	3287
873.173	3233
873.303	3275
873.432	3233
873.561	3233
873.69	3150
873.819	3135
873.948	3157
874.077	3138
874.206	3066
874.335	3058
874.464	3211
874.593	3348
874.722	3237
874.851	3386
874.979	3382
875.108	3340
875.237	3203
875.365	3192
875.494	3173
875.623	3233
875.751	3070
875.88	3089
876.008	3245
876.136	3222
876.265	3374
876.393	3519
876.521	3412
876.65	3389
876.778	3340
876.906	3256
877.034	3222
877.162	3192
877.29	3180
877.418	3253
877.546	3245
877.674	3275
877.802	3188
877.93	3211
878.058	3146
878.185	3089
878.313	3161
878.441	3203
878.568	3051
878.696	3135
878.824	3260
878.951	3302
879.079	3458
879.206	3599
879.333	3420
879.461	3310
879.588	3351
879.715	3496
879.842	3584
879.97	3359
880.097	3142
880.224	3119
880.351	3203
880.478	3195
880.605	3218
880.732	3184
880.859	3488
880.986	3275
881.112	3291
881.239	3195
881.366	3097
881.493	3062
881.619	3009
881.746	3047
881.872	3123
881.999	3085
882.125	3146
882.252	3302
882.378	3313
882.505	3416
882.631	3268
882.757	3135
882.883	3192
883.01	3226
883.136	3192
883.262	3081
883.388	3135
883.514	3298
883.64	3386
883.766	3279
883.892	3230
884.018	3233
884.143	3382
884.269	3507
884.395	3188
884.52	3161
884.646	3184
884.772	3112
884.897	3108
885.023	3211
885.148	3340
885.274	3386
885.399	3359
885.524	3298
885.65	3268
885.775	3310
885.9	3241
886.025	3416
886.15	3378
886.275	3279
886.4	3211
886.525	3317
886.65	3260
886.775	3233
886.9	3504
887.025	3595
887.149	3431
887.274	3230
887.399	3176
887.523	3237
887.648	3157
887.773	3226
887.897	3344
888.021	3397
888.146	3313
888.27	3443
888.395	3557
888.519	3386
888.643	3443
888.767	3450
888.891	3317
889.015	3272
889.139	3272
889.263	3222
889.387	3386
889.511	3477
889.635	3473
889.759	3291
889.883	3268
890.006	3393
890.13	3504
890.254	3256
890.377	3374
890.501	3249
890.624	3192
890.748	3287
890.871	3176
890.995	3123
891.118	3039
891.241	3218
891.364	3211
891.488	3332
891.611	3142
891.734	3233
891.857	3294
891.98	3260
892.103	3321
892.226	3260
892.349	3214
892.471	3100
892.594	3256
892.717	3291
892.839	3264
892.962	3340
893.085	3329
893.207	3275
893.33	3123
893.452	3214
893.575	3344
893.697	3275
893.819	3462
893.941	3462
894.064	3431
894.186	3260
894.308	3264
894.43	3447
894.552	3526
894.674	3488
894.796	3275
894.918	3317
895.04	3260
895.161	3409
895.283	3382
895.405	3279
895.526	3336
895.648	3450
895.769	3420
895.891	3454
896.012	3462
896.134	3462
896.255	3405
896.376	3389
896.498	3336
896.619	3443
896.74	3367
896.861	3374
896.982	3694
897.103	3804
897.224	3599
897.345	3492
897.466	3424
897.587	3534
897.708	3633
897.828	3515
897.949	3450
898.07	3302
898.19	3397
898.311	3542
898.431	3462
898.552	3485
898.672	3595
898.792	3553
898.913	3511
899.033	3424
899.153	3253
899.273	3203
899.393	3306
899.513	3298
899.633	3291
899.753	3332
899.873	3298
899.993	3332
900.113	3351
900.232	3359
900.352	3351
900.472	3302
900.591	3207
900.711	3249
900.83	3249
900.95	3393
901.069	3428
901.189	3287
901.308	3173
901.427	3104
901.546	3195
901.665	3275
901.784	3310
901.904	3165
902.023	3112
902.141	3032
902.26	2998
902.379	3138
902.498	3085
902.617	3051
902.735	3207
902.854	3253
902.973	3211
903.091	3062
903.21	3074
903.328	3173
903.446	3138
903.565	3081
903.683	3157
903.801	3112
903.919	3249
904.038	3302
904.156	3142
904.274	3272
904.392	3222
904.51	3279
904.627	3294
904.745	3424
904.863	3488
904.981	3264
905.098	3161
905.216	3188
905.334	3294
905.451	3279
905.569	3294
905.686	3401
905.803	3405
905.921	3291
906.038	3454
906.155	3363
906.272	3260
906.389	3359
906.506	3241
906.623	3222
906.74	3283
906.857	3146
906.974	3233
907.091	3435
907.208	3557
907.324	3485
907.441	3363
907.557	3222
907.674	3245
907.79	3214
907.907	3268
908.023	3374
908.139	3409
908.256	3321
908.372	3344
908.488	3351
908.604	3241
908.72	3249
908.836	3249
908.952	3294
909.068	3355
909.184	3443
909.3	3386
909.415	3469
909.531	3473
909.647	3302
909.762	3325
909.878	3249
909.993	3325
910.108	3325
910.224	3313
910.339	3386
910.454	3367
910.57	3268
910.685	3268
910.8	3557
910.915	3504
911.03	3443
911.145	3264
911.259	3310
911.374	3298
911.489	3226
911.604	3180
911.718	3108
911.833	3127
911.947	3024
912.062	3005
912.176	3188
912.291	3199
912.405	3214
912.519	3428
912.633	3466
912.748	3332
912.862	3275
912.976	3150
913.09	3100
913.204	3142
913.318	3222
913.431	3332
913.545	3287
913.659	3405
913.772	3329
913.886	3222
914	3188
914.113	3321
914.226	3431
914.34	3374
914.453	3226
914.566	3431
914.68	3294
914.793	3336
914.906	3146
915.019	3161
915.132	3062
915.245	3165
915.358	3176
915.47	3203
915.583	3256
915.696	3287
915.809	3370
915.921	3428
916.034	3230
916.146	3264
916.259	3184
916.371	3378
916.483	3378
916.595	3253
916.708	3382
916.82	3310
916.932	3329
917.044	3348
917.156	3325
917.268	3207
917.38	3332
917.491	3283
917.603	3348
917.715	3416
917.826	3473
917.938	3386
918.049	3279
918.161	3439
918.272	3580
918.384	3545
918.495	3485
918.606	3351
918.717	3256
918.828	3409
918.939	3389
919.05	3272
919.161	3374
919.272	3188
919.383	3298
919.494	3492
919.604	3686
919.715	3462
919.826	3416
919.936	3401
920.047	3587
920.157	3553
920.267	3751
920.378	3576
920.488	3549
920.598	3770
920.708	3937
920.818	3816
920.928	3808
921.038	4013
921.148	3998
921.258	3740
921.368	3641
921.477	3564
921.587	3515
921.697	3424
921.806	3622
921.916	3542
922.025	3363
922.134	3348
922.244	3344
922.353	3389
922.462	3253
922.571	3233
922.68	3070
922.789	3089
922.898	3131
923.007	3081
923.116	3157
923.224	3188
923.333	3192
923.442	3093
923.55	3108
923.659	3173
923.767	3203
923.876	3154
923.984	3211
924.092	3104
924.201	3211
924.309	3214
924.417	3253
924.525	3173
924.633	3199
924.741	3983
924.849	3077
924.956	3237
925.064	3108
925.172	3036
925.279	3127
925.387	3180
925.494	3192
925.602	3340
925.709	3336
925.816	3230
925.924	3298
926.031	3443
926.138	3310
926.245	3325
926.352	3218
926.459	3393
926.566	3462
926.673	3321
926.779	3230
926.886	3253
926.993	3157
927.099	3150
927.206	3119
927.312	3123
927.419	3222
927.525	3192
927.631	3268
927.737	3154
927.843	3089
927.95	3005
928.056	3131
928.162	3184
928.267	3211
928.373	3766
928.479	3298
928.585	3062
928.69	3176
928.796	3279
928.901	3214
929.007	3032
929.112	3169
929.218	3146
929.323	3146
929.428	3135
929.533	3317
929.638	3119
929.743	3142
929.848	3249
929.953	3214
930.058	3104
930.163	3024
930.267	3024
930.372	3195
930.477	3020
930.581	3275
930.685	3173
930.79	3077
930.894	3077
930.998	3093
931.103	3283
931.207	2975
931.311	2902
931.415	2891
931.519	2788
931.623	2788
