Data from test_V78500241_46.txt Node
Date: Fri Mar 25 16:15:31 CST 2022
User: usil
Spectrometer: V785-0024
Trigger mode: 0
Integration Time (sec): 4.000000E-1
Scans to average: 1
Nonlinearity correction enabled: false
Boxcar width: 0
Storing dark spectrum: false
XAxis mode: Wavelengths
Number of Pixels in Spectrum: 1024
>>>>>Begin Spectral Data<<<<<
801.071	2967
801.214	3005
801.356	2864
801.499	2929
801.641	2956
801.783	2929
801.926	3077
802.068	3047
802.211	3017
802.353	3062
802.496	3001
802.638	3039
802.78	3081
802.923	3135
803.065	3028
803.208	2899
803.35	2956
803.492	2960
803.635	2979
803.777	2792
803.919	2895
804.061	3222
804.204	2982
804.346	2914
804.488	2891
804.63	3017
804.773	2895
804.915	2948
805.057	3097
805.199	2963
805.341	3039
805.483	3055
805.626	3024
805.768	3005
805.91	3119
806.052	3146
806.194	3074
806.336	3245
806.478	3043
806.62	2979
806.762	3032
806.904	3097
807.046	3233
807.188	2994
807.33	2963
807.472	3001
807.614	2963
807.756	3028
807.898	2937
808.04	2918
808.182	3062
808.324	2998
808.465	2925
808.607	2895
808.749	2883
808.891	2925
809.033	3013
809.174	3032
809.316	2925
809.458	2902
809.6	2788
809.741	2804
809.883	2792
810.025	2864
810.166	2883
810.308	2910
810.45	2895
810.591	2807
810.733	2819
810.875	2861
811.016	2826
811.158	2769
811.299	2845
811.441	2956
811.582	2960
811.724	2845
811.865	2849
812.007	2941
812.148	2922
812.29	2891
812.431	2902
812.573	2963
812.714	3013
812.855	3077
812.997	3108
813.138	3127
813.279	3047
813.421	3036
813.562	3005
813.703	2899
813.845	2937
813.986	2823
814.127	2712
814.268	2864
814.41	2880
814.551	2800
814.692	2925
814.833	2864
814.974	2910
815.115	2963
815.256	2864
815.397	2823
815.539	2895
815.68	2800
815.821	2788
815.962	2956
816.103	2963
816.244	2906
816.385	2902
816.526	3001
816.666	2944
816.807	2758
816.948	2914
817.089	2952
817.23	2891
817.371	2796
817.512	2830
817.653	2864
817.793	2872
817.934	2925
818.075	2986
818.216	3066
818.356	3047
818.497	2956
818.638	2811
818.778	2849
818.919	2807
819.06	2792
819.2	2948
819.341	2880
819.481	2823
819.622	2979
819.762	3104
819.903	3097
820.043	2952
820.184	2922
820.324	2925
820.465	3032
820.605	3047
820.746	3077
820.886	2967
821.026	3127
821.167	3180
821.307	3291
821.447	3321
821.588	3283
821.728	3260
821.868	3226
822.008	3142
822.149	3241
822.289	3237
822.429	3108
822.569	3116
822.709	3207
822.849	3055
822.99	3119
823.13	3203
823.27	3264
823.41	3161
823.55	3211
823.69	3192
823.83	3226
823.97	3135
824.11	3043
824.25	3043
824.389	3112
824.529	3176
824.669	3062
824.809	3264
824.949	3298
825.089	3268
825.228	3199
825.368	3024
825.508	3005
825.648	3043
825.787	3043
825.927	3020
826.067	3032
826.206	3001
826.346	3051
826.485	3108
826.625	3161
826.765	3298
826.904	3317
827.044	3032
827.183	3001
827.323	2880
827.462	3005
827.601	2929
827.741	2967
827.88	2979
828.02	2910
828.159	3020
828.298	3100
828.437	3169
828.577	3066
828.716	3279
828.855	3131
828.994	2948
829.134	2918
829.273	2948
829.412	2872
829.551	2914
829.69	2941
829.829	3001
829.968	3184
830.107	3028
830.246	3058
830.385	2944
830.524	2910
830.663	2864
830.802	2758
830.941	2674
831.08	2701
831.219	2788
831.357	2769
831.496	2918
831.635	2769
831.774	2678
831.913	2682
832.051	2552
832.19	2606
832.329	2678
832.467	2552
832.606	2518
832.744	2636
832.883	2602
833.022	2602
833.16	2682
833.299	2739
833.437	2727
833.576	2731
833.714	2739
833.852	2777
833.991	2781
834.129	2830
834.267	2857
834.406	2826
834.544	2918
834.682	2899
834.821	2906
834.959	3085
835.097	2918
835.235	3089
835.373	3062
835.511	3077
835.65	2998
835.788	2990
835.926	2857
836.064	2823
836.202	2887
836.34	3097
836.478	3138
836.615	3093
836.753	3165
836.891	3249
837.029	3218
837.167	3108
837.305	3093
837.443	3070
837.58	2986
837.718	3173
837.856	3093
837.993	3081
838.131	3150
838.269	3116
838.406	3108
838.544	3127
838.681	2982
838.819	2944
838.956	2842
839.094	2853
839.231	2944
839.369	3047
839.506	3431
839.643	3306
839.781	3066
839.918	2986
840.055	3097
840.193	3074
840.33	3135
840.467	3123
840.604	3165
840.742	3450
840.879	3089
841.016	3074
841.153	3169
841.29	3363
841.427	3336
841.564	3336
841.701	3355
841.838	3283
841.975	3211
842.112	3237
842.249	3123
842.385	3089
842.522	3310
842.659	3138
842.796	3051
842.933	3112
843.069	3093
843.206	3043
843.343	3173
843.479	3165
843.616	3195
843.752	2944
843.889	2906
844.025	3100
844.162	2880
844.298	3085
844.435	2990
844.571	2971
844.708	3097
844.844	3230
844.98	3256
845.117	3230
845.253	3058
845.389	3062
845.525	3127
845.661	3123
845.798	3039
845.934	3161
846.07	3089
846.206	3268
846.342	3351
846.478	3279
846.614	3154
846.75	3108
846.886	3119
847.022	3291
847.158	3169
847.294	3253
847.429	3264
847.565	3249
847.701	3530
847.837	3066
847.972	3043
848.108	3226
848.244	3161
848.379	3024
848.515	2956
848.65	2975
848.786	2975
848.921	3036
849.057	3165
849.192	3188
849.328	3089
849.463	3150
849.598	3100
849.734	3093
849.869	3028
850.004	2944
850.14	3013
850.275	2944
850.41	2857
850.545	2929
850.68	2967
850.815	3032
850.95	2998
851.085	3233
851.22	3123
851.355	3062
851.49	3017
851.625	3055
851.76	3009
851.895	2971
852.03	2941
852.165	3024
852.299	3146
852.434	3214
852.569	3169
852.703	3207
852.838	3294
852.973	3397
853.107	3378
853.242	3218
853.376	3176
853.511	2994
853.645	3081
853.78	3294
853.914	3146
854.048	3165
854.183	3112
854.317	3169
854.451	3317
854.585	3165
854.72	3142
854.854	3268
854.988	3116
855.122	3127
855.256	3017
855.39	3146
855.524	3279
855.658	3237
855.792	3207
855.926	3203
856.06	3249
856.194	3306
856.327	3214
856.461	3112
856.595	3119
856.729	3108
856.862	3230
856.996	3146
857.13	3226
857.263	3241
857.397	3317
857.53	3161
857.664	3256
857.797	3268
857.931	3275
858.064	3203
858.197	3214
858.331	3195
858.464	3131
858.597	3028
858.731	3176
858.864	3157
858.997	3116
859.13	3176
859.263	3195
859.396	3203
859.529	3108
859.662	3112
859.795	3077
859.928	3180
860.061	3298
860.194	3317
860.327	3207
860.46	3157
860.592	3283
860.725	3336
860.858	3291
860.99	3138
861.123	3085
861.256	3070
861.388	3214
861.521	3915
861.653	3066
861.786	3001
861.918	3036
862.05	3100
862.183	3093
862.315	3192
862.447	3222
862.58	3138
862.712	2998
862.844	2910
862.976	3043
863.108	3081
863.24	3344
863.372	2910
863.504	2986
863.636	2960
863.768	3085
863.9	2986
864.032	2922
864.164	2979
864.296	3055
864.428	3127
864.559	3108
864.691	3085
864.823	3074
864.954	3085
865.086	3066
865.217	3013
865.349	3005
865.48	3032
865.612	3077
865.743	3188
865.875	2998
866.006	2998
866.137	2986
866.269	2960
866.4	3013
866.531	2941
866.662	2941
866.793	2944
866.924	2941
867.055	3001
867.186	2933
867.317	2941
867.448	2864
867.579	2906
867.71	2887
867.841	2838
867.972	2922
868.103	2914
868.233	2925
868.364	2941
868.495	2944
868.625	3127
868.756	3199
868.886	3009
869.017	3051
869.147	3211
869.278	3214
869.408	3104
869.539	3055
869.669	3135
869.799	3036
869.929	3169
870.06	3112
870.19	3363
870.32	3306
870.45	3344
870.58	3397
870.71	3504
870.84	3488
870.97	3306
871.1	3283
871.23	3507
871.36	3485
871.489	3386
871.619	3424
871.749	3485
871.879	3462
872.008	3526
872.138	3378
872.267	3325
872.397	3146
872.526	3150
872.656	3062
872.785	3146
872.915	3272
873.044	3332
873.173	3260
873.303	3287
873.432	3256
873.561	3264
873.69	3188
873.819	3180
873.948	3226
874.077	3157
874.206	3062
874.335	3104
874.464	3264
874.593	3393
874.722	3260
874.851	3458
874.979	3416
875.108	3363
875.237	3207
875.365	3150
875.494	3195
875.623	3325
875.751	3093
875.88	3135
876.008	3237
876.136	3222
876.265	3454
876.393	3526
876.521	3511
876.65	3412
876.778	3397
876.906	3268
877.034	3218
877.162	3283
877.29	3169
877.418	3253
877.546	3260
877.674	3268
877.802	3279
877.93	3237
878.058	3142
878.185	3154
878.313	3268
878.441	3268
878.568	3123
878.696	3188
878.824	3275
878.951	3306
879.079	3469
879.206	3698
879.333	3447
879.461	3382
879.588	3409
879.715	3530
879.842	3629
879.97	3401
880.097	3184
880.224	3211
880.351	3241
880.478	3264
880.605	3237
880.732	3218
880.859	3519
880.986	3344
881.112	3389
881.239	3218
881.366	3116
881.493	3070
881.619	3036
881.746	3089
881.872	3127
881.999	3100
882.125	3169
882.252	3256
882.378	3355
882.505	3477
882.631	3336
882.757	3211
882.883	3237
883.01	3260
883.136	3203
883.262	3108
883.388	3165
883.514	3363
883.64	3405
883.766	3363
883.892	3199
884.018	3245
884.143	3469
884.269	3576
884.395	3207
884.52	3199
884.646	3211
884.772	3142
884.897	3135
885.023	3233
885.148	3412
885.274	3416
885.399	3416
885.524	3317
885.65	3275
885.775	3355
885.9	3302
886.025	3507
886.15	3359
886.275	3359
886.4	3260
886.525	3340
886.65	3294
886.775	3272
886.9	3526
887.025	3675
887.149	3424
887.274	3264
887.399	3218
887.523	3211
887.648	3211
887.773	3176
887.897	3382
888.021	3443
888.146	3325
888.27	3485
888.395	3568
888.519	3431
888.643	3492
888.767	3526
888.891	3313
889.015	3279
889.139	3321
889.263	3294
889.387	3466
889.511	3603
889.635	3481
889.759	3321
889.883	3374
890.006	3409
890.13	3542
890.254	3329
890.377	3370
890.501	3245
890.624	3264
890.748	3367
890.871	3214
890.995	3131
891.118	3131
891.241	3253
891.364	3310
891.488	3367
891.611	3264
891.734	3275
891.857	3348
891.98	3332
892.103	3367
892.226	3363
892.349	3268
892.471	3214
892.594	3291
892.717	3367
892.839	3355
892.962	3401
893.085	3435
893.207	3374
893.33	3245
893.452	3291
893.575	3401
893.697	3344
893.819	3553
893.941	3599
894.064	3534
894.186	3310
894.308	3351
894.43	3530
894.552	3648
894.674	3572
894.796	3351
894.918	3424
895.04	3386
895.161	3526
895.283	3488
895.405	3348
895.526	3485
895.648	3519
895.769	3519
895.891	3488
896.012	3538
896.134	3545
896.255	3515
896.376	3447
896.498	3431
896.619	3488
896.74	3443
896.861	3488
896.982	3728
897.103	3876
897.224	3652
897.345	3625
897.466	3538
897.587	3553
897.708	3713
897.828	3625
897.949	3500
898.07	3473
898.19	3469
898.311	3720
898.431	3530
898.552	3580
898.672	3686
898.792	3675
898.913	3614
899.033	3485
899.153	3359
899.273	3306
899.393	3405
899.513	3348
899.633	3348
899.753	3424
899.873	3382
899.993	3458
900.113	3424
900.232	3485
900.352	3420
900.472	3397
900.591	3272
900.711	3340
900.83	3344
900.95	3545
901.069	3572
901.189	3435
901.308	3275
901.427	3233
901.546	3291
901.665	3363
901.784	3405
901.904	3332
902.023	3207
902.141	3085
902.26	3058
902.379	3195
902.498	3127
902.617	3138
902.735	3279
902.854	3268
902.973	3275
903.091	3116
903.21	3146
903.328	3241
903.446	3161
903.565	3180
903.683	3253
903.801	3199
903.919	3302
904.038	3336
904.156	3241
904.274	3374
904.392	3344
904.51	3321
904.627	3386
904.745	3511
904.863	3599
904.981	3355
905.098	3226
905.216	3306
905.334	3359
905.451	3367
905.569	3348
905.686	3496
905.803	3526
905.921	3374
906.038	3496
906.155	3420
906.272	3344
906.389	3435
906.506	3321
906.623	3313
906.74	3374
906.857	3287
906.974	3340
907.091	3545
907.208	3660
907.324	3557
907.441	3439
907.557	3294
907.674	3317
907.79	3291
907.907	3310
908.023	3473
908.139	3420
908.256	3412
908.372	3435
908.488	3466
908.604	3332
908.72	3279
908.836	3336
908.952	3367
909.068	3378
909.184	3587
909.3	3462
909.415	3572
909.531	3534
909.647	3329
909.762	3348
909.878	3348
909.993	3435
910.108	3424
910.224	3416
910.339	3488
910.454	3412
910.57	3367
910.685	3294
910.8	3667
910.915	3572
911.03	3515
911.145	3317
911.259	3355
911.374	3401
911.489	3317
911.604	3310
911.718	3203
911.833	3195
911.947	3112
912.062	3055
912.176	3241
912.291	3253
912.405	3298
912.519	3466
912.633	3553
912.748	3420
912.862	3355
912.976	3256
913.09	3146
913.204	3195
913.318	3264
913.431	3435
913.545	3416
913.659	3515
913.772	3405
913.886	3249
914	3294
914.113	3409
914.226	3473
914.34	3447
914.453	3283
914.566	3473
914.68	3389
914.793	3401
914.906	3222
915.019	3173
915.132	3131
915.245	3226
915.358	3260
915.47	3321
915.583	3348
915.696	3401
915.809	3485
915.921	3492
916.034	3294
916.146	3344
916.259	3367
916.371	3462
916.483	3416
916.595	3363
916.708	3393
916.82	3416
916.932	3409
917.044	3405
917.156	3393
917.268	3344
917.38	3382
917.491	3389
917.603	3443
917.715	3545
917.826	3572
917.938	3466
918.049	3359
918.161	3515
918.272	3648
918.384	3663
918.495	3545
918.606	3405
918.717	3321
918.828	3428
918.939	3500
919.05	3344
919.161	3424
919.272	3260
919.383	3329
919.494	3603
919.604	3713
919.715	3599
919.826	3504
919.936	3534
920.047	3679
920.157	3572
920.267	3850
920.378	3698
920.488	3618
920.598	3918
920.708	4044
920.818	3903
920.928	3884
921.038	4112
921.148	4051
921.258	3804
921.368	3713
921.477	3663
921.587	3660
921.697	3561
921.806	3701
921.916	3606
922.025	3439
922.134	3454
922.244	3397
922.353	3492
922.462	3363
922.571	3325
922.68	3195
922.789	3184
922.898	3226
923.007	3203
923.116	3253
923.224	3230
923.333	3241
923.442	3188
923.55	3142
923.659	3230
923.767	3291
923.876	3173
923.984	3291
924.092	3176
924.201	3279
924.309	3332
924.417	3332
924.525	3260
924.633	3310
924.741	4230
924.849	3142
924.956	3367
925.064	3192
925.172	3085
925.279	3169
925.387	3313
925.494	3249
925.602	3447
925.709	3374
925.816	3294
925.924	3355
926.031	3454
926.138	3405
926.245	3401
926.352	3329
926.459	3488
926.566	3534
926.673	3363
926.779	3306
926.886	3272
926.993	3214
927.099	3218
927.206	3157
927.312	3218
927.419	3302
927.525	3245
927.631	3367
927.737	3226
927.843	3142
927.95	3089
928.056	3218
928.162	3260
928.267	3317
928.373	3842
928.479	3370
928.585	3135
928.69	3275
928.796	3355
928.901	3272
929.007	3123
929.112	3294
929.218	3253
929.323	3214
929.428	3241
929.533	3374
929.638	3214
929.743	3222
929.848	3340
929.953	3302
930.058	3173
930.163	3051
930.267	3112
930.372	3245
930.477	3123
930.581	3355
930.685	3214
930.79	3116
930.894	3218
930.998	3138
931.103	3386
931.207	3024
931.311	2982
931.415	2967
931.519	2826
931.623	2868
