Data from test_V78500241_1508.txt Node
Date: Fri Mar 25 16:25:39 CST 2022
User: usil
Spectrometer: V785-0024
Trigger mode: 0
Integration Time (sec): 4.000000E-1
Scans to average: 1
Nonlinearity correction enabled: false
Boxcar width: 0
Storing dark spectrum: false
XAxis mode: Wavelengths
Number of Pixels in Spectrum: 1024
>>>>>Begin Spectral Data<<<<<
801.071	2929
801.214	2944
801.356	2853
801.499	2891
801.641	2861
801.783	2902
801.926	3032
802.068	2956
802.211	2971
802.353	3013
802.496	2922
802.638	3013
802.78	3062
802.923	3066
803.065	3013
803.208	2902
803.35	2914
803.492	2929
803.635	2891
803.777	2766
803.919	2861
804.061	3184
804.204	2956
804.346	2887
804.488	2857
804.63	3005
804.773	2868
804.915	2914
805.057	3055
805.199	2925
805.341	2948
805.483	3009
805.626	2998
805.768	2956
805.91	3051
806.052	3100
806.194	2982
806.336	3218
806.478	3005
806.62	2925
806.762	2956
806.904	3032
807.046	3184
807.188	3001
807.33	2902
807.472	2975
807.614	2887
807.756	2952
807.898	2899
808.04	2918
808.182	2963
808.324	2933
808.465	2914
808.607	2880
808.749	2811
808.891	2823
809.033	2971
809.174	2948
809.316	2868
809.458	2895
809.6	2769
809.741	2762
809.883	2766
810.025	2830
810.166	2830
810.308	2857
810.45	2880
810.591	2777
810.733	2746
810.875	2849
811.016	2785
811.158	2769
811.299	2804
811.441	2941
811.582	2902
811.724	2849
811.865	2853
812.007	2914
812.148	2906
812.29	2823
812.431	2906
812.573	2952
812.714	2902
812.855	2986
812.997	3062
813.138	3123
813.279	2998
813.421	2990
813.562	2975
813.703	2853
813.845	2853
813.986	2785
814.127	2788
814.268	2819
814.41	2842
814.551	2830
814.692	2857
814.833	2815
814.974	2895
815.115	2956
815.256	2864
815.397	2773
815.539	2826
815.68	2785
815.821	2807
815.962	2963
816.103	2925
816.244	2883
816.385	2872
816.526	2971
816.666	2929
816.807	2731
816.948	2876
817.089	2906
817.23	2842
817.371	2769
817.512	2773
817.653	2811
817.793	2861
817.934	2880
818.075	2975
818.216	2975
818.356	3005
818.497	2876
818.638	2762
818.778	2830
818.919	2811
819.06	2766
819.2	2899
819.341	2815
819.481	2796
819.622	2922
819.762	3112
819.903	3013
820.043	2925
820.184	2914
820.324	2906
820.465	3001
820.605	3043
820.746	3028
820.886	2963
821.026	3085
821.167	3154
821.307	3279
821.447	3294
821.588	3245
821.728	3211
821.868	3180
822.008	3066
822.149	3173
822.289	3199
822.429	3104
822.569	3085
822.709	3165
822.849	3066
822.99	3058
823.13	3138
823.27	3203
823.41	3116
823.55	3135
823.69	3135
823.83	3180
823.97	3093
824.11	2979
824.25	2975
824.389	3032
824.529	3131
824.669	3066
824.809	3176
824.949	3253
825.089	3207
825.228	3146
825.368	3005
825.508	2952
825.648	2967
825.787	3024
825.927	3028
826.067	2937
826.206	2933
826.346	3032
826.485	3055
826.625	3085
826.765	3264
826.904	3226
827.044	2979
827.183	2948
827.323	2853
827.462	2971
827.601	2883
827.741	2925
827.88	2944
828.02	2853
828.159	2925
828.298	3036
828.437	3108
828.577	3020
828.716	3237
828.855	3055
828.994	2891
829.134	2891
829.273	2906
829.412	2849
829.551	2864
829.69	2891
829.829	2982
829.968	3150
830.107	3028
830.246	3047
830.385	2914
830.524	2902
830.663	2804
830.802	2727
830.941	2674
831.08	2655
831.219	2724
831.357	2727
831.496	2941
831.635	2724
831.774	2632
831.913	2640
832.051	2537
832.19	2579
832.329	2712
832.467	2530
832.606	2461
832.744	2594
832.883	2587
833.022	2560
833.16	2629
833.299	2697
833.437	2697
833.576	2720
833.714	2720
833.852	2735
833.991	2754
834.129	2792
834.267	2819
834.406	2762
834.544	2864
834.682	2887
834.821	2876
834.959	3085
835.097	2902
835.235	3051
835.373	2998
835.511	3020
835.65	2937
835.788	2944
835.926	2834
836.064	2842
836.202	2857
836.34	3074
836.478	3146
836.615	3020
836.753	3089
836.891	3180
837.029	3119
837.167	3146
837.305	3081
837.443	3039
837.58	2971
837.718	3146
837.856	3058
837.993	3055
838.131	3142
838.269	3104
838.406	3104
838.544	3089
838.681	2929
838.819	2948
838.956	2807
839.094	2834
839.231	2952
839.369	3047
839.506	3336
839.643	3218
839.781	3013
839.918	2941
840.055	3036
840.193	3047
840.33	3081
840.467	3089
840.604	3154
840.742	3412
840.879	3066
841.016	3066
841.153	3100
841.29	3321
841.427	3294
841.564	3222
841.701	3275
841.838	3226
841.975	3154
842.112	3218
842.249	3097
842.385	3028
842.522	3253
842.659	3077
842.796	3093
842.933	3146
843.069	3055
843.206	3036
843.343	3180
843.479	3116
843.616	3123
843.752	2857
843.889	2853
844.025	3074
844.162	2861
844.298	3066
844.435	2952
844.571	2902
844.708	3055
844.844	3150
844.98	3253
845.117	3207
845.253	3036
845.389	2994
845.525	3104
845.661	3135
845.798	3005
845.934	3123
846.07	3051
846.206	3195
846.342	3332
846.478	3233
846.614	3077
846.75	3051
846.886	3005
847.022	3192
847.158	3058
847.294	3211
847.429	3226
847.565	3222
847.701	3481
847.837	3055
847.972	2963
848.108	3135
848.244	3157
848.379	2998
848.515	2933
848.65	2925
848.786	2994
848.921	3009
849.057	3097
849.192	3138
849.328	3100
849.463	3104
849.598	3066
849.734	3047
849.869	2933
850.004	2937
850.14	2990
850.275	2864
850.41	2868
850.545	2826
850.68	2899
850.815	2948
850.95	2979
851.085	3150
851.22	3093
851.355	2998
851.49	2967
851.625	2998
851.76	2990
851.895	2914
852.03	2910
852.165	3036
852.299	3089
852.434	3154
852.569	3157
852.703	3161
852.838	3195
852.973	3344
853.107	3317
853.242	3150
853.376	3074
853.511	2937
853.645	3024
853.78	3207
853.914	3146
854.048	3100
854.183	3070
854.317	3150
854.451	3268
854.585	3104
854.72	3070
854.854	3218
854.988	3043
855.122	3135
855.256	2933
855.39	3085
855.524	3211
855.658	3184
855.792	3154
855.926	3195
856.06	3211
856.194	3260
856.327	3131
856.461	3108
856.595	3104
856.729	3100
856.862	3230
856.996	3123
857.13	3203
857.263	3180
857.397	3279
857.53	3093
857.664	3184
857.797	3230
857.931	3275
858.064	3188
858.197	3211
858.331	3154
858.464	3104
858.597	2971
858.731	3074
858.864	3131
858.997	3108
859.13	3131
859.263	3199
859.396	3214
859.529	3097
859.662	3081
859.795	3051
859.928	3135
860.061	3264
860.194	3275
860.327	3146
860.46	3066
860.592	3256
860.725	3253
860.858	3249
860.99	3097
861.123	3028
861.256	3028
861.388	3100
861.521	3793
861.653	3005
861.786	3036
861.918	2994
862.05	3047
862.183	3066
862.315	3154
862.447	3199
862.58	3077
862.712	2952
862.844	2868
862.976	2998
863.108	2994
863.24	3310
863.372	2902
863.504	2967
863.636	2960
863.768	3047
863.9	3036
864.032	2929
864.164	2922
864.296	3001
864.428	3051
864.559	3104
864.691	3051
864.823	3062
864.954	3081
865.086	3017
865.217	2971
865.349	2952
865.48	2994
865.612	3017
865.743	3138
865.875	2979
866.006	2937
866.137	2979
866.269	2960
866.4	2914
866.531	2906
866.662	2880
866.793	2895
866.924	2876
867.055	3005
867.186	2918
867.317	2883
867.448	2826
867.579	2845
867.71	2792
867.841	2826
867.972	2906
868.103	2922
868.233	2876
868.364	2876
868.495	2899
868.625	3047
868.756	3150
868.886	3020
869.017	2998
869.147	3176
869.278	3157
869.408	3039
869.539	3043
869.669	3108
869.799	2998
869.929	3150
870.06	3104
870.19	3291
870.32	3283
870.45	3294
870.58	3378
870.71	3420
870.84	3462
870.97	3264
871.1	3222
871.23	3466
871.36	3443
871.489	3351
871.619	3397
871.749	3374
871.879	3443
872.008	3450
872.138	3344
872.267	3264
872.397	3116
872.526	3043
872.656	3009
872.785	3108
872.915	3199
873.044	3294
873.173	3176
873.303	3233
873.432	3218
873.561	3245
873.69	3154
873.819	3157
873.948	3165
874.077	3077
874.206	3039
874.335	3070
874.464	3184
874.593	3332
874.722	3233
874.851	3351
874.979	3386
875.108	3306
875.237	3195
875.365	3154
875.494	3165
875.623	3230
875.751	3093
875.88	3093
876.008	3188
876.136	3222
876.265	3420
876.393	3496
876.521	3397
876.65	3401
876.778	3344
876.906	3241
877.034	3161
877.162	3226
877.29	3169
877.418	3218
877.546	3203
877.674	3237
877.802	3203
877.93	3249
878.058	3142
878.185	3108
878.313	3218
878.441	3195
878.568	3058
878.696	3161
878.824	3283
878.951	3317
879.079	3431
879.206	3614
879.333	3431
879.461	3336
879.588	3370
879.715	3466
879.842	3576
879.97	3370
880.097	3116
880.224	3154
880.351	3176
880.478	3211
880.605	3218
880.732	3173
880.859	3511
880.986	3283
881.112	3306
881.239	3192
881.366	3036
881.493	3047
881.619	3036
881.746	3089
881.872	3100
881.999	3112
882.125	3131
882.252	3249
882.378	3260
882.505	3435
882.631	3306
882.757	3157
882.883	3211
883.01	3188
883.136	3192
883.262	3116
883.388	3127
883.514	3310
883.64	3336
883.766	3291
883.892	3169
884.018	3203
884.143	3382
884.269	3534
884.395	3180
884.52	3146
884.646	3169
884.772	3104
884.897	3077
885.023	3218
885.148	3298
885.274	3443
885.399	3367
885.524	3268
885.65	3260
885.775	3302
885.9	3245
886.025	3458
886.15	3325
886.275	3294
886.4	3180
886.525	3317
886.65	3294
886.775	3279
886.9	3496
887.025	3603
887.149	3389
887.274	3283
887.399	3188
887.523	3207
887.648	3199
887.773	3218
887.897	3393
888.021	3382
888.146	3306
888.27	3428
888.395	3523
888.519	3405
888.643	3405
888.767	3481
888.891	3287
889.015	3207
889.139	3264
889.263	3226
889.387	3374
889.511	3526
889.635	3443
889.759	3272
889.883	3268
890.006	3420
890.13	3477
890.254	3317
890.377	3351
890.501	3233
890.624	3165
890.748	3291
890.871	3135
890.995	3138
891.118	3074
891.241	3188
891.364	3218
891.488	3283
891.611	3195
891.734	3253
891.857	3226
891.98	3226
892.103	3317
892.226	3260
892.349	3214
892.471	3116
892.594	3264
892.717	3298
892.839	3287
892.962	3287
893.085	3370
893.207	3279
893.33	3165
893.452	3211
893.575	3351
893.697	3291
893.819	3477
893.941	3488
894.064	3473
894.186	3302
894.308	3264
894.43	3450
894.552	3500
894.674	3488
894.796	3298
894.918	3313
895.04	3268
895.161	3401
895.283	3386
895.405	3332
895.526	3370
895.648	3420
895.769	3405
895.891	3412
896.012	3477
896.134	3454
896.255	3424
896.376	3397
896.498	3401
896.619	3447
896.74	3329
896.861	3374
896.982	3625
897.103	3819
897.224	3625
897.345	3526
897.466	3428
897.587	3443
897.708	3637
897.828	3545
897.949	3447
898.07	3340
898.19	3386
898.311	3587
898.431	3439
898.552	3542
898.672	3580
898.792	3564
898.913	3492
899.033	3386
899.153	3291
899.273	3180
899.393	3291
899.513	3317
899.633	3256
899.753	3344
899.873	3325
899.993	3367
900.113	3355
900.232	3370
900.352	3336
900.472	3275
900.591	3192
900.711	3260
900.83	3249
900.95	3389
901.069	3500
901.189	3336
901.308	3180
901.427	3089
901.546	3169
901.665	3283
901.784	3313
901.904	3195
902.023	3127
902.141	3013
902.26	2952
902.379	3104
902.498	3097
902.617	3032
902.735	3222
902.854	3211
902.973	3218
903.091	3039
903.21	3058
903.328	3119
903.446	3135
903.565	3081
903.683	3192
903.801	3104
903.919	3245
904.038	3275
904.156	3176
904.274	3241
904.392	3279
904.51	3283
904.627	3321
904.745	3435
904.863	3462
904.981	3256
905.098	3138
905.216	3230
905.334	3287
905.451	3275
905.569	3302
905.686	3428
905.803	3409
905.921	3298
906.038	3397
906.155	3370
906.272	3279
906.389	3329
906.506	3195
906.623	3256
906.74	3249
906.857	3184
906.974	3253
907.091	3428
907.208	3568
907.324	3504
907.441	3374
907.557	3218
907.674	3173
907.79	3226
907.907	3268
908.023	3389
908.139	3378
908.256	3298
908.372	3378
908.488	3348
908.604	3287
908.72	3268
908.836	3260
908.952	3260
909.068	3306
909.184	3492
909.3	3370
909.415	3515
909.531	3454
909.647	3241
909.762	3283
909.878	3268
909.993	3370
910.108	3351
910.224	3332
910.339	3405
910.454	3344
910.57	3351
910.685	3241
910.8	3557
910.915	3549
911.03	3447
911.145	3237
911.259	3268
911.374	3321
911.489	3237
911.604	3241
911.718	3131
911.833	3161
911.947	3028
912.062	2971
912.176	3173
912.291	3222
912.405	3233
912.519	3450
912.633	3477
912.748	3302
912.862	3283
912.976	3180
913.09	3093
913.204	3165
913.318	3180
913.431	3332
913.545	3344
913.659	3382
913.772	3313
913.886	3233
914	3203
914.113	3344
914.226	3435
914.34	3359
914.453	3203
914.566	3428
914.68	3302
914.793	3317
914.906	3116
915.019	3108
915.132	3047
915.245	3184
915.358	3207
915.47	3192
915.583	3226
915.696	3256
915.809	3393
915.921	3412
916.034	3253
916.146	3256
916.259	3241
916.371	3348
916.483	3344
916.595	3249
916.708	3302
916.82	3359
916.932	3355
917.044	3332
917.156	3367
917.268	3253
917.38	3287
917.491	3264
917.603	3325
917.715	3431
917.826	3447
917.938	3348
918.049	3272
918.161	3409
918.272	3584
918.384	3599
918.495	3530
918.606	3298
918.717	3260
918.828	3374
918.939	3420
919.05	3332
919.161	3317
919.272	3154
919.383	3275
919.494	3454
919.604	3663
919.715	3496
919.826	3393
919.936	3424
920.047	3584
920.157	3568
920.267	3755
920.378	3606
920.488	3580
920.598	3797
920.708	3972
920.818	3850
920.928	3797
921.038	4017
921.148	3941
921.258	3705
921.368	3629
921.477	3564
921.587	3519
921.697	3485
921.806	3603
921.916	3523
922.025	3351
922.134	3325
922.244	3325
922.353	3416
922.462	3268
922.571	3199
922.68	3112
922.789	3104
922.898	3104
923.007	3085
923.116	3188
923.224	3211
923.333	3203
923.442	3104
923.55	3116
923.659	3165
923.767	3226
923.876	3100
923.984	3211
924.092	3119
924.201	3237
924.309	3230
924.417	3275
924.525	3184
924.633	3214
924.741	4177
924.849	3066
924.956	3264
925.064	3074
925.172	3047
925.279	3074
925.387	3192
925.494	3180
925.602	3374
925.709	3268
925.816	3161
925.924	3291
926.031	3389
926.138	3332
926.245	3348
926.352	3226
926.459	3424
926.566	3496
926.673	3268
926.779	3237
926.886	3241
926.993	3135
927.099	3131
927.206	3097
927.312	3116
927.419	3222
927.525	3203
927.631	3256
927.737	3165
927.843	3127
927.95	2990
928.056	3135
928.162	3138
928.267	3218
928.373	3751
928.479	3321
928.585	3070
928.69	3180
928.796	3245
928.901	3157
929.007	3077
929.112	3218
929.218	3157
929.323	3104
929.428	3123
929.533	3306
929.638	3093
929.743	3142
929.848	3241
929.953	3203
930.058	3085
930.163	3024
930.267	3047
930.372	3176
930.477	3112
930.581	3291
930.685	3176
930.79	3074
930.894	3100
930.998	3100
931.103	3310
931.207	2944
931.311	2899
931.415	2937
931.519	2792
931.623	2807
