Data from test_V78500241_1808.txt Node
Date: Fri Mar 25 16:27:43 CST 2022
User: usil
Spectrometer: V785-0024
Trigger mode: 0
Integration Time (sec): 4.000000E-1
Scans to average: 1
Nonlinearity correction enabled: false
Boxcar width: 0
Storing dark spectrum: false
XAxis mode: Wavelengths
Number of Pixels in Spectrum: 1024
>>>>>Begin Spectral Data<<<<<
801.071	2902
801.214	2937
801.356	2857
801.499	2918
801.641	2899
801.783	2929
801.926	3051
802.068	2948
802.211	2967
802.353	3070
802.496	2963
802.638	3001
802.78	3028
802.923	3093
803.065	3024
803.208	2880
803.35	2887
803.492	2937
803.635	2925
803.777	2754
803.919	2922
804.061	3180
804.204	2941
804.346	2891
804.488	2861
804.63	2994
804.773	2845
804.915	2933
805.057	3062
805.199	2922
805.341	2963
805.483	3062
805.626	3017
805.768	2963
805.91	3097
806.052	3100
806.194	3009
806.336	3268
806.478	3020
806.62	2941
806.762	2952
806.904	3070
807.046	3119
807.188	2994
807.33	2922
807.472	2990
807.614	2891
807.756	2922
807.898	2914
808.04	2899
808.182	2948
808.324	2956
808.465	2880
808.607	2902
808.749	2807
808.891	2883
809.033	2975
809.174	2925
809.316	2899
809.458	2868
809.6	2769
809.741	2785
809.883	2777
810.025	2815
810.166	2857
810.308	2815
810.45	2857
810.591	2766
810.733	2777
810.875	2792
811.016	2781
811.158	2773
811.299	2788
811.441	2941
811.582	2902
811.724	2792
811.865	2849
812.007	2883
812.148	2861
812.29	2826
812.431	2838
812.573	2929
812.714	2929
812.855	3036
812.997	3093
813.138	3047
813.279	2994
813.421	2941
813.562	2948
813.703	2853
813.845	2887
813.986	2762
814.127	2727
814.268	2834
814.41	2823
814.551	2811
814.692	2830
814.833	2815
814.974	2864
815.115	2956
815.256	2804
815.397	2800
815.539	2838
815.68	2777
815.821	2769
815.962	2902
816.103	2906
816.244	2845
816.385	2887
816.526	2971
816.666	2937
816.807	2716
816.948	2883
817.089	2929
817.23	2807
817.371	2781
817.512	2777
817.653	2811
817.793	2815
817.934	2838
818.075	2979
818.216	2990
818.356	3009
818.497	2876
818.638	2800
818.778	2819
818.919	2773
819.06	2739
819.2	2899
819.341	2788
819.481	2800
819.622	2914
819.762	3108
819.903	3051
820.043	2922
820.184	2891
820.324	2891
820.465	2982
820.605	2994
820.746	3028
820.886	2929
821.026	3108
821.167	3165
821.307	3199
821.447	3272
821.588	3211
821.728	3203
821.868	3203
822.008	3077
822.149	3169
822.289	3253
822.429	3066
822.569	3070
822.709	3146
822.849	3009
822.99	3074
823.13	3146
823.27	3180
823.41	3108
823.55	3127
823.69	3165
823.83	3161
823.97	3051
824.11	2986
824.25	2986
824.389	3039
824.529	3119
824.669	3043
824.809	3135
824.949	3233
825.089	3188
825.228	3097
825.368	2998
825.508	2944
825.648	2971
825.787	3024
825.927	3028
826.067	2956
826.206	2925
826.346	3024
826.485	3070
826.625	3108
826.765	3241
826.904	3207
827.044	2986
827.183	2925
827.323	2830
827.462	2971
827.601	2944
827.741	2902
827.88	2922
828.02	2868
828.159	2994
828.298	3036
828.437	3100
828.577	3055
828.716	3226
828.855	3112
828.994	2902
829.134	2883
829.273	2922
829.412	2845
829.551	2849
829.69	2902
829.829	2990
829.968	3081
830.107	3009
830.246	3001
830.385	2929
830.524	2902
830.663	2823
830.802	2712
830.941	2632
831.08	2648
831.219	2777
831.357	2750
831.496	2941
831.635	2739
831.774	2625
831.913	2651
832.051	2552
832.19	2602
832.329	2682
832.467	2526
832.606	2465
832.744	2571
832.883	2552
833.022	2571
833.16	2659
833.299	2697
833.437	2712
833.576	2701
833.714	2712
833.852	2731
833.991	2777
834.129	2796
834.267	2792
834.406	2773
834.544	2849
834.682	2861
834.821	2857
834.959	3081
835.097	2899
835.235	3032
835.373	3013
835.511	3032
835.65	2929
835.788	2937
835.926	2823
836.064	2796
836.202	2830
836.34	3066
836.478	3131
836.615	3047
836.753	3119
836.891	3176
837.029	3157
837.167	3097
837.305	3066
837.443	3066
837.58	2941
837.718	3142
837.856	3074
837.993	3017
838.131	3119
838.269	3119
838.406	3100
838.544	3043
838.681	2960
838.819	2948
838.956	2823
839.094	2838
839.231	2895
839.369	3001
839.506	3382
839.643	3226
839.781	3005
839.918	2979
840.055	3047
840.193	3058
840.33	3070
840.467	3108
840.604	3157
840.742	3439
840.879	3077
841.016	3017
841.153	3108
841.29	3313
841.427	3237
841.564	3230
841.701	3313
841.838	3230
841.975	3188
842.112	3230
842.249	3100
842.385	3077
842.522	3253
842.659	3062
842.796	3062
842.933	3089
843.069	3036
843.206	3020
843.343	3188
843.479	3081
843.616	3154
843.752	2891
843.889	2876
844.025	3104
844.162	2849
844.298	3081
844.435	2971
844.571	2910
844.708	3097
844.844	3180
844.98	3230
845.117	3192
845.253	3020
845.389	3009
845.525	3112
845.661	3062
845.798	2986
845.934	3142
846.07	3017
846.206	3203
846.342	3283
846.478	3230
846.614	3093
846.75	3017
846.886	3032
847.022	3249
847.158	3165
847.294	3203
847.429	3233
847.565	3192
847.701	3485
847.837	3024
847.972	3009
848.108	3150
848.244	3104
848.379	2990
848.515	2967
848.65	2933
848.786	3013
848.921	3017
849.057	3127
849.192	3097
849.328	3077
849.463	3123
849.598	3055
849.734	2998
849.869	2975
850.004	2937
850.14	2937
850.275	2861
850.41	2826
850.545	2880
850.68	2925
850.815	2925
850.95	2963
851.085	3207
851.22	3104
851.355	3039
851.49	2979
851.625	2998
851.76	2998
851.895	2956
852.03	2880
852.165	3036
852.299	3157
852.434	3176
852.569	3116
852.703	3157
852.838	3253
852.973	3351
853.107	3291
853.242	3135
853.376	3097
853.511	2982
853.645	3013
853.78	3195
853.914	3097
854.048	3055
854.183	3058
854.317	3199
854.451	3298
854.585	3093
854.72	3074
854.854	3192
854.988	3070
855.122	3077
855.256	2986
855.39	3131
855.524	3256
855.658	3192
855.792	3150
855.926	3161
856.06	3207
856.194	3245
856.327	3157
856.461	3081
856.595	3108
856.729	3135
856.862	3226
856.996	3127
857.13	3195
857.263	3218
857.397	3249
857.53	3123
857.664	3180
857.797	3230
857.931	3256
858.064	3135
858.197	3233
858.331	3157
858.464	3077
858.597	3028
858.731	3123
858.864	3119
858.997	3074
859.13	3184
859.263	3173
859.396	3203
859.529	3108
859.662	3062
859.795	3017
859.928	3154
860.061	3302
860.194	3253
860.327	3173
860.46	3104
860.592	3195
860.725	3199
860.858	3241
860.99	3131
861.123	3047
861.256	3055
861.388	3169
861.521	3823
861.653	3032
861.786	2967
861.918	3005
862.05	3047
862.183	3039
862.315	3135
862.447	3222
862.58	3070
862.712	2944
862.844	2883
862.976	3055
863.108	3013
863.24	3397
863.372	2872
863.504	2963
863.636	2948
863.768	3055
863.9	2963
864.032	2899
864.164	2944
864.296	3024
864.428	3055
864.559	3119
864.691	3039
864.823	3089
864.954	3058
865.086	3043
865.217	2948
865.349	2956
865.48	2994
865.612	2998
865.743	3138
865.875	2990
866.006	2933
866.137	2967
866.269	2933
866.4	2967
866.531	2922
866.662	2872
866.793	2880
866.924	2906
867.055	2971
867.186	2929
867.317	2880
867.448	2868
867.579	2857
867.71	2788
867.841	2838
867.972	2891
868.103	2880
868.233	2883
868.364	2872
868.495	2948
868.625	3089
868.756	3146
868.886	2937
869.017	3001
869.147	3173
869.278	3161
869.408	3028
869.539	3017
869.669	3085
869.799	3001
869.929	3135
870.06	3112
870.19	3321
870.32	3310
870.45	3332
870.58	3355
870.71	3439
870.84	3458
870.97	3294
871.1	3260
871.23	3466
871.36	3500
871.489	3340
871.619	3409
871.749	3359
871.879	3424
872.008	3458
872.138	3348
872.267	3279
872.397	3138
872.526	3097
872.656	2956
872.785	3104
872.915	3237
873.044	3313
873.173	3207
873.303	3279
873.432	3199
873.561	3245
873.69	3146
873.819	3173
873.948	3161
874.077	3085
874.206	3047
874.335	3085
874.464	3180
874.593	3355
874.722	3253
874.851	3389
874.979	3348
875.108	3325
875.237	3222
875.365	3150
875.494	3131
875.623	3253
875.751	3097
875.88	3142
876.008	3157
876.136	3195
876.265	3351
876.393	3496
876.521	3428
876.65	3401
876.778	3317
876.906	3214
877.034	3211
877.162	3245
877.29	3173
877.418	3260
877.546	3260
877.674	3272
877.802	3214
877.93	3214
878.058	3116
878.185	3081
878.313	3218
878.441	3214
878.568	3062
878.696	3146
878.824	3222
878.951	3302
879.079	3431
879.206	3629
879.333	3424
879.461	3302
879.588	3321
879.715	3534
879.842	3633
879.97	3351
880.097	3157
880.224	3138
880.351	3157
880.478	3180
880.605	3214
880.732	3192
880.859	3507
880.986	3306
881.112	3306
881.239	3195
881.366	3070
881.493	3032
881.619	3001
881.746	3074
881.872	3104
881.999	3116
882.125	3146
882.252	3226
882.378	3283
882.505	3454
882.631	3283
882.757	3169
882.883	3207
883.01	3203
883.136	3154
883.262	3070
883.388	3119
883.514	3249
883.64	3351
883.766	3306
883.892	3173
884.018	3241
884.143	3428
884.269	3526
884.395	3226
884.52	3138
884.646	3161
884.772	3119
884.897	3093
885.023	3207
885.148	3336
885.274	3435
885.399	3340
885.524	3279
885.65	3260
885.775	3310
885.9	3313
886.025	3416
886.15	3336
886.275	3306
886.4	3245
886.525	3294
886.65	3279
886.775	3272
886.9	3458
887.025	3587
887.149	3382
887.274	3214
887.399	3173
887.523	3233
887.648	3192
887.773	3173
887.897	3370
888.021	3405
888.146	3332
888.27	3428
888.395	3542
888.519	3431
888.643	3450
888.767	3450
888.891	3321
889.015	3264
889.139	3298
889.263	3222
889.387	3367
889.511	3504
889.635	3424
889.759	3291
889.883	3249
890.006	3386
890.13	3454
890.254	3272
890.377	3306
890.501	3199
890.624	3142
890.748	3253
890.871	3173
890.995	3127
891.118	3070
891.241	3222
891.364	3233
891.488	3340
891.611	3150
891.734	3222
891.857	3272
891.98	3165
892.103	3279
892.226	3253
892.349	3195
892.471	3089
892.594	3233
892.717	3264
892.839	3211
892.962	3283
893.085	3367
893.207	3283
893.33	3150
893.452	3192
893.575	3359
893.697	3260
893.819	3488
893.941	3496
894.064	3447
894.186	3264
894.308	3279
894.43	3469
894.552	3519
894.674	3469
894.796	3291
894.918	3313
895.04	3275
895.161	3435
895.283	3351
895.405	3283
895.526	3321
895.648	3405
895.769	3420
895.891	3450
896.012	3462
896.134	3458
896.255	3428
896.376	3405
896.498	3332
896.619	3428
896.74	3332
896.861	3359
896.982	3686
897.103	3880
897.224	3618
897.345	3545
897.466	3473
897.587	3515
897.708	3610
897.828	3564
897.949	3439
898.07	3340
898.19	3378
898.311	3587
898.431	3409
898.552	3488
898.672	3564
898.792	3599
898.913	3523
899.033	3424
899.153	3279
899.273	3203
899.393	3291
899.513	3313
899.633	3321
899.753	3340
899.873	3298
899.993	3386
900.113	3367
900.232	3348
900.352	3317
900.472	3317
900.591	3222
900.711	3298
900.83	3222
900.95	3370
901.069	3496
901.189	3359
901.308	3138
901.427	3119
901.546	3180
901.665	3287
901.784	3317
901.904	3195
902.023	3146
902.141	2971
902.26	3020
902.379	3157
902.498	3108
902.617	3047
902.735	3218
902.854	3241
902.973	3165
903.091	3077
903.21	3085
903.328	3157
903.446	3157
903.565	3154
903.683	3218
903.801	3123
903.919	3222
904.038	3279
904.156	3207
904.274	3329
904.392	3233
904.51	3260
904.627	3329
904.745	3439
904.863	3485
904.981	3249
905.098	3176
905.216	3241
905.334	3302
905.451	3287
905.569	3332
905.686	3431
905.803	3435
905.921	3268
906.038	3428
906.155	3367
906.272	3249
906.389	3325
906.506	3214
906.623	3241
906.74	3249
906.857	3157
906.974	3253
907.091	3431
907.208	3568
907.324	3481
907.441	3405
907.557	3233
907.674	3245
907.79	3218
907.907	3306
908.023	3386
908.139	3370
908.256	3336
908.372	3405
908.488	3363
908.604	3287
908.72	3211
908.836	3260
908.952	3249
909.068	3306
909.184	3481
909.3	3420
909.415	3450
909.531	3454
909.647	3275
909.762	3272
909.878	3291
909.993	3370
910.108	3344
910.224	3340
910.339	3370
910.454	3329
910.57	3287
910.685	3260
910.8	3656
910.915	3553
911.03	3458
911.145	3272
911.259	3302
911.374	3325
911.489	3241
911.604	3241
911.718	3135
911.833	3150
911.947	3032
912.062	3009
912.176	3150
912.291	3176
912.405	3207
912.519	3431
912.633	3481
912.748	3329
912.862	3279
912.976	3188
913.09	3043
913.204	3146
913.318	3184
913.431	3348
913.545	3340
913.659	3405
913.772	3294
913.886	3214
914	3203
914.113	3359
914.226	3389
914.34	3374
914.453	3222
914.566	3431
914.68	3302
914.793	3298
914.906	3131
915.019	3116
915.132	3058
915.245	3199
915.358	3241
915.47	3245
915.583	3222
915.696	3306
915.809	3382
915.921	3401
916.034	3283
916.146	3264
916.259	3264
916.371	3405
916.483	3340
916.595	3264
916.708	3306
916.82	3325
916.932	3313
917.044	3386
917.156	3329
917.268	3245
917.38	3302
917.491	3275
917.603	3344
917.715	3443
917.826	3443
917.938	3386
918.049	3275
918.161	3412
918.272	3580
918.384	3599
918.495	3500
918.606	3306
918.717	3260
918.828	3409
918.939	3435
919.05	3294
919.161	3374
919.272	3150
919.383	3272
919.494	3450
919.604	3709
919.715	3511
919.826	3412
919.936	3469
920.047	3591
920.157	3534
920.267	3774
920.378	3610
920.488	3534
920.598	3781
920.708	3903
920.818	3850
920.928	3838
921.038	3994
921.148	4036
921.258	3736
921.368	3610
921.477	3568
921.587	3511
921.697	3477
921.806	3637
921.916	3549
922.025	3344
922.134	3359
922.244	3340
922.353	3431
922.462	3249
922.571	3230
922.68	3119
922.789	3131
922.898	3112
923.007	3116
923.116	3218
923.224	3214
923.333	3180
923.442	3085
923.55	3089
923.659	3104
923.767	3222
923.876	3161
923.984	3272
924.092	3127
924.201	3203
924.309	3226
924.417	3264
924.525	3192
924.633	3211
924.741	3998
924.849	3047
924.956	3241
925.064	3131
925.172	3036
925.279	3116
925.387	3184
925.494	3188
925.602	3378
925.709	3321
925.816	3203
925.924	3275
926.031	3340
926.138	3325
926.245	3351
926.352	3249
926.459	3389
926.566	3485
926.673	3336
926.779	3218
926.886	3279
926.993	3135
927.099	3127
927.206	3104
927.312	3074
927.419	3245
927.525	3157
927.631	3245
927.737	3127
927.843	3123
927.95	3020
928.056	3146
928.162	3192
928.267	3230
928.373	3781
928.479	3321
928.585	3036
928.69	3226
928.796	3283
928.901	3169
929.007	3028
929.112	3176
929.218	3142
929.323	3135
929.428	3123
929.533	3306
929.638	3165
929.743	3188
929.848	3275
929.953	3249
930.058	3154
930.163	2994
930.267	3100
930.372	3233
930.477	3074
930.581	3287
930.685	3180
930.79	3020
930.894	3100
930.998	3081
931.103	3279
931.207	2998
931.311	2975
931.415	2937
931.519	2762
931.623	2826
