Data from test_V78500241_16.txt Node
Date: Fri Mar 25 16:15:18 CST 2022
User: usil
Spectrometer: V785-0024
Trigger mode: 0
Integration Time (sec): 4.000000E-1
Scans to average: 1
Nonlinearity correction enabled: false
Boxcar width: 0
Storing dark spectrum: false
XAxis mode: Wavelengths
Number of Pixels in Spectrum: 1024
>>>>>Begin Spectral Data<<<<<
801.071	2944
801.214	2990
801.356	2944
801.499	2899
801.641	2914
801.783	2990
801.926	3089
802.068	3032
802.211	3039
802.353	3097
802.496	3020
802.638	3062
802.78	3089
802.923	3093
803.065	3020
803.208	2899
803.35	2986
803.492	2975
803.635	2967
803.777	2769
803.919	2868
804.061	3207
804.204	3013
804.346	2960
804.488	2872
804.63	3009
804.773	2906
804.915	2956
805.057	3131
805.199	2994
805.341	2975
805.483	3077
805.626	3028
805.768	2994
805.91	3138
806.052	3154
806.194	3077
806.336	3291
806.478	3062
806.62	2994
806.762	2990
806.904	3135
807.046	3203
807.188	3013
807.33	2975
807.472	3032
807.614	2967
807.756	3028
807.898	2933
808.04	2914
808.182	3036
808.324	3009
808.465	2929
808.607	2925
808.749	2830
808.891	2902
809.033	3036
809.174	3017
809.316	2956
809.458	2910
809.6	2781
809.741	2819
809.883	2834
810.025	2910
810.166	2876
810.308	2887
810.45	2902
810.591	2819
810.733	2845
810.875	2895
811.016	2823
811.158	2804
811.299	2823
811.441	2986
811.582	2918
811.724	2849
811.865	2864
812.007	2925
812.148	2925
812.29	2895
812.431	2891
812.573	2960
812.714	2990
812.855	3104
812.997	3055
813.138	3211
813.279	3058
813.421	3005
813.562	3047
813.703	2914
813.845	2948
813.986	2807
814.127	2701
814.268	2823
814.41	2891
814.551	2857
814.692	2944
814.833	2842
814.974	2933
815.115	3001
815.256	2883
815.397	2864
815.539	2899
815.68	2788
815.821	2838
815.962	2975
816.103	2956
816.244	2925
816.385	2922
816.526	2990
816.666	2941
816.807	2781
816.948	2914
817.089	2956
817.23	2887
817.371	2845
817.512	2838
817.653	2891
817.793	2872
817.934	2910
818.075	3013
818.216	3028
818.356	3066
818.497	2944
818.638	2838
818.778	2872
818.919	2853
819.06	2811
819.2	2937
819.341	2853
819.481	2842
819.622	2967
819.762	3150
819.903	3074
820.043	2982
820.184	2963
820.324	2937
820.465	3093
820.605	3070
820.746	3108
820.886	2979
821.026	3138
821.167	3211
821.307	3310
821.447	3298
821.588	3264
821.728	3245
821.868	3256
822.008	3154
822.149	3237
822.289	3272
822.429	3081
822.569	3135
822.709	3195
822.849	3097
822.99	3123
823.13	3192
823.27	3264
823.41	3169
823.55	3192
823.69	3184
823.83	3218
823.97	3119
824.11	3058
824.25	3039
824.389	3112
824.529	3176
824.669	3116
824.809	3260
824.949	3275
825.089	3298
825.228	3214
825.368	3024
825.508	2994
825.648	3036
825.787	3047
825.927	3138
826.067	3001
826.206	3028
826.346	3157
826.485	3100
826.625	3169
826.765	3310
826.904	3245
827.044	3047
827.183	2979
827.323	2922
827.462	3032
827.601	2941
827.741	2960
827.88	3001
828.02	2918
828.159	3020
828.298	3085
828.437	3199
828.577	3085
828.716	3317
828.855	3085
828.994	2979
829.134	2929
829.273	2944
829.412	2906
829.551	2887
829.69	2922
829.829	3047
829.968	3195
830.107	3070
830.246	3070
830.385	2948
830.524	2899
830.663	2826
830.802	2781
830.941	2678
831.08	2678
831.219	2788
831.357	2781
831.496	2998
831.635	2777
831.774	2716
831.913	2655
832.051	2537
832.19	2621
832.329	2693
832.467	2579
832.606	2526
832.744	2587
832.883	2629
833.022	2644
833.16	2663
833.299	2724
833.437	2735
833.576	2708
833.714	2800
833.852	2769
833.991	2796
834.129	2887
834.267	2899
834.406	2826
834.544	2937
834.682	2887
834.821	2872
834.959	3135
835.097	2967
835.235	3089
835.373	3062
835.511	3070
835.65	3017
835.788	2971
835.926	2849
836.064	2834
836.202	2899
836.34	3116
836.478	3233
836.615	3089
836.753	3188
836.891	3268
837.029	3203
837.167	3135
837.305	3119
837.443	3089
837.58	2994
837.718	3203
837.856	3131
837.993	3081
838.131	3157
838.269	3135
838.406	3138
838.544	3108
838.681	2963
838.819	2960
838.956	2880
839.094	2842
839.231	2944
839.369	3085
839.506	3447
839.643	3253
839.781	3058
839.918	2990
840.055	3085
840.193	3074
840.33	3138
840.467	3138
840.604	3218
840.742	3462
840.879	3100
841.016	3093
841.153	3176
841.29	3359
841.427	3363
841.564	3348
841.701	3363
841.838	3256
841.975	3207
842.112	3264
842.249	3123
842.385	3104
842.522	3321
842.659	3135
842.796	3112
842.933	3150
843.069	3062
843.206	3074
843.343	3222
843.479	3203
843.616	3173
843.752	2937
843.889	2937
844.025	3127
844.162	2933
844.298	3131
844.435	2982
844.571	2956
844.708	3138
844.844	3218
844.98	3260
845.117	3241
845.253	3089
845.389	3077
845.525	3138
845.661	3112
845.798	3089
845.934	3199
846.07	3100
846.206	3256
846.342	3367
846.478	3291
846.614	3180
846.75	3085
846.886	3062
847.022	3302
847.158	3169
847.294	3211
847.429	3298
847.565	3275
847.701	3519
847.837	3116
847.972	3074
848.108	3180
848.244	3188
848.379	3039
848.515	2963
848.65	2933
848.786	3058
848.921	3039
849.057	3184
849.192	3169
849.328	3085
849.463	3135
849.598	3112
849.734	3104
849.869	3009
850.004	2998
850.14	2986
850.275	2971
850.41	2872
850.545	2880
850.68	2979
850.815	3020
850.95	3066
851.085	3245
851.22	3146
851.355	3104
851.49	3020
851.625	3028
851.76	3039
851.895	2994
852.03	2933
852.165	3043
852.299	3138
852.434	3226
852.569	3222
852.703	3230
852.838	3283
852.973	3401
853.107	3367
853.242	3214
853.376	3123
853.511	3013
853.645	3093
853.78	3294
853.914	3169
854.048	3169
854.183	3116
854.317	3195
854.451	3363
854.585	3169
854.72	3142
854.854	3233
854.988	3085
855.122	3127
855.256	3013
855.39	3199
855.524	3291
855.658	3195
855.792	3230
855.926	3214
856.06	3245
856.194	3321
856.327	3222
856.461	3116
856.595	3154
856.729	3154
856.862	3264
856.996	3203
857.13	3249
857.263	3275
857.397	3348
857.53	3157
857.664	3233
857.797	3264
857.931	3291
858.064	3218
858.197	3298
858.331	3184
858.464	3157
858.597	3039
858.731	3154
858.864	3173
858.997	3131
859.13	3226
859.263	3214
859.396	3245
859.529	3138
859.662	3123
859.795	3104
859.928	3169
860.061	3294
860.194	3321
860.327	3150
860.46	3173
860.592	3294
860.725	3287
860.858	3268
860.99	3157
861.123	3100
861.256	3104
861.388	3195
861.521	3732
861.653	3070
861.786	3055
861.918	3024
862.05	3097
862.183	3131
862.315	3150
862.447	3279
862.58	3165
862.712	2990
862.844	2933
862.976	3070
863.108	3017
863.24	3507
863.372	2918
863.504	3017
863.636	2971
863.768	3051
863.9	3013
864.032	2960
864.164	2998
864.296	3062
864.428	3131
864.559	3100
864.691	3127
864.823	3058
864.954	3077
865.086	3104
865.217	3036
865.349	3013
865.48	3009
865.612	3058
865.743	3199
865.875	3024
866.006	2952
866.137	3017
866.269	3005
866.4	2948
866.531	2971
866.662	2941
866.793	2963
866.924	2883
867.055	2998
867.186	2944
867.317	2891
867.448	2880
867.579	2895
867.71	2872
867.841	2849
867.972	2963
868.103	2956
868.233	2906
868.364	2933
868.495	2937
868.625	3108
868.756	3195
868.886	2998
869.017	3070
869.147	3195
869.278	3230
869.408	3058
869.539	3077
869.669	3150
869.799	3081
869.929	3207
870.06	3116
870.19	3332
870.32	3321
870.45	3336
870.58	3409
870.71	3496
870.84	3477
870.97	3397
871.1	3275
871.23	3534
871.36	3500
871.489	3439
871.619	3466
871.749	3450
871.879	3469
872.008	3545
872.138	3431
872.267	3348
872.397	3157
872.526	3146
872.656	3017
872.785	3138
872.915	3283
873.044	3351
873.173	3256
873.303	3264
873.432	3260
873.561	3260
873.69	3222
873.819	3192
873.948	3241
874.077	3154
874.206	3058
874.335	3119
874.464	3283
874.593	3428
874.722	3317
874.851	3466
874.979	3389
875.108	3336
875.237	3203
875.365	3237
875.494	3222
875.623	3249
875.751	3112
875.88	3142
876.008	3260
876.136	3264
876.265	3412
876.393	3576
876.521	3534
876.65	3416
876.778	3386
876.906	3279
877.034	3279
877.162	3291
877.29	3249
877.418	3310
877.546	3306
877.674	3268
877.802	3268
877.93	3279
878.058	3203
878.185	3154
878.313	3226
878.441	3275
878.568	3116
878.696	3230
878.824	3313
878.951	3367
879.079	3515
879.206	3671
879.333	3507
879.461	3370
879.588	3401
879.715	3553
879.842	3625
879.97	3462
880.097	3241
880.224	3154
880.351	3264
880.478	3264
880.605	3260
880.732	3253
880.859	3557
880.986	3389
881.112	3351
881.239	3249
881.366	3123
881.493	3081
881.619	3089
881.746	3131
881.872	3104
881.999	3154
882.125	3161
882.252	3283
882.378	3321
882.505	3496
882.631	3317
882.757	3180
882.883	3253
883.01	3230
883.136	3176
883.262	3119
883.388	3135
883.514	3409
883.64	3412
883.766	3382
883.892	3226
884.018	3298
884.143	3492
884.269	3561
884.395	3283
884.52	3188
884.646	3241
884.772	3169
884.897	3176
885.023	3268
885.148	3382
885.274	3481
885.399	3409
885.524	3321
885.65	3291
885.775	3367
885.9	3294
886.025	3481
886.15	3412
886.275	3351
886.4	3237
886.525	3348
886.65	3310
886.775	3325
886.9	3587
887.025	3709
887.149	3523
887.274	3306
887.399	3211
887.523	3253
887.648	3188
887.773	3275
887.897	3447
888.021	3447
888.146	3325
888.27	3496
888.395	3599
888.519	3492
888.643	3515
888.767	3504
888.891	3370
889.015	3294
889.139	3374
889.263	3275
889.387	3454
889.511	3591
889.635	3500
889.759	3332
889.883	3321
890.006	3435
890.13	3545
890.254	3336
890.377	3401
890.501	3298
890.624	3253
890.748	3363
890.871	3245
890.995	3146
891.118	3142
891.241	3256
891.364	3310
891.488	3359
891.611	3241
891.734	3279
891.857	3325
891.98	3313
892.103	3374
892.226	3359
892.349	3256
892.471	3142
892.594	3287
892.717	3351
892.839	3325
892.962	3344
893.085	3386
893.207	3336
893.33	3211
893.452	3249
893.575	3401
893.697	3298
893.819	3542
893.941	3564
894.064	3496
894.186	3302
894.308	3332
894.43	3523
894.552	3595
894.674	3526
894.796	3344
894.918	3355
895.04	3351
895.161	3500
895.283	3405
895.405	3348
895.526	3450
895.648	3462
895.769	3523
895.891	3454
896.012	3496
896.134	3530
896.255	3473
896.376	3435
896.498	3431
896.619	3469
896.74	3450
896.861	3469
896.982	3743
897.103	3934
897.224	3629
897.345	3595
897.466	3481
897.587	3542
897.708	3709
897.828	3599
897.949	3473
898.07	3393
898.19	3447
898.311	3637
898.431	3492
898.552	3591
898.672	3641
898.792	3667
898.913	3614
899.033	3496
899.153	3313
899.273	3279
899.393	3355
899.513	3359
899.633	3374
899.753	3412
899.873	3363
899.993	3443
900.113	3370
900.232	3450
900.352	3443
900.472	3336
900.591	3313
900.711	3332
900.83	3298
900.95	3454
901.069	3561
901.189	3401
901.308	3226
901.427	3173
901.546	3207
901.665	3374
901.784	3370
901.904	3245
902.023	3184
902.141	3062
902.26	3024
902.379	3211
902.498	3127
902.617	3127
902.735	3211
902.854	3294
902.973	3256
903.091	3093
903.21	3116
903.328	3207
903.446	3173
903.565	3116
903.683	3237
903.801	3157
903.919	3241
904.038	3340
904.156	3226
904.274	3351
904.392	3291
904.51	3310
904.627	3409
904.745	3500
904.863	3587
904.981	3321
905.098	3180
905.216	3272
905.334	3306
905.451	3382
905.569	3370
905.686	3481
905.803	3481
905.921	3348
906.038	3450
906.155	3443
906.272	3291
906.389	3409
906.506	3298
906.623	3306
906.74	3344
906.857	3245
906.974	3329
907.091	3515
907.208	3633
907.324	3538
907.441	3389
907.557	3275
907.674	3279
907.79	3272
907.907	3344
908.023	3428
908.139	3435
908.256	3374
908.372	3447
908.488	3435
908.604	3344
908.72	3279
908.836	3340
908.952	3351
909.068	3405
909.184	3538
909.3	3469
909.415	3526
909.531	3538
909.647	3332
909.762	3359
909.878	3272
909.993	3428
910.108	3386
910.224	3424
910.339	3462
910.454	3386
910.57	3348
910.685	3332
910.8	3663
910.915	3580
911.03	3500
911.145	3310
911.259	3313
911.374	3363
911.489	3329
911.604	3275
911.718	3203
911.833	3207
911.947	3097
912.062	3055
912.176	3199
912.291	3230
912.405	3249
912.519	3504
912.633	3481
912.748	3431
912.862	3363
912.976	3226
913.09	3108
913.204	3180
913.318	3294
913.431	3420
913.545	3382
913.659	3443
913.772	3386
913.886	3260
914	3249
914.113	3405
914.226	3466
914.34	3409
914.453	3294
914.566	3488
914.68	3367
914.793	3367
914.906	3199
915.019	3154
915.132	3097
915.245	3203
915.358	3268
915.47	3294
915.583	3340
915.696	3367
915.809	3386
915.921	3511
916.034	3306
916.146	3233
916.259	3260
916.371	3458
916.483	3393
916.595	3302
916.708	3393
916.82	3374
916.932	3401
917.044	3389
917.156	3443
917.268	3287
917.38	3344
917.491	3348
917.603	3401
917.715	3523
917.826	3526
917.938	3435
918.049	3348
918.161	3458
918.272	3625
918.384	3652
918.495	3587
918.606	3424
918.717	3298
918.828	3439
918.939	3466
919.05	3424
919.161	3412
919.272	3226
919.383	3367
919.494	3576
919.604	3766
919.715	3523
919.826	3466
919.936	3496
920.047	3633
920.157	3614
920.267	3869
920.378	3663
920.488	3595
920.598	3835
920.708	4017
920.818	3896
920.928	3892
921.038	4112
921.148	4055
921.258	3770
921.368	3671
921.477	3629
921.587	3637
921.697	3431
921.806	3671
921.916	3595
922.025	3389
922.134	3435
922.244	3374
922.353	3496
922.462	3321
922.571	3291
922.68	3173
922.789	3123
922.898	3154
923.007	3138
923.116	3256
923.224	3226
923.333	3253
923.442	3157
923.55	3154
923.659	3211
923.767	3249
923.876	3161
923.984	3279
924.092	3157
924.201	3291
924.309	3287
924.417	3283
924.525	3253
924.633	3279
924.741	4249
924.849	3089
924.956	3272
925.064	3150
925.172	3104
925.279	3157
925.387	3245
925.494	3279
925.602	3420
925.709	3355
925.816	3241
925.924	3340
926.031	3420
926.138	3367
926.245	3412
926.352	3340
926.459	3511
926.566	3504
926.673	3409
926.779	3279
926.886	3287
926.993	3230
927.099	3169
927.206	3119
927.312	3173
927.419	3291
927.525	3275
927.631	3310
927.737	3157
927.843	3157
927.95	3077
928.056	3176
928.162	3226
928.267	3298
928.373	3831
928.479	3370
928.585	3116
928.69	3298
928.796	3317
928.901	3203
929.007	3070
929.112	3230
929.218	3218
929.323	3184
929.428	3226
929.533	3344
929.638	3154
929.743	3241
929.848	3336
929.953	3272
930.058	3169
930.163	3043
930.267	3089
930.372	3249
930.477	3093
930.581	3332
930.685	3230
930.79	3093
930.894	3188
930.998	3169
931.103	3351
931.207	3043
931.311	2986
931.415	2971
931.519	2819
931.623	2868
