Data from test_V78500241_1608.txt Node
Date: Fri Mar 25 16:26:20 CST 2022
User: usil
Spectrometer: V785-0024
Trigger mode: 0
Integration Time (sec): 4.000000E-1
Scans to average: 1
Nonlinearity correction enabled: false
Boxcar width: 0
Storing dark spectrum: false
XAxis mode: Wavelengths
Number of Pixels in Spectrum: 1024
>>>>>Begin Spectral Data<<<<<
801.071	2902
801.214	2948
801.356	2883
801.499	2887
801.641	2849
801.783	2922
801.926	3070
802.068	2975
802.211	3005
802.353	3036
802.496	2948
802.638	2990
802.78	3036
802.923	3093
803.065	2952
803.208	2906
803.35	2922
803.492	2902
803.635	2922
803.777	2777
803.919	2826
804.061	3165
804.204	2948
804.346	2906
804.488	2872
804.63	2963
804.773	2868
804.915	2902
805.057	3100
805.199	2941
805.341	2948
805.483	3028
805.626	2986
805.768	3001
805.91	3097
806.052	3093
806.194	3032
806.336	3222
806.478	2990
806.62	3009
806.762	2979
806.904	3039
807.046	3157
807.188	2948
807.33	2887
807.472	2994
807.614	2906
807.756	2963
807.898	2929
808.04	2876
808.182	2941
808.324	2967
808.465	2925
808.607	2842
808.749	2777
808.891	2838
809.033	2960
809.174	2975
809.316	2891
809.458	2861
809.6	2769
809.741	2773
809.883	2754
810.025	2826
810.166	2834
810.308	2845
810.45	2849
810.591	2785
810.733	2807
810.875	2838
811.016	2777
811.158	2762
811.299	2830
811.441	2895
811.582	2880
811.724	2781
811.865	2849
812.007	2922
812.148	2868
812.29	2861
812.431	2899
812.573	2910
812.714	2971
812.855	3032
812.997	3017
813.138	3131
813.279	3001
813.421	2963
813.562	2956
813.703	2853
813.845	2895
813.986	2785
814.127	2727
814.268	2804
814.41	2842
814.551	2811
814.692	2880
814.833	2823
814.974	2868
815.115	2979
815.256	2815
815.397	2830
815.539	2845
815.68	2781
815.821	2766
815.962	2925
816.103	2902
816.244	2868
816.385	2830
816.526	2948
816.666	2941
816.807	2762
816.948	2857
817.089	2914
817.23	2849
817.371	2800
817.512	2777
817.653	2853
817.793	2796
817.934	2868
818.075	2960
818.216	2933
818.356	3081
818.497	2895
818.638	2758
818.778	2819
818.919	2781
819.06	2769
819.2	2883
819.341	2819
819.481	2800
819.622	2902
819.762	3127
819.903	3017
820.043	2918
820.184	2876
820.324	2876
820.465	2967
820.605	3028
820.746	3032
820.886	2914
821.026	3077
821.167	3165
821.307	3275
821.447	3294
821.588	3233
821.728	3226
821.868	3180
822.008	3028
822.149	3176
822.289	3241
822.429	3089
822.569	3089
822.709	3161
822.849	3036
822.99	3036
823.13	3146
823.27	3207
823.41	3116
823.55	3108
823.69	3116
823.83	3188
823.97	3108
824.11	2956
824.25	2998
824.389	3028
824.529	3070
824.669	3043
824.809	3169
824.949	3279
825.089	3218
825.228	3154
825.368	2982
825.508	2967
825.648	2990
825.787	2990
825.927	3024
826.067	2998
826.206	2979
826.346	3013
826.485	3089
826.625	3108
826.765	3275
826.904	3192
827.044	2990
827.183	2925
827.323	2868
827.462	2941
827.601	2918
827.741	2929
827.88	2967
828.02	2815
828.159	2944
828.298	3013
828.437	3074
828.577	3020
828.716	3237
828.855	3032
828.994	2910
829.134	2872
829.273	2941
829.412	2845
829.551	2861
829.69	2880
829.829	2967
829.968	3108
830.107	2990
830.246	3001
830.385	2918
830.524	2853
830.663	2815
830.802	2712
830.941	2632
831.08	2648
831.219	2758
831.357	2735
831.496	2963
831.635	2716
831.774	2659
831.913	2651
832.051	2556
832.19	2549
832.329	2682
832.467	2552
832.606	2476
832.744	2575
832.883	2571
833.022	2568
833.16	2632
833.299	2659
833.437	2674
833.576	2705
833.714	2708
833.852	2712
833.991	2766
834.129	2792
834.267	2815
834.406	2781
834.544	2910
834.682	2895
834.821	2849
834.959	3047
835.097	2876
835.235	3055
835.373	2994
835.511	2986
835.65	2952
835.788	2960
835.926	2800
836.064	2815
836.202	2842
836.34	3077
836.478	3157
836.615	3043
836.753	3112
836.891	3199
837.029	3173
837.167	3081
837.305	3066
837.443	3051
837.58	2948
837.718	3138
837.856	3051
837.993	3020
838.131	3119
838.269	3100
838.406	3108
838.544	3058
838.681	2925
838.819	2895
838.956	2804
839.094	2823
839.231	2914
839.369	3001
839.506	3386
839.643	3195
839.781	3028
839.918	2956
840.055	3047
840.193	3036
840.33	3089
840.467	3074
840.604	3157
840.742	3416
840.879	3055
841.016	3066
841.153	3123
841.29	3325
841.427	3321
841.564	3222
841.701	3302
841.838	3203
841.975	3180
842.112	3211
842.249	3074
842.385	3047
842.522	3241
842.659	3093
842.796	3032
842.933	3100
843.069	3009
843.206	3020
843.343	3157
843.479	3116
843.616	3123
843.752	2887
843.889	2868
844.025	3032
844.162	2887
844.298	3066
844.435	2918
844.571	2925
844.708	3089
844.844	3127
844.98	3245
845.117	3203
845.253	3074
845.389	3001
845.525	3081
845.661	3055
845.798	2994
845.934	3135
846.07	3020
846.206	3214
846.342	3321
846.478	3218
846.614	3081
846.75	3020
846.886	3005
847.022	3256
847.158	3108
847.294	3199
847.429	3253
847.565	3237
847.701	3473
847.837	2982
847.972	2967
848.108	3116
848.244	3142
848.379	2975
848.515	2960
848.65	2883
848.786	2967
848.921	3020
849.057	3058
849.192	3154
849.328	3055
849.463	3062
849.598	3032
849.734	3074
849.869	2967
850.004	2899
850.14	2956
850.275	2906
850.41	2823
850.545	2899
850.68	2918
850.815	2960
850.95	3005
851.085	3169
851.22	3085
851.355	3028
851.49	3017
851.625	2994
851.76	2967
851.895	2937
852.03	2906
852.165	2986
852.299	3150
852.434	3203
852.569	3127
852.703	3188
852.838	3272
852.973	3306
853.107	3340
853.242	3157
853.376	3020
853.511	2979
853.645	3032
853.78	3272
853.914	3119
854.048	3108
854.183	3100
854.317	3142
854.451	3272
854.585	3070
854.72	3081
854.854	3203
854.988	3043
855.122	3062
855.256	2933
855.39	3119
855.524	3211
855.658	3226
855.792	3127
855.926	3180
856.06	3165
856.194	3230
856.327	3135
856.461	3036
856.595	3066
856.729	3081
856.862	3230
856.996	3161
857.13	3222
857.263	3230
857.397	3260
857.53	3089
857.664	3169
857.797	3218
857.931	3218
858.064	3127
858.197	3218
858.331	3154
858.464	3081
858.597	3009
858.731	3131
858.864	3138
858.997	3097
859.13	3104
859.263	3184
859.396	3165
859.529	3112
859.662	3070
859.795	3051
859.928	3100
860.061	3256
860.194	3264
860.327	3131
860.46	3093
860.592	3230
860.725	3230
860.858	3226
860.99	3100
861.123	3036
861.256	2998
861.388	3116
861.521	3880
861.653	3039
861.786	2994
861.918	2986
862.05	3070
862.183	3093
862.315	3150
862.447	3192
862.58	3100
862.712	2925
862.844	2849
862.976	3020
863.108	2982
863.24	3279
863.372	2849
863.504	2963
863.636	2960
863.768	3005
863.9	2960
864.032	2891
864.164	2922
864.296	2990
864.428	3066
864.559	3093
864.691	3051
864.823	3028
864.954	3055
865.086	3017
865.217	2986
865.349	2948
865.48	2990
865.612	2982
865.743	3131
865.875	3001
866.006	2929
866.137	3020
866.269	2922
866.4	2914
866.531	2922
866.662	2883
866.793	2906
866.924	2883
867.055	2960
867.186	2944
867.317	2895
867.448	2823
867.579	2849
867.71	2891
867.841	2815
867.972	2895
868.103	2887
868.233	2868
868.364	2857
868.495	2914
868.625	3070
868.756	3165
868.886	2960
869.017	3020
869.147	3142
869.278	3112
869.408	3028
869.539	3039
869.669	3089
869.799	3017
869.929	3127
870.06	3039
870.19	3321
870.32	3294
870.45	3275
870.58	3393
870.71	3420
870.84	3424
870.97	3264
871.1	3249
871.23	3462
871.36	3477
871.489	3359
871.619	3382
871.749	3401
871.879	3401
872.008	3481
872.138	3367
872.267	3253
872.397	3100
872.526	3077
872.656	3017
872.785	3108
872.915	3222
873.044	3302
873.173	3233
873.303	3241
873.432	3218
873.561	3260
873.69	3146
873.819	3112
873.948	3211
874.077	3093
874.206	3070
874.335	3070
874.464	3211
874.593	3306
874.722	3222
874.851	3416
874.979	3348
875.108	3268
875.237	3188
875.365	3165
875.494	3150
875.623	3192
875.751	3043
875.88	3104
876.008	3199
876.136	3203
876.265	3351
876.393	3500
876.521	3424
876.65	3397
876.778	3329
876.906	3237
877.034	3203
877.162	3222
877.29	3157
877.418	3237
877.546	3256
877.674	3226
877.802	3211
877.93	3230
878.058	3089
878.185	3100
878.313	3195
878.441	3207
878.568	3032
878.696	3142
878.824	3237
878.951	3264
879.079	3428
879.206	3606
879.333	3409
879.461	3310
879.588	3306
879.715	3477
879.842	3564
879.97	3393
880.097	3169
880.224	3062
880.351	3146
880.478	3199
880.605	3173
880.732	3176
880.859	3466
880.986	3260
881.112	3294
881.239	3207
881.366	3074
881.493	2982
881.619	2998
881.746	3058
881.872	3074
881.999	3074
882.125	3112
882.252	3192
882.378	3279
882.505	3431
882.631	3268
882.757	3127
882.883	3214
883.01	3237
883.136	3131
883.262	3066
883.388	3123
883.514	3313
883.64	3340
883.766	3340
883.892	3195
884.018	3245
884.143	3382
884.269	3523
884.395	3195
884.52	3157
884.646	3176
884.772	3131
884.897	3123
885.023	3180
885.148	3283
885.274	3431
885.399	3370
885.524	3287
885.65	3245
885.775	3351
885.9	3275
886.025	3435
886.15	3397
886.275	3336
886.4	3230
886.525	3329
886.65	3306
886.775	3306
886.9	3485
887.025	3694
887.149	3466
887.274	3245
887.399	3176
887.523	3218
887.648	3207
887.773	3226
887.897	3389
888.021	3450
888.146	3321
888.27	3454
888.395	3584
888.519	3462
888.643	3473
888.767	3496
888.891	3325
889.015	3249
889.139	3317
889.263	3279
889.387	3443
889.511	3530
889.635	3447
889.759	3348
889.883	3329
890.006	3428
890.13	3488
890.254	3310
890.377	3389
890.501	3249
890.624	3237
890.748	3348
890.871	3173
890.995	3169
891.118	3119
891.241	3237
891.364	3275
891.488	3363
891.611	3214
891.734	3272
891.857	3332
891.98	3256
892.103	3367
892.226	3340
892.349	3230
892.471	3150
892.594	3298
892.717	3329
892.839	3317
892.962	3367
893.085	3405
893.207	3332
893.33	3195
893.452	3218
893.575	3405
893.697	3249
893.819	3500
893.941	3519
894.064	3477
894.186	3336
894.308	3306
894.43	3447
894.552	3576
894.674	3492
894.796	3306
894.918	3351
895.04	3332
895.161	3477
895.283	3386
895.405	3321
895.526	3397
895.648	3435
895.769	3458
895.891	3462
896.012	3523
896.134	3488
896.255	3462
896.376	3393
896.498	3401
896.619	3473
896.74	3378
896.861	3481
896.982	3740
897.103	3896
897.224	3622
897.345	3561
897.466	3473
897.587	3595
897.708	3675
897.828	3549
897.949	3458
898.07	3355
898.19	3428
898.311	3644
898.431	3481
898.552	3530
898.672	3641
898.792	3591
898.913	3545
899.033	3458
899.153	3348
899.273	3237
899.393	3317
899.513	3363
899.633	3344
899.753	3386
899.873	3344
899.993	3466
900.113	3374
900.232	3428
900.352	3344
900.472	3321
900.591	3211
900.711	3355
900.83	3272
900.95	3447
901.069	3504
901.189	3367
901.308	3222
901.427	3165
901.546	3230
901.665	3325
901.784	3340
901.904	3245
902.023	3169
902.141	3036
902.26	3077
902.379	3146
902.498	3104
902.617	3081
902.735	3237
902.854	3253
902.973	3195
903.091	3112
903.21	3112
903.328	3169
903.446	3169
903.565	3138
903.683	3192
903.801	3131
903.919	3279
904.038	3359
904.156	3195
904.274	3306
904.392	3313
904.51	3325
904.627	3367
904.745	3473
904.863	3485
904.981	3272
905.098	3211
905.216	3237
905.334	3306
905.451	3294
905.569	3313
905.686	3424
905.803	3435
905.921	3306
906.038	3454
906.155	3424
906.272	3321
906.389	3382
906.506	3233
906.623	3256
906.74	3302
906.857	3207
906.974	3264
907.091	3450
907.208	3603
907.324	3530
907.441	3439
907.557	3268
907.674	3233
907.79	3245
907.907	3302
908.023	3424
908.139	3370
908.256	3374
908.372	3435
908.488	3386
908.604	3317
908.72	3249
908.836	3298
908.952	3329
909.068	3397
909.184	3492
909.3	3412
909.415	3530
909.531	3526
909.647	3294
909.762	3313
909.878	3249
909.993	3389
910.108	3351
910.224	3363
910.339	3412
910.454	3367
910.57	3344
910.685	3287
910.8	3633
910.915	3545
911.03	3477
911.145	3294
911.259	3291
911.374	3351
911.489	3237
911.604	3298
911.718	3157
911.833	3169
911.947	3070
912.062	3058
912.176	3245
912.291	3233
912.405	3192
912.519	3447
912.633	3492
912.748	3363
912.862	3302
912.976	3180
913.09	3085
913.204	3173
913.318	3241
913.431	3367
913.545	3363
913.659	3458
913.772	3367
913.886	3264
914	3241
914.113	3359
914.226	3458
914.34	3401
914.453	3264
914.566	3477
914.68	3306
914.793	3348
914.906	3142
915.019	3142
915.132	3089
915.245	3222
915.358	3199
915.47	3291
915.583	3302
915.696	3329
915.809	3439
915.921	3428
916.034	3268
916.146	3298
916.259	3253
916.371	3412
916.483	3344
916.595	3294
916.708	3355
916.82	3363
916.932	3389
917.044	3393
917.156	3378
917.268	3279
917.38	3287
917.491	3306
917.603	3389
917.715	3473
917.826	3488
917.938	3389
918.049	3287
918.161	3428
918.272	3622
918.384	3564
918.495	3545
918.606	3348
918.717	3332
918.828	3386
918.939	3382
919.05	3321
919.161	3370
919.272	3211
919.383	3313
919.494	3511
919.604	3652
919.715	3523
919.826	3420
919.936	3500
920.047	3648
920.157	3538
920.267	3789
920.378	3637
920.488	3572
920.598	3797
920.708	4036
920.818	3831
920.928	3865
921.038	4021
921.148	4002
921.258	3755
921.368	3660
921.477	3614
921.587	3572
921.697	3519
921.806	3663
921.916	3534
922.025	3416
922.134	3359
922.244	3348
922.353	3469
922.462	3268
922.571	3214
922.68	3127
922.789	3142
922.898	3180
923.007	3112
923.116	3199
923.224	3154
923.333	3222
923.442	3123
923.55	3077
923.659	3146
923.767	3199
923.876	3131
923.984	3260
924.092	3108
924.201	3192
924.309	3249
924.417	3279
924.525	3195
924.633	3264
924.741	4185
924.849	3104
924.956	3317
925.064	3135
925.172	3070
925.279	3131
925.387	3222
925.494	3226
925.602	3340
925.709	3344
925.816	3230
925.924	3310
926.031	3397
926.138	3355
926.245	3367
926.352	3294
926.459	3466
926.566	3481
926.673	3359
926.779	3260
926.886	3272
926.993	3184
927.099	3146
927.206	3135
927.312	3173
927.419	3214
927.525	3214
927.631	3272
927.737	3199
927.843	3165
927.95	3036
928.056	3173
928.162	3195
928.267	3268
928.373	3907
928.479	3359
928.585	3119
928.69	3207
928.796	3310
928.901	3180
929.007	3081
929.112	3253
929.218	3226
929.323	3169
929.428	3184
929.533	3306
929.638	3146
929.743	3203
929.848	3264
929.953	3218
930.058	3135
930.163	3020
930.267	3070
930.372	3180
930.477	3081
930.581	3332
930.685	3260
930.79	3097
930.894	3138
930.998	3097
931.103	3336
931.207	2975
931.311	2986
931.415	2929
931.519	2819
931.623	2823
