Data from test_V78500241_1791.txt Node
Date: Fri Mar 25 16:27:36 CST 2022
User: usil
Spectrometer: V785-0024
Trigger mode: 0
Integration Time (sec): 4.000000E-1
Scans to average: 1
Nonlinearity correction enabled: false
Boxcar width: 0
Storing dark spectrum: false
XAxis mode: Wavelengths
Number of Pixels in Spectrum: 1024
>>>>>Begin Spectral Data<<<<<
801.071	2944
801.214	2956
801.356	2883
801.499	2906
801.641	2891
801.783	2922
801.926	3108
802.068	2986
802.211	3013
802.353	3020
802.496	2960
802.638	3032
802.78	3039
802.923	3089
803.065	3009
803.208	2899
803.35	2895
803.492	2941
803.635	2910
803.777	2804
803.919	2857
804.061	3188
804.204	2952
804.346	2918
804.488	2845
804.63	2952
804.773	2849
804.915	2895
805.057	3077
805.199	2922
805.341	2971
805.483	3020
805.626	3005
805.768	2937
805.91	3112
806.052	3112
806.194	2994
806.336	3241
806.478	3013
806.62	2952
806.762	2960
806.904	3066
807.046	3154
807.188	2967
807.33	2948
807.472	2982
807.614	2902
807.756	2960
807.898	2925
808.04	2876
808.182	3020
808.324	2979
808.465	2883
808.607	2883
808.749	2766
808.891	2826
809.033	2960
809.174	2933
809.316	2922
809.458	2857
809.6	2773
809.741	2804
809.883	2796
810.025	2842
810.166	2845
810.308	2849
810.45	2864
810.591	2781
810.733	2735
810.875	2830
811.016	2815
811.158	2724
811.299	2796
811.441	2937
811.582	2910
811.724	2842
811.865	2766
812.007	2876
812.148	2891
812.29	2834
812.431	2861
812.573	2967
812.714	2979
812.855	3024
812.997	3058
813.138	3104
813.279	3013
813.421	2982
813.562	2941
813.703	2880
813.845	2845
813.986	2769
814.127	2724
814.268	2823
814.41	2811
814.551	2788
814.692	2906
814.833	2823
814.974	2849
815.115	2925
815.256	2807
815.397	2845
815.539	2902
815.68	2769
815.821	2804
815.962	2925
816.103	2887
816.244	2845
816.385	2823
816.526	2971
816.666	2883
816.807	2754
816.948	2883
817.089	2880
817.23	2864
817.371	2777
817.512	2788
817.653	2834
817.793	2807
817.934	2895
818.075	2941
818.216	2971
818.356	3013
818.497	2910
818.638	2766
818.778	2823
818.919	2800
819.06	2781
819.2	2891
819.341	2804
819.481	2785
819.622	2918
819.762	3112
819.903	3028
820.043	2918
820.184	2895
820.324	2914
820.465	3032
820.605	3020
820.746	3024
820.886	2922
821.026	3116
821.167	3108
821.307	3241
821.447	3256
821.588	3211
821.728	3211
821.868	3180
822.008	3058
822.149	3173
822.289	3233
822.429	3108
822.569	3085
822.709	3150
822.849	2998
822.99	3074
823.13	3135
823.27	3222
823.41	3089
823.55	3116
823.69	3173
823.83	3184
823.97	3077
824.11	2986
824.25	2986
824.389	3070
824.529	3135
824.669	3062
824.809	3199
824.949	3211
825.089	3203
825.228	3135
825.368	2948
825.508	2948
825.648	2971
825.787	3017
825.927	3024
826.067	2963
826.206	2929
826.346	3039
826.485	3074
826.625	3062
826.765	3241
826.904	3230
827.044	2971
827.183	2918
827.323	2864
827.462	2994
827.601	2910
827.741	2902
827.88	2952
828.02	2857
828.159	2998
828.298	3028
828.437	3093
828.577	3032
828.716	3188
828.855	3074
828.994	2929
829.134	2895
829.273	2902
829.412	2823
829.551	2861
829.69	2872
829.829	2979
829.968	3119
830.107	2990
830.246	3062
830.385	2929
830.524	2849
830.663	2788
830.802	2735
830.941	2640
831.08	2636
831.219	2785
831.357	2735
831.496	2933
831.635	2731
831.774	2613
831.913	2667
832.051	2533
832.19	2541
832.329	2701
832.467	2492
832.606	2446
832.744	2575
832.883	2568
833.022	2579
833.16	2648
833.299	2678
833.437	2689
833.576	2731
833.714	2716
833.852	2727
833.991	2727
834.129	2830
834.267	2788
834.406	2796
834.544	2842
834.682	2861
834.821	2868
834.959	3081
835.097	2944
835.235	3062
835.373	2982
835.511	3009
835.65	2937
835.788	2956
835.926	2815
836.064	2815
836.202	2807
836.34	3100
836.478	3123
836.615	3085
836.753	3131
836.891	3203
837.029	3154
837.167	3093
837.305	3036
837.443	3032
837.58	2929
837.718	3169
837.856	3036
837.993	3043
838.131	3116
838.269	3070
838.406	3097
838.544	3077
838.681	2963
838.819	2910
838.956	2800
839.094	2838
839.231	2895
839.369	3043
839.506	3370
839.643	3207
839.781	3051
839.918	2956
840.055	3043
840.193	3043
840.33	3047
840.467	3077
840.604	3157
840.742	3397
840.879	3039
841.016	3070
841.153	3116
841.29	3298
841.427	3325
841.564	3249
841.701	3298
841.838	3188
841.975	3165
842.112	3173
842.249	3058
842.385	3024
842.522	3256
842.659	3104
842.796	3036
842.933	3070
843.069	3074
843.206	3028
843.343	3195
843.479	3104
843.616	3112
843.752	2864
843.889	2842
844.025	3066
844.162	2891
844.298	3104
844.435	2941
844.571	2922
844.708	3100
844.844	3180
844.98	3211
845.117	3207
845.253	3062
845.389	2998
845.525	3066
845.661	3085
845.798	3017
845.934	3119
846.07	3013
846.206	3192
846.342	3313
846.478	3222
846.614	3058
846.75	3043
846.886	2982
847.022	3207
847.158	3135
847.294	3180
847.429	3268
847.565	3218
847.701	3462
847.837	3039
847.972	2982
848.108	3131
848.244	3138
848.379	2967
848.515	2887
848.65	2956
848.786	2952
848.921	3009
849.057	3112
849.192	3135
849.328	3017
849.463	3112
849.598	3051
849.734	3039
849.869	2994
850.004	2902
850.14	2956
850.275	2922
850.41	2845
850.545	2891
850.68	2979
850.815	2937
850.95	2956
851.085	3195
851.22	3066
851.355	3024
851.49	2975
851.625	3017
851.76	2979
851.895	2899
852.03	2906
852.165	3020
852.299	3058
852.434	3180
852.569	3112
852.703	3173
852.838	3211
852.973	3336
853.107	3321
853.242	3165
853.376	3127
853.511	2967
853.645	3032
853.78	3184
853.914	3077
854.048	3085
854.183	3097
854.317	3165
854.451	3264
854.585	3127
854.72	3070
854.854	3154
854.988	3058
855.122	3043
855.256	2979
855.39	3097
855.524	3249
855.658	3173
855.792	3127
855.926	3165
856.06	3184
856.194	3245
856.327	3116
856.461	3077
856.595	3036
856.729	3070
856.862	3195
856.996	3146
857.13	3173
857.263	3218
857.397	3256
857.53	3100
857.664	3176
857.797	3237
857.931	3264
858.064	3169
858.197	3218
858.331	3142
858.464	3077
858.597	3028
858.731	3077
858.864	3119
858.997	3070
859.13	3138
859.263	3169
859.396	3146
859.529	3043
859.662	3058
859.795	3005
859.928	3116
860.061	3279
860.194	3279
860.327	3142
860.46	3116
860.592	3211
860.725	3218
860.858	3241
860.99	3097
861.123	3039
861.256	3074
861.388	3127
861.521	3873
861.653	2994
861.786	2982
861.918	2990
862.05	3032
862.183	3077
862.315	3135
862.447	3188
862.58	3070
862.712	2952
862.844	2872
862.976	3017
863.108	2979
863.24	3393
863.372	2891
863.504	2952
863.636	2922
863.768	3020
863.9	2967
864.032	2891
864.164	2956
864.296	3001
864.428	3081
864.559	3104
864.691	3058
864.823	3043
864.954	3066
865.086	3017
865.217	2956
865.349	2971
865.48	2941
865.612	3024
865.743	3119
865.875	3001
866.006	2929
866.137	2982
866.269	2918
866.4	2929
866.531	2929
866.662	2868
866.793	2876
866.924	2899
867.055	2998
867.186	2891
867.317	2864
867.448	2834
867.579	2838
867.71	2815
867.841	2826
867.972	2899
868.103	2895
868.233	2902
868.364	2872
868.495	2853
868.625	3081
868.756	3142
868.886	2986
869.017	3024
869.147	3176
869.278	3157
869.408	3051
869.539	2990
869.669	3085
869.799	3024
869.929	3112
870.06	3093
870.19	3317
870.32	3268
870.45	3253
870.58	3386
870.71	3428
870.84	3431
870.97	3260
871.1	3203
871.23	3496
871.36	3435
871.489	3340
871.619	3382
871.749	3420
871.879	3439
872.008	3458
872.138	3325
872.267	3260
872.397	3127
872.526	3089
872.656	2979
872.785	3089
872.915	3222
873.044	3317
873.173	3188
873.303	3226
873.432	3188
873.561	3207
873.69	3161
873.819	3127
873.948	3157
874.077	3104
874.206	3013
874.335	3104
874.464	3173
874.593	3351
874.722	3233
874.851	3389
874.979	3325
875.108	3329
875.237	3184
875.365	3173
875.494	3173
875.623	3283
875.751	3043
875.88	3108
876.008	3199
876.136	3195
876.265	3370
876.393	3504
876.521	3393
876.65	3340
876.778	3317
876.906	3230
877.034	3173
877.162	3245
877.29	3154
877.418	3218
877.546	3218
877.674	3226
877.802	3203
877.93	3195
878.058	3138
878.185	3085
878.313	3184
878.441	3203
878.568	3081
878.696	3142
878.824	3218
878.951	3279
879.079	3443
879.206	3603
879.333	3412
879.461	3325
879.588	3336
879.715	3504
879.842	3553
879.97	3367
880.097	3138
880.224	3112
880.351	3180
880.478	3199
880.605	3226
880.732	3176
880.859	3481
880.986	3279
881.112	3329
881.239	3169
881.366	3085
881.493	3020
881.619	3005
881.746	3051
881.872	3058
881.999	3085
882.125	3135
882.252	3237
882.378	3291
882.505	3420
882.631	3253
882.757	3123
882.883	3188
883.01	3207
883.136	3116
883.262	3089
883.388	3070
883.514	3272
883.64	3359
883.766	3298
883.892	3165
884.018	3241
884.143	3420
884.269	3485
884.395	3184
884.52	3119
884.646	3180
884.772	3108
884.897	3058
885.023	3195
885.148	3313
885.274	3397
885.399	3370
885.524	3310
885.65	3283
885.775	3287
885.9	3283
886.025	3420
886.15	3351
886.275	3325
886.4	3249
886.525	3298
886.65	3298
886.775	3351
886.9	3504
887.025	3652
887.149	3389
887.274	3264
887.399	3173
887.523	3176
887.648	3207
887.773	3207
887.897	3386
888.021	3412
888.146	3317
888.27	3443
888.395	3584
888.519	3454
888.643	3492
888.767	3485
888.891	3332
889.015	3283
889.139	3317
889.263	3275
889.387	3420
889.511	3519
889.635	3469
889.759	3317
889.883	3313
890.006	3435
890.13	3523
890.254	3313
890.377	3351
890.501	3214
890.624	3237
890.748	3386
890.871	3222
890.995	3135
891.118	3089
891.241	3218
891.364	3272
891.488	3351
891.611	3195
891.734	3245
891.857	3306
891.98	3287
892.103	3363
892.226	3344
892.349	3241
892.471	3165
892.594	3268
892.717	3359
892.839	3268
892.962	3336
893.085	3389
893.207	3317
893.33	3230
893.452	3264
893.575	3359
893.697	3313
893.819	3496
893.941	3538
894.064	3519
894.186	3313
894.308	3306
894.43	3477
894.552	3587
894.674	3443
894.796	3359
894.918	3332
895.04	3317
895.161	3431
895.283	3450
895.405	3363
895.526	3405
895.648	3454
895.769	3450
895.891	3481
896.012	3496
896.134	3526
896.255	3450
896.376	3458
896.498	3382
896.619	3496
896.74	3447
896.861	3477
896.982	3690
897.103	3865
897.224	3633
897.345	3538
897.466	3424
897.587	3492
897.708	3641
897.828	3603
897.949	3458
898.07	3344
898.19	3443
898.311	3618
898.431	3500
898.552	3587
898.672	3648
898.792	3595
898.913	3523
899.033	3420
899.153	3306
899.273	3272
899.393	3313
899.513	3382
899.633	3332
899.753	3355
899.873	3340
899.993	3389
900.113	3359
900.232	3424
900.352	3393
900.472	3336
900.591	3283
900.711	3317
900.83	3260
900.95	3447
901.069	3507
901.189	3382
901.308	3176
901.427	3119
901.546	3245
901.665	3351
901.784	3355
901.904	3230
902.023	3199
902.141	3089
902.26	3066
902.379	3154
902.498	3112
902.617	3131
902.735	3218
902.854	3264
902.973	3264
903.091	3081
903.21	3108
903.328	3176
903.446	3154
903.565	3131
903.683	3207
903.801	3146
903.919	3256
904.038	3279
904.156	3154
904.274	3302
904.392	3287
904.51	3302
904.627	3382
904.745	3469
904.863	3523
904.981	3298
905.098	3165
905.216	3272
905.334	3321
905.451	3359
905.569	3348
905.686	3405
905.803	3488
905.921	3329
906.038	3439
906.155	3382
906.272	3279
906.389	3344
906.506	3264
906.623	3302
906.74	3336
906.857	3211
906.974	3253
907.091	3477
907.208	3606
907.324	3538
907.441	3412
907.557	3233
907.674	3279
907.79	3253
907.907	3298
908.023	3386
908.139	3420
908.256	3344
908.372	3370
908.488	3363
908.604	3253
908.72	3260
908.836	3359
908.952	3325
909.068	3389
909.184	3511
909.3	3378
909.415	3526
909.531	3526
909.647	3321
909.762	3321
909.878	3283
909.993	3405
910.108	3367
910.224	3348
910.339	3447
910.454	3310
910.57	3302
910.685	3245
910.8	3671
910.915	3580
911.03	3450
911.145	3294
911.259	3264
911.374	3359
911.489	3302
911.604	3275
911.718	3127
911.833	3199
911.947	3070
912.062	3009
912.176	3192
912.291	3237
912.405	3253
912.519	3447
912.633	3519
912.748	3382
912.862	3348
912.976	3199
913.09	3074
913.204	3161
913.318	3233
913.431	3363
913.545	3389
913.659	3439
913.772	3359
913.886	3253
914	3222
914.113	3374
914.226	3431
914.34	3382
914.453	3249
914.566	3454
914.68	3325
914.793	3325
914.906	3211
915.019	3161
915.132	3089
915.245	3203
915.358	3233
915.47	3291
915.583	3321
915.696	3291
915.809	3405
915.921	3450
916.034	3260
916.146	3233
916.259	3279
916.371	3374
916.483	3405
916.595	3344
916.708	3401
916.82	3363
916.932	3359
917.044	3378
917.156	3340
917.268	3279
917.38	3306
917.491	3340
917.603	3435
917.715	3466
917.826	3462
917.938	3420
918.049	3306
918.161	3439
918.272	3587
918.384	3576
918.495	3519
918.606	3340
918.717	3287
918.828	3370
918.939	3458
919.05	3351
919.161	3401
919.272	3192
919.383	3287
919.494	3549
919.604	3705
919.715	3519
919.826	3450
919.936	3481
920.047	3622
920.157	3561
920.267	3808
920.378	3629
920.488	3595
920.598	3819
920.708	3987
920.818	3838
920.928	3861
921.038	4044
921.148	3975
921.258	3759
921.368	3648
921.477	3584
921.587	3534
921.697	3428
921.806	3648
921.916	3557
922.025	3370
922.134	3401
922.244	3332
922.353	3431
922.462	3298
922.571	3264
922.68	3142
922.789	3081
922.898	3180
923.007	3142
923.116	3237
923.224	3211
923.333	3230
923.442	3131
923.55	3112
923.659	3211
923.767	3272
923.876	3131
923.984	3279
924.092	3142
924.201	3214
924.309	3192
924.417	3294
924.525	3241
924.633	3249
924.741	4032
924.849	3108
924.956	3291
925.064	3077
925.172	3097
925.279	3119
925.387	3218
925.494	3233
925.602	3348
925.709	3378
925.816	3203
925.924	3294
926.031	3382
926.138	3310
926.245	3351
926.352	3241
926.459	3439
926.566	3488
926.673	3325
926.779	3275
926.886	3249
926.993	3165
927.099	3165
927.206	3157
927.312	3127
927.419	3264
927.525	3222
927.631	3310
927.737	3176
927.843	3146
927.95	3036
928.056	3173
928.162	3184
928.267	3268
928.373	3899
928.479	3332
928.585	3104
928.69	3214
928.796	3336
928.901	3184
929.007	3047
929.112	3245
929.218	3184
929.323	3180
929.428	3161
929.533	3325
929.638	3146
929.743	3222
929.848	3272
929.953	3245
930.058	3176
930.163	3013
930.267	3074
930.372	3253
930.477	3051
930.581	3332
930.685	3188
930.79	3077
930.894	3116
930.998	3138
931.103	3275
931.207	2994
931.311	2952
931.415	2929
931.519	2826
931.623	2834
