Data from test_V78500241_1065.txt Node
Date: Fri Mar 25 16:22:34 CST 2022
User: usil
Spectrometer: V785-0024
Trigger mode: 0
Integration Time (sec): 4.000000E-1
Scans to average: 1
Nonlinearity correction enabled: false
Boxcar width: 0
Storing dark spectrum: false
XAxis mode: Wavelengths
Number of Pixels in Spectrum: 1024
>>>>>Begin Spectral Data<<<<<
801.071	2948
801.214	2998
801.356	2925
801.499	2944
801.641	2902
801.783	2948
801.926	3051
802.068	2975
802.211	3013
802.353	3070
802.496	2986
802.638	3024
802.78	3055
802.923	3077
803.065	3001
803.208	2910
803.35	2941
803.492	2948
803.635	2902
803.777	2758
803.919	2857
804.061	3230
804.204	2956
804.346	2922
804.488	2853
804.63	2975
804.773	2864
804.915	2914
805.057	3081
805.199	2937
805.341	2937
805.483	3032
805.626	2986
805.768	2952
805.91	3066
806.052	3112
806.194	3039
806.336	3214
806.478	3036
806.62	2975
806.762	2975
806.904	3055
807.046	3207
807.188	3001
807.33	2937
807.472	2979
807.614	2910
807.756	2990
807.898	2895
808.04	2925
808.182	2944
808.324	2967
808.465	2883
808.607	2891
808.749	2830
808.891	2826
809.033	2986
809.174	2948
809.316	2899
809.458	2876
809.6	2819
809.741	2781
809.883	2766
810.025	2857
810.166	2883
810.308	2845
810.45	2849
810.591	2804
810.733	2788
810.875	2842
811.016	2762
811.158	2746
811.299	2800
811.441	2944
811.582	2910
811.724	2838
811.865	2853
812.007	2922
812.148	2861
812.29	2864
812.431	2902
812.573	2944
812.714	2979
812.855	3055
812.997	3058
813.138	3142
813.279	2994
813.421	2948
813.562	2952
813.703	2887
813.845	2910
813.986	2758
814.127	2727
814.268	2819
814.41	2857
814.551	2838
814.692	2849
814.833	2823
814.974	2864
815.115	2963
815.256	2838
815.397	2788
815.539	2823
815.68	2769
815.821	2807
815.962	2937
816.103	2933
816.244	2887
816.385	2883
816.526	2986
816.666	2929
816.807	2766
816.948	2910
817.089	2906
817.23	2876
817.371	2746
817.512	2826
817.653	2902
817.793	2804
817.934	2887
818.075	2948
818.216	3013
818.356	3020
818.497	2887
818.638	2792
818.778	2777
818.919	2842
819.06	2739
819.2	2830
819.341	2823
819.481	2788
819.622	2899
819.762	3070
819.903	3058
820.043	2914
820.184	2910
820.324	2883
820.465	3009
820.605	3009
820.746	3024
820.886	2895
821.026	3097
821.167	3146
821.307	3249
821.447	3237
821.588	3253
821.728	3169
821.868	3184
822.008	3058
822.149	3169
822.289	3222
822.429	3097
822.569	3116
822.709	3142
822.849	3020
822.99	3055
823.13	3165
823.27	3180
823.41	3074
823.55	3192
823.69	3180
823.83	3169
823.97	3123
824.11	2998
824.25	2982
824.389	3028
824.529	3100
824.669	3055
824.809	3173
824.949	3253
825.089	3249
825.228	3150
825.368	3013
825.508	2944
825.648	2948
825.787	3009
825.927	3039
826.067	2975
826.206	2925
826.346	3043
826.485	3051
826.625	3108
826.765	3298
826.904	3211
827.044	2998
827.183	2941
827.323	2853
827.462	3024
827.601	2948
827.741	2937
827.88	2979
828.02	2834
828.159	2982
828.298	3047
828.437	3135
828.577	3070
828.716	3245
828.855	3085
828.994	2975
829.134	2910
829.273	2960
829.412	2899
829.551	2887
829.69	2963
829.829	2982
829.968	3165
830.107	3077
830.246	3032
830.385	2918
830.524	2918
830.663	2830
830.802	2788
830.941	2689
831.08	2693
831.219	2819
831.357	2754
831.496	2982
831.635	2769
831.774	2708
831.913	2667
832.051	2613
832.19	2610
832.329	2686
832.467	2602
832.606	2518
832.744	2602
832.883	2629
833.022	2598
833.16	2678
833.299	2716
833.437	2750
833.576	2762
833.714	2785
833.852	2773
833.991	2815
834.129	2849
834.267	2857
834.406	2842
834.544	2902
834.682	2918
834.821	2933
834.959	3108
835.097	2948
835.235	3119
835.373	3028
835.511	3104
835.65	2986
835.788	2982
835.926	2895
836.064	2845
836.202	2902
836.34	3154
836.478	3188
836.615	3104
836.753	3192
836.891	3233
837.029	3222
837.167	3135
837.305	3093
837.443	3070
837.58	2990
837.718	3157
837.856	3100
837.993	3062
838.131	3142
838.269	3146
838.406	3138
838.544	3138
838.681	3005
838.819	2941
838.956	2849
839.094	2861
839.231	2967
839.369	3047
839.506	3389
839.643	3256
839.781	3047
839.918	2971
840.055	3066
840.193	3085
840.33	3161
840.467	3138
840.604	3150
840.742	3447
840.879	3077
841.016	3081
841.153	3135
841.29	3351
841.427	3340
841.564	3313
841.701	3355
841.838	3283
841.975	3173
842.112	3222
842.249	3127
842.385	3070
842.522	3260
842.659	3119
842.796	3085
842.933	3123
843.069	3097
843.206	3074
843.343	3211
843.479	3146
843.616	3135
843.752	2925
843.889	2887
844.025	3112
844.162	2914
844.298	3116
844.435	3001
844.571	2952
844.708	3081
844.844	3245
844.98	3237
845.117	3264
845.253	3119
845.389	3017
845.525	3108
845.661	3138
845.798	3051
845.934	3138
846.07	3100
846.206	3268
846.342	3332
846.478	3264
846.614	3100
846.75	3066
846.886	3058
847.022	3256
847.158	3138
847.294	3222
847.429	3241
847.565	3226
847.701	3542
847.837	3089
847.972	3013
848.108	3176
848.244	3192
848.379	3005
848.515	2967
848.65	2986
848.786	2998
848.921	3062
849.057	3104
849.192	3180
849.328	3089
849.463	3116
849.598	3093
849.734	3062
849.869	2998
850.004	2948
850.14	3009
850.275	2948
850.41	2880
850.545	2876
850.68	2929
850.815	2986
850.95	2994
851.085	3203
851.22	3116
851.355	3062
851.49	3001
851.625	3028
851.76	3020
851.895	2975
852.03	2948
852.165	3058
852.299	3146
852.434	3241
852.569	3112
852.703	3230
852.838	3268
852.973	3382
853.107	3340
853.242	3123
853.376	3104
853.511	3017
853.645	3070
853.78	3268
853.914	3131
854.048	3146
854.183	3093
854.317	3180
854.451	3306
854.585	3161
854.72	3070
854.854	3237
854.988	3104
855.122	3127
855.256	3013
855.39	3142
855.524	3268
855.658	3214
855.792	3192
855.926	3199
856.06	3233
856.194	3317
856.327	3157
856.461	3077
856.595	3112
856.729	3135
856.862	3211
856.996	3169
857.13	3218
857.263	3283
857.397	3294
857.53	3176
857.664	3237
857.797	3245
857.931	3279
858.064	3154
858.197	3222
858.331	3157
858.464	3112
858.597	3039
858.731	3165
858.864	3161
858.997	3116
859.13	3199
859.263	3241
859.396	3226
859.529	3138
859.662	3104
859.795	3055
859.928	3146
860.061	3291
860.194	3321
860.327	3188
860.46	3123
860.592	3245
860.725	3279
860.858	3283
860.99	3112
861.123	3108
861.256	3081
861.388	3184
861.521	3945
861.653	3039
861.786	3039
861.918	3024
862.05	3123
862.183	3089
862.315	3184
862.447	3272
862.58	3138
862.712	2967
862.844	2910
862.976	3028
863.108	3051
863.24	3488
863.372	2918
863.504	3005
863.636	2975
863.768	3047
863.9	3009
864.032	2963
864.164	2975
864.296	3028
864.428	3085
864.559	3112
864.691	3104
864.823	3104
864.954	3074
865.086	3062
865.217	3020
865.349	3001
865.48	3020
865.612	3009
865.743	3176
865.875	2990
866.006	2914
866.137	2994
866.269	2979
866.4	2994
866.531	2929
866.662	2910
866.793	2906
866.924	2956
867.055	2979
867.186	2948
867.317	2883
867.448	2876
867.579	2895
867.71	2880
867.841	2834
867.972	2937
868.103	2937
868.233	2910
868.364	2857
868.495	2887
868.625	3108
868.756	3199
868.886	2975
869.017	3051
869.147	3154
869.278	3207
869.408	3058
869.539	3032
869.669	3123
869.799	3017
869.929	3142
870.06	3104
870.19	3363
870.32	3310
870.45	3340
870.58	3378
870.71	3485
870.84	3439
870.97	3306
871.1	3264
871.23	3488
871.36	3496
871.489	3359
871.619	3424
871.749	3439
871.879	3450
872.008	3496
872.138	3382
872.267	3294
872.397	3154
872.526	3127
872.656	3013
872.785	3161
872.915	3245
873.044	3336
873.173	3230
873.303	3287
873.432	3279
873.561	3287
873.69	3195
873.819	3146
873.948	3222
874.077	3146
874.206	3070
874.335	3119
874.464	3226
874.593	3370
874.722	3264
874.851	3450
874.979	3363
875.108	3355
875.237	3237
875.365	3214
875.494	3169
875.623	3260
875.751	3085
875.88	3138
876.008	3188
876.136	3211
876.265	3382
876.393	3519
876.521	3401
876.65	3386
876.778	3340
876.906	3230
877.034	3211
877.162	3264
877.29	3176
877.418	3253
877.546	3275
877.674	3283
877.802	3230
877.93	3230
878.058	3165
878.185	3138
878.313	3211
878.441	3230
878.568	3081
878.696	3184
878.824	3264
878.951	3359
879.079	3481
879.206	3603
879.333	3428
879.461	3336
879.588	3378
879.715	3534
879.842	3637
879.97	3401
880.097	3169
880.224	3176
880.351	3176
880.478	3222
880.605	3226
880.732	3222
880.859	3500
880.986	3321
881.112	3359
881.239	3195
881.366	3089
881.493	3077
881.619	3028
881.746	3070
881.872	3135
881.999	3119
882.125	3123
882.252	3253
882.378	3287
882.505	3473
882.631	3272
882.757	3176
882.883	3218
883.01	3264
883.136	3176
883.262	3142
883.388	3138
883.514	3340
883.64	3435
883.766	3302
883.892	3207
884.018	3249
884.143	3420
884.269	3538
884.395	3253
884.52	3165
884.646	3188
884.772	3116
884.897	3154
885.023	3211
885.148	3348
885.274	3481
885.399	3412
885.524	3298
885.65	3272
885.775	3302
885.9	3298
886.025	3447
886.15	3405
886.275	3321
886.4	3264
886.525	3340
886.65	3272
886.775	3283
886.9	3511
887.025	3660
887.149	3416
887.274	3321
887.399	3233
887.523	3199
887.648	3207
887.773	3207
887.897	3397
888.021	3409
888.146	3279
888.27	3443
888.395	3538
888.519	3458
888.643	3485
888.767	3447
888.891	3329
889.015	3268
889.139	3336
889.263	3268
889.387	3424
889.511	3519
889.635	3496
889.759	3298
889.883	3294
890.006	3409
890.13	3549
890.254	3306
890.377	3351
890.501	3218
890.624	3199
890.748	3287
890.871	3218
890.995	3119
891.118	3104
891.241	3211
891.364	3230
891.488	3344
891.611	3188
891.734	3233
891.857	3313
891.98	3237
892.103	3329
892.226	3260
892.349	3207
892.471	3108
892.594	3260
892.717	3294
892.839	3279
892.962	3291
893.085	3389
893.207	3306
893.33	3199
893.452	3230
893.575	3348
893.697	3264
893.819	3530
893.941	3511
894.064	3492
894.186	3275
894.308	3275
894.43	3450
894.552	3584
894.674	3488
894.796	3291
894.918	3294
895.04	3287
895.161	3458
895.283	3420
895.405	3313
895.526	3389
895.648	3469
895.769	3458
895.891	3447
896.012	3523
896.134	3462
896.255	3439
896.376	3412
896.498	3405
896.619	3439
896.74	3370
896.861	3424
896.982	3705
897.103	3850
897.224	3625
897.345	3526
897.466	3477
897.587	3477
897.708	3682
897.828	3530
897.949	3458
898.07	3321
898.19	3420
898.311	3603
898.431	3477
898.552	3526
898.672	3599
898.792	3584
898.913	3534
899.033	3412
899.153	3279
899.273	3230
899.393	3272
899.513	3298
899.633	3329
899.753	3344
899.873	3370
899.993	3374
900.113	3302
900.232	3405
900.352	3367
900.472	3268
900.591	3180
900.711	3279
900.83	3253
900.95	3469
901.069	3511
901.189	3370
901.308	3222
901.427	3157
901.546	3226
901.665	3306
901.784	3321
901.904	3207
902.023	3131
902.141	2994
902.26	3032
902.379	3184
902.498	3055
902.617	3066
902.735	3241
902.854	3207
902.973	3214
903.091	3070
903.21	3116
903.328	3123
903.446	3127
903.565	3135
903.683	3207
903.801	3173
903.919	3275
904.038	3279
904.156	3211
904.274	3283
904.392	3272
904.51	3329
904.627	3336
904.745	3450
904.863	3519
904.981	3264
905.098	3207
905.216	3260
905.334	3310
905.451	3264
905.569	3294
905.686	3428
905.803	3462
905.921	3279
906.038	3431
906.155	3336
906.272	3294
906.389	3344
906.506	3222
906.623	3256
906.74	3275
906.857	3203
906.974	3272
907.091	3428
907.208	3584
907.324	3511
907.441	3424
907.557	3272
907.674	3264
907.79	3211
907.907	3306
908.023	3359
908.139	3374
908.256	3367
908.372	3363
908.488	3363
908.604	3306
908.72	3237
908.836	3351
908.952	3264
909.068	3355
909.184	3458
909.3	3359
909.415	3496
909.531	3462
909.647	3294
909.762	3264
909.878	3283
909.993	3370
910.108	3367
910.224	3344
910.339	3386
910.454	3348
910.57	3302
910.685	3253
910.8	3629
910.915	3542
911.03	3439
911.145	3287
911.259	3298
911.374	3279
911.489	3268
911.604	3192
911.718	3146
911.833	3157
911.947	3047
912.062	2994
912.176	3119
912.291	3226
912.405	3218
912.519	3424
912.633	3481
912.748	3405
912.862	3298
912.976	3184
913.09	3066
913.204	3176
913.318	3222
913.431	3389
913.545	3313
913.659	3378
913.772	3317
913.886	3253
914	3207
914.113	3325
914.226	3405
914.34	3348
914.453	3222
914.566	3412
914.68	3313
914.793	3310
914.906	3135
915.019	3081
915.132	3085
915.245	3192
915.358	3214
915.47	3264
915.583	3256
915.696	3313
915.809	3389
915.921	3439
916.034	3287
916.146	3233
916.259	3214
916.371	3370
916.483	3397
916.595	3287
916.708	3363
916.82	3336
916.932	3313
917.044	3355
917.156	3370
917.268	3249
917.38	3317
917.491	3302
917.603	3386
917.715	3473
917.826	3450
917.938	3405
918.049	3264
918.161	3397
918.272	3622
918.384	3576
918.495	3500
918.606	3332
918.717	3313
918.828	3412
918.939	3401
919.05	3310
919.161	3405
919.272	3214
919.383	3325
919.494	3500
919.604	3713
919.715	3473
919.826	3412
919.936	3462
920.047	3591
920.157	3534
920.267	3785
920.378	3652
920.488	3549
920.598	3797
920.708	3964
920.818	3835
920.928	3873
921.038	4032
921.148	4017
921.258	3709
921.368	3637
921.477	3584
921.587	3553
921.697	3450
921.806	3622
921.916	3500
922.025	3313
922.134	3344
922.244	3317
922.353	3424
922.462	3260
922.571	3230
922.68	3157
922.789	3085
922.898	3173
923.007	3062
923.116	3199
923.224	3180
923.333	3211
923.442	3089
923.55	3104
923.659	3173
923.767	3195
923.876	3146
923.984	3260
924.092	3131
924.201	3226
924.309	3203
924.417	3237
924.525	3214
924.633	3245
924.741	4196
924.849	3032
924.956	3245
925.064	3093
925.172	3062
925.279	3108
925.387	3222
925.494	3218
925.602	3344
925.709	3374
925.816	3222
925.924	3275
926.031	3359
926.138	3363
926.245	3348
926.352	3279
926.459	3424
926.566	3447
926.673	3336
926.779	3245
926.886	3233
926.993	3135
927.099	3131
927.206	3112
927.312	3112
927.419	3226
927.525	3169
927.631	3272
927.737	3169
927.843	3131
927.95	3017
928.056	3100
928.162	3192
928.267	3233
928.373	3876
928.479	3291
928.585	3070
928.69	3211
928.796	3294
928.901	3184
929.007	3058
929.112	3195
929.218	3203
929.323	3142
929.428	3135
929.533	3313
929.638	3119
929.743	3176
929.848	3268
929.953	3218
930.058	3157
930.163	2971
930.267	3047
930.372	3188
930.477	3055
930.581	3367
930.685	3214
930.79	3051
930.894	3135
930.998	3081
931.103	3245
931.207	2975
931.311	2948
931.415	2933
931.519	2800
931.623	2788
