Data from test_V78500241_1364.txt Node
Date: Fri Mar 25 16:24:39 CST 2022
User: usil
Spectrometer: V785-0024
Trigger mode: 0
Integration Time (sec): 4.000000E-1
Scans to average: 1
Nonlinearity correction enabled: false
Boxcar width: 0
Storing dark spectrum: false
XAxis mode: Wavelengths
Number of Pixels in Spectrum: 1024
>>>>>Begin Spectral Data<<<<<
801.071	2902
801.214	2929
801.356	2826
801.499	2880
801.641	2845
801.783	2899
801.926	3066
802.068	2956
802.211	2967
802.353	3051
802.496	2967
802.638	3017
802.78	3032
802.923	3089
803.065	2994
803.208	2876
803.35	2914
803.492	2902
803.635	2906
803.777	2800
803.919	2864
804.061	3169
804.204	2948
804.346	2918
804.488	2857
804.63	2975
804.773	2883
804.915	2937
805.057	3055
805.199	2925
805.341	2960
805.483	3036
805.626	2986
805.768	2929
805.91	3104
806.052	3093
806.194	3051
806.336	3188
806.478	3036
806.62	2990
806.762	2994
806.904	3051
807.046	3165
807.188	2929
807.33	2891
807.472	2990
807.614	2914
807.756	2952
807.898	2960
808.04	2887
808.182	2952
808.324	2937
808.465	2864
808.607	2853
808.749	2819
808.891	2838
809.033	2967
809.174	2929
809.316	2887
809.458	2910
809.6	2766
809.741	2766
809.883	2746
810.025	2830
810.166	2849
810.308	2845
810.45	2853
810.591	2777
810.733	2766
810.875	2823
811.016	2792
811.158	2739
811.299	2800
811.441	2960
811.582	2887
811.724	2830
811.865	2842
812.007	2880
812.148	2906
812.29	2826
812.431	2891
812.573	2891
812.714	2956
812.855	3043
812.997	3062
813.138	3131
813.279	3039
813.421	2986
813.562	2933
813.703	2868
813.845	2880
813.986	2762
814.127	2705
814.268	2815
814.41	2842
814.551	2815
814.692	2891
814.833	2842
814.974	2887
815.115	2944
815.256	2830
815.397	2800
815.539	2861
815.68	2758
815.821	2788
815.962	2952
816.103	2899
816.244	2883
816.385	2872
816.526	2944
816.666	2910
816.807	2750
816.948	2887
817.089	2906
817.23	2842
817.371	2777
817.512	2788
817.653	2823
817.793	2826
817.934	2849
818.075	2979
818.216	2982
818.356	2982
818.497	2895
818.638	2758
818.778	2830
818.919	2773
819.06	2777
819.2	2876
819.341	2807
819.481	2800
819.622	2937
819.762	3062
819.903	3043
820.043	2899
820.184	2914
820.324	2914
820.465	2990
820.605	3013
820.746	3013
820.886	2929
821.026	3062
821.167	3112
821.307	3287
821.447	3313
821.588	3211
821.728	3146
821.868	3207
822.008	3066
822.149	3161
822.289	3211
822.429	3051
822.569	3070
822.709	3135
822.849	2998
822.99	3093
823.13	3097
823.27	3169
823.41	3077
823.55	3150
823.69	3195
823.83	3165
823.97	3039
824.11	3001
824.25	3017
824.389	3051
824.529	3112
824.669	3066
824.809	3184
824.949	3218
825.089	3207
825.228	3184
825.368	3009
825.508	2948
825.648	2986
825.787	3013
825.927	3032
826.067	2994
826.206	2956
826.346	3051
826.485	3074
826.625	3112
826.765	3283
826.904	3192
827.044	2971
827.183	2929
827.323	2872
827.462	2990
827.601	2883
827.741	2902
827.88	2952
828.02	2842
828.159	2944
828.298	3020
828.437	3093
828.577	3024
828.716	3203
828.855	3051
828.994	2906
829.134	2864
829.273	2906
829.412	2868
829.551	2868
829.69	2902
829.829	2956
829.968	3100
830.107	3020
830.246	3036
830.385	2883
830.524	2876
830.663	2815
830.802	2705
830.941	2610
831.08	2617
831.219	2724
831.357	2746
831.496	2925
831.635	2697
831.774	2651
831.913	2659
832.051	2556
832.19	2587
832.329	2686
832.467	2526
832.606	2473
832.744	2602
832.883	2560
833.022	2579
833.16	2648
833.299	2682
833.437	2678
833.576	2693
833.714	2697
833.852	2724
833.991	2766
834.129	2849
834.267	2838
834.406	2804
834.544	2864
834.682	2864
834.821	2906
834.959	3047
835.097	2872
835.235	3058
835.373	3001
835.511	3005
835.65	2929
835.788	2929
835.926	2800
836.064	2826
836.202	2868
836.34	3108
836.478	3161
836.615	3017
836.753	3081
836.891	3199
837.029	3154
837.167	3093
837.305	3070
837.443	3028
837.58	2994
837.718	3131
837.856	3028
837.993	2986
838.131	3119
838.269	3085
838.406	3097
838.544	3077
838.681	2941
838.819	2925
838.956	2800
839.094	2838
839.231	2876
839.369	2998
839.506	3363
839.643	3233
839.781	3036
839.918	2971
840.055	3036
840.193	3047
840.33	3055
840.467	3085
840.604	3150
840.742	3389
840.879	2998
841.016	3062
841.153	3089
841.29	3283
841.427	3321
841.564	3249
841.701	3283
841.838	3218
841.975	3165
842.112	3245
842.249	3062
842.385	3036
842.522	3260
842.659	3100
842.796	3051
842.933	3093
843.069	3047
843.206	3020
843.343	3176
843.479	3066
843.616	3138
843.752	2918
843.889	2872
844.025	3051
844.162	2823
844.298	3055
844.435	2941
844.571	2902
844.708	3074
844.844	3214
844.98	3230
845.117	3214
845.253	3032
845.389	2990
845.525	3142
845.661	3093
845.798	2994
845.934	3131
846.07	3066
846.206	3218
846.342	3325
846.478	3203
846.614	3089
846.75	3055
846.886	3074
847.022	3218
847.158	3131
847.294	3184
847.429	3253
847.565	3195
847.701	3466
847.837	3028
847.972	3009
848.108	3138
848.244	3108
848.379	2986
848.515	2929
848.65	2918
848.786	2918
848.921	2990
849.057	3077
849.192	3157
849.328	3055
849.463	3097
849.598	3070
849.734	3005
849.869	2925
850.004	2925
850.14	2960
850.275	2902
850.41	2868
850.545	2887
850.68	2918
850.815	2937
850.95	2960
851.085	3214
851.22	3089
851.355	3051
851.49	2982
851.625	3013
851.76	2952
851.895	2933
852.03	2914
852.165	3028
852.299	3093
852.434	3165
852.569	3154
852.703	3169
852.838	3245
852.973	3359
853.107	3317
853.242	3138
853.376	3089
853.511	2952
853.645	3013
853.78	3245
853.914	3100
854.048	3097
854.183	3112
854.317	3077
854.451	3264
854.585	3116
854.72	3039
854.854	3192
854.988	3036
855.122	3066
855.256	2998
855.39	3108
855.524	3226
855.658	3157
855.792	3157
855.926	3192
856.06	3180
856.194	3260
856.327	3150
856.461	3074
856.595	3066
856.729	3085
856.862	3199
856.996	3165
857.13	3184
857.263	3203
857.397	3230
857.53	3112
857.664	3188
857.797	3199
857.931	3241
858.064	3165
858.197	3233
858.331	3119
858.464	3074
858.597	2967
858.731	3108
858.864	3108
858.997	3074
859.13	3119
859.263	3184
859.396	3188
859.529	3070
859.662	3047
859.795	3009
859.928	3142
860.061	3253
860.194	3230
860.327	3085
860.46	3116
860.592	3237
860.725	3264
860.858	3218
860.99	3074
861.123	3036
861.256	3077
861.388	3146
861.521	3785
861.653	2963
861.786	2967
861.918	3009
862.05	3051
862.183	3077
862.315	3108
862.447	3218
862.58	3058
862.712	2960
862.844	2872
862.976	2986
863.108	3013
863.24	3298
863.372	2868
863.504	2922
863.636	2952
863.768	3005
863.9	2933
864.032	2906
864.164	2918
864.296	3013
864.428	3051
864.559	3142
864.691	3085
864.823	3070
864.954	3043
865.086	3032
865.217	2975
865.349	2952
865.48	2960
865.612	3001
865.743	3131
865.875	2990
866.006	2933
866.137	2975
866.269	2941
866.4	2914
866.531	2902
866.662	2880
866.793	2868
866.924	2872
867.055	2963
867.186	2933
867.317	2876
867.448	2842
867.579	2868
867.71	2849
867.841	2819
867.972	2899
868.103	2857
868.233	2857
868.364	2895
868.495	2910
868.625	3097
868.756	3203
868.886	2971
869.017	3032
869.147	3169
869.278	3192
869.408	3017
869.539	3024
869.669	3112
869.799	3020
869.929	3077
870.06	3081
870.19	3302
870.32	3298
870.45	3275
870.58	3401
870.71	3443
870.84	3389
870.97	3291
871.1	3233
871.23	3466
871.36	3424
871.489	3348
871.619	3378
871.749	3393
871.879	3416
872.008	3473
872.138	3367
872.267	3272
872.397	3100
872.526	3119
872.656	2998
872.785	3047
872.915	3237
873.044	3351
873.173	3218
873.303	3214
873.432	3245
873.561	3253
873.69	3169
873.819	3127
873.948	3214
874.077	3131
874.206	3055
874.335	3062
874.464	3260
874.593	3298
874.722	3207
874.851	3367
874.979	3351
875.108	3310
875.237	3180
875.365	3157
875.494	3146
875.623	3249
875.751	3104
875.88	3062
876.008	3180
876.136	3222
876.265	3367
876.393	3523
876.521	3393
876.65	3382
876.778	3298
876.906	3245
877.034	3192
877.162	3207
877.29	3184
877.418	3283
877.546	3214
877.674	3249
877.802	3260
877.93	3211
878.058	3135
878.185	3100
878.313	3176
878.441	3233
878.568	3051
878.696	3150
878.824	3226
878.951	3298
879.079	3439
879.206	3625
879.333	3428
879.461	3329
879.588	3374
879.715	3466
879.842	3595
879.97	3389
880.097	3169
880.224	3127
880.351	3184
880.478	3199
880.605	3199
880.732	3161
880.859	3481
880.986	3317
881.112	3348
881.239	3214
881.366	3135
881.493	3024
881.619	2982
881.746	3047
881.872	3074
881.999	3036
882.125	3165
882.252	3249
882.378	3287
882.505	3428
882.631	3230
882.757	3142
882.883	3230
883.01	3199
883.136	3165
883.262	3066
883.388	3127
883.514	3302
883.64	3389
883.766	3336
883.892	3154
884.018	3245
884.143	3420
884.269	3542
884.395	3218
884.52	3108
884.646	3214
884.772	3127
884.897	3081
885.023	3173
885.148	3336
885.274	3374
885.399	3367
885.524	3268
885.65	3279
885.775	3287
885.9	3313
886.025	3397
886.15	3370
886.275	3317
886.4	3256
886.525	3302
886.65	3253
886.775	3275
886.9	3485
887.025	3679
887.149	3428
887.274	3264
887.399	3173
887.523	3203
887.648	3192
887.773	3195
887.897	3355
888.021	3374
888.146	3275
888.27	3401
888.395	3568
888.519	3450
888.643	3447
888.767	3462
888.891	3329
889.015	3230
889.139	3291
889.263	3268
889.387	3382
889.511	3530
889.635	3409
889.759	3260
889.883	3249
890.006	3397
890.13	3450
890.254	3249
890.377	3329
890.501	3180
890.624	3146
890.748	3287
890.871	3192
890.995	3062
891.118	3081
891.241	3131
891.364	3188
891.488	3294
891.611	3138
891.734	3268
891.857	3268
891.98	3230
892.103	3325
892.226	3249
892.349	3199
892.471	3100
892.594	3226
892.717	3279
892.839	3233
892.962	3272
893.085	3351
893.207	3275
893.33	3131
893.452	3180
893.575	3355
893.697	3207
893.819	3447
893.941	3443
894.064	3450
894.186	3249
894.308	3260
894.43	3443
894.552	3538
894.674	3477
894.796	3256
894.918	3260
895.04	3291
895.161	3424
895.283	3393
895.405	3340
895.526	3382
895.648	3450
895.769	3397
895.891	3443
896.012	3477
896.134	3439
896.255	3367
896.376	3363
896.498	3340
896.619	3401
896.74	3374
896.861	3401
896.982	3671
897.103	3842
897.224	3587
897.345	3500
897.466	3424
897.587	3515
897.708	3603
897.828	3564
897.949	3477
898.07	3351
898.19	3420
898.311	3625
898.431	3431
898.552	3496
898.672	3584
898.792	3580
898.913	3523
899.033	3401
899.153	3260
899.273	3207
899.393	3245
899.513	3298
899.633	3329
899.753	3321
899.873	3283
899.993	3389
900.113	3321
900.232	3397
900.352	3298
900.472	3249
900.591	3180
900.711	3264
900.83	3226
900.95	3397
901.069	3473
901.189	3355
901.308	3154
901.427	3074
901.546	3161
901.665	3279
901.784	3329
901.904	3173
902.023	3142
902.141	2994
902.26	2956
902.379	3089
902.498	3051
902.617	3032
902.735	3192
902.854	3211
902.973	3211
903.091	3005
903.21	3093
903.328	3127
903.446	3066
903.565	3077
903.683	3165
903.801	3116
903.919	3230
904.038	3287
904.156	3165
904.274	3279
904.392	3245
904.51	3260
904.627	3302
904.745	3431
904.863	3485
904.981	3287
905.098	3184
905.216	3222
905.334	3317
905.451	3294
905.569	3351
905.686	3473
905.803	3447
905.921	3279
906.038	3447
906.155	3370
906.272	3321
906.389	3340
906.506	3233
906.623	3260
906.74	3268
906.857	3214
906.974	3241
907.091	3526
907.208	3580
907.324	3504
907.441	3420
907.557	3268
907.674	3256
907.79	3218
907.907	3313
908.023	3435
908.139	3435
908.256	3367
908.372	3374
908.488	3355
908.604	3287
908.72	3249
908.836	3325
908.952	3275
909.068	3389
909.184	3530
909.3	3447
909.415	3545
909.531	3507
909.647	3359
909.762	3340
909.878	3291
909.993	3401
910.108	3363
910.224	3416
910.339	3428
910.454	3344
910.57	3310
910.685	3279
910.8	3686
910.915	3576
911.03	3443
911.145	3287
911.259	3310
911.374	3344
911.489	3313
911.604	3260
911.718	3176
911.833	3199
911.947	3066
912.062	3009
912.176	3203
912.291	3226
912.405	3264
912.519	3450
912.633	3511
912.748	3329
912.862	3313
912.976	3203
913.09	3116
913.204	3207
913.318	3245
913.431	3386
913.545	3389
913.659	3401
913.772	3424
913.886	3272
914	3272
914.113	3397
914.226	3496
914.34	3431
914.453	3256
914.566	3416
914.68	3317
914.793	3348
914.906	3184
915.019	3116
915.132	3150
915.245	3199
915.358	3218
915.47	3313
915.583	3279
915.696	3344
915.809	3443
915.921	3447
916.034	3264
916.146	3272
916.259	3256
916.371	3397
916.483	3393
916.595	3310
916.708	3393
916.82	3363
916.932	3359
917.044	3397
917.156	3348
917.268	3260
917.38	3336
917.491	3336
917.603	3374
917.715	3454
917.826	3473
917.938	3420
918.049	3256
918.161	3469
918.272	3584
918.384	3614
918.495	3530
918.606	3351
918.717	3313
918.828	3401
918.939	3428
919.05	3340
919.161	3420
919.272	3180
919.383	3313
919.494	3511
919.604	3728
919.715	3580
919.826	3435
919.936	3477
920.047	3606
920.157	3572
920.267	3808
920.378	3584
920.488	3564
920.598	3808
920.708	3979
920.818	3835
920.928	3846
921.038	4063
921.148	4010
921.258	3728
921.368	3663
921.477	3584
921.587	3584
921.697	3504
921.806	3656
921.916	3519
922.025	3359
922.134	3382
922.244	3313
922.353	3477
922.462	3313
922.571	3222
922.68	3112
922.789	3089
922.898	3180
923.007	3077
923.116	3268
923.224	3207
923.333	3241
923.442	3142
923.55	3154
923.659	3127
923.767	3230
923.876	3157
923.984	3222
924.092	3123
924.201	3241
924.309	3233
924.417	3245
924.525	3211
924.633	3302
924.741	4051
924.849	3074
924.956	3279
925.064	3112
925.172	3085
925.279	3150
925.387	3233
925.494	3226
925.602	3363
925.709	3317
925.816	3195
925.924	3279
926.031	3393
926.138	3340
926.245	3401
926.352	3226
926.459	3424
926.566	3488
926.673	3363
926.779	3272
926.886	3302
926.993	3192
927.099	3184
927.206	3123
927.312	3135
927.419	3268
927.525	3283
927.631	3306
927.737	3214
927.843	3173
927.95	3039
928.056	3142
928.162	3195
928.267	3275
928.373	3930
928.479	3359
928.585	3108
928.69	3245
928.796	3321
928.901	3207
929.007	3055
929.112	3218
929.218	3195
929.323	3161
929.428	3154
929.533	3325
929.638	3131
929.743	3230
929.848	3283
929.953	3226
930.058	3180
930.163	3005
930.267	3070
930.372	3256
930.477	3119
930.581	3378
930.685	3230
930.79	3062
930.894	3150
930.998	3127
931.103	3321
931.207	3036
931.311	2941
931.415	2960
931.519	2785
931.623	2834
