Data from test_V78500241_338.txt Node
Date: Fri Mar 25 16:17:32 CST 2022
User: usil
Spectrometer: V785-0024
Trigger mode: 0
Integration Time (sec): 4.000000E-1
Scans to average: 1
Nonlinearity correction enabled: false
Boxcar width: 0
Storing dark spectrum: false
XAxis mode: Wavelengths
Number of Pixels in Spectrum: 1024
>>>>>Begin Spectral Data<<<<<
801.071	2941
801.214	2967
801.356	2918
801.499	2929
801.641	2895
801.783	2941
801.926	3089
802.068	2998
802.211	3001
802.353	3081
802.496	2990
802.638	3028
802.78	3058
802.923	3131
803.065	3013
803.208	2914
803.35	2933
803.492	2975
803.635	2948
803.777	2785
803.919	2842
804.061	3218
804.204	2967
804.346	2933
804.488	2864
804.63	2982
804.773	2895
804.915	2925
805.057	3112
805.199	2944
805.341	2994
805.483	3013
805.626	2979
805.768	2994
805.91	3142
806.052	3081
806.194	3062
806.336	3230
806.478	3013
806.62	3005
806.762	2986
806.904	3081
807.046	3146
807.188	3001
807.33	2944
807.472	2986
807.614	2933
807.756	2998
807.898	2941
808.04	2891
808.182	2975
808.324	2944
808.465	2906
808.607	2861
808.749	2826
808.891	2842
809.033	2952
809.174	2937
809.316	2914
809.458	2948
809.6	2792
809.741	2773
809.883	2788
810.025	2872
810.166	2887
810.308	2807
810.45	2845
810.591	2773
810.733	2773
810.875	2823
811.016	2819
811.158	2743
811.299	2838
811.441	2944
811.582	2883
811.724	2842
811.865	2864
812.007	2914
812.148	2906
812.29	2899
812.431	2899
812.573	2948
812.714	3020
812.855	3058
812.997	3074
813.138	3142
813.279	3005
813.421	3001
813.562	2937
813.703	2910
813.845	2902
813.986	2758
814.127	2754
814.268	2830
814.41	2868
814.551	2826
814.692	2906
814.833	2838
814.974	2902
815.115	3001
815.256	2857
815.397	2819
815.539	2868
815.68	2796
815.821	2842
815.962	2925
816.103	2948
816.244	2902
816.385	2861
816.526	2982
816.666	2956
816.807	2750
816.948	2883
817.089	2899
817.23	2887
817.371	2781
817.512	2804
817.653	2845
817.793	2826
817.934	2937
818.075	2967
818.216	3020
818.356	3036
818.497	2887
818.638	2781
818.778	2853
818.919	2785
819.06	2788
819.2	2918
819.341	2838
819.481	2845
819.622	2929
819.762	3074
819.903	3066
820.043	2925
820.184	2910
820.324	2895
820.465	3047
820.605	3032
820.746	3032
820.886	2929
821.026	3089
821.167	3146
821.307	3249
821.447	3302
821.588	3214
821.728	3222
821.868	3218
822.008	3112
822.149	3154
822.289	3241
822.429	3135
822.569	3123
822.709	3142
822.849	3043
822.99	3077
823.13	3222
823.27	3214
823.41	3116
823.55	3184
823.69	3165
823.83	3207
823.97	3138
824.11	3036
824.25	3001
824.389	3097
824.529	3150
824.669	3062
824.809	3214
824.949	3256
825.089	3222
825.228	3173
825.368	3032
825.508	2986
825.648	2956
825.787	3036
825.927	3036
826.067	2963
826.206	2982
826.346	3062
826.485	3085
826.625	3131
826.765	3264
826.904	3180
827.044	3009
827.183	2956
827.323	2826
827.462	3009
827.601	2922
827.741	2963
827.88	2967
828.02	2880
828.159	2990
828.298	3028
828.437	3077
828.577	3028
828.716	3264
828.855	3112
828.994	2914
829.134	2880
829.273	2933
829.412	2891
829.551	2887
829.69	2899
829.829	2975
829.968	3104
830.107	2998
830.246	3047
830.385	2914
830.524	2883
830.663	2826
830.802	2731
830.941	2644
831.08	2663
831.219	2785
831.357	2758
831.496	2952
831.635	2697
831.774	2629
831.913	2674
832.051	2560
832.19	2590
832.329	2689
832.467	2560
832.606	2492
832.744	2602
832.883	2590
833.022	2587
833.16	2651
833.299	2705
833.437	2689
833.576	2674
833.714	2743
833.852	2750
833.991	2762
834.129	2849
834.267	2849
834.406	2777
834.544	2876
834.682	2895
834.821	2891
834.959	3097
835.097	2887
835.235	3039
835.373	2982
835.511	3013
835.65	2944
835.788	2956
835.926	2876
836.064	2819
836.202	2830
836.34	3116
836.478	3165
836.615	3066
836.753	3138
836.891	3211
837.029	3169
837.167	3135
837.305	3074
837.443	3005
837.58	3001
837.718	3135
837.856	3100
837.993	3028
838.131	3081
838.269	3116
838.406	3116
838.544	3123
838.681	2929
838.819	2948
838.956	2811
839.094	2838
839.231	2937
839.369	3013
839.506	3393
839.643	3241
839.781	2982
839.918	2960
840.055	3058
840.193	3028
840.33	3074
840.467	3119
840.604	3131
840.742	3393
840.879	3055
841.016	3058
841.153	3089
841.29	3329
841.427	3287
841.564	3313
841.701	3329
841.838	3226
841.975	3192
842.112	3214
842.249	3081
842.385	3085
842.522	3241
842.659	3127
842.796	3138
842.933	3100
843.069	3047
843.206	3058
843.343	3203
843.479	3131
843.616	3135
843.752	2891
843.889	2891
844.025	3116
844.162	2895
844.298	3085
844.435	2967
844.571	2956
844.708	3077
844.844	3173
844.98	3237
845.117	3199
845.253	3009
845.389	2979
845.525	3138
845.661	3074
845.798	3024
845.934	3138
846.07	3070
846.206	3256
846.342	3294
846.478	3222
846.614	3142
846.75	3081
846.886	3028
847.022	3245
847.158	3138
847.294	3195
847.429	3260
847.565	3207
847.701	3462
847.837	3047
847.972	2994
848.108	3169
848.244	3161
848.379	2990
848.515	2944
848.65	2948
848.786	3001
848.921	3024
849.057	3138
849.192	3154
849.328	3051
849.463	3100
849.598	3055
849.734	3085
849.869	2998
850.004	2922
850.14	2971
850.275	2902
850.41	2849
850.545	2895
850.68	2929
850.815	2956
850.95	2960
851.085	3195
851.22	3119
851.355	3039
851.49	3001
851.625	3001
851.76	3032
851.895	2925
852.03	2910
852.165	3028
852.299	3100
852.434	3226
852.569	3127
852.703	3173
852.838	3260
852.973	3332
853.107	3325
853.242	3176
853.376	3108
853.511	2979
853.645	3051
853.78	3207
853.914	3119
854.048	3085
854.183	3085
854.317	3150
854.451	3268
854.585	3123
854.72	3097
854.854	3195
854.988	3051
855.122	3077
855.256	2967
855.39	3085
855.524	3245
855.658	3173
855.792	3138
855.926	3184
856.06	3176
856.194	3245
856.327	3169
856.461	3062
856.595	3093
856.729	3104
856.862	3180
856.996	3142
857.13	3226
857.263	3214
857.397	3287
857.53	3116
857.664	3161
857.797	3203
857.931	3268
858.064	3161
858.197	3218
858.331	3119
858.464	3116
858.597	3047
858.731	3123
858.864	3161
858.997	3093
859.13	3146
859.263	3207
859.396	3188
859.529	3089
859.662	3100
859.795	3047
859.928	3119
860.061	3298
860.194	3291
860.327	3123
860.46	3085
860.592	3249
860.725	3241
860.858	3256
860.99	3104
861.123	3058
861.256	3013
861.388	3154
861.521	3770
861.653	3001
861.786	3013
861.918	3028
862.05	3066
862.183	3123
862.315	3150
862.447	3207
862.58	3104
862.712	2948
862.844	2861
862.976	3005
863.108	2979
863.24	3302
863.372	2895
863.504	2975
863.636	2963
863.768	3036
863.9	2971
864.032	2906
864.164	2971
864.296	2971
864.428	3108
864.559	3058
864.691	3062
864.823	3081
864.954	3013
865.086	3055
865.217	3020
865.349	2963
865.48	2994
865.612	3028
865.743	3116
865.875	2967
866.006	2918
866.137	2963
866.269	2975
866.4	2918
866.531	2929
866.662	2891
866.793	2868
866.924	2899
867.055	3017
867.186	2922
867.317	2864
867.448	2830
867.579	2834
867.71	2853
867.841	2807
867.972	2880
868.103	2883
868.233	2887
868.364	2883
868.495	2899
868.625	3077
868.756	3188
868.886	2975
869.017	3039
869.147	3169
869.278	3146
869.408	3070
869.539	3005
869.669	3104
869.799	3024
869.929	3157
870.06	3119
870.19	3317
870.32	3298
870.45	3291
870.58	3378
870.71	3466
870.84	3435
870.97	3287
871.1	3264
871.23	3496
871.36	3458
871.489	3329
871.619	3401
871.749	3397
871.879	3420
872.008	3469
872.138	3351
872.267	3279
872.397	3154
872.526	3108
872.656	3009
872.785	3081
872.915	3253
873.044	3291
873.173	3249
873.303	3222
873.432	3237
873.561	3256
873.69	3173
873.819	3123
873.948	3199
874.077	3077
874.206	3039
874.335	3104
874.464	3180
874.593	3332
874.722	3241
874.851	3378
874.979	3405
875.108	3302
875.237	3176
875.365	3207
875.494	3150
875.623	3256
875.751	3089
875.88	3116
876.008	3184
876.136	3226
876.265	3348
876.393	3542
876.521	3405
876.65	3370
876.778	3355
876.906	3230
877.034	3218
877.162	3237
877.29	3169
877.418	3268
877.546	3253
877.674	3253
877.802	3245
877.93	3199
878.058	3161
878.185	3081
878.313	3218
878.441	3203
878.568	3081
878.696	3142
878.824	3249
878.951	3321
879.079	3412
879.206	3568
879.333	3454
879.461	3302
879.588	3355
879.715	3481
879.842	3572
879.97	3378
880.097	3161
880.224	3154
880.351	3192
880.478	3222
880.605	3184
880.732	3199
880.859	3504
880.986	3302
881.112	3340
881.239	3184
881.366	3123
881.493	3051
881.619	3001
881.746	3077
881.872	3081
881.999	3077
882.125	3154
882.252	3272
882.378	3283
882.505	3401
882.631	3256
882.757	3127
882.883	3195
883.01	3230
883.136	3169
883.262	3097
883.388	3138
883.514	3325
883.64	3386
883.766	3329
883.892	3207
884.018	3218
884.143	3409
884.269	3580
884.395	3237
884.52	3157
884.646	3207
884.772	3104
884.897	3089
885.023	3207
885.148	3344
885.274	3428
885.399	3401
885.524	3256
885.65	3256
885.775	3306
885.9	3272
886.025	3428
886.15	3351
886.275	3275
886.4	3211
886.525	3298
886.65	3283
886.775	3268
886.9	3443
887.025	3622
887.149	3378
887.274	3245
887.399	3176
887.523	3211
887.648	3169
887.773	3188
887.897	3359
888.021	3435
888.146	3298
888.27	3412
888.395	3515
888.519	3447
888.643	3473
888.767	3469
888.891	3313
889.015	3256
889.139	3272
889.263	3237
889.387	3405
889.511	3538
889.635	3462
889.759	3256
889.883	3332
890.006	3370
890.13	3492
890.254	3260
890.377	3317
890.501	3214
890.624	3188
890.748	3351
890.871	3169
890.995	3112
891.118	3074
891.241	3203
891.364	3237
891.488	3321
891.611	3131
891.734	3199
891.857	3275
891.98	3211
892.103	3279
892.226	3245
892.349	3199
892.471	3097
892.594	3203
892.717	3306
892.839	3260
892.962	3317
893.085	3386
893.207	3291
893.33	3154
893.452	3184
893.575	3378
893.697	3260
893.819	3511
893.941	3504
894.064	3462
894.186	3233
894.308	3256
894.43	3435
894.552	3542
894.674	3469
894.796	3264
894.918	3317
895.04	3268
895.161	3439
895.283	3401
895.405	3268
895.526	3348
895.648	3397
895.769	3420
895.891	3428
896.012	3473
896.134	3485
896.255	3435
896.376	3389
896.498	3370
896.619	3435
896.74	3321
896.861	3412
896.982	3656
897.103	3892
897.224	3625
897.345	3557
897.466	3439
897.587	3523
897.708	3637
897.828	3538
897.949	3409
898.07	3336
898.19	3420
898.311	3606
898.431	3435
898.552	3462
898.672	3587
898.792	3584
898.913	3504
899.033	3420
899.153	3332
899.273	3218
899.393	3294
899.513	3336
899.633	3332
899.753	3340
899.873	3313
899.993	3409
900.113	3332
900.232	3428
900.352	3294
900.472	3302
900.591	3241
900.711	3287
900.83	3237
900.95	3412
901.069	3485
901.189	3351
901.308	3203
901.427	3123
901.546	3207
901.665	3287
901.784	3332
901.904	3214
902.023	3157
902.141	2986
902.26	2994
902.379	3123
902.498	3074
902.617	3062
902.735	3222
902.854	3218
902.973	3157
903.091	3047
903.21	3070
903.328	3119
903.446	3104
903.565	3097
903.683	3211
903.801	3119
903.919	3207
904.038	3283
904.156	3173
904.274	3294
904.392	3256
904.51	3291
904.627	3340
904.745	3428
904.863	3507
904.981	3268
905.098	3173
905.216	3222
905.334	3298
905.451	3275
905.569	3283
905.686	3439
905.803	3389
905.921	3291
906.038	3412
906.155	3359
906.272	3268
906.389	3348
906.506	3241
906.623	3241
906.74	3226
906.857	3173
906.974	3279
907.091	3450
907.208	3568
907.324	3454
907.441	3382
907.557	3279
907.674	3203
907.79	3203
907.907	3291
908.023	3344
908.139	3389
908.256	3313
908.372	3344
908.488	3355
908.604	3230
908.72	3233
908.836	3275
908.952	3230
909.068	3332
909.184	3485
909.3	3367
909.415	3488
909.531	3473
909.647	3264
909.762	3325
909.878	3249
909.993	3344
910.108	3363
910.224	3340
910.339	3393
910.454	3321
910.57	3287
910.685	3260
910.8	3572
910.915	3534
911.03	3412
911.145	3287
911.259	3241
911.374	3306
911.489	3233
911.604	3260
911.718	3097
911.833	3169
911.947	3005
912.062	2918
912.176	3154
912.291	3180
912.405	3218
912.519	3447
912.633	3458
912.748	3321
912.862	3237
912.976	3154
913.09	3058
913.204	3089
913.318	3199
913.431	3336
913.545	3363
913.659	3431
913.772	3317
913.886	3207
914	3211
914.113	3340
914.226	3420
914.34	3420
914.453	3203
914.566	3420
914.68	3298
914.793	3287
914.906	3150
915.019	3112
915.132	3089
915.245	3214
915.358	3199
915.47	3256
915.583	3233
915.696	3279
915.809	3405
915.921	3424
916.034	3230
916.146	3249
916.259	3203
916.371	3397
916.483	3332
916.595	3253
916.708	3317
916.82	3340
916.932	3348
917.044	3374
917.156	3378
917.268	3237
917.38	3302
917.491	3336
917.603	3336
917.715	3431
917.826	3462
917.938	3374
918.049	3279
918.161	3424
918.272	3561
918.384	3591
918.495	3515
918.606	3332
918.717	3287
918.828	3340
918.939	3412
919.05	3336
919.161	3332
919.272	3180
919.383	3287
919.494	3507
919.604	3671
919.715	3507
919.826	3363
919.936	3447
920.047	3584
920.157	3534
920.267	3781
920.378	3606
920.488	3549
920.598	3804
920.708	3960
920.818	3842
920.928	3827
921.038	4013
921.148	3998
921.258	3709
921.368	3660
921.477	3606
921.587	3572
921.697	3416
921.806	3625
921.916	3557
922.025	3325
922.134	3412
922.244	3332
922.353	3435
922.462	3302
922.571	3268
922.68	3112
922.789	3100
922.898	3157
923.007	3116
923.116	3226
923.224	3188
923.333	3199
923.442	3150
923.55	3074
923.659	3131
923.767	3195
923.876	3108
923.984	3233
924.092	3104
924.201	3184
924.309	3230
924.417	3268
924.525	3184
924.633	3249
924.741	4158
924.849	3058
924.956	3218
925.064	3108
925.172	3028
925.279	3100
925.387	3192
925.494	3184
925.602	3374
925.709	3321
925.816	3237
925.924	3279
926.031	3389
926.138	3355
926.245	3351
926.352	3272
926.459	3443
926.566	3462
926.673	3344
926.779	3253
926.886	3253
926.993	3104
927.099	3127
927.206	3116
927.312	3135
927.419	3264
927.525	3237
927.631	3313
927.737	3146
927.843	3123
927.95	3058
928.056	3131
928.162	3188
928.267	3211
928.373	3884
928.479	3264
928.585	3055
928.69	3241
928.796	3294
928.901	3180
929.007	3062
929.112	3214
929.218	3203
929.323	3135
929.428	3131
929.533	3332
929.638	3154
929.743	3161
929.848	3233
929.953	3146
930.058	3165
930.163	3013
930.267	3097
930.372	3195
930.477	3047
930.581	3321
930.685	3161
930.79	3081
930.894	3138
930.998	3089
931.103	3310
931.207	2990
931.311	2956
931.415	2948
931.519	2777
931.623	2800
