Data from test_V78500241_312.txt Node
Date: Fri Mar 25 16:17:21 CST 2022
User: usil
Spectrometer: V785-0024
Trigger mode: 0
Integration Time (sec): 4.000000E-1
Scans to average: 1
Nonlinearity correction enabled: false
Boxcar width: 0
Storing dark spectrum: false
XAxis mode: Wavelengths
Number of Pixels in Spectrum: 1024
>>>>>Begin Spectral Data<<<<<
801.071	2963
801.214	3009
801.356	2899
801.499	2975
801.641	2918
801.783	2963
801.926	3112
802.068	2998
802.211	3020
802.353	3062
802.496	3032
802.638	3070
802.78	3093
802.923	3089
803.065	3047
803.208	2941
803.35	2956
803.492	2990
803.635	3013
803.777	2838
803.919	2876
804.061	3237
804.204	3001
804.346	2948
804.488	2876
804.63	3032
804.773	2937
804.915	2960
805.057	3093
805.199	2975
805.341	3001
805.483	3055
805.626	3051
805.768	3036
805.91	3135
806.052	3150
806.194	3089
806.336	3272
806.478	3051
806.62	3013
806.762	3001
806.904	3131
807.046	3192
807.188	2990
807.33	2925
807.472	3032
807.614	2967
807.756	3039
807.898	2971
808.04	2906
808.182	3009
808.324	2982
808.465	2929
808.607	2906
808.749	2849
808.891	2853
809.033	3020
809.174	2979
809.316	2922
809.458	2910
809.6	2819
809.741	2807
809.883	2788
810.025	2922
810.166	2906
810.308	2880
810.45	2899
810.591	2838
810.733	2800
810.875	2861
811.016	2826
811.158	2804
811.299	2849
811.441	2971
811.582	2922
811.724	2864
811.865	2880
812.007	2899
812.148	2944
812.29	2883
812.431	2941
812.573	2986
812.714	2967
812.855	3039
812.997	3039
813.138	3138
813.279	3032
813.421	3017
813.562	2967
813.703	2933
813.845	2925
813.986	2811
814.127	2754
814.268	2861
814.41	2918
814.551	2823
814.692	2914
814.833	2815
814.974	2948
815.115	3009
815.256	2853
815.397	2845
815.539	2880
815.68	2796
815.821	2819
815.962	2979
816.103	2975
816.244	2925
816.385	2872
816.526	3020
816.666	2948
816.807	2758
816.948	2914
817.089	2929
817.23	2876
817.371	2796
817.512	2800
817.653	2853
817.793	2823
817.934	2956
818.075	2986
818.216	3055
818.356	3070
818.497	2880
818.638	2861
818.778	2842
818.919	2788
819.06	2777
819.2	2929
819.341	2849
819.481	2857
819.622	2944
819.762	3085
819.903	3070
820.043	2967
820.184	2922
820.324	2929
820.465	3066
820.605	3020
820.746	3043
820.886	2979
821.026	3097
821.167	3207
821.307	3260
821.447	3268
821.588	3283
821.728	3233
821.868	3233
822.008	3112
822.149	3233
822.289	3283
822.429	3112
822.569	3093
822.709	3207
822.849	3062
822.99	3093
823.13	3138
823.27	3233
823.41	3150
823.55	3214
823.69	3195
823.83	3237
823.97	3100
824.11	3047
824.25	3039
824.389	3055
824.529	3135
824.669	3116
824.809	3233
824.949	3275
825.089	3237
825.228	3184
825.368	3017
825.508	2979
825.648	2986
825.787	3036
825.927	3066
826.067	2998
826.206	3001
826.346	3089
826.485	3089
826.625	3142
826.765	3291
826.904	3245
827.044	3036
827.183	2990
827.323	2895
827.462	3009
827.601	2963
827.741	2944
827.88	2948
828.02	2876
828.159	2986
828.298	3089
828.437	3131
828.577	3028
828.716	3237
828.855	3085
828.994	2929
829.134	2933
829.273	2910
829.412	2902
829.551	2887
829.69	2929
829.829	3028
829.968	3176
830.107	3005
830.246	3043
830.385	2910
830.524	2925
830.663	2838
830.802	2739
830.941	2697
831.08	2697
831.219	2819
831.357	2792
831.496	2998
831.635	2746
831.774	2663
831.913	2667
832.051	2568
832.19	2613
832.329	2663
832.467	2560
832.606	2541
832.744	2617
832.883	2583
833.022	2606
833.16	2667
833.299	2708
833.437	2746
833.576	2731
833.714	2716
833.852	2773
833.991	2762
834.129	2853
834.267	2842
834.406	2823
834.544	2887
834.682	2902
834.821	2918
834.959	3062
835.097	2918
835.235	3058
835.373	3032
835.511	3066
835.65	2960
835.788	2990
835.926	2876
836.064	2880
836.202	2845
836.34	3127
836.478	3154
836.615	3028
836.753	3188
836.891	3230
837.029	3188
837.167	3119
837.305	3089
837.443	3036
837.58	3009
837.718	3150
837.856	3070
837.993	3039
838.131	3131
838.269	3157
838.406	3093
838.544	3108
838.681	2963
838.819	2952
838.956	2826
839.094	2815
839.231	2895
839.369	3077
839.506	3363
839.643	3245
839.781	3058
839.918	2986
840.055	3077
840.193	3104
840.33	3089
840.467	3138
840.604	3195
840.742	3412
840.879	3100
841.016	3074
841.153	3150
841.29	3367
841.427	3332
841.564	3272
841.701	3313
841.838	3272
841.975	3207
842.112	3218
842.249	3077
842.385	3066
842.522	3253
842.659	3100
842.796	3089
842.933	3108
843.069	3077
843.206	3051
843.343	3184
843.479	3146
843.616	3142
843.752	2929
843.889	2906
844.025	3085
844.162	2895
844.298	3104
844.435	3005
844.571	2941
844.708	3100
844.844	3214
844.98	3245
845.117	3173
845.253	3100
845.389	3036
845.525	3100
845.661	3116
845.798	3024
845.934	3146
846.07	3058
846.206	3256
846.342	3340
846.478	3256
846.614	3100
846.75	3077
846.886	3055
847.022	3283
847.158	3119
847.294	3218
847.429	3275
847.565	3245
847.701	3504
847.837	3005
847.972	3017
848.108	3157
848.244	3138
848.379	3013
848.515	2952
848.65	2937
848.786	2975
848.921	3009
849.057	3077
849.192	3173
849.328	3055
849.463	3135
849.598	3100
849.734	3051
849.869	2982
850.004	2933
850.14	3009
850.275	2952
850.41	2864
850.545	2910
850.68	2918
850.815	2937
850.95	3001
851.085	3180
851.22	3097
851.355	3058
851.49	3043
851.625	3013
851.76	3051
851.895	2929
852.03	2922
852.165	3070
852.299	3119
852.434	3180
852.569	3119
852.703	3184
852.838	3245
852.973	3355
853.107	3329
853.242	3146
853.376	3116
853.511	3005
853.645	3005
853.78	3226
853.914	3150
854.048	3116
854.183	3089
854.317	3154
854.451	3294
854.585	3127
854.72	3131
854.854	3203
854.988	3085
855.122	3051
855.256	3013
855.39	3131
855.524	3268
855.658	3188
855.792	3146
855.926	3173
856.06	3275
856.194	3249
856.327	3157
856.461	3062
856.595	3116
856.729	3081
856.862	3222
856.996	3195
857.13	3207
857.263	3264
857.397	3256
857.53	3146
857.664	3230
857.797	3253
857.931	3272
858.064	3169
858.197	3207
858.331	3161
858.464	3085
858.597	3005
858.731	3142
858.864	3150
858.997	3127
859.13	3169
859.263	3176
859.396	3203
859.529	3097
859.662	3093
859.795	3066
859.928	3161
860.061	3279
860.194	3313
860.327	3146
860.46	3119
860.592	3218
860.725	3249
860.858	3275
860.99	3123
861.123	3070
861.256	3100
861.388	3154
861.521	3846
861.653	3013
861.786	2994
861.918	2998
862.05	3097
862.183	3097
862.315	3192
862.447	3207
862.58	3142
862.712	2941
862.844	2918
862.976	3005
863.108	2998
863.24	3317
863.372	2895
863.504	2971
863.636	2933
863.768	3032
863.9	2975
864.032	2899
864.164	2967
864.296	3028
864.428	3108
864.559	3104
864.691	3116
864.823	3097
864.954	3020
865.086	3100
865.217	2998
865.349	3013
865.48	3009
865.612	2998
865.743	3203
865.875	3005
866.006	2956
866.137	2990
866.269	2963
866.4	2918
866.531	2960
866.662	2906
866.793	2918
866.924	2891
867.055	2990
867.186	2922
867.317	2899
867.448	2861
867.579	2864
867.71	2842
867.841	2815
867.972	2899
868.103	2922
868.233	2902
868.364	2868
868.495	2910
868.625	3085
868.756	3184
868.886	2967
869.017	3051
869.147	3180
869.278	3150
869.408	3028
869.539	3020
869.669	3100
869.799	3055
869.929	3165
870.06	3089
870.19	3306
870.32	3325
870.45	3279
870.58	3412
870.71	3462
870.84	3439
870.97	3332
871.1	3245
871.23	3466
871.36	3458
871.489	3340
871.619	3431
871.749	3420
871.879	3466
872.008	3450
872.138	3401
872.267	3283
872.397	3138
872.526	3104
872.656	3017
872.785	3089
872.915	3291
873.044	3279
873.173	3253
873.303	3283
873.432	3230
873.561	3279
873.69	3218
873.819	3173
873.948	3218
874.077	3112
874.206	3043
874.335	3077
874.464	3237
874.593	3344
874.722	3237
874.851	3382
874.979	3336
875.108	3325
875.237	3199
875.365	3199
875.494	3150
875.623	3283
875.751	3081
875.88	3074
876.008	3203
876.136	3260
876.265	3344
876.393	3549
876.521	3428
876.65	3393
876.778	3348
876.906	3279
877.034	3207
877.162	3260
877.29	3237
877.418	3260
877.546	3237
877.674	3245
877.802	3195
877.93	3279
878.058	3173
878.185	3093
878.313	3195
878.441	3249
878.568	3058
878.696	3161
878.824	3260
878.951	3325
879.079	3447
879.206	3618
879.333	3447
879.461	3306
879.588	3348
879.715	3466
879.842	3587
879.97	3393
880.097	3188
880.224	3112
880.351	3195
880.478	3226
880.605	3199
880.732	3180
880.859	3496
880.986	3287
881.112	3306
881.239	3230
881.366	3074
881.493	3062
881.619	3005
881.746	3055
881.872	3066
881.999	3104
882.125	3176
882.252	3268
882.378	3256
882.505	3447
882.631	3268
882.757	3161
882.883	3230
883.01	3260
883.136	3154
883.262	3116
883.388	3127
883.514	3340
883.64	3351
883.766	3340
883.892	3230
884.018	3245
884.143	3454
884.269	3507
884.395	3249
884.52	3195
884.646	3188
884.772	3093
884.897	3104
885.023	3203
885.148	3321
885.274	3424
885.399	3363
885.524	3287
885.65	3264
885.775	3287
885.9	3306
886.025	3454
886.15	3359
886.275	3233
886.4	3245
886.525	3313
886.65	3306
886.775	3275
886.9	3488
887.025	3660
887.149	3439
887.274	3241
887.399	3184
887.523	3192
887.648	3184
887.773	3207
887.897	3378
888.021	3420
888.146	3294
888.27	3447
888.395	3557
888.519	3443
888.643	3500
888.767	3431
888.891	3302
889.015	3241
889.139	3253
889.263	3173
889.387	3405
889.511	3507
889.635	3435
889.759	3287
889.883	3260
890.006	3420
890.13	3523
890.254	3287
890.377	3325
890.501	3222
890.624	3188
890.748	3279
890.871	3176
890.995	3127
891.118	3074
891.241	3203
891.364	3192
891.488	3340
891.611	3157
891.734	3218
891.857	3344
891.98	3253
892.103	3367
892.226	3306
892.349	3230
892.471	3070
892.594	3222
892.717	3294
892.839	3283
892.962	3279
893.085	3348
893.207	3291
893.33	3188
893.452	3176
893.575	3325
893.697	3237
893.819	3458
893.941	3488
894.064	3439
894.186	3253
894.308	3256
894.43	3405
894.552	3542
894.674	3485
894.796	3264
894.918	3325
895.04	3279
895.161	3428
895.283	3389
895.405	3317
895.526	3389
895.648	3450
895.769	3416
895.891	3435
896.012	3488
896.134	3492
896.255	3420
896.376	3359
896.498	3378
896.619	3447
896.74	3374
896.861	3412
896.982	3709
897.103	3827
897.224	3587
897.345	3530
897.466	3424
897.587	3507
897.708	3641
897.828	3549
897.949	3409
898.07	3344
898.19	3378
898.311	3622
898.431	3447
898.552	3488
898.672	3564
898.792	3580
898.913	3572
899.033	3393
899.153	3279
899.273	3226
899.393	3298
899.513	3291
899.633	3310
899.753	3321
899.873	3317
899.993	3363
900.113	3348
900.232	3416
900.352	3325
900.472	3291
900.591	3230
900.711	3317
900.83	3260
900.95	3393
901.069	3511
901.189	3306
901.308	3184
901.427	3135
901.546	3226
901.665	3302
901.784	3336
901.904	3214
902.023	3112
902.141	2998
902.26	2971
902.379	3104
902.498	3093
902.617	3055
902.735	3237
902.854	3256
902.973	3188
903.091	3024
903.21	3051
903.328	3165
903.446	3138
903.565	3108
903.683	3195
903.801	3131
903.919	3253
904.038	3268
904.156	3195
904.274	3268
904.392	3287
904.51	3279
904.627	3359
904.745	3439
904.863	3511
904.981	3298
905.098	3173
905.216	3237
905.334	3298
905.451	3340
905.569	3332
905.686	3378
905.803	3424
905.921	3249
906.038	3405
906.155	3363
906.272	3283
906.389	3351
906.506	3241
906.623	3260
906.74	3275
906.857	3214
906.974	3207
907.091	3443
907.208	3561
907.324	3481
907.441	3393
907.557	3291
907.674	3226
907.79	3211
907.907	3260
908.023	3416
908.139	3374
908.256	3325
908.372	3374
908.488	3359
908.604	3253
908.72	3222
908.836	3237
908.952	3294
909.068	3332
909.184	3458
909.3	3389
909.415	3500
909.531	3469
909.647	3306
909.762	3287
909.878	3302
909.993	3367
910.108	3363
910.224	3332
910.339	3401
910.454	3321
910.57	3306
910.685	3253
910.8	3576
910.915	3545
911.03	3420
911.145	3249
911.259	3226
911.374	3317
911.489	3264
911.604	3199
911.718	3119
911.833	3150
911.947	3047
912.062	2990
912.176	3184
912.291	3161
912.405	3199
912.519	3439
912.633	3458
912.748	3310
912.862	3241
912.976	3176
913.09	3089
913.204	3138
913.318	3207
913.431	3325
913.545	3332
913.659	3401
913.772	3344
913.886	3203
914	3203
914.113	3321
914.226	3420
914.34	3351
914.453	3188
914.566	3397
914.68	3264
914.793	3321
914.906	3135
915.019	3123
915.132	3066
915.245	3203
915.358	3203
915.47	3256
915.583	3298
915.696	3302
915.809	3401
915.921	3405
916.034	3233
916.146	3214
916.259	3218
916.371	3359
916.483	3355
916.595	3287
916.708	3329
916.82	3363
916.932	3310
917.044	3344
917.156	3336
917.268	3287
917.38	3294
917.491	3291
917.603	3382
917.715	3466
917.826	3477
917.938	3401
918.049	3268
918.161	3424
918.272	3557
918.384	3614
918.495	3481
918.606	3321
918.717	3294
918.828	3370
918.939	3393
919.05	3253
919.161	3424
919.272	3203
919.383	3310
919.494	3515
919.604	3690
919.715	3458
919.826	3363
919.936	3450
920.047	3606
920.157	3561
920.267	3770
920.378	3557
920.488	3523
920.598	3774
920.708	3934
920.818	3804
920.928	3804
921.038	4048
921.148	4013
921.258	3686
921.368	3641
921.477	3584
921.587	3553
921.697	3450
921.806	3591
921.916	3553
922.025	3351
922.134	3332
922.244	3344
922.353	3443
922.462	3245
922.571	3165
922.68	3108
922.789	3051
922.898	3093
923.007	3112
923.116	3203
923.224	3199
923.333	3165
923.442	3127
923.55	3089
923.659	3131
923.767	3207
923.876	3112
923.984	3230
924.092	3077
924.201	3226
924.309	3207
924.417	3256
924.525	3203
924.633	3264
924.741	4150
924.849	3036
924.956	3272
925.064	3108
925.172	3074
925.279	3077
925.387	3195
925.494	3218
925.602	3367
925.709	3306
925.816	3188
925.924	3268
926.031	3386
926.138	3321
926.245	3367
926.352	3279
926.459	3416
926.566	3481
926.673	3310
926.779	3199
926.886	3264
926.993	3188
927.099	3131
927.206	3100
927.312	3089
927.419	3260
927.525	3184
927.631	3264
927.737	3112
927.843	3112
927.95	3009
928.056	3104
928.162	3188
928.267	3256
928.373	3812
928.479	3298
928.585	3032
928.69	3222
928.796	3291
928.901	3142
929.007	3066
929.112	3195
929.218	3203
929.323	3142
929.428	3169
929.533	3321
929.638	3146
929.743	3188
929.848	3233
929.953	3184
930.058	3112
930.163	3009
930.267	3036
930.372	3214
930.477	2994
930.581	3260
930.685	3165
930.79	3047
930.894	3142
930.998	3074
931.103	3233
931.207	2929
931.311	2944
931.415	2929
931.519	2769
931.623	2804
