Data from test_V78500241_1893.txt Node
Date: Fri Mar 25 16:28:19 CST 2022
User: usil
Spectrometer: V785-0024
Trigger mode: 0
Integration Time (sec): 4.000000E-1
Scans to average: 1
Nonlinearity correction enabled: false
Boxcar width: 0
Storing dark spectrum: false
XAxis mode: Wavelengths
Number of Pixels in Spectrum: 1024
>>>>>Begin Spectral Data<<<<<
801.071	2902
801.214	2929
801.356	2842
801.499	2902
801.641	2880
801.783	2902
801.926	3047
802.068	2956
802.211	2986
802.353	3024
802.496	2922
802.638	2975
802.78	3009
802.923	3089
803.065	3032
803.208	2861
803.35	2922
803.492	2906
803.635	2929
803.777	2708
803.919	2834
804.061	3195
804.204	2922
804.346	2887
804.488	2826
804.63	2975
804.773	2857
804.915	2914
805.057	3062
805.199	2918
805.341	2944
805.483	3070
805.626	2998
805.768	2922
805.91	3058
806.052	3085
806.194	3036
806.336	3173
806.478	3013
806.62	2952
806.762	2956
806.904	3051
807.046	3116
807.188	2967
807.33	2902
807.472	2956
807.614	2899
807.756	2937
807.898	2902
808.04	2902
808.182	2952
808.324	2914
808.465	2830
808.607	2876
808.749	2788
808.891	2800
809.033	2967
809.174	2975
809.316	2853
809.458	2891
809.6	2781
809.741	2750
809.883	2743
810.025	2861
810.166	2819
810.308	2838
810.45	2849
810.591	2807
810.733	2727
810.875	2800
811.016	2750
811.158	2743
811.299	2804
811.441	2895
811.582	2883
811.724	2834
811.865	2815
812.007	2880
812.148	2887
812.29	2842
812.431	2880
812.573	2925
812.714	2960
812.855	3013
812.997	3036
813.138	3123
813.279	3028
813.421	2998
813.562	2971
813.703	2880
813.845	2891
813.986	2746
814.127	2720
814.268	2826
814.41	2842
814.551	2819
814.692	2842
814.833	2838
814.974	2887
815.115	2956
815.256	2796
815.397	2819
815.539	2853
815.68	2766
815.821	2815
815.962	2929
816.103	2952
816.244	2853
816.385	2876
816.526	2975
816.666	2937
816.807	2743
816.948	2876
817.089	2944
817.23	2842
817.371	2811
817.512	2811
817.653	2838
817.793	2838
817.934	2861
818.075	2952
818.216	2994
818.356	3039
818.497	2872
818.638	2826
818.778	2807
818.919	2800
819.06	2750
819.2	2887
819.341	2830
819.481	2826
819.622	2910
819.762	3100
819.903	3077
820.043	2937
820.184	2899
820.324	2895
820.465	3017
820.605	3024
820.746	3032
820.886	2918
821.026	3093
821.167	3180
821.307	3287
821.447	3275
821.588	3249
821.728	3222
821.868	3184
822.008	3047
822.149	3165
822.289	3253
822.429	3077
822.569	3070
822.709	3188
822.849	3024
822.99	3112
823.13	3131
823.27	3150
823.41	3077
823.55	3093
823.69	3150
823.83	3138
823.97	3074
824.11	3013
824.25	3001
824.389	3081
824.529	3089
824.669	3058
824.809	3203
824.949	3272
825.089	3207
825.228	3192
825.368	3009
825.508	2971
825.648	2994
825.787	3028
825.927	3013
826.067	2960
826.206	2929
826.346	3001
826.485	3081
826.625	3104
826.765	3264
826.904	3188
827.044	2998
827.183	2956
827.323	2887
827.462	2979
827.601	2914
827.741	2960
827.88	2967
828.02	2826
828.159	2979
828.298	3051
828.437	3123
828.577	3047
828.716	3241
828.855	3047
828.994	2906
829.134	2887
829.273	2918
829.412	2842
829.551	2872
829.69	2868
829.829	2967
829.968	3104
830.107	3028
830.246	3020
830.385	2918
830.524	2853
830.663	2804
830.802	2750
830.941	2648
831.08	2667
831.219	2727
831.357	2758
831.496	2914
831.635	2701
831.774	2655
831.913	2674
832.051	2518
832.19	2533
832.329	2667
832.467	2530
832.606	2495
832.744	2579
832.883	2579
833.022	2571
833.16	2667
833.299	2697
833.437	2693
833.576	2659
833.714	2697
833.852	2743
833.991	2758
834.129	2861
834.267	2849
834.406	2830
834.544	2853
834.682	2842
834.821	2864
834.959	3070
835.097	2895
835.235	3055
835.373	2967
835.511	3017
835.65	2929
835.788	2948
835.926	2811
836.064	2834
836.202	2830
836.34	3131
836.478	3142
836.615	3062
836.753	3108
836.891	3195
837.029	3142
837.167	3112
837.305	3032
837.443	3039
837.58	2952
837.718	3138
837.856	3043
837.993	3001
838.131	3135
838.269	3100
838.406	3085
838.544	3047
838.681	2914
838.819	2910
838.956	2811
839.094	2811
839.231	2925
839.369	3001
839.506	3363
839.643	3203
839.781	2990
839.918	2971
840.055	3032
840.193	3036
840.33	3024
840.467	3077
840.604	3142
840.742	3382
840.879	3047
841.016	3043
841.153	3097
841.29	3310
841.427	3287
841.564	3260
841.701	3340
841.838	3226
841.975	3188
842.112	3157
842.249	3058
842.385	3051
842.522	3241
842.659	3077
842.796	3081
842.933	3104
843.069	3009
843.206	3017
843.343	3142
843.479	3112
843.616	3116
843.752	2883
843.889	2899
844.025	3055
844.162	2857
844.298	3081
844.435	2929
844.571	2899
844.708	3058
844.844	3169
844.98	3253
845.117	3165
845.253	3032
845.389	2982
845.525	3108
845.661	3070
845.798	3017
845.934	3123
846.07	3043
846.206	3230
846.342	3298
846.478	3192
846.614	3093
846.75	3024
846.886	3051
847.022	3230
847.158	3150
847.294	3176
847.429	3226
847.565	3192
847.701	3443
847.837	3020
847.972	2990
848.108	3203
848.244	3138
848.379	2979
848.515	2918
848.65	2933
848.786	2971
848.921	2971
849.057	3081
849.192	3138
849.328	3074
849.463	3077
849.598	3047
849.734	3047
849.869	2952
850.004	2941
850.14	2956
850.275	2929
850.41	2834
850.545	2857
850.68	2922
850.815	2941
850.95	2971
851.085	3195
851.22	3123
851.355	3028
851.49	2960
851.625	3017
851.76	2998
851.895	2914
852.03	2899
852.165	3039
852.299	3066
852.434	3173
852.569	3135
852.703	3195
852.838	3237
852.973	3310
853.107	3344
853.242	3116
853.376	3074
853.511	2971
853.645	3055
853.78	3230
853.914	3070
854.048	3074
854.183	3039
854.317	3142
854.451	3298
854.585	3135
854.72	3093
854.854	3207
854.988	3028
855.122	3108
855.256	2952
855.39	3066
855.524	3241
855.658	3188
855.792	3127
855.926	3127
856.06	3176
856.194	3245
856.327	3169
856.461	3097
856.595	3085
856.729	3074
856.862	3142
856.996	3176
857.13	3214
857.263	3218
857.397	3279
857.53	3108
857.664	3207
857.797	3214
857.931	3256
858.064	3161
858.197	3184
858.331	3138
858.464	3066
858.597	3009
858.731	3089
858.864	3138
858.997	3097
859.13	3138
859.263	3169
859.396	3188
859.529	3077
859.662	3066
859.795	3047
859.928	3112
860.061	3241
860.194	3256
860.327	3161
860.46	3116
860.592	3226
860.725	3260
860.858	3226
860.99	3104
861.123	3058
861.256	3036
861.388	3135
861.521	3812
861.653	2982
861.786	2971
861.918	3001
862.05	3047
862.183	3093
862.315	3119
862.447	3180
862.58	3100
862.712	2933
862.844	2838
862.976	3020
863.108	3001
863.24	3325
863.372	2849
863.504	2982
863.636	2956
863.768	3036
863.9	2971
864.032	2895
864.164	2971
864.296	2998
864.428	3093
864.559	3116
864.691	3062
864.823	3039
864.954	3028
865.086	3062
865.217	2979
865.349	2941
865.48	2967
865.612	2982
865.743	3119
865.875	2982
866.006	2933
866.137	2967
866.269	2929
866.4	2933
866.531	2925
866.662	2910
866.793	2891
866.924	2902
867.055	2956
867.186	2941
867.317	2891
867.448	2845
867.579	2823
867.71	2845
867.841	2819
867.972	2895
868.103	2891
868.233	2880
868.364	2880
868.495	2880
868.625	3112
868.756	3211
868.886	2963
869.017	3005
869.147	3165
869.278	3188
869.408	3058
869.539	2994
869.669	3104
869.799	3055
869.929	3135
870.06	3062
870.19	3321
870.32	3245
870.45	3272
870.58	3393
870.71	3454
870.84	3443
870.97	3279
871.1	3211
871.23	3488
871.36	3496
871.489	3340
871.619	3382
871.749	3409
871.879	3428
872.008	3481
872.138	3344
872.267	3268
872.397	3142
872.526	3108
872.656	3001
872.785	3077
872.915	3222
873.044	3302
873.173	3195
873.303	3256
873.432	3218
873.561	3214
873.69	3131
873.819	3131
873.948	3195
874.077	3077
874.206	3039
874.335	3142
874.464	3199
874.593	3329
874.722	3291
874.851	3374
874.979	3355
875.108	3283
875.237	3188
875.365	3165
875.494	3146
875.623	3226
875.751	3043
875.88	3089
876.008	3218
876.136	3256
876.265	3374
876.393	3523
876.521	3416
876.65	3374
876.778	3325
876.906	3203
877.034	3211
877.162	3226
877.29	3161
877.418	3279
877.546	3233
877.674	3268
877.802	3207
877.93	3233
878.058	3150
878.185	3093
878.313	3207
878.441	3184
878.568	3066
878.696	3146
878.824	3214
878.951	3294
879.079	3435
879.206	3641
879.333	3431
879.461	3367
879.588	3363
879.715	3477
879.842	3580
879.97	3374
880.097	3131
880.224	3169
880.351	3157
880.478	3218
880.605	3214
880.732	3184
880.859	3485
880.986	3298
881.112	3329
881.239	3218
881.366	3074
881.493	3009
881.619	3028
881.746	3066
881.872	3070
881.999	3104
882.125	3142
882.252	3233
882.378	3291
882.505	3469
882.631	3298
882.757	3138
882.883	3222
883.01	3222
883.136	3157
883.262	3093
883.388	3074
883.514	3291
883.64	3355
883.766	3291
883.892	3169
884.018	3211
884.143	3435
884.269	3530
884.395	3253
884.52	3169
884.646	3188
884.772	3135
884.897	3017
885.023	3180
885.148	3344
885.274	3443
885.399	3317
885.524	3279
885.65	3230
885.775	3321
885.9	3306
886.025	3409
886.15	3355
886.275	3283
886.4	3222
886.525	3253
886.65	3241
886.775	3275
886.9	3534
887.025	3618
887.149	3386
887.274	3260
887.399	3169
887.523	3207
887.648	3207
887.773	3169
887.897	3359
888.021	3409
888.146	3325
888.27	3416
888.395	3530
888.519	3412
888.643	3462
888.767	3447
888.891	3332
889.015	3264
889.139	3268
889.263	3253
889.387	3393
889.511	3526
889.635	3428
889.759	3310
889.883	3264
890.006	3344
890.13	3481
890.254	3268
890.377	3367
890.501	3230
890.624	3169
890.748	3260
890.871	3161
890.995	3123
891.118	3066
891.241	3192
891.364	3173
891.488	3294
891.611	3188
891.734	3230
891.857	3298
891.98	3241
892.103	3329
892.226	3294
892.349	3226
892.471	3138
892.594	3237
892.717	3325
892.839	3291
892.962	3310
893.085	3382
893.207	3260
893.33	3089
893.452	3211
893.575	3351
893.697	3237
893.819	3431
893.941	3481
894.064	3412
894.186	3291
894.308	3268
894.43	3439
894.552	3538
894.674	3469
894.796	3272
894.918	3313
895.04	3302
895.161	3416
895.283	3397
895.405	3317
895.526	3374
895.648	3386
895.769	3409
895.891	3454
896.012	3473
896.134	3473
896.255	3401
896.376	3340
896.498	3344
896.619	3435
896.74	3382
896.861	3389
896.982	3663
897.103	3873
897.224	3595
897.345	3515
897.466	3435
897.587	3447
897.708	3599
897.828	3564
897.949	3435
898.07	3321
898.19	3450
898.311	3625
898.431	3462
898.552	3538
898.672	3595
898.792	3568
898.913	3545
899.033	3412
899.153	3256
899.273	3192
899.393	3291
899.513	3325
899.633	3306
899.753	3329
899.873	3268
899.993	3397
900.113	3317
900.232	3401
900.352	3348
900.472	3260
900.591	3214
900.711	3298
900.83	3249
900.95	3405
901.069	3507
901.189	3306
901.308	3154
901.427	3100
901.546	3173
901.665	3264
901.784	3317
901.904	3176
902.023	3135
902.141	2998
902.26	2971
902.379	3146
902.498	3062
902.617	3058
902.735	3222
902.854	3222
902.973	3188
903.091	2998
903.21	3032
903.328	3104
903.446	3070
903.565	3100
903.683	3195
903.801	3108
903.919	3264
904.038	3279
904.156	3173
904.274	3294
904.392	3211
904.51	3329
904.627	3313
904.745	3428
904.863	3431
904.981	3249
905.098	3161
905.216	3233
905.334	3275
905.451	3310
905.569	3294
905.686	3401
905.803	3416
905.921	3287
906.038	3481
906.155	3355
906.272	3317
906.389	3367
906.506	3226
906.623	3230
906.74	3233
906.857	3192
906.974	3249
907.091	3439
907.208	3595
907.324	3477
907.441	3348
907.557	3199
907.674	3211
907.79	3237
907.907	3291
908.023	3409
908.139	3389
908.256	3313
908.372	3386
908.488	3370
908.604	3291
908.72	3214
908.836	3256
908.952	3321
909.068	3294
909.184	3462
909.3	3389
909.415	3507
909.531	3458
909.647	3256
909.762	3291
909.878	3253
909.993	3351
910.108	3310
910.224	3336
910.339	3378
910.454	3283
910.57	3260
910.685	3237
910.8	3603
910.915	3519
911.03	3435
911.145	3249
911.259	3268
911.374	3344
911.489	3233
911.604	3226
911.718	3127
911.833	3165
911.947	3039
912.062	2971
912.176	3131
912.291	3188
912.405	3214
912.519	3424
912.633	3477
912.748	3332
912.862	3230
912.976	3142
913.09	3028
913.204	3161
913.318	3264
913.431	3317
913.545	3313
913.659	3378
913.772	3359
913.886	3207
914	3184
914.113	3348
914.226	3401
914.34	3351
914.453	3184
914.566	3401
914.68	3253
914.793	3260
914.906	3119
915.019	3127
915.132	3066
915.245	3154
915.358	3203
915.47	3241
915.583	3264
915.696	3256
915.809	3363
915.921	3420
916.034	3291
916.146	3268
916.259	3226
916.371	3344
916.483	3355
916.595	3279
916.708	3321
916.82	3336
916.932	3317
917.044	3374
917.156	3329
917.268	3253
917.38	3272
917.491	3313
917.603	3374
917.715	3428
917.826	3458
917.938	3374
918.049	3253
918.161	3409
918.272	3584
918.384	3568
918.495	3473
918.606	3310
918.717	3291
918.828	3363
918.939	3405
919.05	3313
919.161	3351
919.272	3142
919.383	3340
919.494	3511
919.604	3663
919.715	3481
919.826	3382
919.936	3431
920.047	3576
920.157	3515
920.267	3766
920.378	3606
920.488	3557
920.598	3751
920.708	3930
920.818	3797
920.928	3838
921.038	3979
921.148	3998
921.258	3686
921.368	3603
921.477	3595
921.587	3572
921.697	3469
921.806	3629
921.916	3534
922.025	3344
922.134	3351
922.244	3321
922.353	3409
922.462	3272
922.571	3214
922.68	3119
922.789	3074
922.898	3112
923.007	3077
923.116	3180
923.224	3154
923.333	3184
923.442	3100
923.55	3112
923.659	3154
923.767	3233
923.876	3131
923.984	3241
924.092	3104
924.201	3192
924.309	3230
924.417	3268
924.525	3214
924.633	3211
924.741	4044
924.849	3024
924.956	3272
925.064	3123
925.172	3036
925.279	3089
925.387	3203
925.494	3207
925.602	3363
925.709	3325
925.816	3203
925.924	3298
926.031	3355
926.138	3325
926.245	3351
926.352	3264
926.459	3393
926.566	3454
926.673	3313
926.779	3268
926.886	3237
926.993	3161
927.099	3119
927.206	3108
927.312	3108
927.419	3233
927.525	3165
927.631	3275
927.737	3127
927.843	3169
927.95	3005
928.056	3097
928.162	3138
928.267	3230
928.373	3865
928.479	3306
928.585	3051
928.69	3199
928.796	3230
928.901	3157
929.007	3032
929.112	3192
929.218	3157
929.323	3157
929.428	3146
929.533	3317
929.638	3135
929.743	3157
929.848	3249
929.953	3180
930.058	3135
930.163	3009
930.267	3074
930.372	3222
930.477	3017
930.581	3325
930.685	3195
930.79	3005
930.894	3119
930.998	3112
931.103	3287
931.207	2952
931.311	2925
931.415	2929
931.519	2762
931.623	2826
