Data from test_V78500241_937.txt Node
Date: Fri Mar 25 16:21:41 CST 2022
User: usil
Spectrometer: V785-0024
Trigger mode: 0
Integration Time (sec): 4.000000E-1
Scans to average: 1
Nonlinearity correction enabled: false
Boxcar width: 0
Storing dark spectrum: false
XAxis mode: Wavelengths
Number of Pixels in Spectrum: 1024
>>>>>Begin Spectral Data<<<<<
801.071	2906
801.214	2948
801.356	2883
801.499	2937
801.641	2864
801.783	2902
801.926	3074
802.068	3001
802.211	3032
802.353	3024
802.496	2952
802.638	3020
802.78	3017
802.923	3100
803.065	3036
803.208	2895
803.35	2899
803.492	2906
803.635	2941
803.777	2773
803.919	2880
804.061	3165
804.204	2960
804.346	2933
804.488	2853
804.63	2998
804.773	2883
804.915	2948
805.057	3077
805.199	2956
805.341	2982
805.483	3047
805.626	3001
805.768	2929
805.91	3100
806.052	3097
806.194	3036
806.336	3260
806.478	3024
806.62	2960
806.762	2971
806.904	3051
807.046	3161
807.188	3001
807.33	2902
807.472	2982
807.614	2922
807.756	2982
807.898	2929
808.04	2956
808.182	2967
808.324	2982
808.465	2948
808.607	2891
808.749	2834
808.891	2868
809.033	2998
809.174	2960
809.316	2876
809.458	2906
809.6	2785
809.741	2773
809.883	2785
810.025	2857
810.166	2883
810.308	2842
810.45	2880
810.591	2811
810.733	2766
810.875	2838
811.016	2785
811.158	2792
811.299	2811
811.441	2963
811.582	2895
811.724	2811
811.865	2872
812.007	2914
812.148	2899
812.29	2906
812.431	2895
812.573	2963
812.714	2975
812.855	3058
812.997	3077
813.138	3157
813.279	2990
813.421	3005
813.562	2944
813.703	2887
813.845	2887
813.986	2819
814.127	2727
814.268	2781
814.41	2845
814.551	2834
814.692	2910
814.833	2819
814.974	2906
815.115	2963
815.256	2868
815.397	2826
815.539	2883
815.68	2750
815.821	2792
815.962	2922
816.103	2960
816.244	2880
816.385	2910
816.526	2990
816.666	2929
816.807	2754
816.948	2891
817.089	2914
817.23	2883
817.371	2788
817.512	2796
817.653	2880
817.793	2800
817.934	2883
818.075	2998
818.216	2982
818.356	3039
818.497	2914
818.638	2785
818.778	2842
818.919	2815
819.06	2785
819.2	2883
819.341	2811
819.481	2807
819.622	2925
819.762	3123
819.903	3013
820.043	2902
820.184	2910
820.324	2891
820.465	3058
820.605	3020
820.746	2990
820.886	2929
821.026	3104
821.167	3161
821.307	3218
821.447	3275
821.588	3218
821.728	3180
821.868	3199
822.008	3123
822.149	3195
822.289	3245
822.429	3119
822.569	3131
822.709	3165
822.849	3032
822.99	3070
823.13	3176
823.27	3199
823.41	3119
823.55	3142
823.69	3154
823.83	3211
823.97	3077
824.11	3020
824.25	3001
824.389	3058
824.529	3127
824.669	3077
824.809	3192
824.949	3253
825.089	3214
825.228	3131
825.368	3017
825.508	2975
825.648	2979
825.787	3020
825.927	2994
826.067	2956
826.206	2960
826.346	3013
826.485	3089
826.625	3104
826.765	3241
826.904	3233
827.044	3017
827.183	2937
827.323	2902
827.462	2998
827.601	2933
827.741	2944
827.88	2967
828.02	2864
828.159	2990
828.298	3039
828.437	3142
828.577	3074
828.716	3226
828.855	3066
828.994	2922
829.134	2891
829.273	2906
829.412	2887
829.551	2823
829.69	2883
829.829	3005
829.968	3127
830.107	3013
830.246	3020
830.385	2902
830.524	2872
830.663	2819
830.802	2754
830.941	2648
831.08	2625
831.219	2781
831.357	2754
831.496	2914
831.635	2682
831.774	2659
831.913	2655
832.051	2511
832.19	2587
832.329	2724
832.467	2514
832.606	2495
832.744	2602
832.883	2556
833.022	2575
833.16	2617
833.299	2674
833.437	2705
833.576	2689
833.714	2697
833.852	2697
833.991	2788
834.129	2834
834.267	2807
834.406	2773
834.544	2849
834.682	2922
834.821	2849
834.959	3089
835.097	2929
835.235	3013
835.373	2986
835.511	3036
835.65	2952
835.788	2922
835.926	2838
836.064	2826
836.202	2868
836.34	3108
836.478	3154
836.615	3055
836.753	3169
836.891	3203
837.029	3165
837.167	3066
837.305	3085
837.443	3032
837.58	2956
837.718	3138
837.856	3055
837.993	3020
838.131	3093
838.269	3108
838.406	3146
838.544	3074
838.681	2979
838.819	2922
838.956	2811
839.094	2819
839.231	2941
839.369	3013
839.506	3378
839.643	3203
839.781	3013
839.918	2952
840.055	3017
840.193	3043
840.33	3051
840.467	3100
840.604	3119
840.742	3412
840.879	3039
841.016	3001
841.153	3116
841.29	3313
841.427	3287
841.564	3226
841.701	3302
841.838	3222
841.975	3192
842.112	3218
842.249	3055
842.385	3032
842.522	3241
842.659	3066
842.796	3089
842.933	3097
843.069	3032
843.206	3066
843.343	3199
843.479	3131
843.616	3131
843.752	2906
843.889	2861
844.025	3089
844.162	2853
844.298	3066
844.435	2941
844.571	2922
844.708	3077
844.844	3165
844.98	3237
845.117	3184
845.253	3039
845.389	3001
845.525	3112
845.661	3097
845.798	3036
845.934	3104
846.07	3062
846.206	3199
846.342	3237
846.478	3264
846.614	3051
846.75	3062
846.886	3062
847.022	3268
847.158	3116
847.294	3138
847.429	3268
847.565	3199
847.701	3488
847.837	3036
847.972	3005
848.108	3169
848.244	3131
848.379	2975
848.515	2925
848.65	2906
848.786	2963
848.921	2982
849.057	3074
849.192	3135
849.328	3085
849.463	3123
849.598	3066
849.734	3043
849.869	2979
850.004	2922
850.14	3001
850.275	2910
850.41	2849
850.545	2864
850.68	2914
850.815	2990
850.95	2986
851.085	3165
851.22	3100
851.355	3036
851.49	2963
851.625	3020
851.76	3009
851.895	2925
852.03	2910
852.165	3036
852.299	3135
852.434	3169
852.569	3142
852.703	3142
852.838	3222
852.973	3329
853.107	3336
853.242	3154
853.376	3100
853.511	2982
853.645	3051
853.78	3233
853.914	3131
854.048	3097
854.183	3104
854.317	3127
854.451	3302
854.585	3157
854.72	3131
854.854	3180
854.988	3032
855.122	3062
855.256	2982
855.39	3097
855.524	3226
855.658	3157
855.792	3146
855.926	3203
856.06	3207
856.194	3237
856.327	3173
856.461	3104
856.595	3074
856.729	3058
856.862	3245
856.996	3157
857.13	3184
857.263	3207
857.397	3272
857.53	3150
857.664	3192
857.797	3268
857.931	3233
858.064	3142
858.197	3237
858.331	3119
858.464	3066
858.597	3001
858.731	3135
858.864	3165
858.997	3058
859.13	3146
859.263	3176
859.396	3222
859.529	3077
859.662	3074
859.795	3043
859.928	3150
860.061	3264
860.194	3256
860.327	3119
860.46	3131
860.592	3214
860.725	3237
860.858	3214
860.99	3081
861.123	3058
861.256	3043
861.388	3142
861.521	3831
861.653	3013
861.786	2994
861.918	3001
862.05	3051
862.183	3119
862.315	3169
862.447	3233
862.58	3085
862.712	2975
862.844	2887
862.976	2979
863.108	3017
863.24	3416
863.372	2895
863.504	2948
863.636	2910
863.768	3036
863.9	2971
864.032	2902
864.164	2956
864.296	3032
864.428	3074
864.559	3036
864.691	3039
864.823	3062
864.954	3013
865.086	3070
865.217	2982
865.349	2948
865.48	2990
865.612	2982
865.743	3100
865.875	3001
866.006	2941
866.137	2971
866.269	2914
866.4	2925
866.531	2899
866.662	2857
866.793	2868
866.924	2910
867.055	2963
867.186	2914
867.317	2868
867.448	2785
867.579	2815
867.71	2849
867.841	2838
867.972	2849
868.103	2941
868.233	2887
868.364	2872
868.495	2895
868.625	3047
868.756	3161
868.886	2941
869.017	3005
869.147	3192
869.278	3161
869.408	3043
869.539	2990
869.669	3081
869.799	3024
869.929	3100
870.06	3085
870.19	3283
870.32	3260
870.45	3287
870.58	3351
870.71	3466
870.84	3469
870.97	3268
871.1	3207
871.23	3466
871.36	3469
871.489	3355
871.619	3397
871.749	3393
871.879	3424
872.008	3469
872.138	3374
872.267	3245
872.397	3131
872.526	3066
872.656	3028
872.785	3100
872.915	3218
873.044	3325
873.173	3214
873.303	3241
873.432	3218
873.561	3230
873.69	3142
873.819	3135
873.948	3192
874.077	3097
874.206	3009
874.335	3070
874.464	3195
874.593	3336
874.722	3207
874.851	3424
874.979	3363
875.108	3340
875.237	3146
875.365	3173
875.494	3123
875.623	3195
875.751	3085
875.88	3100
876.008	3180
876.136	3207
876.265	3367
876.393	3526
876.521	3416
876.65	3412
876.778	3348
876.906	3214
877.034	3222
877.162	3203
877.29	3161
877.418	3275
877.546	3249
877.674	3249
877.802	3207
877.93	3237
878.058	3104
878.185	3119
878.313	3211
878.441	3176
878.568	3055
878.696	3146
878.824	3241
878.951	3268
879.079	3431
879.206	3633
879.333	3443
879.461	3298
879.588	3340
879.715	3466
879.842	3515
879.97	3344
880.097	3123
880.224	3161
880.351	3150
880.478	3188
880.605	3195
880.732	3180
880.859	3488
880.986	3291
881.112	3287
881.239	3195
881.366	3074
881.493	3070
881.619	3032
881.746	3036
881.872	3093
881.999	3089
882.125	3127
882.252	3233
882.378	3256
882.505	3424
882.631	3294
882.757	3131
882.883	3207
883.01	3268
883.136	3112
883.262	3081
883.388	3119
883.514	3340
883.64	3351
883.766	3313
883.892	3184
884.018	3256
884.143	3420
884.269	3526
884.395	3207
884.52	3154
884.646	3142
884.772	3131
884.897	3043
885.023	3176
885.148	3336
885.274	3416
885.399	3393
885.524	3260
885.65	3233
885.775	3287
885.9	3298
886.025	3389
886.15	3359
886.275	3264
886.4	3268
886.525	3317
886.65	3294
886.775	3253
886.9	3511
887.025	3652
887.149	3355
887.274	3253
887.399	3211
887.523	3214
887.648	3203
887.773	3142
887.897	3420
888.021	3386
888.146	3294
888.27	3447
888.395	3526
888.519	3439
888.643	3435
888.767	3439
888.891	3348
889.015	3241
889.139	3317
889.263	3260
889.387	3416
889.511	3507
889.635	3435
889.759	3275
889.883	3298
890.006	3374
890.13	3496
890.254	3249
890.377	3370
890.501	3203
890.624	3192
890.748	3283
890.871	3169
890.995	3066
891.118	3062
891.241	3203
891.364	3214
891.488	3283
891.611	3199
891.734	3249
891.857	3302
891.98	3226
892.103	3340
892.226	3264
892.349	3260
892.471	3123
892.594	3264
892.717	3298
892.839	3256
892.962	3283
893.085	3348
893.207	3287
893.33	3135
893.452	3203
893.575	3348
893.697	3275
893.819	3439
893.941	3576
894.064	3443
894.186	3272
894.308	3260
894.43	3439
894.552	3523
894.674	3473
894.796	3272
894.918	3302
895.04	3294
895.161	3420
895.283	3386
895.405	3336
895.526	3370
895.648	3428
895.769	3412
895.891	3443
896.012	3458
896.134	3443
896.255	3397
896.376	3389
896.498	3401
896.619	3409
896.74	3393
896.861	3424
896.982	3648
897.103	3831
897.224	3587
897.345	3530
897.466	3447
897.587	3447
897.708	3637
897.828	3530
897.949	3401
898.07	3332
898.19	3409
898.311	3610
898.431	3439
898.552	3511
898.672	3584
898.792	3599
898.913	3534
899.033	3420
899.153	3287
899.273	3195
899.393	3272
899.513	3283
899.633	3306
899.753	3401
899.873	3317
899.993	3370
900.113	3298
900.232	3386
900.352	3336
900.472	3329
900.591	3222
900.711	3302
900.83	3241
900.95	3462
901.069	3485
901.189	3370
901.308	3157
901.427	3108
901.546	3203
901.665	3279
901.784	3344
901.904	3245
902.023	3176
902.141	3028
902.26	2998
902.379	3116
902.498	3074
902.617	3017
902.735	3192
902.854	3218
902.973	3192
903.091	3039
903.21	3066
903.328	3108
903.446	3135
903.565	3062
903.683	3218
903.801	3123
903.919	3218
904.038	3249
904.156	3131
904.274	3310
904.392	3211
904.51	3279
904.627	3283
904.745	3439
904.863	3488
904.981	3253
905.098	3176
905.216	3214
905.334	3321
905.451	3325
905.569	3291
905.686	3428
905.803	3424
905.921	3306
906.038	3420
906.155	3355
906.272	3268
906.389	3298
906.506	3230
906.623	3264
906.74	3264
906.857	3222
906.974	3260
907.091	3435
907.208	3561
907.324	3458
907.441	3378
907.557	3222
907.674	3195
907.79	3233
907.907	3294
908.023	3378
908.139	3382
908.256	3332
908.372	3374
908.488	3302
908.604	3249
908.72	3268
908.836	3306
908.952	3310
909.068	3317
909.184	3485
909.3	3382
909.415	3454
909.531	3443
909.647	3275
909.762	3294
909.878	3245
909.993	3389
910.108	3378
910.224	3283
910.339	3397
910.454	3340
910.57	3268
910.685	3226
910.8	3618
910.915	3549
911.03	3412
911.145	3256
911.259	3287
911.374	3336
911.489	3233
911.604	3233
911.718	3127
911.833	3154
911.947	2990
912.062	2986
912.176	3169
912.291	3192
912.405	3203
912.519	3447
912.633	3466
912.748	3313
912.862	3306
912.976	3180
913.09	3051
913.204	3131
913.318	3195
913.431	3386
913.545	3344
913.659	3393
913.772	3367
913.886	3211
914	3184
914.113	3340
914.226	3401
914.34	3351
914.453	3222
914.566	3397
914.68	3275
914.793	3306
914.906	3154
915.019	3112
915.132	3074
915.245	3161
915.358	3184
915.47	3249
915.583	3272
915.696	3302
915.809	3420
915.921	3416
916.034	3222
916.146	3249
916.259	3237
916.371	3348
916.483	3359
916.595	3294
916.708	3332
916.82	3351
916.932	3359
917.044	3313
917.156	3386
917.268	3260
917.38	3287
917.491	3313
917.603	3386
917.715	3443
917.826	3477
917.938	3412
918.049	3294
918.161	3409
918.272	3576
918.384	3568
918.495	3439
918.606	3313
918.717	3264
918.828	3393
918.939	3439
919.05	3310
919.161	3378
919.272	3199
919.383	3302
919.494	3500
919.604	3667
919.715	3469
919.826	3393
919.936	3473
920.047	3580
920.157	3511
920.267	3774
920.378	3656
920.488	3564
920.598	3793
920.708	3941
920.818	3835
920.928	3857
921.038	3994
921.148	3991
921.258	3770
921.368	3610
921.477	3568
921.587	3530
921.697	3466
921.806	3561
921.916	3504
922.025	3370
922.134	3310
922.244	3325
922.353	3412
922.462	3241
922.571	3222
922.68	3169
922.789	3062
922.898	3157
923.007	3131
923.116	3218
923.224	3135
923.333	3199
923.442	3154
923.55	3089
923.659	3150
923.767	3249
923.876	3123
923.984	3214
924.092	3077
924.201	3214
924.309	3214
924.417	3241
924.525	3207
924.633	3233
924.741	4173
924.849	3062
924.956	3230
925.064	3077
925.172	3077
925.279	3077
925.387	3199
925.494	3180
925.602	3393
925.709	3332
925.816	3218
925.924	3268
926.031	3386
926.138	3340
926.245	3344
926.352	3226
926.459	3424
926.566	3431
926.673	3313
926.779	3264
926.886	3218
926.993	3104
927.099	3127
927.206	3077
927.312	3123
927.419	3264
927.525	3184
927.631	3264
927.737	3135
927.843	3135
927.95	3005
928.056	3108
928.162	3173
928.267	3230
928.373	3854
928.479	3294
928.585	3074
928.69	3233
928.796	3233
928.901	3165
929.007	3055
929.112	3203
929.218	3135
929.323	3146
929.428	3165
929.533	3302
929.638	3131
929.743	3173
929.848	3268
929.953	3195
930.058	3142
930.163	2975
930.267	3032
930.372	3203
930.477	3017
930.581	3306
930.685	3192
930.79	3058
930.894	3127
930.998	3108
931.103	3253
931.207	2899
931.311	2937
931.415	2925
931.519	2762
931.623	2811
