Data from test_V78500241_561.txt Node
Date: Fri Mar 25 16:19:05 CST 2022
User: usil
Spectrometer: V785-0024
Trigger mode: 0
Integration Time (sec): 4.000000E-1
Scans to average: 1
Nonlinearity correction enabled: false
Boxcar width: 0
Storing dark spectrum: false
XAxis mode: Wavelengths
Number of Pixels in Spectrum: 1024
>>>>>Begin Spectral Data<<<<<
801.071	2899
801.214	2941
801.356	2834
801.499	2922
801.641	2842
801.783	2902
801.926	3062
802.068	2967
802.211	3017
802.353	3032
802.496	2941
802.638	2967
802.78	3039
802.923	3055
803.065	3013
803.208	2918
803.35	2922
803.492	2918
803.635	2956
803.777	2769
803.919	2845
804.061	3203
804.204	2952
804.346	2918
804.488	2853
804.63	2929
804.773	2887
804.915	2861
805.057	3051
805.199	2914
805.341	2956
805.483	3020
805.626	2986
805.768	2960
805.91	3066
806.052	3112
806.194	3036
806.336	3211
806.478	3036
806.62	2937
806.762	2952
806.904	3043
807.046	3154
807.188	3001
807.33	2883
807.472	3009
807.614	2876
807.756	2975
807.898	2910
808.04	2849
808.182	2944
808.324	2963
808.465	2883
808.607	2868
808.749	2811
808.891	2857
809.033	2986
809.174	2990
809.316	2842
809.458	2902
809.6	2754
809.741	2758
809.883	2754
810.025	2842
810.166	2880
810.308	2857
810.45	2830
810.591	2785
810.733	2777
810.875	2834
811.016	2781
811.158	2781
811.299	2815
811.441	2906
811.582	2868
811.724	2868
811.865	2826
812.007	2902
812.148	2910
812.29	2826
812.431	2880
812.573	2937
812.714	2937
812.855	3039
812.997	3009
813.138	3093
813.279	3028
813.421	3005
813.562	2971
813.703	2906
813.845	2880
813.986	2762
814.127	2731
814.268	2838
814.41	2807
814.551	2815
814.692	2861
814.833	2815
814.974	2872
815.115	2963
815.256	2838
815.397	2800
815.539	2811
815.68	2743
815.821	2781
815.962	2952
816.103	2941
816.244	2830
816.385	2845
816.526	2963
816.666	2872
816.807	2743
816.948	2899
817.089	2876
817.23	2883
817.371	2800
817.512	2769
817.653	2830
817.793	2838
817.934	2861
818.075	2998
818.216	2979
818.356	3032
818.497	2868
818.638	2785
818.778	2800
818.919	2804
819.06	2746
819.2	2891
819.341	2826
819.481	2800
819.622	2948
819.762	3131
819.903	3028
820.043	2918
820.184	2887
820.324	2902
820.465	2982
820.605	3032
820.746	2979
820.886	2925
821.026	3039
821.167	3150
821.307	3222
821.447	3287
821.588	3226
821.728	3249
821.868	3169
822.008	3055
822.149	3218
822.289	3180
822.429	3131
822.569	3112
822.709	3131
822.849	2998
822.99	3039
823.13	3161
823.27	3214
823.41	3093
823.55	3142
823.69	3157
823.83	3176
823.97	3100
824.11	2994
824.25	2967
824.389	3039
824.529	3089
824.669	3013
824.809	3184
824.949	3249
825.089	3211
825.228	3154
825.368	3005
825.508	2944
825.648	2941
825.787	3013
825.927	3020
826.067	2937
826.206	2918
826.346	3066
826.485	3097
826.625	3066
826.765	3214
826.904	3184
827.044	2971
827.183	2891
827.323	2872
827.462	2956
827.601	2891
827.741	2910
827.88	2941
828.02	2823
828.159	2975
828.298	3036
828.437	3085
828.577	3055
828.716	3226
828.855	3032
828.994	2925
829.134	2842
829.273	2937
829.412	2838
829.551	2853
829.69	2880
829.829	2979
829.968	3135
830.107	2986
830.246	3001
830.385	2922
830.524	2849
830.663	2792
830.802	2705
830.941	2659
831.08	2617
831.219	2762
831.357	2708
831.496	2937
831.635	2731
831.774	2629
831.913	2617
832.051	2526
832.19	2602
832.329	2705
832.467	2503
832.606	2488
832.744	2571
832.883	2571
833.022	2610
833.16	2640
833.299	2682
833.437	2670
833.576	2670
833.714	2705
833.852	2743
833.991	2762
834.129	2845
834.267	2792
834.406	2766
834.544	2899
834.682	2838
834.821	2853
834.959	3070
835.097	2864
835.235	3070
835.373	2986
835.511	3017
835.65	2963
835.788	2956
835.926	2796
836.064	2788
836.202	2811
836.34	3077
836.478	3146
836.615	3089
836.753	3131
836.891	3192
837.029	3161
837.167	3093
837.305	3077
837.443	3017
837.58	2944
837.718	3135
837.856	3089
837.993	2975
838.131	3104
838.269	3119
838.406	3097
838.544	3043
838.681	2944
838.819	2918
838.956	2785
839.094	2815
839.231	2906
839.369	3005
839.506	3355
839.643	3214
839.781	3013
839.918	2963
840.055	3062
840.193	3032
840.33	3077
840.467	3097
840.604	3150
840.742	3401
840.879	3085
841.016	3047
841.153	3100
841.29	3306
841.427	3310
841.564	3249
841.701	3355
841.838	3241
841.975	3169
842.112	3188
842.249	3017
842.385	3013
842.522	3275
842.659	3077
842.796	3070
842.933	3081
843.069	3036
843.206	3032
843.343	3184
843.479	3085
843.616	3127
843.752	2883
843.889	2849
844.025	3077
844.162	2887
844.298	3066
844.435	2986
844.571	2925
844.708	3043
844.844	3207
844.98	3180
845.117	3180
845.253	3036
845.389	3013
845.525	3123
845.661	3100
845.798	3032
845.934	3100
846.07	3009
846.206	3226
846.342	3298
846.478	3218
846.614	3116
846.75	3039
846.886	2998
847.022	3241
847.158	3154
847.294	3207
847.429	3241
847.565	3192
847.701	3466
847.837	3028
847.972	3024
848.108	3150
848.244	3123
848.379	2982
848.515	2937
848.65	2910
848.786	2967
848.921	3005
849.057	3135
849.192	3127
849.328	3043
849.463	3116
849.598	3077
849.734	3047
849.869	2948
850.004	2906
850.14	2960
850.275	2914
850.41	2796
850.545	2853
850.68	2876
850.815	2963
850.95	2929
851.085	3203
851.22	3127
851.355	3013
851.49	3005
851.625	2986
851.76	3005
851.895	2929
852.03	2895
852.165	3017
852.299	3089
852.434	3199
852.569	3135
852.703	3165
852.838	3237
852.973	3336
853.107	3310
853.242	3123
853.376	3036
853.511	2941
853.645	3032
853.78	3230
853.914	3081
854.048	3127
854.183	3062
854.317	3108
854.451	3279
854.585	3123
854.72	3081
854.854	3161
854.988	3020
855.122	3097
855.256	2941
855.39	3119
855.524	3241
855.658	3184
855.792	3100
855.926	3180
856.06	3199
856.194	3230
856.327	3154
856.461	3066
856.595	3100
856.729	3123
856.862	3233
856.996	3138
857.13	3176
857.263	3184
857.397	3287
857.53	3112
857.664	3207
857.797	3192
857.931	3268
858.064	3180
858.197	3207
858.331	3119
858.464	3058
858.597	2963
858.731	3104
858.864	3150
858.997	3058
859.13	3157
859.263	3173
859.396	3161
859.529	3093
859.662	3070
859.795	3043
859.928	3116
860.061	3256
860.194	3302
860.327	3135
860.46	3074
860.592	3241
860.725	3253
860.858	3249
860.99	3093
861.123	3039
861.256	3047
861.388	3150
861.521	3679
861.653	3039
861.786	2998
861.918	2982
862.05	3024
862.183	3097
862.315	3169
862.447	3173
862.58	3066
862.712	2914
862.844	2857
862.976	2982
863.108	2956
863.24	3397
863.372	2868
863.504	2952
863.636	2944
863.768	3005
863.9	2975
864.032	2895
864.164	2948
864.296	3013
864.428	3051
864.559	3097
864.691	3032
864.823	3066
864.954	2982
865.086	3047
865.217	2990
865.349	2937
865.48	3013
865.612	3017
865.743	3112
865.875	2998
866.006	2960
866.137	2944
866.269	2918
866.4	2956
866.531	2883
866.662	2880
866.793	2826
866.924	2868
867.055	2956
867.186	2956
867.317	2868
867.448	2826
867.579	2819
867.71	2811
867.841	2819
867.972	2899
868.103	2895
868.233	2891
868.364	2849
868.495	2861
868.625	3058
868.756	3127
868.886	2975
869.017	2994
869.147	3169
869.278	3157
869.408	3039
869.539	3043
869.669	3070
869.799	3024
869.929	3108
870.06	3047
870.19	3298
870.32	3268
870.45	3340
870.58	3332
870.71	3443
870.84	3481
870.97	3256
871.1	3237
871.23	3450
871.36	3458
871.489	3317
871.619	3332
871.749	3370
871.879	3412
872.008	3466
872.138	3336
872.267	3260
872.397	3135
872.526	3051
872.656	3001
872.785	3100
872.915	3218
873.044	3279
873.173	3226
873.303	3226
873.432	3230
873.561	3226
873.69	3138
873.819	3138
873.948	3161
874.077	3077
874.206	2994
874.335	3077
874.464	3173
874.593	3336
874.722	3237
874.851	3397
874.979	3325
875.108	3298
875.237	3150
875.365	3173
875.494	3131
875.623	3241
875.751	3055
875.88	3077
876.008	3184
876.136	3211
876.265	3382
876.393	3504
876.521	3454
876.65	3370
876.778	3332
876.906	3241
877.034	3188
877.162	3233
877.29	3180
877.418	3256
877.546	3279
877.674	3272
877.802	3260
877.93	3253
878.058	3157
878.185	3108
878.313	3195
878.441	3241
878.568	3085
878.696	3180
878.824	3264
878.951	3325
879.079	3481
879.206	3622
879.333	3450
879.461	3393
879.588	3370
879.715	3530
879.842	3629
879.97	3420
880.097	3192
880.224	3157
880.351	3211
880.478	3275
880.605	3249
880.732	3203
880.859	3523
880.986	3348
881.112	3351
881.239	3192
881.366	3131
881.493	3058
881.619	3051
881.746	3104
881.872	3146
881.999	3150
882.125	3195
882.252	3275
882.378	3344
882.505	3481
882.631	3310
882.757	3165
882.883	3256
883.01	3264
883.136	3195
883.262	3131
883.388	3142
883.514	3367
883.64	3409
883.766	3344
883.892	3237
884.018	3260
884.143	3435
884.269	3591
884.395	3237
884.52	3169
884.646	3237
884.772	3138
884.897	3154
885.023	3256
885.148	3332
885.274	3443
885.399	3355
885.524	3325
885.65	3302
885.775	3363
885.9	3287
886.025	3458
886.15	3416
886.275	3344
886.4	3298
886.525	3332
886.65	3348
886.775	3325
886.9	3488
887.025	3618
887.149	3428
887.274	3272
887.399	3222
887.523	3214
887.648	3199
887.773	3283
887.897	3431
888.021	3466
888.146	3306
888.27	3469
888.395	3530
888.519	3447
888.643	3469
888.767	3515
888.891	3344
889.015	3249
889.139	3336
889.263	3275
889.387	3500
889.511	3545
889.635	3477
889.759	3310
889.883	3329
890.006	3378
890.13	3530
890.254	3306
890.377	3348
890.501	3233
890.624	3199
890.748	3332
890.871	3214
890.995	3127
891.118	3119
891.241	3192
891.364	3218
891.488	3355
891.611	3237
891.734	3268
891.857	3313
891.98	3279
892.103	3374
892.226	3325
892.349	3256
892.471	3146
892.594	3279
892.717	3287
892.839	3294
892.962	3313
893.085	3409
893.207	3340
893.33	3180
893.452	3245
893.575	3359
893.697	3279
893.819	3500
893.941	3526
894.064	3454
894.186	3287
894.308	3317
894.43	3477
894.552	3545
894.674	3473
894.796	3302
894.918	3291
895.04	3310
895.161	3481
895.283	3405
895.405	3321
895.526	3355
895.648	3462
895.769	3416
895.891	3492
896.012	3485
896.134	3500
896.255	3443
896.376	3370
896.498	3409
896.619	3409
896.74	3370
896.861	3420
896.982	3701
897.103	3888
897.224	3591
897.345	3526
897.466	3454
897.587	3526
897.708	3595
897.828	3618
897.949	3469
898.07	3332
898.19	3435
898.311	3656
898.431	3511
898.552	3591
898.672	3629
898.792	3614
898.913	3557
899.033	3378
899.153	3325
899.273	3260
899.393	3351
899.513	3344
899.633	3367
899.753	3382
899.873	3329
899.993	3386
900.113	3329
900.232	3428
900.352	3351
900.472	3291
900.591	3241
900.711	3329
900.83	3222
900.95	3477
901.069	3523
901.189	3386
901.308	3203
901.427	3161
901.546	3207
901.665	3332
901.784	3363
901.904	3207
902.023	3173
902.141	3028
902.26	3024
902.379	3116
902.498	3119
902.617	3104
902.735	3256
902.854	3272
902.973	3245
903.091	3081
903.21	3135
903.328	3165
903.446	3161
903.565	3142
903.683	3230
903.801	3150
903.919	3237
904.038	3348
904.156	3176
904.274	3351
904.392	3264
904.51	3313
904.627	3389
904.745	3443
904.863	3519
904.981	3279
905.098	3188
905.216	3256
905.334	3283
905.451	3313
905.569	3332
905.686	3412
905.803	3473
905.921	3306
906.038	3424
906.155	3409
906.272	3283
906.389	3382
906.506	3256
906.623	3279
906.74	3268
906.857	3237
906.974	3230
907.091	3488
907.208	3557
907.324	3496
907.441	3431
907.557	3249
907.674	3294
907.79	3237
907.907	3317
908.023	3382
908.139	3435
908.256	3321
908.372	3424
908.488	3363
908.604	3283
908.72	3249
908.836	3291
908.952	3306
909.068	3332
909.184	3515
909.3	3450
909.415	3534
909.531	3515
909.647	3325
909.762	3332
909.878	3287
909.993	3386
910.108	3367
910.224	3344
910.339	3431
910.454	3370
910.57	3363
910.685	3245
910.8	3587
910.915	3553
911.03	3466
911.145	3272
911.259	3264
911.374	3336
911.489	3279
911.604	3249
911.718	3157
911.833	3176
911.947	3074
912.062	3020
912.176	3218
912.291	3260
912.405	3268
912.519	3454
912.633	3435
912.748	3348
912.862	3283
912.976	3176
913.09	3093
913.204	3138
913.318	3203
913.431	3310
913.545	3313
913.659	3481
913.772	3321
913.886	3241
914	3195
914.113	3397
914.226	3435
914.34	3405
914.453	3241
914.566	3428
914.68	3294
914.793	3332
914.906	3161
915.019	3157
915.132	3097
915.245	3226
915.358	3256
915.47	3260
915.583	3313
915.696	3275
915.809	3386
915.921	3492
916.034	3294
916.146	3275
916.259	3241
916.371	3393
916.483	3355
916.595	3294
916.708	3359
916.82	3367
916.932	3348
917.044	3355
917.156	3382
917.268	3302
917.38	3325
917.491	3348
917.603	3359
917.715	3435
917.826	3519
917.938	3409
918.049	3264
918.161	3458
918.272	3606
918.384	3591
918.495	3507
918.606	3355
918.717	3291
918.828	3389
918.939	3420
919.05	3310
919.161	3340
919.272	3245
919.383	3317
919.494	3545
919.604	3717
919.715	3523
919.826	3443
919.936	3492
920.047	3610
920.157	3564
920.267	3770
920.378	3606
920.488	3530
920.598	3808
920.708	3960
920.818	3838
920.928	3846
921.038	4040
921.148	3953
921.258	3732
921.368	3633
921.477	3595
921.587	3576
921.697	3496
921.806	3625
921.916	3542
922.025	3351
922.134	3359
922.244	3340
922.353	3431
922.462	3306
922.571	3272
922.68	3123
922.789	3070
922.898	3188
923.007	3100
923.116	3199
923.224	3176
923.333	3222
923.442	3123
923.55	3093
923.659	3180
923.767	3249
923.876	3127
923.984	3253
924.092	3131
924.201	3222
924.309	3233
924.417	3287
924.525	3199
924.633	3256
924.741	4013
924.849	3074
924.956	3287
925.064	3097
925.172	3070
925.279	3135
925.387	3211
925.494	3241
925.602	3386
925.709	3359
925.816	3237
925.924	3291
926.031	3393
926.138	3359
926.245	3344
926.352	3298
926.459	3416
926.566	3504
926.673	3355
926.779	3233
926.886	3264
926.993	3112
927.099	3146
927.206	3131
927.312	3089
927.419	3245
927.525	3207
927.631	3264
927.737	3161
927.843	3112
927.95	3043
928.056	3123
928.162	3207
928.267	3275
928.373	3800
928.479	3332
928.585	3066
928.69	3214
928.796	3275
928.901	3180
929.007	3066
929.112	3249
929.218	3176
929.323	3173
929.428	3199
929.533	3306
929.638	3131
929.743	3218
929.848	3260
929.953	3237
930.058	3154
930.163	3001
930.267	3039
930.372	3176
930.477	3058
930.581	3344
930.685	3195
930.79	3112
930.894	3112
930.998	3077
931.103	3279
931.207	2998
931.311	2971
931.415	2914
931.519	2769
931.623	2819
