Data from test_V78500241_201.txt Node
Date: Fri Mar 25 16:16:35 CST 2022
User: usil
Spectrometer: V785-0024
Trigger mode: 0
Integration Time (sec): 4.000000E-1
Scans to average: 1
Nonlinearity correction enabled: false
Boxcar width: 0
Storing dark spectrum: false
XAxis mode: Wavelengths
Number of Pixels in Spectrum: 1024
>>>>>Begin Spectral Data<<<<<
801.071	2902
801.214	2971
801.356	2883
801.499	2876
801.641	2910
801.783	2933
801.926	3058
802.068	2963
802.211	3028
802.353	3058
802.496	2956
802.638	2979
802.78	3058
802.923	3081
803.065	3013
803.208	2876
803.35	2918
803.492	2922
803.635	2937
803.777	2769
803.919	2880
804.061	3203
804.204	2960
804.346	2941
804.488	2861
804.63	3013
804.773	2872
804.915	2922
805.057	3127
805.199	2941
805.341	2975
805.483	3074
805.626	2994
805.768	2960
805.91	3070
806.052	3142
806.194	3043
806.336	3241
806.478	3032
806.62	2971
806.762	2952
806.904	3036
807.046	3192
807.188	2960
807.33	2922
807.472	3009
807.614	2918
807.756	3001
807.898	2922
808.04	2922
808.182	2990
808.324	2956
808.465	2887
808.607	2887
808.749	2838
808.891	2834
809.033	2960
809.174	2986
809.316	2925
809.458	2849
809.6	2777
809.741	2735
809.883	2766
810.025	2830
810.166	2842
810.308	2830
810.45	2861
810.591	2746
810.733	2773
810.875	2811
811.016	2777
811.158	2800
811.299	2838
811.441	2925
811.582	2876
811.724	2861
811.865	2872
812.007	2914
812.148	2933
812.29	2819
812.431	2899
812.573	2986
812.714	2971
812.855	3043
812.997	3066
813.138	3119
813.279	3009
813.421	3005
813.562	2941
813.703	2868
813.845	2887
813.986	2769
814.127	2769
814.268	2815
814.41	2845
814.551	2838
814.692	2895
814.833	2788
814.974	2899
815.115	2963
815.256	2804
815.397	2811
815.539	2876
815.68	2781
815.821	2781
815.962	2914
816.103	2967
816.244	2887
816.385	2842
816.526	2963
816.666	2883
816.807	2743
816.948	2910
817.089	2910
817.23	2864
817.371	2766
817.512	2815
817.653	2830
817.793	2807
817.934	2902
818.075	2990
818.216	2975
818.356	3051
818.497	2887
818.638	2785
818.778	2838
818.919	2804
819.06	2769
819.2	2887
819.341	2777
819.481	2834
819.622	2941
819.762	3116
819.903	3089
820.043	2979
820.184	2891
820.324	2891
820.465	3013
820.605	3009
820.746	3028
820.886	2918
821.026	3123
821.167	3154
821.307	3207
821.447	3294
821.588	3249
821.728	3218
821.868	3188
822.008	3097
822.149	3199
822.289	3195
822.429	3089
822.569	3108
822.709	3222
822.849	3024
822.99	3085
823.13	3199
823.27	3218
823.41	3142
823.55	3169
823.69	3135
823.83	3211
823.97	3100
824.11	3036
824.25	3017
824.389	3089
824.529	3116
824.669	3039
824.809	3195
824.949	3287
825.089	3230
825.228	3146
825.368	3036
825.508	2952
825.648	2967
825.787	3051
825.927	2998
826.067	2960
826.206	2960
826.346	3058
826.485	3104
826.625	3161
826.765	3253
826.904	3203
827.044	2990
827.183	2918
827.323	2857
827.462	2979
827.601	2910
827.741	2948
827.88	2971
828.02	2857
828.159	2960
828.298	3058
828.437	3097
828.577	3055
828.716	3268
828.855	3062
828.994	2941
829.134	2891
829.273	2944
829.412	2864
829.551	2853
829.69	2895
829.829	3039
829.968	3138
830.107	3081
830.246	3051
830.385	2906
830.524	2868
830.663	2819
830.802	2746
830.941	2659
831.08	2632
831.219	2766
831.357	2750
831.496	3001
831.635	2697
831.774	2651
831.913	2648
832.051	2507
832.19	2579
832.329	2670
832.467	2522
832.606	2492
832.744	2571
832.883	2575
833.022	2568
833.16	2678
833.299	2682
833.437	2697
833.576	2708
833.714	2766
833.852	2746
833.991	2766
834.129	2838
834.267	2861
834.406	2823
834.544	2883
834.682	2880
834.821	2853
834.959	3058
835.097	2906
835.235	3066
835.373	2979
835.511	3039
835.65	2975
835.788	2956
835.926	2849
836.064	2815
836.202	2861
836.34	3074
836.478	3131
836.615	3062
836.753	3131
836.891	3237
837.029	3146
837.167	3154
837.305	3039
837.443	3028
837.58	2971
837.718	3138
837.856	3032
837.993	3024
838.131	3154
838.269	3123
838.406	3081
838.544	3085
838.681	2952
838.819	2880
838.956	2758
839.094	2826
839.231	2956
839.369	3020
839.506	3367
839.643	3226
839.781	3009
839.918	2967
840.055	3058
840.193	3074
840.33	3043
840.467	3089
840.604	3138
840.742	3435
840.879	3074
841.016	3005
841.153	3142
841.29	3332
841.427	3302
841.564	3268
841.701	3291
841.838	3256
841.975	3165
842.112	3233
842.249	3074
842.385	3081
842.522	3253
842.659	3085
842.796	3024
842.933	3135
843.069	3039
843.206	3047
843.343	3188
843.479	3135
843.616	3165
843.752	2906
843.889	2876
844.025	3093
844.162	2891
844.298	3085
844.435	2933
844.571	2929
844.708	3077
844.844	3207
844.98	3222
845.117	3188
845.253	3070
845.389	3009
845.525	3104
845.661	3104
845.798	3024
845.934	3119
846.07	3077
846.206	3195
846.342	3329
846.478	3203
846.614	3097
846.75	3047
846.886	3017
847.022	3237
847.158	3142
847.294	3195
847.429	3245
847.565	3218
847.701	3500
847.837	3032
847.972	2990
848.108	3150
848.244	3180
848.379	3017
848.515	2948
848.65	2948
848.786	2975
848.921	3009
849.057	3116
849.192	3154
849.328	3039
849.463	3074
849.598	3051
849.734	3036
849.869	2986
850.004	2933
850.14	2967
850.275	2918
850.41	2819
850.545	2887
850.68	2925
850.815	2937
850.95	2990
851.085	3203
851.22	3142
851.355	3043
851.49	2960
851.625	3039
851.76	3017
851.895	2933
852.03	2914
852.165	3039
852.299	3119
852.434	3195
852.569	3138
852.703	3207
852.838	3256
852.973	3340
853.107	3367
853.242	3131
853.376	3119
853.511	2975
853.645	3058
853.78	3275
853.914	3157
854.048	3142
854.183	3108
854.317	3154
854.451	3302
854.585	3154
854.72	3077
854.854	3237
854.988	3062
855.122	3074
855.256	2986
855.39	3135
855.524	3298
855.658	3176
855.792	3127
855.926	3173
856.06	3249
856.194	3260
856.327	3173
856.461	3093
856.595	3081
856.729	3089
856.862	3233
856.996	3157
857.13	3211
857.263	3222
857.397	3310
857.53	3138
857.664	3184
857.797	3253
857.931	3222
858.064	3157
858.197	3211
858.331	3165
858.464	3123
858.597	2960
858.731	3081
858.864	3142
858.997	3089
859.13	3195
859.263	3176
859.396	3199
859.529	3100
859.662	3100
859.795	3032
859.928	3131
860.061	3260
860.194	3275
860.327	3104
860.46	3100
860.592	3256
860.725	3249
860.858	3283
860.99	3176
861.123	3085
861.256	3028
861.388	3116
861.521	3865
861.653	3024
861.786	3005
861.918	3020
862.05	3077
862.183	3058
862.315	3180
862.447	3230
862.58	3100
862.712	2952
862.844	2880
862.976	3005
863.108	3017
863.24	3310
863.372	2887
863.504	2971
863.636	2948
863.768	3024
863.9	2956
864.032	2922
864.164	2960
864.296	3013
864.428	3108
864.559	3108
864.691	3066
864.823	3047
864.954	3070
865.086	3036
865.217	3028
865.349	2963
865.48	2986
865.612	3009
865.743	3135
865.875	2986
866.006	3009
866.137	2994
866.269	2963
866.4	2937
866.531	2944
866.662	2918
866.793	2914
866.924	2906
867.055	3013
867.186	2960
867.317	2868
867.448	2842
867.579	2857
867.71	2876
867.841	2842
867.972	2910
868.103	2876
868.233	2929
868.364	2880
868.495	2922
868.625	3085
868.756	3195
868.886	2971
869.017	3043
869.147	3165
869.278	3157
869.408	3104
869.539	3020
869.669	3070
869.799	3055
869.929	3131
870.06	3093
870.19	3332
870.32	3283
870.45	3325
870.58	3401
870.71	3447
870.84	3462
870.97	3275
871.1	3245
871.23	3504
871.36	3454
871.489	3351
871.619	3409
871.749	3428
871.879	3428
872.008	3511
872.138	3367
872.267	3275
872.397	3161
872.526	3119
872.656	3005
872.785	3135
872.915	3260
873.044	3287
873.173	3214
873.303	3214
873.432	3249
873.561	3245
873.69	3173
873.819	3154
873.948	3218
874.077	3097
874.206	3036
874.335	3108
874.464	3214
874.593	3344
874.722	3241
874.851	3412
874.979	3367
875.108	3382
875.237	3184
875.365	3173
875.494	3157
875.623	3260
875.751	3077
875.88	3116
876.008	3199
876.136	3279
876.265	3378
876.393	3557
876.521	3458
876.65	3405
876.778	3336
876.906	3260
877.034	3245
877.162	3222
877.29	3169
877.418	3230
877.546	3287
877.674	3272
877.802	3233
877.93	3256
878.058	3165
878.185	3085
878.313	3173
878.441	3211
878.568	3097
878.696	3184
878.824	3226
878.951	3294
879.079	3428
879.206	3633
879.333	3469
879.461	3344
879.588	3348
879.715	3500
879.842	3542
879.97	3378
880.097	3203
880.224	3142
880.351	3199
880.478	3230
880.605	3222
880.732	3218
880.859	3511
880.986	3348
881.112	3310
881.239	3192
881.366	3116
881.493	3039
881.619	3020
881.746	3062
881.872	3104
881.999	3131
882.125	3142
882.252	3245
882.378	3275
882.505	3424
882.631	3264
882.757	3199
882.883	3237
883.01	3237
883.136	3199
883.262	3104
883.388	3108
883.514	3321
883.64	3382
883.766	3294
883.892	3207
884.018	3218
884.143	3386
884.269	3564
884.395	3268
884.52	3161
884.646	3230
884.772	3192
884.897	3131
885.023	3226
885.148	3306
885.274	3439
885.399	3363
885.524	3321
885.65	3249
885.775	3306
885.9	3306
886.025	3462
886.15	3378
886.275	3317
886.4	3249
886.525	3306
886.65	3287
886.775	3272
886.9	3500
887.025	3656
887.149	3454
887.274	3268
887.399	3157
887.523	3184
887.648	3192
887.773	3207
887.897	3386
888.021	3443
888.146	3272
888.27	3431
888.395	3549
888.519	3389
888.643	3420
888.767	3492
888.891	3302
889.015	3279
889.139	3298
889.263	3245
889.387	3397
889.511	3523
889.635	3473
889.759	3279
889.883	3291
890.006	3428
890.13	3481
890.254	3298
890.377	3359
890.501	3207
890.624	3188
890.748	3298
890.871	3184
890.995	3085
891.118	3043
891.241	3203
891.364	3245
891.488	3321
891.611	3173
891.734	3245
891.857	3310
891.98	3253
892.103	3367
892.226	3294
892.349	3218
892.471	3146
892.594	3249
892.717	3359
892.839	3275
892.962	3298
893.085	3370
893.207	3306
893.33	3176
893.452	3188
893.575	3351
893.697	3245
893.819	3435
893.941	3534
894.064	3466
894.186	3306
894.308	3287
894.43	3454
894.552	3542
894.674	3507
894.796	3302
894.918	3351
895.04	3298
895.161	3439
895.283	3409
895.405	3279
895.526	3374
895.648	3431
895.769	3397
895.891	3462
896.012	3507
896.134	3473
896.255	3450
896.376	3409
896.498	3374
896.619	3439
896.74	3332
896.861	3416
896.982	3682
897.103	3876
897.224	3595
897.345	3561
897.466	3450
897.587	3504
897.708	3641
897.828	3542
897.949	3454
898.07	3359
898.19	3435
898.311	3572
898.431	3443
898.552	3542
898.672	3633
898.792	3614
898.913	3526
899.033	3431
899.153	3275
899.273	3230
899.393	3268
899.513	3355
899.633	3332
899.753	3348
899.873	3275
899.993	3409
900.113	3351
900.232	3424
900.352	3370
900.472	3302
900.591	3249
900.711	3294
900.83	3256
900.95	3428
901.069	3511
901.189	3393
901.308	3180
901.427	3169
901.546	3230
901.665	3283
901.784	3325
901.904	3226
902.023	3195
902.141	3047
902.26	2986
902.379	3150
902.498	3093
902.617	3081
902.735	3180
902.854	3253
902.973	3222
903.091	3058
903.21	3104
903.328	3176
903.446	3131
903.565	3116
903.683	3241
903.801	3180
903.919	3245
904.038	3245
904.156	3176
904.274	3306
904.392	3256
904.51	3272
904.627	3374
904.745	3443
904.863	3515
904.981	3279
905.098	3199
905.216	3268
905.334	3306
905.451	3306
905.569	3321
905.686	3431
905.803	3416
905.921	3306
906.038	3439
906.155	3336
906.272	3264
906.389	3332
906.506	3260
906.623	3260
906.74	3268
906.857	3176
906.974	3283
907.091	3443
907.208	3603
907.324	3488
907.441	3397
907.557	3230
907.674	3253
907.79	3218
907.907	3306
908.023	3344
908.139	3374
908.256	3344
908.372	3374
908.488	3340
908.604	3275
908.72	3253
908.836	3325
908.952	3302
909.068	3329
909.184	3511
909.3	3405
909.415	3481
909.531	3485
909.647	3275
909.762	3340
909.878	3275
909.993	3393
910.108	3344
910.224	3378
910.339	3393
910.454	3340
910.57	3279
910.685	3268
910.8	3584
910.915	3568
911.03	3435
911.145	3275
911.259	3298
911.374	3378
911.489	3275
911.604	3253
911.718	3112
911.833	3203
911.947	3066
912.062	3001
912.176	3180
912.291	3192
912.405	3195
912.519	3431
912.633	3500
912.748	3332
912.862	3272
912.976	3173
913.09	3032
913.204	3146
913.318	3230
913.431	3355
913.545	3355
913.659	3416
913.772	3332
913.886	3245
914	3192
914.113	3382
914.226	3386
914.34	3363
914.453	3214
914.566	3435
914.68	3268
914.793	3336
914.906	3146
915.019	3123
915.132	3097
915.245	3165
915.358	3233
915.47	3287
915.583	3279
915.696	3294
915.809	3454
915.921	3370
916.034	3313
916.146	3264
916.259	3222
916.371	3378
916.483	3367
916.595	3268
916.708	3310
916.82	3355
916.932	3351
917.044	3359
917.156	3336
917.268	3237
917.38	3306
917.491	3302
917.603	3386
917.715	3450
917.826	3447
917.938	3401
918.049	3291
918.161	3439
918.272	3629
918.384	3553
918.495	3504
918.606	3351
918.717	3321
918.828	3409
918.939	3420
919.05	3291
919.161	3359
919.272	3218
919.383	3268
919.494	3458
919.604	3667
919.715	3500
919.826	3401
919.936	3454
920.047	3603
920.157	3500
920.267	3774
920.378	3618
920.488	3580
920.598	3808
920.708	4013
920.818	3850
920.928	3838
921.038	4040
921.148	4025
921.258	3720
921.368	3656
921.477	3564
921.587	3534
921.697	3469
921.806	3682
921.916	3542
922.025	3378
922.134	3382
922.244	3287
922.353	3458
922.462	3302
922.571	3230
922.68	3108
922.789	3089
922.898	3157
923.007	3089
923.116	3195
923.224	3207
923.333	3207
923.442	3097
923.55	3070
923.659	3127
923.767	3226
923.876	3097
923.984	3249
924.092	3108
924.201	3180
924.309	3218
924.417	3253
924.525	3195
924.633	3233
924.741	4204
924.849	3058
924.956	3264
925.064	3104
925.172	3036
925.279	3085
925.387	3203
925.494	3199
925.602	3363
925.709	3340
925.816	3146
925.924	3298
926.031	3393
926.138	3340
926.245	3378
926.352	3256
926.459	3431
926.566	3534
926.673	3321
926.779	3230
926.886	3272
926.993	3161
927.099	3154
927.206	3157
927.312	3100
927.419	3245
927.525	3226
927.631	3302
927.737	3169
927.843	3104
927.95	2998
928.056	3176
928.162	3211
928.267	3222
928.373	3873
928.479	3302
928.585	3081
928.69	3218
928.796	3294
928.901	3180
929.007	3074
929.112	3230
929.218	3176
929.323	3180
929.428	3123
929.533	3294
929.638	3119
929.743	3180
929.848	3256
929.953	3188
930.058	3176
930.163	3013
930.267	3043
930.372	3195
930.477	3043
930.581	3310
930.685	3203
930.79	3043
930.894	3138
930.998	3131
931.103	3287
931.207	2975
931.311	2944
931.415	2899
931.519	2785
931.623	2826
