Data from test_V78500241_1265.txt Node
Date: Fri Mar 25 16:23:58 CST 2022
User: usil
Spectrometer: V785-0024
Trigger mode: 0
Integration Time (sec): 4.000000E-1
Scans to average: 1
Nonlinearity correction enabled: false
Boxcar width: 0
Storing dark spectrum: false
XAxis mode: Wavelengths
Number of Pixels in Spectrum: 1024
>>>>>Begin Spectral Data<<<<<
801.071	2899
801.214	2872
801.356	2880
801.499	2895
801.641	2895
801.783	2925
801.926	3062
802.068	2948
802.211	2990
802.353	3032
802.496	2963
802.638	3017
802.78	3055
802.923	3089
803.065	3001
803.208	2902
803.35	2925
803.492	2971
803.635	2948
803.777	2769
803.919	2872
804.061	3173
804.204	2925
804.346	2906
804.488	2838
804.63	3024
804.773	2876
804.915	2922
805.057	3097
805.199	2933
805.341	2952
805.483	3005
805.626	2986
805.768	2982
805.91	3100
806.052	3116
806.194	3013
806.336	3226
806.478	3043
806.62	2963
806.762	2982
806.904	3055
807.046	3173
807.188	2975
807.33	2929
807.472	3013
807.614	2906
807.756	2982
807.898	2918
808.04	2910
808.182	2986
808.324	2933
808.465	2872
808.607	2853
808.749	2773
808.891	2853
809.033	2944
809.174	2979
809.316	2891
809.458	2910
809.6	2773
809.741	2788
809.883	2746
810.025	2849
810.166	2834
810.308	2872
810.45	2819
810.591	2750
810.733	2788
810.875	2845
811.016	2724
811.158	2739
811.299	2785
811.441	2910
811.582	2895
811.724	2830
811.865	2800
812.007	2910
812.148	2842
812.29	2853
812.431	2895
812.573	2925
812.714	3001
812.855	3066
812.997	3047
813.138	3104
813.279	3001
813.421	3005
813.562	2937
813.703	2857
813.845	2902
813.986	2781
814.127	2746
814.268	2800
814.41	2857
814.551	2823
814.692	2857
814.833	2800
814.974	2868
815.115	2944
815.256	2823
815.397	2823
815.539	2845
815.68	2758
815.821	2811
815.962	2948
816.103	2899
816.244	2887
816.385	2853
816.526	3001
816.666	2922
816.807	2754
816.948	2849
817.089	2899
817.23	2830
817.371	2792
817.512	2769
817.653	2834
817.793	2861
817.934	2849
818.075	2979
818.216	2952
818.356	3013
818.497	2899
818.638	2807
818.778	2819
818.919	2807
819.06	2746
819.2	2876
819.341	2815
819.481	2807
819.622	2914
819.762	3085
819.903	3036
820.043	2948
820.184	2861
820.324	2899
820.465	3009
820.605	3013
820.746	2990
820.886	2880
821.026	3055
821.167	3161
821.307	3226
821.447	3283
821.588	3237
821.728	3214
821.868	3184
822.008	3100
822.149	3180
822.289	3199
822.429	3089
822.569	3119
822.709	3192
822.849	3032
822.99	3058
823.13	3161
823.27	3214
823.41	3062
823.55	3176
823.69	3157
823.83	3203
823.97	3089
824.11	3024
824.25	2990
824.389	3058
824.529	3108
824.669	3066
824.809	3199
824.949	3264
825.089	3230
825.228	3100
825.368	3017
825.508	2956
825.648	2975
825.787	3058
825.927	3009
826.067	2960
826.206	2960
826.346	3001
826.485	3062
826.625	3135
826.765	3272
826.904	3207
827.044	2971
827.183	2914
827.323	2864
827.462	2948
827.601	2948
827.741	2922
827.88	2937
828.02	2857
828.159	2952
828.298	3062
828.437	3154
828.577	3032
828.716	3211
828.855	3070
828.994	2925
829.134	2876
829.273	2891
829.412	2929
829.551	2842
829.69	2922
829.829	2975
829.968	3123
830.107	3036
830.246	3024
830.385	2914
830.524	2887
830.663	2857
830.802	2727
830.941	2625
831.08	2632
831.219	2716
831.357	2746
831.496	2956
831.635	2712
831.774	2655
831.913	2640
832.051	2545
832.19	2575
832.329	2682
832.467	2511
832.606	2446
832.744	2556
832.883	2571
833.022	2590
833.16	2644
833.299	2697
833.437	2689
833.576	2674
833.714	2739
833.852	2727
833.991	2743
834.129	2811
834.267	2864
834.406	2804
834.544	2872
834.682	2842
834.821	2857
834.959	3036
835.097	2880
835.235	3043
835.373	2975
835.511	2990
835.65	2925
835.788	2963
835.926	2811
836.064	2815
836.202	2845
836.34	3097
836.478	3085
836.615	3051
836.753	3097
836.891	3180
837.029	3146
837.167	3104
837.305	3055
837.443	3032
837.58	2941
837.718	3104
837.856	3047
837.993	3005
838.131	3112
838.269	3089
838.406	3097
838.544	3085
838.681	2941
838.819	2891
838.956	2830
839.094	2819
839.231	2891
839.369	3036
839.506	3351
839.643	3199
839.781	3024
839.918	2925
840.055	3055
840.193	3028
840.33	3074
840.467	3097
840.604	3138
840.742	3409
840.879	3062
841.016	3032
841.153	3085
841.29	3298
841.427	3241
841.564	3211
841.701	3336
841.838	3237
841.975	3154
842.112	3214
842.249	3058
842.385	3032
842.522	3272
842.659	3055
842.796	3058
842.933	3070
843.069	3036
843.206	3013
843.343	3203
843.479	3097
843.616	3119
843.752	2910
843.889	2864
844.025	3058
844.162	2845
844.298	3070
844.435	2929
844.571	2918
844.708	3081
844.844	3195
844.98	3245
845.117	3154
845.253	3051
845.389	3020
845.525	3097
845.661	3100
845.798	2986
845.934	3116
846.07	3097
846.206	3199
846.342	3329
846.478	3233
846.614	3089
846.75	3047
846.886	3028
847.022	3226
847.158	3119
847.294	3192
847.429	3199
847.565	3165
847.701	3504
847.837	3017
847.972	2994
848.108	3142
848.244	3112
848.379	2960
848.515	2933
848.65	2929
848.786	2948
848.921	3024
849.057	3089
849.192	3150
849.328	3062
849.463	3108
849.598	3074
849.734	3020
849.869	2986
850.004	2891
850.14	2967
850.275	2922
850.41	2819
850.545	2876
850.68	2937
850.815	2925
850.95	2952
851.085	3184
851.22	3047
851.355	3017
851.49	2937
851.625	2994
851.76	2963
851.895	2929
852.03	2868
852.165	3017
852.299	3135
852.434	3184
852.569	3131
852.703	3195
852.838	3260
852.973	3310
853.107	3313
853.242	3161
853.376	3089
853.511	2960
853.645	3047
853.78	3256
853.914	3119
854.048	3127
854.183	3100
854.317	3138
854.451	3272
854.585	3119
854.72	3100
854.854	3207
854.988	3039
855.122	3081
855.256	2971
855.39	3077
855.524	3241
855.658	3173
855.792	3138
855.926	3214
856.06	3176
856.194	3279
856.327	3123
856.461	3058
856.595	3089
856.729	3074
856.862	3192
856.996	3184
857.13	3199
857.263	3211
857.397	3260
857.53	3112
857.664	3207
857.797	3249
857.931	3237
858.064	3146
858.197	3199
858.331	3123
858.464	3070
858.597	2990
858.731	3127
858.864	3173
858.997	3089
859.13	3108
859.263	3150
859.396	3211
859.529	3081
859.662	3081
859.795	3074
859.928	3100
860.061	3291
860.194	3287
860.327	3100
860.46	3070
860.592	3249
860.725	3268
860.858	3249
860.99	3119
861.123	3028
861.256	3039
861.388	3169
861.521	3686
861.653	3047
861.786	2952
861.918	2967
862.05	3058
862.183	3066
862.315	3184
862.447	3142
862.58	3097
862.712	2948
862.844	2883
862.976	3020
863.108	3020
863.24	3317
863.372	2906
863.504	2967
863.636	2941
863.768	3009
863.9	2963
864.032	2918
864.164	2891
864.296	3013
864.428	3104
864.559	3119
864.691	3089
864.823	3081
864.954	3009
865.086	3055
865.217	3013
865.349	2925
865.48	2948
865.612	3013
865.743	3138
865.875	2990
866.006	2925
866.137	2979
866.269	2918
866.4	2902
866.531	2895
866.662	2857
866.793	2910
866.924	2853
867.055	2956
867.186	2910
867.317	2864
867.448	2849
867.579	2872
867.71	2876
867.841	2781
867.972	2922
868.103	2895
868.233	2868
868.364	2853
868.495	2880
868.625	3097
868.756	3131
868.886	2975
869.017	3020
869.147	3161
869.278	3169
869.408	3039
869.539	3043
869.669	3112
869.799	3055
869.929	3104
870.06	3066
870.19	3348
870.32	3268
870.45	3332
870.58	3389
870.71	3462
870.84	3424
870.97	3268
871.1	3211
871.23	3519
871.36	3462
871.489	3317
871.619	3374
871.749	3393
871.879	3405
872.008	3481
872.138	3348
872.267	3272
872.397	3131
872.526	3108
872.656	3036
872.785	3085
872.915	3233
873.044	3332
873.173	3184
873.303	3272
873.432	3199
873.561	3241
873.69	3127
873.819	3154
873.948	3192
874.077	3097
874.206	3062
874.335	3085
874.464	3214
874.593	3291
874.722	3226
874.851	3412
874.979	3351
875.108	3298
875.237	3184
875.365	3154
875.494	3116
875.623	3272
875.751	3070
875.88	3100
876.008	3180
876.136	3211
876.265	3367
876.393	3473
876.521	3386
876.65	3378
876.778	3363
876.906	3245
877.034	3161
877.162	3211
877.29	3161
877.418	3245
877.546	3249
877.674	3203
877.802	3233
877.93	3211
878.058	3100
878.185	3104
878.313	3184
878.441	3203
878.568	3055
878.696	3188
878.824	3222
878.951	3253
879.079	3409
879.206	3637
879.333	3443
879.461	3306
879.588	3363
879.715	3477
879.842	3603
879.97	3382
880.097	3154
880.224	3161
880.351	3142
880.478	3226
880.605	3176
880.732	3176
880.859	3466
880.986	3310
881.112	3332
881.239	3169
881.366	3081
881.493	3028
881.619	3009
881.746	3093
881.872	3123
881.999	3116
882.125	3135
882.252	3199
882.378	3268
882.505	3412
882.631	3279
882.757	3154
882.883	3180
883.01	3188
883.136	3165
883.262	3150
883.388	3100
883.514	3317
883.64	3351
883.766	3253
883.892	3135
884.018	3222
884.143	3443
884.269	3534
884.395	3192
884.52	3169
884.646	3184
884.772	3089
884.897	3100
885.023	3214
885.148	3367
885.274	3420
885.399	3340
885.524	3249
885.65	3233
885.775	3302
885.9	3249
886.025	3466
886.15	3389
886.275	3306
886.4	3256
886.525	3351
886.65	3294
886.775	3283
886.9	3488
887.025	3622
887.149	3370
887.274	3249
887.399	3173
887.523	3192
887.648	3173
887.773	3233
887.897	3363
888.021	3359
888.146	3272
888.27	3412
888.395	3492
888.519	3435
888.643	3424
888.767	3473
888.891	3283
889.015	3279
889.139	3264
889.263	3218
889.387	3397
889.511	3534
889.635	3431
889.759	3287
889.883	3359
890.006	3370
890.13	3488
890.254	3291
890.377	3317
890.501	3249
890.624	3169
890.748	3294
890.871	3203
890.995	3131
891.118	3081
891.241	3195
891.364	3218
891.488	3306
891.611	3169
891.734	3203
891.857	3272
891.98	3233
892.103	3344
892.226	3222
892.349	3207
892.471	3112
892.594	3260
892.717	3279
892.839	3279
892.962	3275
893.085	3344
893.207	3294
893.33	3161
893.452	3169
893.575	3359
893.697	3260
893.819	3454
893.941	3462
894.064	3447
894.186	3245
894.308	3226
894.43	3443
894.552	3496
894.674	3466
894.796	3260
894.918	3302
895.04	3272
895.161	3409
895.283	3374
895.405	3310
895.526	3367
895.648	3454
895.769	3424
895.891	3386
896.012	3477
896.134	3424
896.255	3363
896.376	3378
896.498	3370
896.619	3397
896.74	3340
896.861	3348
896.982	3682
897.103	3865
897.224	3591
897.345	3519
897.466	3405
897.587	3488
897.708	3614
897.828	3557
897.949	3420
898.07	3340
898.19	3431
898.311	3587
898.431	3477
898.552	3515
898.672	3572
898.792	3587
898.913	3549
899.033	3424
899.153	3310
899.273	3226
899.393	3272
899.513	3287
899.633	3306
899.753	3321
899.873	3260
899.993	3340
900.113	3321
900.232	3378
900.352	3363
900.472	3245
900.591	3154
900.711	3287
900.83	3214
900.95	3351
901.069	3466
901.189	3302
901.308	3184
901.427	3127
901.546	3173
901.665	3310
901.784	3332
901.904	3241
902.023	3146
902.141	2994
902.26	2922
902.379	3119
902.498	3074
902.617	3055
902.735	3237
902.854	3233
902.973	3203
903.091	3036
903.21	3062
903.328	3169
903.446	3119
903.565	3085
903.683	3192
903.801	3127
903.919	3237
904.038	3283
904.156	3146
904.274	3313
904.392	3230
904.51	3306
904.627	3329
904.745	3428
904.863	3466
904.981	3256
905.098	3146
905.216	3283
905.334	3306
905.451	3275
905.569	3317
905.686	3443
905.803	3416
905.921	3253
906.038	3420
906.155	3344
906.272	3245
906.389	3313
906.506	3222
906.623	3233
906.74	3256
906.857	3226
906.974	3218
907.091	3435
907.208	3519
907.324	3450
907.441	3405
907.557	3218
907.674	3237
907.79	3233
907.907	3275
908.023	3386
908.139	3374
908.256	3294
908.372	3325
908.488	3340
908.604	3264
908.72	3264
908.836	3302
908.952	3260
909.068	3374
909.184	3477
909.3	3393
909.415	3496
909.531	3477
909.647	3272
909.762	3310
909.878	3272
909.993	3344
910.108	3325
910.224	3321
910.339	3393
910.454	3363
910.57	3256
910.685	3211
910.8	3568
910.915	3530
911.03	3409
911.145	3264
911.259	3268
911.374	3306
911.489	3222
911.604	3226
911.718	3116
911.833	3146
911.947	3062
912.062	2963
912.176	3146
912.291	3199
912.405	3195
912.519	3435
912.633	3458
912.748	3306
912.862	3264
912.976	3131
913.09	3047
913.204	3097
913.318	3218
913.431	3351
913.545	3313
913.659	3397
913.772	3344
913.886	3218
914	3184
914.113	3359
914.226	3420
914.34	3363
914.453	3184
914.566	3401
914.68	3275
914.793	3325
914.906	3116
915.019	3116
915.132	3062
915.245	3173
915.358	3195
915.47	3260
915.583	3233
915.696	3294
915.809	3386
915.921	3420
916.034	3245
916.146	3230
916.259	3207
916.371	3359
916.483	3382
916.595	3268
916.708	3344
916.82	3340
916.932	3367
917.044	3317
917.156	3332
917.268	3256
917.38	3310
917.491	3325
917.603	3336
917.715	3450
917.826	3450
917.938	3359
918.049	3230
918.161	3405
918.272	3572
918.384	3568
918.495	3473
918.606	3370
918.717	3287
918.828	3332
918.939	3420
919.05	3287
919.161	3401
919.272	3180
919.383	3279
919.494	3481
919.604	3667
919.715	3488
919.826	3401
919.936	3473
920.047	3549
920.157	3538
920.267	3747
920.378	3698
920.488	3584
920.598	3785
920.708	3918
920.818	3819
920.928	3812
921.038	3998
921.148	4032
921.258	3743
921.368	3595
921.477	3606
921.587	3545
921.697	3485
921.806	3584
921.916	3511
922.025	3355
922.134	3321
922.244	3313
922.353	3458
922.462	3291
922.571	3207
922.68	3100
922.789	3058
922.898	3119
923.007	3104
923.116	3214
923.224	3150
923.333	3161
923.442	3062
923.55	3081
923.659	3138
923.767	3180
923.876	3097
923.984	3207
924.092	3127
924.201	3211
924.309	3203
924.417	3241
924.525	3165
924.633	3222
924.741	4021
924.849	3058
924.956	3272
925.064	3055
925.172	3047
925.279	3100
925.387	3211
925.494	3222
925.602	3374
925.709	3321
925.816	3192
925.924	3272
926.031	3393
926.138	3310
926.245	3351
926.352	3245
926.459	3420
926.566	3450
926.673	3302
926.779	3226
926.886	3283
926.993	3161
927.099	3123
927.206	3104
927.312	3100
927.419	3249
927.525	3180
927.631	3272
927.737	3108
927.843	3116
927.95	3036
928.056	3116
928.162	3173
928.267	3249
928.373	3857
928.479	3287
928.585	3066
928.69	3184
928.796	3249
928.901	3116
929.007	3020
929.112	3230
929.218	3207
929.323	3176
929.428	3161
929.533	3268
929.638	3089
929.743	3157
929.848	3241
929.953	3214
930.058	3093
930.163	3020
930.267	3005
930.372	3218
930.477	3039
930.581	3313
930.685	3173
930.79	3032
930.894	3097
930.998	3093
931.103	3275
931.207	2979
931.311	2952
931.415	2910
931.519	2716
931.623	2777
