Data from test_V78500241_1518.txt Node
Date: Fri Mar 25 16:25:43 CST 2022
User: usil
Spectrometer: V785-0024
Trigger mode: 0
Integration Time (sec): 4.000000E-1
Scans to average: 1
Nonlinearity correction enabled: false
Boxcar width: 0
Storing dark spectrum: false
XAxis mode: Wavelengths
Number of Pixels in Spectrum: 1024
>>>>>Begin Spectral Data<<<<<
801.071	2891
801.214	2941
801.356	2838
801.499	2895
801.641	2857
801.783	2914
801.926	3047
802.068	3036
802.211	2986
802.353	3043
802.496	2975
802.638	2998
802.78	3009
802.923	3085
803.065	3028
803.208	2883
803.35	2929
803.492	2952
803.635	2956
803.777	2762
803.919	2861
804.061	3199
804.204	2971
804.346	2891
804.488	2823
804.63	2933
804.773	2864
804.915	2914
805.057	3051
805.199	2922
805.341	2979
805.483	3062
805.626	2982
805.768	2933
805.91	3028
806.052	3100
806.194	3024
806.336	3253
806.478	3001
806.62	2963
806.762	2956
806.904	3077
807.046	3157
807.188	2986
807.33	2872
807.472	2982
807.614	2963
807.756	2990
807.898	2914
808.04	2872
808.182	2998
808.324	2956
808.465	2887
808.607	2872
808.749	2815
808.891	2823
809.033	2952
809.174	2960
809.316	2868
809.458	2880
809.6	2777
809.741	2766
809.883	2754
810.025	2842
810.166	2857
810.308	2826
810.45	2823
810.591	2777
810.733	2762
810.875	2823
811.016	2788
811.158	2727
811.299	2807
811.441	2902
811.582	2922
811.724	2830
811.865	2845
812.007	2895
812.148	2910
812.29	2842
812.431	2891
812.573	2922
812.714	2967
812.855	3020
812.997	3055
813.138	3112
813.279	2975
813.421	2956
813.562	2941
813.703	2899
813.845	2876
813.986	2773
814.127	2712
814.268	2792
814.41	2838
814.551	2842
814.692	2872
814.833	2823
814.974	2883
815.115	2929
815.256	2807
815.397	2800
815.539	2834
815.68	2773
815.821	2800
815.962	2941
816.103	2925
816.244	2868
816.385	2849
816.526	2990
816.666	2922
816.807	2754
816.948	2887
817.089	2929
817.23	2876
817.371	2785
817.512	2769
817.653	2861
817.793	2830
817.934	2838
818.075	2952
818.216	2979
818.356	2982
818.497	2887
818.638	2807
818.778	2807
818.919	2781
819.06	2777
819.2	2880
819.341	2792
819.481	2826
819.622	2914
819.762	3085
819.903	3001
820.043	2925
820.184	2876
820.324	2853
820.465	3013
820.605	3017
820.746	3017
820.886	2906
821.026	3097
821.167	3165
821.307	3237
821.447	3275
821.588	3260
821.728	3211
821.868	3203
822.008	3089
822.149	3214
822.289	3249
822.429	3074
822.569	3116
822.709	3135
822.849	3043
822.99	3062
823.13	3135
823.27	3195
823.41	3104
823.55	3108
823.69	3127
823.83	3188
823.97	3085
824.11	3017
824.25	2967
824.389	3062
824.529	3104
824.669	3081
824.809	3195
824.949	3264
825.089	3195
825.228	3161
825.368	3047
825.508	2948
825.648	2960
825.787	3009
825.927	3020
826.067	2929
826.206	2933
826.346	3039
826.485	3058
826.625	3127
826.765	3249
826.904	3195
827.044	2971
827.183	2941
827.323	2895
827.462	2967
827.601	2910
827.741	2906
827.88	2967
828.02	2842
828.159	2998
828.298	3062
828.437	3089
828.577	3020
828.716	3241
828.855	3062
828.994	2899
829.134	2899
829.273	2918
829.412	2857
829.551	2853
829.69	2857
829.829	2979
829.968	3108
830.107	3017
830.246	3005
830.385	2918
830.524	2853
830.663	2826
830.802	2735
830.941	2636
831.08	2640
831.219	2777
831.357	2712
831.496	2914
831.635	2727
831.774	2610
831.913	2686
832.051	2514
832.19	2568
832.329	2659
832.467	2526
832.606	2476
832.744	2583
832.883	2598
833.022	2568
833.16	2625
833.299	2632
833.437	2686
833.576	2693
833.714	2712
833.852	2716
833.991	2769
834.129	2796
834.267	2823
834.406	2766
834.544	2864
834.682	2853
834.821	2868
834.959	3051
835.097	2899
835.235	3028
835.373	2990
835.511	2956
835.65	2948
835.788	2948
835.926	2834
836.064	2777
836.202	2864
836.34	3051
836.478	3154
836.615	3055
836.753	3123
836.891	3176
837.029	3195
837.167	3123
837.305	3028
837.443	3036
837.58	2922
837.718	3112
837.856	3024
837.993	3020
838.131	3093
838.269	3085
838.406	3123
838.544	3051
838.681	2906
838.819	2922
838.956	2785
839.094	2826
839.231	2895
839.369	3017
839.506	3344
839.643	3203
839.781	2994
839.918	2963
840.055	2971
840.193	3039
840.33	3036
840.467	3062
840.604	3150
840.742	3363
840.879	3017
841.016	3032
841.153	3077
841.29	3336
841.427	3291
841.564	3253
841.701	3291
841.838	3230
841.975	3203
842.112	3211
842.249	3055
842.385	3009
842.522	3233
842.659	3066
842.796	3085
842.933	3097
843.069	3043
843.206	3017
843.343	3188
843.479	3104
843.616	3097
843.752	2902
843.889	2868
844.025	3058
844.162	2872
844.298	3058
844.435	2960
844.571	2910
844.708	3093
844.844	3165
844.98	3226
845.117	3154
845.253	2998
845.389	3013
845.525	3089
845.661	3089
845.798	3028
845.934	3123
846.07	3032
846.206	3249
846.342	3298
846.478	3192
846.614	3062
846.75	3051
846.886	3009
847.022	3245
847.158	3142
847.294	3184
847.429	3253
847.565	3192
847.701	3458
847.837	3013
847.972	2986
848.108	3165
848.244	3108
848.379	2979
848.515	2914
848.65	2944
848.786	2944
848.921	2967
849.057	3074
849.192	3135
849.328	3055
849.463	3093
849.598	3081
849.734	3028
849.869	2960
850.004	2925
850.14	3001
850.275	2876
850.41	2838
850.545	2868
850.68	2922
850.815	2956
850.95	2975
851.085	3173
851.22	3093
851.355	3024
851.49	2922
851.625	2998
851.76	3020
851.895	2910
852.03	2861
852.165	3013
852.299	3062
852.434	3188
852.569	3146
852.703	3169
852.838	3237
852.973	3317
853.107	3336
853.242	3180
853.376	3085
853.511	2960
853.645	2990
853.78	3226
853.914	3123
854.048	3089
854.183	3097
854.317	3154
854.451	3283
854.585	3089
854.72	3081
854.854	3195
854.988	3009
855.122	3070
855.256	2956
855.39	3116
855.524	3245
855.658	3169
855.792	3142
855.926	3161
856.06	3161
856.194	3233
856.327	3131
856.461	3062
856.595	3104
856.729	3100
856.862	3260
856.996	3157
857.13	3154
857.263	3233
857.397	3279
857.53	3119
857.664	3154
857.797	3230
857.931	3268
858.064	3173
858.197	3195
858.331	3085
858.464	3104
858.597	2979
858.731	3058
858.864	3116
858.997	3119
859.13	3154
859.263	3169
859.396	3203
859.529	3066
859.662	3081
859.795	3013
859.928	3116
860.061	3279
860.194	3245
860.327	3100
860.46	3070
860.592	3233
860.725	3192
860.858	3245
860.99	3108
861.123	3028
861.256	3017
861.388	3135
861.521	3892
861.653	3009
861.786	2979
861.918	2948
862.05	3039
862.183	3074
862.315	3135
862.447	3176
862.58	3062
862.712	2883
862.844	2834
862.976	2990
863.108	3017
863.24	3306
863.372	2864
863.504	2941
863.636	2922
863.768	3055
863.9	2994
864.032	2914
864.164	2922
864.296	2971
864.428	3062
864.559	3089
864.691	3024
864.823	3070
864.954	3043
865.086	3058
865.217	2986
865.349	2914
865.48	2967
865.612	2994
865.743	3169
865.875	3001
866.006	2895
866.137	2979
866.269	2956
866.4	2914
866.531	2937
866.662	2899
866.793	2876
866.924	2922
867.055	2948
867.186	2922
867.317	2864
867.448	2861
867.579	2861
867.71	2842
867.841	2800
867.972	2914
868.103	2880
868.233	2883
868.364	2857
868.495	2876
868.625	3024
868.756	3176
868.886	2956
869.017	2990
869.147	3169
869.278	3150
869.408	3066
869.539	3009
869.669	3062
869.799	3009
869.929	3100
870.06	3077
870.19	3313
870.32	3260
870.45	3294
870.58	3340
870.71	3439
870.84	3450
870.97	3287
871.1	3253
871.23	3477
871.36	3454
871.489	3329
871.619	3389
871.749	3401
871.879	3450
872.008	3454
872.138	3336
872.267	3272
872.397	3119
872.526	3070
872.656	2986
872.785	3097
872.915	3218
873.044	3351
873.173	3188
873.303	3218
873.432	3226
873.561	3199
873.69	3146
873.819	3138
873.948	3192
874.077	3104
874.206	3005
874.335	3093
874.464	3176
874.593	3370
874.722	3256
874.851	3351
874.979	3317
875.108	3355
875.237	3211
875.365	3161
875.494	3169
875.623	3211
875.751	3077
875.88	3097
876.008	3169
876.136	3180
876.265	3348
876.393	3500
876.521	3405
876.65	3355
876.778	3340
876.906	3207
877.034	3211
877.162	3214
877.29	3180
877.418	3245
877.546	3272
877.674	3214
877.802	3214
877.93	3214
878.058	3165
878.185	3097
878.313	3180
878.441	3184
878.568	3093
878.696	3119
878.824	3214
878.951	3306
879.079	3447
879.206	3614
879.333	3447
879.461	3348
879.588	3332
879.715	3511
879.842	3587
879.97	3363
880.097	3123
880.224	3100
880.351	3203
880.478	3226
880.605	3154
880.732	3135
880.859	3443
880.986	3332
881.112	3351
881.239	3203
881.366	3085
881.493	3017
881.619	3005
881.746	3077
881.872	3100
881.999	3070
882.125	3161
882.252	3226
882.378	3287
882.505	3420
882.631	3237
882.757	3119
882.883	3222
883.01	3214
883.136	3108
883.262	3093
883.388	3100
883.514	3275
883.64	3325
883.766	3283
883.892	3173
884.018	3211
884.143	3370
884.269	3504
884.395	3195
884.52	3108
884.646	3123
884.772	3123
884.897	3100
885.023	3211
885.148	3306
885.274	3389
885.399	3344
885.524	3287
885.65	3253
885.775	3325
885.9	3283
886.025	3416
886.15	3355
886.275	3294
886.4	3226
886.525	3260
886.65	3222
886.775	3230
886.9	3462
887.025	3599
887.149	3393
887.274	3260
887.399	3142
887.523	3195
887.648	3192
887.773	3157
887.897	3340
888.021	3363
888.146	3317
888.27	3367
888.395	3496
888.519	3424
888.643	3416
888.767	3504
888.891	3268
889.015	3249
889.139	3275
889.263	3199
889.387	3344
889.511	3447
889.635	3443
889.759	3283
889.883	3275
890.006	3393
890.13	3485
890.254	3245
890.377	3340
890.501	3203
890.624	3173
890.748	3310
890.871	3184
890.995	3116
891.118	3066
891.241	3165
891.364	3233
891.488	3313
891.611	3157
891.734	3211
891.857	3283
891.98	3233
892.103	3313
892.226	3287
892.349	3211
892.471	3119
892.594	3241
892.717	3264
892.839	3275
892.962	3340
893.085	3363
893.207	3317
893.33	3165
893.452	3237
893.575	3355
893.697	3230
893.819	3488
893.941	3545
894.064	3450
894.186	3268
894.308	3268
894.43	3492
894.552	3542
894.674	3454
894.796	3256
894.918	3332
895.04	3329
895.161	3466
895.283	3393
895.405	3351
895.526	3393
895.648	3481
895.769	3458
895.891	3450
896.012	3488
896.134	3500
896.255	3469
896.376	3424
896.498	3401
896.619	3477
896.74	3378
896.861	3431
896.982	3717
897.103	3850
897.224	3622
897.345	3534
897.466	3477
897.587	3595
897.708	3618
897.828	3591
897.949	3466
898.07	3374
898.19	3454
898.311	3648
898.431	3507
898.552	3572
898.672	3625
898.792	3595
898.913	3549
899.033	3469
899.153	3348
899.273	3253
899.393	3310
899.513	3355
899.633	3359
899.753	3344
899.873	3351
899.993	3386
900.113	3393
900.232	3412
900.352	3355
900.472	3321
900.591	3195
900.711	3359
900.83	3245
900.95	3469
901.069	3530
901.189	3378
901.308	3279
901.427	3138
901.546	3268
901.665	3310
901.784	3370
901.904	3272
902.023	3184
902.141	3051
902.26	3028
902.379	3157
902.498	3135
902.617	3104
902.735	3260
902.854	3283
902.973	3249
903.091	3077
903.21	3112
903.328	3157
903.446	3180
903.565	3119
903.683	3283
903.801	3180
903.919	3264
904.038	3310
904.156	3241
904.274	3329
904.392	3253
904.51	3340
904.627	3374
904.745	3424
904.863	3538
904.981	3275
905.098	3180
905.216	3230
905.334	3313
905.451	3321
905.569	3348
905.686	3469
905.803	3454
905.921	3317
906.038	3477
906.155	3348
906.272	3306
906.389	3424
906.506	3256
906.623	3275
906.74	3298
906.857	3211
906.974	3283
907.091	3454
907.208	3606
907.324	3496
907.441	3393
907.557	3226
907.674	3253
907.79	3268
907.907	3317
908.023	3416
908.139	3420
908.256	3329
908.372	3378
908.488	3386
908.604	3294
908.72	3241
908.836	3340
908.952	3317
909.068	3382
909.184	3496
909.3	3431
909.415	3515
909.531	3481
909.647	3325
909.762	3294
909.878	3321
909.993	3355
910.108	3363
910.224	3363
910.339	3428
910.454	3359
910.57	3306
910.685	3279
910.8	3633
910.915	3591
911.03	3454
911.145	3298
911.259	3325
911.374	3386
911.489	3272
911.604	3268
911.718	3222
911.833	3169
911.947	3055
912.062	3039
912.176	3199
912.291	3268
912.405	3237
912.519	3485
912.633	3534
912.748	3386
912.862	3302
912.976	3180
913.09	3085
913.204	3169
913.318	3245
913.431	3374
913.545	3336
913.659	3450
913.772	3348
913.886	3237
914	3283
914.113	3393
914.226	3469
914.34	3424
914.453	3230
914.566	3466
914.68	3313
914.793	3329
914.906	3169
915.019	3154
915.132	3104
915.245	3199
915.358	3245
915.47	3302
915.583	3306
915.696	3336
915.809	3428
915.921	3416
916.034	3249
916.146	3279
916.259	3245
916.371	3382
916.483	3397
916.595	3306
916.708	3389
916.82	3374
916.932	3359
917.044	3386
917.156	3428
917.268	3287
917.38	3298
917.491	3340
917.603	3348
917.715	3473
917.826	3466
917.938	3431
918.049	3294
918.161	3481
918.272	3564
918.384	3606
918.495	3492
918.606	3344
918.717	3332
918.828	3435
918.939	3469
919.05	3325
919.161	3405
919.272	3233
919.383	3272
919.494	3530
919.604	3675
919.715	3515
919.826	3412
919.936	3496
920.047	3633
920.157	3549
920.267	3789
920.378	3656
920.488	3587
920.598	3800
920.708	3949
920.818	3884
920.928	3869
921.038	4097
921.148	4025
921.258	3751
921.368	3629
921.477	3610
921.587	3534
921.697	3473
921.806	3663
921.916	3580
922.025	3340
922.134	3378
922.244	3317
922.353	3439
922.462	3302
922.571	3260
922.68	3157
922.789	3108
922.898	3203
923.007	3123
923.116	3218
923.224	3207
923.333	3233
923.442	3138
923.55	3119
923.659	3161
923.767	3218
923.876	3131
923.984	3264
924.092	3123
924.201	3245
924.309	3260
924.417	3260
924.525	3230
924.633	3256
924.741	4185
924.849	3097
924.956	3313
925.064	3100
925.172	3039
925.279	3131
925.387	3195
925.494	3249
925.602	3412
925.709	3389
925.816	3188
925.924	3294
926.031	3409
926.138	3348
926.245	3374
926.352	3264
926.459	3409
926.566	3519
926.673	3336
926.779	3283
926.886	3306
926.993	3135
927.099	3119
927.206	3157
927.312	3131
927.419	3233
927.525	3222
927.631	3291
927.737	3173
927.843	3142
927.95	3036
928.056	3146
928.162	3184
928.267	3291
928.373	3770
928.479	3313
928.585	3070
928.69	3226
928.796	3332
928.901	3176
929.007	3058
929.112	3233
929.218	3226
929.323	3176
929.428	3138
929.533	3344
929.638	3135
929.743	3207
929.848	3279
929.953	3222
930.058	3150
930.163	3039
930.267	3097
930.372	3237
930.477	3070
930.581	3336
930.685	3199
930.79	3058
930.894	3135
930.998	3074
931.103	3283
931.207	2963
931.311	2967
931.415	2937
931.519	2811
931.623	2834
