Data from test_V78500241_2031.txt Node
Date: Fri Mar 25 16:29:16 CST 2022
User: usil
Spectrometer: V785-0024
Trigger mode: 0
Integration Time (sec): 4.000000E-1
Scans to average: 1
Nonlinearity correction enabled: false
Boxcar width: 0
Storing dark spectrum: false
XAxis mode: Wavelengths
Number of Pixels in Spectrum: 1024
>>>>>Begin Spectral Data<<<<<
801.071	2883
801.214	2944
801.356	2872
801.499	2918
801.641	2861
801.783	2963
801.926	3039
802.068	2952
802.211	3039
802.353	3032
802.496	2982
802.638	2998
802.78	3017
802.923	3066
803.065	2990
803.208	2902
803.35	2910
803.492	2922
803.635	2925
803.777	2735
803.919	2857
804.061	3184
804.204	2979
804.346	2910
804.488	2819
804.63	2994
804.773	2872
804.915	2887
805.057	3055
805.199	2914
805.341	3001
805.483	3036
805.626	2986
805.768	2929
805.91	3119
806.052	3039
806.194	3013
806.336	3241
806.478	3032
806.62	2990
806.762	2979
806.904	3074
807.046	3157
807.188	2979
807.33	2895
807.472	3009
807.614	2937
807.756	2971
807.898	2910
808.04	2842
808.182	2952
808.324	2952
808.465	2872
808.607	2876
808.749	2796
808.891	2857
809.033	2948
809.174	2967
809.316	2880
809.458	2868
809.6	2758
809.741	2739
809.883	2788
810.025	2849
810.166	2815
810.308	2826
810.45	2876
810.591	2766
810.733	2773
810.875	2857
811.016	2758
811.158	2754
811.299	2807
811.441	2933
811.582	2902
811.724	2811
811.865	2834
812.007	2914
812.148	2880
812.29	2815
812.431	2902
812.573	2914
812.714	2944
812.855	3039
812.997	3070
813.138	3116
813.279	2971
813.421	2986
813.562	2975
813.703	2891
813.845	2834
813.986	2773
814.127	2735
814.268	2815
814.41	2788
814.551	2826
814.692	2880
814.833	2785
814.974	2872
815.115	2918
815.256	2800
815.397	2800
815.539	2853
815.68	2754
815.821	2792
815.962	2929
816.103	2914
816.244	2883
816.385	2880
816.526	2979
816.666	2887
816.807	2724
816.948	2929
817.089	2906
817.23	2857
817.371	2746
817.512	2777
817.653	2811
817.793	2807
817.934	2876
818.075	2960
818.216	2986
818.356	3017
818.497	2895
818.638	2796
818.778	2815
818.919	2785
819.06	2766
819.2	2853
819.341	2800
819.481	2792
819.622	2956
819.762	3074
819.903	3024
820.043	2906
820.184	2883
820.324	2853
820.465	2998
820.605	2994
820.746	3009
820.886	2887
821.026	3119
821.167	3161
821.307	3226
821.447	3298
821.588	3241
821.728	3184
821.868	3165
822.008	3039
822.149	3195
822.289	3184
822.429	3081
822.569	3043
822.709	3184
822.849	3028
822.99	3070
823.13	3131
823.27	3188
823.41	3104
823.55	3131
823.69	3131
823.83	3230
823.97	3085
824.11	2994
824.25	2975
824.389	3062
824.529	3100
824.669	3005
824.809	3180
824.949	3249
825.089	3253
825.228	3161
825.368	2998
825.508	2948
825.648	2952
825.787	2994
825.927	3028
826.067	2960
826.206	2960
826.346	3085
826.485	3112
826.625	3097
826.765	3287
826.904	3207
827.044	2971
827.183	2922
827.323	2838
827.462	2971
827.601	2899
827.741	2902
827.88	2922
828.02	2880
828.159	2963
828.298	3043
828.437	3154
828.577	2967
828.716	3256
828.855	3077
828.994	2914
829.134	2864
829.273	2929
829.412	2868
829.551	2876
829.69	2887
829.829	2990
829.968	3093
830.107	3020
830.246	3017
830.385	2883
830.524	2864
830.663	2834
830.802	2727
830.941	2629
831.08	2655
831.219	2758
831.357	2750
831.496	2941
831.635	2724
831.774	2651
831.913	2636
832.051	2499
832.19	2545
832.329	2693
832.467	2545
832.606	2514
832.744	2575
832.883	2530
833.022	2606
833.16	2640
833.299	2682
833.437	2697
833.576	2705
833.714	2727
833.852	2720
833.991	2731
834.129	2830
834.267	2826
834.406	2766
834.544	2883
834.682	2845
834.821	2868
834.959	3062
835.097	2880
835.235	3032
835.373	3005
835.511	3017
835.65	2941
835.788	2937
835.926	2834
836.064	2811
836.202	2796
836.34	3081
836.478	3146
836.615	3017
836.753	3135
836.891	3199
837.029	3157
837.167	3100
837.305	3036
837.443	3024
837.58	2914
837.718	3108
837.856	3062
837.993	3005
838.131	3070
838.269	3077
838.406	3066
838.544	3081
838.681	2933
838.819	2872
838.956	2800
839.094	2788
839.231	2918
839.369	2998
839.506	3359
839.643	3192
839.781	2994
839.918	2925
840.055	3043
840.193	2998
840.33	3047
840.467	3135
840.604	3165
840.742	3405
840.879	3020
841.016	2998
841.153	3131
841.29	3317
841.427	3272
841.564	3241
841.701	3306
841.838	3180
841.975	3180
842.112	3199
842.249	3066
842.385	3032
842.522	3211
842.659	3104
842.796	3047
842.933	3062
843.069	3028
843.206	3001
843.343	3188
843.479	3047
843.616	3123
843.752	2887
843.889	2891
844.025	3055
844.162	2853
844.298	3081
844.435	2952
844.571	2906
844.708	3070
844.844	3161
844.98	3188
845.117	3184
845.253	3055
845.389	3009
845.525	3100
845.661	3081
845.798	3020
845.934	3081
846.07	3058
846.206	3253
846.342	3291
846.478	3211
846.614	3093
846.75	3043
846.886	2963
847.022	3245
847.158	3123
847.294	3176
847.429	3222
847.565	3157
847.701	3481
847.837	2998
847.972	2963
848.108	3119
848.244	3150
848.379	2960
848.515	2918
848.65	2918
848.786	2979
848.921	2990
849.057	3081
849.192	3138
849.328	3055
849.463	3127
849.598	3028
849.734	3032
849.869	2963
850.004	2891
850.14	2963
850.275	2891
850.41	2807
850.545	2834
850.68	2906
850.815	2986
850.95	2925
851.085	3176
851.22	3104
851.355	3032
851.49	3009
851.625	2998
851.76	2982
851.895	2891
852.03	2883
852.165	3039
852.299	3066
852.434	3165
852.569	3119
852.703	3154
852.838	3260
852.973	3355
853.107	3359
853.242	3146
853.376	3074
853.511	2990
853.645	3036
853.78	3222
853.914	3112
854.048	3058
854.183	3051
854.317	3138
854.451	3287
854.585	3066
854.72	3074
854.854	3195
854.988	3074
855.122	3074
855.256	2979
855.39	3112
855.524	3245
855.658	3169
855.792	3165
855.926	3180
856.06	3192
856.194	3260
856.327	3127
856.461	3039
856.595	3074
856.729	3062
856.862	3241
856.996	3150
857.13	3157
857.263	3264
857.397	3233
857.53	3100
857.664	3173
857.797	3245
857.931	3249
858.064	3138
858.197	3195
858.331	3116
858.464	3058
858.597	3013
858.731	3097
858.864	3089
858.997	3085
859.13	3123
859.263	3157
859.396	3188
859.529	3051
859.662	3055
859.795	3039
859.928	3119
860.061	3275
860.194	3241
860.327	3104
860.46	3043
860.592	3256
860.725	3184
860.858	3245
860.99	3085
861.123	3039
861.256	3043
861.388	3157
861.521	3797
861.653	3020
861.786	2990
861.918	2986
862.05	3028
862.183	3081
862.315	3104
862.447	3176
862.58	3055
862.712	2902
862.844	2845
862.976	2998
863.108	2979
863.24	3302
863.372	2895
863.504	2925
863.636	2906
863.768	3017
863.9	2979
864.032	2906
864.164	2929
864.296	3013
864.428	3097
864.559	3097
864.691	3077
864.823	3089
864.954	3066
865.086	3024
865.217	3005
865.349	2967
865.48	2982
865.612	3066
865.743	3157
865.875	2956
866.006	2960
866.137	2979
866.269	2971
866.4	2956
866.531	2948
866.662	2914
866.793	2902
866.924	2910
867.055	2967
867.186	2933
867.317	2929
867.448	2849
867.579	2887
867.71	2864
867.841	2834
867.972	2937
868.103	2925
868.233	2910
868.364	2895
868.495	2910
868.625	3161
868.756	3218
868.886	3028
869.017	3032
869.147	3188
869.278	3154
869.408	3058
869.539	3074
869.669	3161
869.799	3112
869.929	3214
870.06	3142
870.19	3367
870.32	3298
870.45	3359
870.58	3435
870.71	3500
870.84	3454
870.97	3313
871.1	3272
871.23	3519
871.36	3504
871.489	3363
871.619	3431
871.749	3439
871.879	3466
872.008	3496
872.138	3370
872.267	3351
872.397	3222
872.526	3123
872.656	3005
872.785	3203
872.915	3275
873.044	3317
873.173	3241
873.303	3268
873.432	3260
873.561	3256
873.69	3203
873.819	3173
873.948	3199
874.077	3146
874.206	3066
874.335	3135
874.464	3294
874.593	3336
874.722	3264
874.851	3416
874.979	3348
875.108	3382
875.237	3222
875.365	3180
875.494	3180
875.623	3298
875.751	3142
875.88	3135
876.008	3211
876.136	3291
876.265	3401
876.393	3542
876.521	3450
876.65	3386
876.778	3401
876.906	3283
877.034	3207
877.162	3260
877.29	3249
877.418	3291
877.546	3279
877.674	3237
877.802	3237
877.93	3272
878.058	3195
878.185	3146
878.313	3226
878.441	3237
878.568	3131
878.696	3192
878.824	3214
878.951	3329
879.079	3458
879.206	3648
879.333	3473
879.461	3382
879.588	3389
879.715	3504
879.842	3610
879.97	3386
880.097	3180
880.224	3157
880.351	3199
880.478	3218
880.605	3241
880.732	3211
880.859	3488
880.986	3348
881.112	3359
881.239	3237
881.366	3142
881.493	3070
881.619	3051
881.746	3077
881.872	3123
881.999	3131
882.125	3237
882.252	3249
882.378	3344
882.505	3443
882.631	3325
882.757	3199
882.883	3226
883.01	3249
883.136	3188
883.262	3112
883.388	3127
883.514	3348
883.64	3420
883.766	3344
883.892	3218
884.018	3275
884.143	3435
884.269	3591
884.395	3237
884.52	3203
884.646	3233
884.772	3154
884.897	3085
885.023	3253
885.148	3340
885.274	3416
885.399	3386
885.524	3344
885.65	3268
885.775	3336
885.9	3287
886.025	3473
886.15	3397
886.275	3310
886.4	3279
886.525	3344
886.65	3279
886.775	3310
886.9	3511
887.025	3671
887.149	3412
887.274	3256
887.399	3222
887.523	3199
887.648	3222
887.773	3226
887.897	3401
888.021	3405
888.146	3294
888.27	3462
888.395	3580
888.519	3515
888.643	3477
888.767	3492
888.891	3351
889.015	3260
889.139	3351
889.263	3253
889.387	3443
889.511	3519
889.635	3504
889.759	3294
889.883	3306
890.006	3416
890.13	3504
890.254	3268
890.377	3355
890.501	3241
890.624	3199
890.748	3336
890.871	3195
890.995	3169
891.118	3089
891.241	3230
891.364	3237
891.488	3317
891.611	3211
891.734	3222
891.857	3344
891.98	3283
892.103	3336
892.226	3325
892.349	3241
892.471	3150
892.594	3294
892.717	3294
892.839	3279
892.962	3325
893.085	3370
893.207	3336
893.33	3169
893.452	3233
893.575	3351
893.697	3283
893.819	3519
893.941	3530
894.064	3481
894.186	3325
894.308	3253
894.43	3469
894.552	3572
894.674	3481
894.796	3325
894.918	3370
895.04	3355
895.161	3431
895.283	3397
895.405	3336
895.526	3378
895.648	3485
895.769	3443
895.891	3504
896.012	3496
896.134	3496
896.255	3416
896.376	3405
896.498	3401
896.619	3450
896.74	3389
896.861	3397
896.982	3724
897.103	3854
897.224	3599
897.345	3530
897.466	3439
897.587	3545
897.708	3591
897.828	3606
897.949	3454
898.07	3367
898.19	3496
898.311	3625
898.431	3473
898.552	3519
898.672	3591
898.792	3629
898.913	3534
899.033	3469
899.153	3294
899.273	3230
899.393	3340
899.513	3355
899.633	3325
899.753	3348
899.873	3325
899.993	3397
900.113	3325
900.232	3401
900.352	3397
900.472	3317
900.591	3207
900.711	3329
900.83	3264
900.95	3412
901.069	3511
901.189	3386
901.308	3203
901.427	3161
901.546	3245
901.665	3287
901.784	3378
901.904	3218
902.023	3165
902.141	3020
902.26	3005
902.379	3180
902.498	3081
902.617	3070
902.735	3222
902.854	3291
902.973	3249
903.091	3077
903.21	3081
903.328	3173
903.446	3116
903.565	3119
903.683	3188
903.801	3119
903.919	3233
904.038	3306
904.156	3184
904.274	3283
904.392	3272
904.51	3294
904.627	3367
904.745	3435
904.863	3458
904.981	3283
905.098	3264
905.216	3230
905.334	3287
905.451	3351
905.569	3348
905.686	3443
905.803	3485
905.921	3348
906.038	3439
906.155	3416
906.272	3298
906.389	3370
906.506	3264
906.623	3256
906.74	3321
906.857	3207
906.974	3325
907.091	3496
907.208	3553
907.324	3450
907.441	3420
907.557	3272
907.674	3241
907.79	3233
907.907	3317
908.023	3370
908.139	3363
908.256	3317
908.372	3386
908.488	3374
908.604	3275
908.72	3214
908.836	3332
908.952	3287
909.068	3355
909.184	3515
909.3	3424
909.415	3557
909.531	3469
909.647	3294
909.762	3325
909.878	3294
909.993	3386
910.108	3367
910.224	3351
910.339	3397
910.454	3310
910.57	3310
910.685	3283
910.8	3591
910.915	3534
911.03	3454
911.145	3332
911.259	3275
911.374	3359
911.489	3264
911.604	3287
911.718	3116
911.833	3180
911.947	3062
912.062	3039
912.176	3203
912.291	3188
912.405	3230
912.519	3469
912.633	3488
912.748	3397
912.862	3298
912.976	3169
913.09	3089
913.204	3169
913.318	3260
913.431	3367
913.545	3367
913.659	3389
913.772	3344
913.886	3226
914	3245
914.113	3374
914.226	3416
914.34	3344
914.453	3241
914.566	3431
914.68	3321
914.793	3332
914.906	3169
915.019	3165
915.132	3089
915.245	3192
915.358	3241
915.47	3214
915.583	3256
915.696	3325
915.809	3405
915.921	3416
916.034	3294
916.146	3264
916.259	3233
916.371	3378
916.483	3374
916.595	3264
916.708	3313
916.82	3306
916.932	3321
917.044	3382
917.156	3363
917.268	3241
917.38	3310
917.491	3321
917.603	3412
917.715	3443
917.826	3447
917.938	3416
918.049	3306
918.161	3454
918.272	3584
918.384	3591
918.495	3545
918.606	3393
918.717	3287
918.828	3393
918.939	3447
919.05	3306
919.161	3378
919.272	3180
919.383	3291
919.494	3496
919.604	3694
919.715	3462
919.826	3416
919.936	3485
920.047	3568
920.157	3564
920.267	3823
920.378	3622
920.488	3576
920.598	3846
920.708	3972
920.818	3812
920.928	3804
921.038	4048
921.148	4040
921.258	3743
921.368	3629
921.477	3625
921.587	3599
921.697	3485
921.806	3648
921.916	3515
922.025	3374
922.134	3386
922.244	3329
922.353	3466
922.462	3302
922.571	3260
922.68	3150
922.789	3074
922.898	3154
923.007	3123
923.116	3253
923.224	3203
923.333	3203
923.442	3123
923.55	3108
923.659	3157
923.767	3218
923.876	3146
923.984	3302
924.092	3123
924.201	3199
924.309	3214
924.417	3264
924.525	3188
924.633	3214
924.741	4200
924.849	3066
924.956	3256
925.064	3058
925.172	3032
925.279	3085
925.387	3226
925.494	3203
925.602	3348
925.709	3329
925.816	3249
925.924	3313
926.031	3412
926.138	3336
926.245	3382
926.352	3298
926.459	3450
926.566	3458
926.673	3332
926.779	3237
926.886	3268
926.993	3131
927.099	3116
927.206	3119
927.312	3138
927.419	3233
927.525	3245
927.631	3264
927.737	3165
927.843	3135
927.95	3058
928.056	3146
928.162	3192
928.267	3249
928.373	3869
928.479	3321
928.585	3043
928.69	3245
928.796	3291
928.901	3214
929.007	3055
929.112	3233
929.218	3150
929.323	3150
929.428	3161
929.533	3287
929.638	3146
929.743	3173
929.848	3260
929.953	3173
930.058	3123
930.163	3020
930.267	3070
930.372	3165
930.477	3055
930.581	3291
930.685	3161
930.79	3104
930.894	3203
930.998	3116
931.103	3306
931.207	2933
931.311	2963
931.415	2902
931.519	2758
931.623	2830
