Data from test_V78500241_1871.txt Node
Date: Fri Mar 25 16:28:09 CST 2022
User: usil
Spectrometer: V785-0024
Trigger mode: 0
Integration Time (sec): 4.000000E-1
Scans to average: 1
Nonlinearity correction enabled: false
Boxcar width: 0
Storing dark spectrum: false
XAxis mode: Wavelengths
Number of Pixels in Spectrum: 1024
>>>>>Begin Spectral Data<<<<<
801.071	2933
801.214	2948
801.356	2834
801.499	2895
801.641	2899
801.783	2918
801.926	3017
802.068	2956
802.211	3032
802.353	3039
802.496	2971
802.638	3089
802.78	3051
802.923	3097
803.065	3020
803.208	2941
803.35	2948
803.492	2948
803.635	2963
803.777	2788
803.919	2891
804.061	3211
804.204	2971
804.346	2941
804.488	2861
804.63	3001
804.773	2868
804.915	2979
805.057	3127
805.199	2925
805.341	2994
805.483	3051
805.626	3009
805.768	2975
805.91	3093
806.052	3108
806.194	3055
806.336	3230
806.478	3055
806.62	2952
806.762	3001
806.904	3081
807.046	3176
807.188	2967
807.33	2922
807.472	3032
807.614	2933
807.756	3055
807.898	2929
808.04	2925
808.182	2998
808.324	2994
808.465	2925
808.607	2895
808.749	2804
808.891	2849
809.033	2990
809.174	3013
809.316	2914
809.458	2918
809.6	2788
809.741	2792
809.883	2811
810.025	2872
810.166	2861
810.308	2842
810.45	2834
810.591	2811
810.733	2792
810.875	2868
811.016	2781
811.158	2823
811.299	2868
811.441	2971
811.582	2899
811.724	2868
811.865	2853
812.007	2986
812.148	2883
812.29	2853
812.431	2902
812.573	2986
812.714	2979
812.855	3058
812.997	3055
813.138	3127
813.279	3009
813.421	2986
813.562	2948
813.703	2891
813.845	2937
813.986	2796
814.127	2766
814.268	2830
814.41	2872
814.551	2819
814.692	2883
814.833	2811
814.974	2944
815.115	2960
815.256	2872
815.397	2830
815.539	2902
815.68	2804
815.821	2823
815.962	2937
816.103	2967
816.244	2876
816.385	2910
816.526	3001
816.666	2929
816.807	2743
816.948	2864
817.089	2929
817.23	2872
817.371	2766
817.512	2815
817.653	2842
817.793	2842
817.934	2918
818.075	2998
818.216	3020
818.356	3047
818.497	2906
818.638	2792
818.778	2815
818.919	2815
819.06	2746
819.2	2868
819.341	2834
819.481	2823
819.622	2963
819.762	3116
819.903	3055
820.043	2933
820.184	2902
820.324	2941
820.465	3001
820.605	3024
820.746	3024
820.886	2963
821.026	3097
821.167	3226
821.307	3268
821.447	3291
821.588	3218
821.728	3226
821.868	3226
822.008	3097
822.149	3173
822.289	3272
822.429	3093
822.569	3097
822.709	3165
822.849	3055
822.99	3108
823.13	3176
823.27	3222
823.41	3085
823.55	3184
823.69	3165
823.83	3154
823.97	3085
824.11	2994
824.25	3001
824.389	3104
824.529	3116
824.669	3077
824.809	3237
824.949	3306
825.089	3222
825.228	3176
825.368	3013
825.508	2979
825.648	2967
825.787	3074
825.927	3055
826.067	2994
826.206	2960
826.346	3077
826.485	3081
826.625	3165
826.765	3256
826.904	3218
827.044	3028
827.183	2925
827.323	2857
827.462	2990
827.601	2914
827.741	2944
827.88	2979
828.02	2887
828.159	2982
828.298	3043
828.437	3142
828.577	3074
828.716	3260
828.855	3074
828.994	2990
829.134	2880
829.273	2918
829.412	2883
829.551	2864
829.69	2906
829.829	3024
829.968	3169
830.107	3032
830.246	3032
830.385	2948
830.524	2883
830.663	2830
830.802	2705
830.941	2644
831.08	2640
831.219	2758
831.357	2758
831.496	3001
831.635	2716
831.774	2670
831.913	2648
832.051	2526
832.19	2617
832.329	2667
832.467	2537
832.606	2514
832.744	2579
832.883	2602
833.022	2575
833.16	2659
833.299	2693
833.437	2731
833.576	2686
833.714	2739
833.852	2727
833.991	2785
834.129	2864
834.267	2826
834.406	2777
834.544	2883
834.682	2887
834.821	2883
834.959	3051
835.097	2899
835.235	3055
835.373	2979
835.511	3058
835.65	2960
835.788	2967
835.926	2834
836.064	2849
836.202	2857
836.34	3051
836.478	3119
836.615	3047
836.753	3146
836.891	3214
837.029	3195
837.167	3104
837.305	3085
837.443	3047
837.58	2948
837.718	3157
837.856	3081
837.993	3051
838.131	3127
838.269	3127
838.406	3119
838.544	3104
838.681	2975
838.819	2929
838.956	2819
839.094	2887
839.231	2941
839.369	2994
839.506	3370
839.643	3279
839.781	3066
839.918	2956
840.055	3074
840.193	3081
840.33	3093
840.467	3104
840.604	3157
840.742	3397
840.879	3081
841.016	3032
841.153	3131
841.29	3367
841.427	3298
841.564	3249
841.701	3325
841.838	3268
841.975	3157
842.112	3253
842.249	3077
842.385	3047
842.522	3272
842.659	3112
842.796	3058
842.933	3085
843.069	3051
843.206	3051
843.343	3165
843.479	3089
843.616	3176
843.752	2887
843.889	2868
844.025	3093
844.162	2910
844.298	3085
844.435	2925
844.571	2895
844.708	3077
844.844	3180
844.98	3253
845.117	3214
845.253	3047
845.389	3009
845.525	3108
845.661	3119
845.798	3020
845.934	3135
846.07	3032
846.206	3203
846.342	3321
846.478	3260
846.614	3104
846.75	3066
846.886	3074
847.022	3283
847.158	3135
847.294	3165
847.429	3256
847.565	3237
847.701	3481
847.837	3001
847.972	2998
848.108	3154
848.244	3192
848.379	3005
848.515	2910
848.65	2902
848.786	2960
848.921	3024
849.057	3097
849.192	3161
849.328	3127
849.463	3119
849.598	3077
849.734	2990
849.869	2948
850.004	2925
850.14	2971
850.275	2902
850.41	2849
850.545	2922
850.68	2937
850.815	2967
850.95	2971
851.085	3226
851.22	3112
851.355	3047
851.49	2979
851.625	3039
851.76	3032
851.895	2952
852.03	2948
852.165	3066
852.299	3119
852.434	3207
852.569	3188
852.703	3256
852.838	3253
852.973	3363
853.107	3363
853.242	3165
853.376	3093
853.511	3013
853.645	3089
853.78	3253
853.914	3150
854.048	3161
854.183	3100
854.317	3176
854.451	3340
854.585	3214
854.72	3161
854.854	3306
854.988	3085
855.122	3108
855.256	2998
855.39	3100
855.524	3272
855.658	3195
855.792	3180
855.926	3207
856.06	3253
856.194	3279
856.327	3199
856.461	3116
856.595	3127
856.729	3142
856.862	3214
856.996	3184
857.13	3199
857.263	3291
857.397	3317
857.53	3142
857.664	3249
857.797	3294
857.931	3237
858.064	3241
858.197	3287
858.331	3173
858.464	3119
858.597	3043
858.731	3116
858.864	3157
858.997	3142
859.13	3154
859.263	3211
859.396	3253
859.529	3123
859.662	3135
859.795	3070
859.928	3192
860.061	3325
860.194	3329
860.327	3142
860.46	3131
860.592	3279
860.725	3253
860.858	3268
860.99	3165
861.123	3093
861.256	3097
861.388	3195
861.521	3857
861.653	3081
861.786	3001
861.918	3001
862.05	3093
862.183	3127
862.315	3180
862.447	3203
862.58	3116
862.712	3013
862.844	2910
862.976	3051
863.108	3028
863.24	3329
863.372	2914
863.504	3009
863.636	3032
863.768	3081
863.9	3039
864.032	2937
864.164	3009
864.296	3036
864.428	3142
864.559	3131
864.691	3112
864.823	3089
864.954	3062
865.086	3089
865.217	2998
865.349	2979
865.48	3009
865.612	3062
865.743	3195
865.875	3055
866.006	3001
866.137	2990
866.269	2963
866.4	2963
866.531	2956
866.662	2960
866.793	2906
866.924	2925
867.055	2994
867.186	2975
867.317	2880
867.448	2842
867.579	2868
867.71	2864
867.841	2880
867.972	2925
868.103	2922
868.233	2929
868.364	2891
868.495	2914
868.625	3119
868.756	3211
868.886	3001
869.017	3032
869.147	3195
869.278	3195
869.408	3066
869.539	3039
869.669	3112
869.799	3062
869.929	3157
870.06	3142
870.19	3351
870.32	3317
870.45	3332
870.58	3367
870.71	3500
870.84	3519
870.97	3363
871.1	3237
871.23	3500
871.36	3481
871.489	3401
871.619	3405
871.749	3405
871.879	3435
872.008	3523
872.138	3374
872.267	3321
872.397	3161
872.526	3119
872.656	3055
872.785	3108
872.915	3260
873.044	3294
873.173	3237
873.303	3298
873.432	3253
873.561	3256
873.69	3203
873.819	3157
873.948	3237
874.077	3138
874.206	3013
874.335	3131
874.464	3253
874.593	3378
874.722	3268
874.851	3447
874.979	3393
875.108	3363
875.237	3199
875.365	3199
875.494	3173
875.623	3272
875.751	3100
875.88	3150
876.008	3214
876.136	3249
876.265	3397
876.393	3523
876.521	3431
876.65	3412
876.778	3355
876.906	3294
877.034	3184
877.162	3294
877.29	3211
877.418	3291
877.546	3294
877.674	3302
877.802	3256
877.93	3226
878.058	3207
878.185	3112
878.313	3211
878.441	3249
878.568	3104
878.696	3169
878.824	3237
878.951	3344
879.079	3473
879.206	3614
879.333	3466
879.461	3355
879.588	3370
879.715	3504
879.842	3660
879.97	3401
880.097	3207
880.224	3142
880.351	3207
880.478	3233
880.605	3253
880.732	3203
880.859	3523
880.986	3306
881.112	3363
881.239	3214
881.366	3127
881.493	3066
881.619	3051
881.746	3093
881.872	3112
881.999	3112
882.125	3176
882.252	3256
882.378	3310
882.505	3466
882.631	3329
882.757	3180
882.883	3218
883.01	3291
883.136	3222
883.262	3131
883.388	3135
883.514	3310
883.64	3393
883.766	3332
883.892	3226
884.018	3249
884.143	3412
884.269	3568
884.395	3237
884.52	3184
884.646	3245
884.772	3173
884.897	3123
885.023	3237
885.148	3389
885.274	3454
885.399	3397
885.524	3306
885.65	3283
885.775	3332
885.9	3325
886.025	3485
886.15	3378
886.275	3336
886.4	3275
886.525	3329
886.65	3249
886.775	3287
886.9	3538
887.025	3637
887.149	3420
887.274	3287
887.399	3184
887.523	3203
887.648	3211
887.773	3253
887.897	3378
888.021	3435
888.146	3287
888.27	3466
888.395	3553
888.519	3435
888.643	3481
888.767	3462
888.891	3317
889.015	3294
889.139	3321
889.263	3291
889.387	3424
889.511	3496
889.635	3458
889.759	3344
889.883	3302
890.006	3409
890.13	3511
890.254	3268
890.377	3370
890.501	3260
890.624	3207
890.748	3306
890.871	3211
890.995	3131
891.118	3127
891.241	3245
891.364	3260
891.488	3332
891.611	3188
891.734	3245
891.857	3348
891.98	3256
892.103	3340
892.226	3310
892.349	3256
892.471	3135
892.594	3249
892.717	3264
892.839	3260
892.962	3291
893.085	3393
893.207	3306
893.33	3184
893.452	3203
893.575	3310
893.697	3245
893.819	3469
893.941	3511
894.064	3443
894.186	3264
894.308	3283
894.43	3450
894.552	3561
894.674	3485
894.796	3298
894.918	3340
895.04	3344
895.161	3439
895.283	3386
895.405	3275
895.526	3401
895.648	3439
895.769	3420
895.891	3477
896.012	3530
896.134	3488
896.255	3405
896.376	3386
896.498	3401
896.619	3447
896.74	3336
896.861	3393
896.982	3717
897.103	3823
897.224	3603
897.345	3488
897.466	3462
897.587	3488
897.708	3648
897.828	3614
897.949	3466
898.07	3344
898.19	3447
898.311	3663
898.431	3447
898.552	3545
898.672	3603
898.792	3606
898.913	3473
899.033	3401
899.153	3291
899.273	3256
899.393	3298
899.513	3336
899.633	3313
899.753	3355
899.873	3329
899.993	3397
900.113	3348
900.232	3420
900.352	3397
900.472	3317
900.591	3249
900.711	3275
900.83	3249
900.95	3401
901.069	3515
901.189	3420
901.308	3176
901.427	3131
901.546	3161
901.665	3329
901.784	3329
901.904	3222
902.023	3127
902.141	2990
902.26	3001
902.379	3142
902.498	3104
902.617	3089
902.735	3218
902.854	3264
902.973	3214
903.091	3062
903.21	3085
903.328	3146
903.446	3150
903.565	3119
903.683	3218
903.801	3085
903.919	3279
904.038	3287
904.156	3192
904.274	3302
904.392	3275
904.51	3279
904.627	3355
904.745	3447
904.863	3488
904.981	3264
905.098	3161
905.216	3256
905.334	3332
905.451	3275
905.569	3332
905.686	3428
905.803	3439
905.921	3287
906.038	3458
906.155	3363
906.272	3287
906.389	3313
906.506	3268
906.623	3302
906.74	3287
906.857	3222
906.974	3279
907.091	3450
907.208	3542
907.324	3477
907.441	3382
907.557	3264
907.674	3268
907.79	3233
907.907	3313
908.023	3351
908.139	3420
908.256	3340
908.372	3405
908.488	3340
908.604	3253
908.72	3264
908.836	3264
908.952	3275
909.068	3317
909.184	3534
909.3	3412
909.415	3526
909.531	3454
909.647	3298
909.762	3283
909.878	3275
909.993	3351
910.108	3367
910.224	3317
910.339	3454
910.454	3397
910.57	3329
910.685	3241
910.8	3603
910.915	3584
911.03	3454
911.145	3279
911.259	3291
911.374	3351
911.489	3207
911.604	3279
911.718	3135
911.833	3146
911.947	3066
912.062	3013
912.176	3157
912.291	3195
912.405	3214
912.519	3428
912.633	3477
912.748	3332
912.862	3321
912.976	3154
913.09	3081
913.204	3131
913.318	3237
913.431	3344
913.545	3340
913.659	3416
913.772	3321
913.886	3207
914	3203
914.113	3382
914.226	3420
914.34	3359
914.453	3222
914.566	3348
914.68	3302
914.793	3344
914.906	3146
915.019	3112
915.132	3104
915.245	3173
915.358	3241
915.47	3253
915.583	3302
915.696	3317
915.809	3386
915.921	3473
916.034	3287
916.146	3260
916.259	3195
916.371	3386
916.483	3355
916.595	3249
916.708	3393
916.82	3355
916.932	3355
917.044	3367
917.156	3359
917.268	3230
917.38	3272
917.491	3306
917.603	3374
917.715	3454
917.826	3481
917.938	3397
918.049	3268
918.161	3420
918.272	3580
918.384	3584
918.495	3481
918.606	3306
918.717	3268
918.828	3344
918.939	3416
919.05	3291
919.161	3370
919.272	3135
919.383	3298
919.494	3496
919.604	3743
919.715	3530
919.826	3443
919.936	3477
920.047	3584
920.157	3561
920.267	3770
920.378	3591
920.488	3545
920.598	3759
920.708	3991
920.818	3861
920.928	3835
921.038	4048
921.148	3998
921.258	3686
921.368	3599
921.477	3610
921.587	3568
921.697	3488
921.806	3622
921.916	3519
922.025	3386
922.134	3370
922.244	3317
922.353	3412
922.462	3291
922.571	3218
922.68	3097
922.789	3100
922.898	3180
923.007	3116
923.116	3245
923.224	3123
923.333	3184
923.442	3116
923.55	3131
923.659	3173
923.767	3222
923.876	3131
923.984	3230
924.092	3169
924.201	3184
924.309	3203
924.417	3268
924.525	3161
924.633	3260
924.741	4025
924.849	3066
924.956	3298
925.064	3077
925.172	3009
925.279	3116
925.387	3176
925.494	3180
925.602	3336
925.709	3351
925.816	3226
925.924	3302
926.031	3389
926.138	3351
926.245	3348
926.352	3283
926.459	3416
926.566	3511
926.673	3321
926.779	3260
926.886	3237
926.993	3150
927.099	3154
927.206	3123
927.312	3146
927.419	3268
927.525	3188
927.631	3272
927.737	3138
927.843	3112
927.95	3017
928.056	3112
928.162	3157
928.267	3226
928.373	3720
928.479	3336
928.585	3051
928.69	3222
928.796	3256
928.901	3188
929.007	3017
929.112	3218
929.218	3169
929.323	3169
929.428	3169
929.533	3382
929.638	3127
929.743	3173
929.848	3241
929.953	3218
930.058	3154
930.163	2994
930.267	3028
930.372	3184
930.477	3024
930.581	3332
930.685	3169
930.79	3051
930.894	3119
930.998	3081
931.103	3313
931.207	2948
931.311	2952
931.415	2918
931.519	2762
931.623	2807
