Data from test_V78500241_1249.txt Node
Date: Fri Mar 25 16:23:51 CST 2022
User: usil
Spectrometer: V785-0024
Trigger mode: 0
Integration Time (sec): 4.000000E-1
Scans to average: 1
Nonlinearity correction enabled: false
Boxcar width: 0
Storing dark spectrum: false
XAxis mode: Wavelengths
Number of Pixels in Spectrum: 1024
>>>>>Begin Spectral Data<<<<<
801.071	2937
801.214	2990
801.356	2891
801.499	2910
801.641	2883
801.783	2967
801.926	3039
802.068	3013
802.211	3047
802.353	3108
802.496	2979
802.638	3032
802.78	3085
802.923	3135
803.065	3039
803.208	2933
803.35	2891
803.492	2975
803.635	2971
803.777	2788
803.919	2895
804.061	3195
804.204	2960
804.346	2933
804.488	2887
804.63	3017
804.773	2922
804.915	2990
805.057	3097
805.199	2971
805.341	2998
805.483	3116
805.626	3032
805.768	2975
805.91	3108
806.052	3123
806.194	3077
806.336	3249
806.478	3085
806.62	2990
806.762	2998
806.904	3131
807.046	3188
807.188	3036
807.33	2960
807.472	3032
807.614	2960
807.756	3032
807.898	2925
808.04	2941
808.182	3013
808.324	2960
808.465	2971
808.607	2891
808.749	2830
808.891	2868
809.033	3017
809.174	3013
809.316	2948
809.458	2925
809.6	2815
809.741	2815
809.883	2800
810.025	2891
810.166	2895
810.308	2880
810.45	2883
810.591	2788
810.733	2811
810.875	2895
811.016	2830
811.158	2796
811.299	2872
811.441	2956
811.582	2929
811.724	2868
811.865	2857
812.007	2933
812.148	2880
812.29	2887
812.431	2929
812.573	2986
812.714	2982
812.855	3074
812.997	3085
813.138	3112
813.279	3043
813.421	2998
813.562	2963
813.703	2895
813.845	2902
813.986	2842
814.127	2731
814.268	2834
814.41	2864
814.551	2823
814.692	2891
814.833	2853
814.974	2929
815.115	2982
815.256	2857
815.397	2842
815.539	2864
815.68	2823
815.821	2796
815.962	2960
816.103	2937
816.244	2883
816.385	2887
816.526	3024
816.666	2956
816.807	2773
816.948	2887
817.089	2952
817.23	2857
817.371	2823
817.512	2811
817.653	2864
817.793	2834
817.934	2887
818.075	2982
818.216	2994
818.356	3017
818.497	2872
818.638	2804
818.778	2830
818.919	2830
819.06	2792
819.2	2910
819.341	2830
819.481	2811
819.622	2933
819.762	3100
819.903	3039
820.043	2948
820.184	2925
820.324	2899
820.465	3058
820.605	3028
820.746	3013
820.886	2948
821.026	3135
821.167	3169
821.307	3325
821.447	3287
821.588	3264
821.728	3230
821.868	3249
822.008	3104
822.149	3211
822.289	3275
822.429	3142
822.569	3093
822.709	3195
822.849	3077
822.99	3104
823.13	3195
823.27	3253
823.41	3150
823.55	3112
823.69	3138
823.83	3192
823.97	3100
824.11	3020
824.25	3070
824.389	3074
824.529	3100
824.669	3089
824.809	3222
824.949	3313
825.089	3218
825.228	3188
825.368	3036
825.508	2971
825.648	3013
825.787	3036
825.927	3043
826.067	3020
826.206	2975
826.346	3085
826.485	3081
826.625	3135
826.765	3275
826.904	3218
827.044	3009
827.183	2967
827.323	2872
827.462	3005
827.601	2937
827.741	2952
827.88	2975
828.02	2834
828.159	2998
828.298	3074
828.437	3150
828.577	3047
828.716	3268
828.855	3104
828.994	2929
829.134	2925
829.273	2967
829.412	2872
829.551	2872
829.69	2891
829.829	3005
829.968	3142
830.107	3047
830.246	3032
830.385	2941
830.524	2895
830.663	2815
830.802	2727
830.941	2682
831.08	2686
831.219	2773
831.357	2754
831.496	2986
831.635	2758
831.774	2697
831.913	2674
832.051	2560
832.19	2613
832.329	2735
832.467	2568
832.606	2526
832.744	2644
832.883	2621
833.022	2613
833.16	2697
833.299	2712
833.437	2735
833.576	2701
833.714	2743
833.852	2785
833.991	2788
834.129	2883
834.267	2853
834.406	2811
834.544	2864
834.682	2902
834.821	2861
834.959	3077
835.097	2933
835.235	3074
835.373	2994
835.511	3051
835.65	2960
835.788	2986
835.926	2834
836.064	2845
836.202	2883
836.34	3112
836.478	3165
836.615	3055
836.753	3157
836.891	3203
837.029	3188
837.167	3157
837.305	3108
837.443	3047
837.58	2956
837.718	3184
837.856	3089
837.993	3055
838.131	3180
838.269	3127
838.406	3127
838.544	3085
838.681	2990
838.819	2963
838.956	2826
839.094	2872
839.231	2960
839.369	3043
839.506	3382
839.643	3245
839.781	3036
839.918	2952
840.055	3066
840.193	3074
840.33	3077
840.467	3070
840.604	3157
840.742	3428
840.879	3074
841.016	3051
841.153	3123
841.29	3332
841.427	3272
841.564	3291
841.701	3306
841.838	3245
841.975	3157
842.112	3218
842.249	3123
842.385	3036
842.522	3264
842.659	3154
842.796	3047
842.933	3146
843.069	3058
843.206	3074
843.343	3233
843.479	3146
843.616	3199
843.752	2933
843.889	2864
844.025	3123
844.162	2887
844.298	3066
844.435	2975
844.571	2902
844.708	3104
844.844	3195
844.98	3226
845.117	3195
845.253	3051
845.389	3058
845.525	3119
845.661	3131
845.798	3013
845.934	3131
846.07	3066
846.206	3241
846.342	3344
846.478	3302
846.614	3100
846.75	3051
846.886	3051
847.022	3272
847.158	3180
847.294	3203
847.429	3279
847.565	3218
847.701	3469
847.837	3066
847.972	2994
848.108	3180
848.244	3161
848.379	3009
848.515	2925
848.65	2952
848.786	3013
848.921	3039
849.057	3112
849.192	3188
849.328	3081
849.463	3112
849.598	3058
849.734	3047
849.869	3009
850.004	2960
850.14	2941
850.275	2933
850.41	2857
850.545	2971
850.68	2963
850.815	2948
850.95	3024
851.085	3218
851.22	3123
851.355	3062
851.49	2994
851.625	3058
851.76	3058
851.895	2971
852.03	2937
852.165	3062
852.299	3112
852.434	3214
852.569	3123
852.703	3161
852.838	3241
852.973	3367
853.107	3306
853.242	3161
853.376	3093
853.511	2990
853.645	3058
853.78	3253
853.914	3157
854.048	3138
854.183	3116
854.317	3161
854.451	3332
854.585	3127
854.72	3112
854.854	3241
854.988	3108
855.122	3081
855.256	2998
855.39	3131
855.524	3260
855.658	3180
855.792	3199
855.926	3226
856.06	3245
856.194	3275
856.327	3176
856.461	3051
856.595	3112
856.729	3131
856.862	3222
856.996	3176
857.13	3218
857.263	3218
857.397	3256
857.53	3135
857.664	3184
857.797	3253
857.931	3279
858.064	3203
858.197	3249
858.331	3165
858.464	3089
858.597	3013
858.731	3127
858.864	3150
858.997	3108
859.13	3169
859.263	3207
859.396	3192
859.529	3085
859.662	3097
859.795	3062
859.928	3154
860.061	3332
860.194	3233
860.327	3093
860.46	3116
860.592	3218
860.725	3298
860.858	3264
860.99	3116
861.123	3077
861.256	3043
861.388	3119
861.521	3728
861.653	3032
861.786	2990
861.918	2994
862.05	3062
862.183	3104
862.315	3188
862.447	3222
862.58	3142
862.712	2944
862.844	2880
862.976	2994
863.108	3009
863.24	3336
863.372	2883
863.504	2998
863.636	2937
863.768	2982
863.9	2952
864.032	2910
864.164	2963
864.296	3028
864.428	3093
864.559	3154
864.691	3077
864.823	3036
864.954	3024
865.086	3058
865.217	2967
865.349	2960
865.48	2994
865.612	3055
865.743	3138
865.875	2998
866.006	2963
866.137	2998
866.269	2944
866.4	2925
866.531	2899
866.662	2887
866.793	2910
866.924	2899
867.055	2998
867.186	2914
867.317	2876
867.448	2842
867.579	2830
867.71	2861
867.841	2830
867.972	2906
868.103	2902
868.233	2910
868.364	2861
868.495	2910
868.625	3119
868.756	3165
868.886	2948
869.017	3032
869.147	3161
869.278	3218
869.408	3062
869.539	3058
869.669	3100
869.799	3085
869.929	3119
870.06	3138
870.19	3332
870.32	3294
870.45	3287
870.58	3374
870.71	3439
870.84	3477
870.97	3283
871.1	3245
871.23	3488
871.36	3439
871.489	3351
871.619	3412
871.749	3412
871.879	3435
872.008	3496
872.138	3336
872.267	3272
872.397	3173
872.526	3138
872.656	3013
872.785	3062
872.915	3268
873.044	3298
873.173	3249
873.303	3226
873.432	3253
873.561	3245
873.69	3161
873.819	3165
873.948	3211
874.077	3150
874.206	3058
874.335	3051
874.464	3241
874.593	3336
874.722	3272
874.851	3393
874.979	3332
875.108	3370
875.237	3218
875.365	3180
875.494	3135
875.623	3253
875.751	3085
875.88	3100
876.008	3207
876.136	3222
876.265	3355
876.393	3488
876.521	3424
876.65	3374
876.778	3325
876.906	3291
877.034	3218
877.162	3249
877.29	3169
877.418	3226
877.546	3253
877.674	3253
877.802	3256
877.93	3211
878.058	3161
878.185	3097
878.313	3188
878.441	3222
878.568	3077
878.696	3142
878.824	3230
878.951	3321
879.079	3481
879.206	3614
879.333	3424
879.461	3340
879.588	3351
879.715	3500
879.842	3568
879.97	3416
880.097	3157
880.224	3157
880.351	3176
880.478	3218
880.605	3226
880.732	3161
880.859	3511
880.986	3310
881.112	3325
881.239	3253
881.366	3074
881.493	3047
881.619	2986
881.746	3066
881.872	3089
881.999	3104
882.125	3108
882.252	3253
882.378	3279
882.505	3409
882.631	3233
882.757	3154
882.883	3218
883.01	3207
883.136	3169
883.262	3058
883.388	3085
883.514	3329
883.64	3355
883.766	3336
883.892	3169
884.018	3253
884.143	3401
884.269	3534
884.395	3199
884.52	3157
884.646	3195
884.772	3119
884.897	3089
885.023	3184
885.148	3291
885.274	3382
885.399	3355
885.524	3306
885.65	3272
885.775	3325
885.9	3253
886.025	3466
886.15	3382
886.275	3310
886.4	3241
886.525	3283
886.65	3279
886.775	3321
886.9	3496
887.025	3618
887.149	3439
887.274	3253
887.399	3192
887.523	3253
887.648	3199
887.773	3184
887.897	3409
888.021	3397
888.146	3325
888.27	3389
888.395	3526
888.519	3443
888.643	3443
888.767	3481
888.891	3275
889.015	3222
889.139	3279
889.263	3256
889.387	3397
889.511	3504
889.635	3466
889.759	3298
889.883	3306
890.006	3386
890.13	3538
890.254	3313
890.377	3351
890.501	3207
890.624	3184
890.748	3332
890.871	3154
890.995	3127
891.118	3066
891.241	3195
891.364	3207
891.488	3336
891.611	3127
891.734	3253
891.857	3275
891.98	3207
892.103	3321
892.226	3294
892.349	3203
892.471	3089
892.594	3207
892.717	3313
892.839	3253
892.962	3306
893.085	3325
893.207	3279
893.33	3138
893.452	3180
893.575	3359
893.697	3226
893.819	3447
893.941	3443
894.064	3428
894.186	3233
894.308	3275
894.43	3454
894.552	3553
894.674	3447
894.796	3241
894.918	3283
895.04	3279
895.161	3412
895.283	3393
895.405	3348
895.526	3355
895.648	3431
895.769	3424
895.891	3473
896.012	3469
896.134	3473
896.255	3416
896.376	3386
896.498	3310
896.619	3431
896.74	3382
896.861	3389
896.982	3648
897.103	3831
897.224	3606
897.345	3492
897.466	3424
897.587	3511
897.708	3587
897.828	3591
897.949	3424
898.07	3313
898.19	3420
898.311	3564
898.431	3431
898.552	3492
898.672	3568
898.792	3511
898.913	3553
899.033	3386
899.153	3256
899.273	3218
899.393	3302
899.513	3306
899.633	3306
899.753	3340
899.873	3294
899.993	3363
900.113	3351
900.232	3393
900.352	3313
900.472	3264
900.591	3180
900.711	3283
900.83	3226
900.95	3416
901.069	3466
901.189	3382
901.308	3207
901.427	3135
901.546	3199
901.665	3264
901.784	3332
901.904	3195
902.023	3123
902.141	3043
902.26	2998
902.379	3123
902.498	3058
902.617	3058
902.735	3218
902.854	3203
902.973	3169
903.091	3043
903.21	3051
903.328	3104
903.446	3138
903.565	3081
903.683	3203
903.801	3116
903.919	3222
904.038	3317
904.156	3135
904.274	3287
904.392	3233
904.51	3264
904.627	3340
904.745	3450
904.863	3545
904.981	3268
905.098	3207
905.216	3260
905.334	3302
905.451	3306
905.569	3325
905.686	3443
905.803	3450
905.921	3298
906.038	3401
906.155	3340
906.272	3268
906.389	3325
906.506	3230
906.623	3233
906.74	3264
906.857	3173
906.974	3294
907.091	3435
907.208	3564
907.324	3477
907.441	3351
907.557	3218
907.674	3233
907.79	3237
907.907	3302
908.023	3359
908.139	3386
908.256	3332
908.372	3370
908.488	3336
908.604	3256
908.72	3241
908.836	3241
908.952	3260
909.068	3340
909.184	3485
909.3	3412
909.415	3485
909.531	3481
909.647	3272
909.762	3313
909.878	3237
909.993	3348
910.108	3340
910.224	3332
910.339	3393
910.454	3294
910.57	3294
910.685	3249
910.8	3587
910.915	3511
911.03	3462
911.145	3310
911.259	3313
911.374	3268
911.489	3203
911.604	3218
911.718	3112
911.833	3157
911.947	3028
912.062	2933
912.176	3165
912.291	3184
912.405	3176
912.519	3420
912.633	3412
912.748	3313
912.862	3283
912.976	3173
913.09	3100
913.204	3104
913.318	3237
913.431	3321
913.545	3321
913.659	3412
913.772	3351
913.886	3237
914	3233
914.113	3329
914.226	3348
914.34	3359
914.453	3230
914.566	3409
914.68	3287
914.793	3253
914.906	3157
915.019	3116
915.132	3074
915.245	3146
915.358	3207
915.47	3184
915.583	3214
915.696	3302
915.809	3420
915.921	3431
916.034	3241
916.146	3233
916.259	3226
916.371	3367
916.483	3355
916.595	3245
916.708	3291
916.82	3344
916.932	3313
917.044	3313
917.156	3321
917.268	3211
917.38	3313
917.491	3291
917.603	3355
917.715	3485
917.826	3462
917.938	3401
918.049	3279
918.161	3439
918.272	3519
918.384	3526
918.495	3439
918.606	3325
918.717	3260
918.828	3370
918.939	3397
919.05	3321
919.161	3370
919.272	3142
919.383	3272
919.494	3469
919.604	3682
919.715	3511
919.826	3450
919.936	3428
920.047	3538
920.157	3530
920.267	3732
920.378	3572
920.488	3572
920.598	3812
920.708	3960
920.818	3797
920.928	3838
921.038	3979
921.148	3960
921.258	3736
921.368	3641
921.477	3603
921.587	3534
921.697	3431
921.806	3644
921.916	3511
922.025	3363
922.134	3367
922.244	3313
922.353	3431
922.462	3233
922.571	3233
922.68	3097
922.789	3089
922.898	3131
923.007	3123
923.116	3173
923.224	3161
923.333	3150
923.442	3104
923.55	3093
923.659	3142
923.767	3192
923.876	3066
923.984	3275
924.092	3108
924.201	3176
924.309	3241
924.417	3253
924.525	3169
924.633	3207
924.741	3994
924.849	3066
924.956	3233
925.064	3085
925.172	3055
925.279	3119
925.387	3154
925.494	3180
925.602	3344
925.709	3355
925.816	3192
925.924	3298
926.031	3359
926.138	3294
926.245	3363
926.352	3260
926.459	3431
926.566	3450
926.673	3332
926.779	3214
926.886	3214
926.993	3138
927.099	3142
927.206	3165
927.312	3112
927.419	3222
927.525	3192
927.631	3264
927.737	3154
927.843	3150
927.95	3055
928.056	3146
928.162	3176
928.267	3214
928.373	3907
928.479	3329
928.585	3062
928.69	3195
928.796	3268
928.901	3173
929.007	3017
929.112	3176
929.218	3138
929.323	3116
929.428	3112
929.533	3329
929.638	3138
929.743	3176
929.848	3283
929.953	3230
930.058	3116
930.163	2982
930.267	3039
930.372	3165
930.477	3028
930.581	3321
930.685	3165
930.79	3020
930.894	3097
930.998	3100
931.103	3268
931.207	2952
931.311	2960
931.415	2918
931.519	2769
931.623	2773
