Data from test_V78500241_698.txt Node
Date: Fri Mar 25 16:20:02 CST 2022
User: usil
Spectrometer: V785-0024
Trigger mode: 0
Integration Time (sec): 4.000000E-1
Scans to average: 1
Nonlinearity correction enabled: false
Boxcar width: 0
Storing dark spectrum: false
XAxis mode: Wavelengths
Number of Pixels in Spectrum: 1024
>>>>>Begin Spectral Data<<<<<
801.071	2960
801.214	2986
801.356	2895
801.499	2914
801.641	2922
801.783	2975
801.926	3100
802.068	3013
802.211	3055
802.353	3036
802.496	2986
802.638	3051
802.78	3081
802.923	3116
803.065	3039
803.208	2906
803.35	2956
803.492	2979
803.635	2937
803.777	2811
803.919	2895
804.061	3241
804.204	2979
804.346	2982
804.488	2891
804.63	3036
804.773	2902
804.915	2944
805.057	3119
805.199	2960
805.341	2990
805.483	3100
805.626	3024
805.768	2975
805.91	3157
806.052	3089
806.194	3066
806.336	3222
806.478	3047
806.62	2971
806.762	3024
806.904	3070
807.046	3203
807.188	3001
807.33	2948
807.472	3005
807.614	2925
807.756	3005
807.898	2963
808.04	2933
808.182	2990
808.324	2979
808.465	2887
808.607	2899
808.749	2823
808.891	2857
809.033	2979
809.174	3009
809.316	2937
809.458	2910
809.6	2773
809.741	2800
809.883	2800
810.025	2883
810.166	2876
810.308	2891
810.45	2883
810.591	2807
810.733	2796
810.875	2861
811.016	2811
811.158	2823
811.299	2842
811.441	2952
811.582	2925
811.724	2853
811.865	2861
812.007	2967
812.148	2902
812.29	2845
812.431	2914
812.573	2960
812.714	3001
812.855	3077
812.997	3074
813.138	3146
813.279	3032
813.421	3028
813.562	2975
813.703	2925
813.845	2922
813.986	2792
814.127	2754
814.268	2876
814.41	2853
814.551	2830
814.692	2906
814.833	2861
814.974	2910
815.115	2960
815.256	2857
815.397	2834
815.539	2891
815.68	2792
815.821	2845
815.962	2960
816.103	2937
816.244	2922
816.385	2914
816.526	3005
816.666	2929
816.807	2758
816.948	2902
817.089	2941
817.23	2887
817.371	2804
817.512	2819
817.653	2868
817.793	2849
817.934	2910
818.075	2979
818.216	3032
818.356	3043
818.497	2891
818.638	2788
818.778	2823
818.919	2785
819.06	2758
819.2	2918
819.341	2823
819.481	2811
819.622	2971
819.762	3123
819.903	3051
820.043	2944
820.184	2944
820.324	2929
820.465	3043
820.605	3039
820.746	3020
820.886	2941
821.026	3131
821.167	3184
821.307	3291
821.447	3287
821.588	3218
821.728	3233
821.868	3222
822.008	3104
822.149	3218
822.289	3233
822.429	3089
822.569	3108
822.709	3203
822.849	3047
822.99	3123
823.13	3199
823.27	3222
823.41	3127
823.55	3146
823.69	3169
823.83	3176
823.97	3123
824.11	3001
824.25	3028
824.389	3081
824.529	3138
824.669	3123
824.809	3214
824.949	3241
825.089	3241
825.228	3199
825.368	3036
825.508	2986
825.648	2979
825.787	3024
825.927	3013
826.067	2998
826.206	2937
826.346	3097
826.485	3100
826.625	3104
826.765	3279
826.904	3230
827.044	3005
827.183	2960
827.323	2922
827.462	3009
827.601	2914
827.741	2963
827.88	2998
828.02	2880
828.159	3001
828.298	3055
828.437	3119
828.577	3028
828.716	3233
828.855	3116
828.994	2929
829.134	2872
829.273	2956
829.412	2899
829.551	2899
829.69	2883
829.829	2986
829.968	3150
830.107	3017
830.246	3055
830.385	2948
830.524	2902
830.663	2857
830.802	2727
830.941	2663
831.08	2655
831.219	2773
831.357	2781
831.496	2971
831.635	2754
831.774	2663
831.913	2705
832.051	2571
832.19	2587
832.329	2670
832.467	2564
832.606	2503
832.744	2629
832.883	2610
833.022	2590
833.16	2655
833.299	2667
833.437	2708
833.576	2724
833.714	2746
833.852	2720
833.991	2788
834.129	2864
834.267	2838
834.406	2823
834.544	2861
834.682	2902
834.821	2861
834.959	3085
835.097	2960
835.235	3112
835.373	3024
835.511	3062
835.65	2979
835.788	2994
835.926	2868
836.064	2826
836.202	2845
836.34	3123
836.478	3173
836.615	3024
836.753	3161
836.891	3180
837.029	3192
837.167	3135
837.305	3093
837.443	3070
837.58	3001
837.718	3135
837.856	3081
837.993	3062
838.131	3108
838.269	3100
838.406	3138
838.544	3093
838.681	2937
838.819	2906
838.956	2785
839.094	2845
839.231	2895
839.369	2994
839.506	3389
839.643	3237
839.781	2986
839.918	2986
840.055	3051
840.193	3062
840.33	3100
840.467	3081
840.604	3176
840.742	3454
840.879	3047
841.016	3058
841.153	3150
841.29	3359
841.427	3306
841.564	3298
841.701	3310
841.838	3199
841.975	3203
842.112	3237
842.249	3116
842.385	3058
842.522	3306
842.659	3074
842.796	3039
842.933	3085
843.069	3039
843.206	3009
843.343	3226
843.479	3070
843.616	3112
843.752	2941
843.889	2872
844.025	3112
844.162	2887
844.298	3104
844.435	2967
844.571	2914
844.708	3070
844.844	3176
844.98	3256
845.117	3203
845.253	3062
845.389	3051
845.525	3138
845.661	3119
845.798	3028
845.934	3127
846.07	3066
846.206	3237
846.342	3363
846.478	3211
846.614	3077
846.75	3085
846.886	3066
847.022	3264
847.158	3119
847.294	3161
847.429	3268
847.565	3199
847.701	3523
847.837	3066
847.972	3036
848.108	3127
848.244	3154
848.379	3009
848.515	2967
848.65	2948
848.786	2960
848.921	3005
849.057	3108
849.192	3150
849.328	3074
849.463	3127
849.598	3097
849.734	3039
849.869	2941
850.004	2952
850.14	2986
850.275	2960
850.41	2811
850.545	2891
850.68	2956
850.815	2948
850.95	3013
851.085	3199
851.22	3085
851.355	3039
851.49	2975
851.625	3039
851.76	2986
851.895	2922
852.03	2929
852.165	3032
852.299	3127
852.434	3203
852.569	3173
852.703	3173
852.838	3233
852.973	3336
853.107	3374
853.242	3176
853.376	3100
853.511	2975
853.645	3039
853.78	3237
853.914	3161
854.048	3108
854.183	3085
854.317	3119
854.451	3325
854.585	3116
854.72	3100
854.854	3199
854.988	3051
855.122	3108
855.256	2982
855.39	3127
855.524	3241
855.658	3180
855.792	3157
855.926	3188
856.06	3230
856.194	3275
856.327	3165
856.461	3104
856.595	3097
856.729	3077
856.862	3192
856.996	3146
857.13	3211
857.263	3176
857.397	3298
857.53	3123
857.664	3161
857.797	3218
857.931	3294
858.064	3150
858.197	3203
858.331	3093
858.464	3097
858.597	3005
858.731	3104
858.864	3123
858.997	3058
859.13	3150
859.263	3184
859.396	3207
859.529	3116
859.662	3085
859.795	3055
859.928	3146
860.061	3268
860.194	3294
860.327	3150
860.46	3112
860.592	3283
860.725	3245
860.858	3279
860.99	3085
861.123	3104
861.256	3097
861.388	3157
861.521	3903
861.653	3017
861.786	2963
861.918	2994
862.05	3070
862.183	3093
862.315	3188
862.447	3146
862.58	3100
862.712	2982
862.844	2872
862.976	3017
863.108	2929
863.24	3412
863.372	2872
863.504	2998
863.636	2929
863.768	3047
863.9	2986
864.032	2876
864.164	2948
864.296	2979
864.428	3116
864.559	3108
864.691	3062
864.823	3051
864.954	3020
865.086	3013
865.217	3039
865.349	2982
865.48	2982
865.612	3058
865.743	3165
865.875	2971
866.006	2922
866.137	2971
866.269	2990
866.4	2960
866.531	2933
866.662	2891
866.793	2902
866.924	2899
867.055	2933
867.186	2887
867.317	2891
867.448	2834
867.579	2849
867.71	2853
867.841	2815
867.972	2895
868.103	2906
868.233	2876
868.364	2864
868.495	2960
868.625	3085
868.756	3154
868.886	2956
869.017	3036
869.147	3192
869.278	3199
869.408	3066
869.539	3055
869.669	3123
869.799	3024
869.929	3146
870.06	3085
870.19	3313
870.32	3306
870.45	3294
870.58	3374
870.71	3443
870.84	3443
870.97	3256
871.1	3298
871.23	3447
871.36	3450
871.489	3329
871.619	3386
871.749	3370
871.879	3405
872.008	3485
872.138	3367
872.267	3313
872.397	3108
872.526	3074
872.656	3001
872.785	3085
872.915	3245
873.044	3306
873.173	3233
873.303	3249
873.432	3256
873.561	3241
873.69	3123
873.819	3131
873.948	3211
874.077	3093
874.206	3089
874.335	3074
874.464	3188
874.593	3302
874.722	3218
874.851	3386
874.979	3370
875.108	3321
875.237	3207
875.365	3161
875.494	3203
875.623	3268
875.751	3070
875.88	3093
876.008	3211
876.136	3241
876.265	3378
876.393	3519
876.521	3443
876.65	3382
876.778	3332
876.906	3253
877.034	3173
877.162	3222
877.29	3154
877.418	3233
877.546	3199
877.674	3211
877.802	3260
877.93	3195
878.058	3161
878.185	3093
878.313	3214
878.441	3203
878.568	3066
878.696	3116
878.824	3237
878.951	3287
879.079	3450
879.206	3622
879.333	3428
879.461	3306
879.588	3351
879.715	3526
879.842	3561
879.97	3428
880.097	3184
880.224	3135
880.351	3222
880.478	3214
880.605	3150
880.732	3165
880.859	3477
880.986	3253
881.112	3279
881.239	3157
881.366	3100
881.493	3032
881.619	3017
881.746	3097
881.872	3100
881.999	3074
882.125	3146
882.252	3203
882.378	3287
882.505	3435
882.631	3291
882.757	3150
882.883	3214
883.01	3214
883.136	3184
883.262	3089
883.388	3093
883.514	3302
883.64	3340
883.766	3325
883.892	3173
884.018	3230
884.143	3435
884.269	3580
884.395	3237
884.52	3173
884.646	3154
884.772	3146
884.897	3100
885.023	3169
885.148	3332
885.274	3412
885.399	3332
885.524	3294
885.65	3249
885.775	3294
885.9	3287
886.025	3435
886.15	3370
886.275	3344
886.4	3249
886.525	3287
886.65	3264
886.775	3237
886.9	3534
887.025	3618
887.149	3439
887.274	3245
887.399	3176
887.523	3195
887.648	3211
887.773	3173
887.897	3351
888.021	3435
888.146	3287
888.27	3420
888.395	3526
888.519	3424
888.643	3458
888.767	3511
888.891	3332
889.015	3237
889.139	3291
889.263	3230
889.387	3393
889.511	3496
889.635	3469
889.759	3294
889.883	3260
890.006	3405
890.13	3466
890.254	3291
890.377	3329
890.501	3188
890.624	3192
890.748	3302
890.871	3192
890.995	3097
891.118	3058
891.241	3211
891.364	3222
891.488	3340
891.611	3211
891.734	3199
891.857	3306
891.98	3233
892.103	3306
892.226	3260
892.349	3222
892.471	3104
892.594	3268
892.717	3272
892.839	3264
892.962	3260
893.085	3321
893.207	3313
893.33	3199
893.452	3230
893.575	3370
893.697	3241
893.819	3447
893.941	3485
894.064	3435
894.186	3272
894.308	3302
894.43	3450
894.552	3564
894.674	3469
894.796	3249
894.918	3287
895.04	3306
895.161	3428
895.283	3397
895.405	3302
895.526	3363
895.648	3454
895.769	3409
895.891	3447
896.012	3458
896.134	3462
896.255	3393
896.376	3367
896.498	3393
896.619	3428
896.74	3340
896.861	3409
896.982	3660
897.103	3800
897.224	3610
897.345	3496
897.466	3424
897.587	3462
897.708	3633
897.828	3580
897.949	3424
898.07	3351
898.19	3382
898.311	3572
898.431	3416
898.552	3500
898.672	3625
898.792	3530
898.913	3553
899.033	3412
899.153	3317
899.273	3173
899.393	3260
899.513	3329
899.633	3348
899.753	3332
899.873	3344
899.993	3405
900.113	3332
900.232	3370
900.352	3336
900.472	3279
900.591	3237
900.711	3325
900.83	3207
900.95	3428
901.069	3473
901.189	3355
901.308	3222
901.427	3157
901.546	3195
901.665	3310
901.784	3294
901.904	3180
902.023	3169
902.141	3017
902.26	3009
902.379	3116
902.498	3081
902.617	3062
902.735	3188
902.854	3199
902.973	3150
903.091	3047
903.21	3093
903.328	3154
903.446	3119
903.565	3081
903.683	3230
903.801	3146
903.919	3226
904.038	3298
904.156	3176
904.274	3287
904.392	3222
904.51	3310
904.627	3313
904.745	3443
904.863	3504
904.981	3275
905.098	3161
905.216	3249
905.334	3287
905.451	3313
905.569	3306
905.686	3416
905.803	3477
905.921	3294
906.038	3447
906.155	3321
906.272	3294
906.389	3351
906.506	3230
906.623	3268
906.74	3264
906.857	3169
906.974	3230
907.091	3416
907.208	3561
907.324	3462
907.441	3450
907.557	3226
907.674	3218
907.79	3222
907.907	3310
908.023	3382
908.139	3378
908.256	3302
908.372	3374
908.488	3332
908.604	3256
908.72	3222
908.836	3268
908.952	3287
909.068	3317
909.184	3492
909.3	3370
909.415	3496
909.531	3469
909.647	3283
909.762	3275
909.878	3264
909.993	3332
910.108	3370
910.224	3340
910.339	3393
910.454	3325
910.57	3306
910.685	3241
910.8	3587
910.915	3557
911.03	3420
911.145	3245
911.259	3249
911.374	3317
911.489	3249
911.604	3241
911.718	3093
911.833	3161
911.947	3024
912.062	2963
912.176	3135
912.291	3214
912.405	3180
912.519	3435
912.633	3462
912.748	3344
912.862	3260
912.976	3188
913.09	3062
913.204	3104
913.318	3176
913.431	3336
913.545	3348
913.659	3370
913.772	3298
913.886	3233
914	3211
914.113	3367
914.226	3409
914.34	3393
914.453	3218
914.566	3409
914.68	3279
914.793	3294
914.906	3157
915.019	3070
915.132	3077
915.245	3176
915.358	3184
915.47	3211
915.583	3287
915.696	3317
915.809	3389
915.921	3393
916.034	3279
916.146	3237
916.259	3192
916.371	3393
916.483	3367
916.595	3283
916.708	3313
916.82	3344
916.932	3340
917.044	3321
917.156	3348
917.268	3264
917.38	3317
917.491	3268
917.603	3344
917.715	3466
917.826	3447
917.938	3325
918.049	3241
918.161	3401
918.272	3545
918.384	3526
918.495	3473
918.606	3317
918.717	3256
918.828	3397
918.939	3405
919.05	3275
919.161	3359
919.272	3157
919.383	3279
919.494	3488
919.604	3698
919.715	3492
919.826	3409
919.936	3492
920.047	3591
920.157	3553
920.267	3747
920.378	3629
920.488	3568
920.598	3759
920.708	3991
920.818	3770
920.928	3846
921.038	4025
921.148	3975
921.258	3682
921.368	3637
921.477	3557
921.587	3557
921.697	3443
921.806	3587
921.916	3492
922.025	3363
922.134	3382
922.244	3306
922.353	3420
922.462	3275
922.571	3237
922.68	3104
922.789	3089
922.898	3146
923.007	3089
923.116	3188
923.224	3176
923.333	3165
923.442	3119
923.55	3070
923.659	3127
923.767	3195
923.876	3097
923.984	3222
924.092	3093
924.201	3161
924.309	3211
924.417	3226
924.525	3173
924.633	3192
924.741	3972
924.849	3005
924.956	3268
925.064	3074
925.172	3017
925.279	3123
925.387	3169
925.494	3211
925.602	3340
925.709	3329
925.816	3207
925.924	3283
926.031	3386
926.138	3344
926.245	3359
926.352	3245
926.459	3401
926.566	3447
926.673	3317
926.779	3218
926.886	3253
926.993	3135
927.099	3123
927.206	3097
927.312	3058
927.419	3237
927.525	3199
927.631	3211
927.737	3089
927.843	3135
927.95	3024
928.056	3108
928.162	3165
928.267	3214
928.373	3873
928.479	3287
928.585	3047
928.69	3222
928.796	3230
928.901	3173
929.007	3009
929.112	3230
929.218	3154
929.323	3150
929.428	3135
929.533	3317
929.638	3135
929.743	3142
929.848	3241
929.953	3176
930.058	3154
930.163	2994
930.267	3032
930.372	3192
930.477	3017
930.581	3306
930.685	3157
930.79	3047
930.894	3131
930.998	3097
931.103	3264
931.207	2956
931.311	2933
931.415	2899
931.519	2727
931.623	2811
