Data from test_V78500241_1097.txt Node
Date: Fri Mar 25 16:22:48 CST 2022
User: usil
Spectrometer: V785-0024
Trigger mode: 0
Integration Time (sec): 4.000000E-1
Scans to average: 1
Nonlinearity correction enabled: false
Boxcar width: 0
Storing dark spectrum: false
XAxis mode: Wavelengths
Number of Pixels in Spectrum: 1024
>>>>>Begin Spectral Data<<<<<
801.071	2914
801.214	2922
801.356	2910
801.499	2864
801.641	2868
801.783	2914
801.926	3001
802.068	2986
802.211	2967
802.353	3062
802.496	2975
802.638	3017
802.78	3047
802.923	3077
803.065	3020
803.208	2872
803.35	2906
803.492	2902
803.635	2922
803.777	2773
803.919	2872
804.061	3207
804.204	2967
804.346	2883
804.488	2842
804.63	2986
804.773	2883
804.915	2891
805.057	3070
805.199	2937
805.341	2948
805.483	3036
805.626	3013
805.768	2933
805.91	3119
806.052	3112
806.194	3047
806.336	3211
806.478	3013
806.62	2933
806.762	2982
806.904	3017
807.046	3157
807.188	2933
807.33	2899
807.472	2956
807.614	2899
807.756	2979
807.898	2906
808.04	2902
808.182	2982
808.324	2960
808.465	2899
808.607	2880
808.749	2750
808.891	2845
809.033	2952
809.174	2941
809.316	2883
809.458	2861
809.6	2731
809.741	2754
809.883	2766
810.025	2811
810.166	2880
810.308	2811
810.45	2834
810.591	2754
810.733	2750
810.875	2872
811.016	2762
811.158	2785
811.299	2811
811.441	2925
811.582	2876
811.724	2830
811.865	2800
812.007	2918
812.148	2849
812.29	2815
812.431	2906
812.573	2937
812.714	2960
812.855	3070
812.997	3062
813.138	3116
813.279	3009
813.421	3009
813.562	2937
813.703	2861
813.845	2918
813.986	2785
814.127	2724
814.268	2804
814.41	2838
814.551	2804
814.692	2861
814.833	2792
814.974	2891
815.115	2967
815.256	2785
815.397	2796
815.539	2891
815.68	2781
815.821	2807
815.962	2975
816.103	2929
816.244	2883
816.385	2853
816.526	2963
816.666	2922
816.807	2758
816.948	2857
817.089	2944
817.23	2815
817.371	2758
817.512	2792
817.653	2845
817.793	2838
817.934	2887
818.075	2952
818.216	2960
818.356	3001
818.497	2895
818.638	2800
818.778	2838
818.919	2785
819.06	2727
819.2	2861
819.341	2819
819.481	2777
819.622	2902
819.762	3077
819.903	3066
820.043	2891
820.184	2906
820.324	2910
820.465	3001
820.605	3013
820.746	3043
820.886	2914
821.026	3081
821.167	3173
821.307	3272
821.447	3241
821.588	3249
821.728	3192
821.868	3176
822.008	3081
822.149	3169
822.289	3218
822.429	3093
822.569	3089
822.709	3173
822.849	3005
822.99	3070
823.13	3165
823.27	3195
823.41	3119
823.55	3146
823.69	3184
823.83	3211
823.97	3058
824.11	2986
824.25	3005
824.389	3047
824.529	3077
824.669	3043
824.809	3207
824.949	3249
825.089	3192
825.228	3127
825.368	2979
825.508	2933
825.648	2956
825.787	3047
825.927	2998
826.067	2982
826.206	2963
826.346	3055
826.485	3093
826.625	3066
826.765	3245
826.904	3195
827.044	2998
827.183	2880
827.323	2864
827.462	2960
827.601	2929
827.741	2925
827.88	2963
828.02	2864
828.159	2979
828.298	3028
828.437	3104
828.577	3013
828.716	3241
828.855	3081
828.994	2937
829.134	2899
829.273	2880
829.412	2868
829.551	2842
829.69	2876
829.829	2975
829.968	3138
830.107	3028
830.246	3077
830.385	2918
830.524	2876
830.663	2807
830.802	2712
830.941	2606
831.08	2640
831.219	2754
831.357	2777
831.496	2941
831.635	2701
831.774	2636
831.913	2655
832.051	2526
832.19	2549
832.329	2674
832.467	2560
832.606	2480
832.744	2606
832.883	2598
833.022	2594
833.16	2640
833.299	2697
833.437	2651
833.576	2701
833.714	2701
833.852	2720
833.991	2766
834.129	2815
834.267	2830
834.406	2788
834.544	2868
834.682	2864
834.821	2864
834.959	3055
835.097	2918
835.235	3047
835.373	2994
835.511	3017
835.65	3001
835.788	2941
835.926	2849
836.064	2819
836.202	2845
836.34	3081
836.478	3135
836.615	3062
836.753	3119
836.891	3203
837.029	3150
837.167	3116
837.305	3058
837.443	3032
837.58	2967
837.718	3131
837.856	3043
837.993	3032
838.131	3104
838.269	3112
838.406	3104
838.544	3062
838.681	2944
838.819	2925
838.956	2811
839.094	2826
839.231	2918
839.369	3028
839.506	3397
839.643	3195
839.781	3024
839.918	2941
840.055	3047
840.193	3036
840.33	3074
840.467	3085
840.604	3138
840.742	3439
840.879	3077
841.016	3081
841.153	3077
841.29	3321
841.427	3272
841.564	3222
841.701	3310
841.838	3230
841.975	3150
842.112	3211
842.249	3051
842.385	3047
842.522	3226
842.659	3081
842.796	3028
842.933	3108
843.069	3036
843.206	3032
843.343	3161
843.479	3085
843.616	3131
843.752	2902
843.889	2845
844.025	3074
844.162	2868
844.298	3058
844.435	2925
844.571	2933
844.708	3058
844.844	3165
844.98	3230
845.117	3154
845.253	3020
845.389	2982
845.525	3074
845.661	3077
845.798	2986
845.934	3104
846.07	3043
846.206	3203
846.342	3313
846.478	3203
846.614	3093
846.75	3070
846.886	3013
847.022	3241
847.158	3142
847.294	3176
847.429	3268
847.565	3180
847.701	3504
847.837	3028
847.972	2979
848.108	3188
848.244	3165
848.379	2994
848.515	2918
848.65	2918
848.786	2960
848.921	3013
849.057	3051
849.192	3154
849.328	3070
849.463	3119
849.598	3039
849.734	3043
849.869	3009
850.004	2914
850.14	2971
850.275	2887
850.41	2838
850.545	2849
850.68	2914
850.815	2948
850.95	2948
851.085	3169
851.22	3108
851.355	3028
851.49	2963
851.625	3001
851.76	3001
851.895	2914
852.03	2922
852.165	3009
852.299	3097
852.434	3169
852.569	3127
852.703	3176
852.838	3241
852.973	3351
853.107	3363
853.242	3112
853.376	3074
853.511	2979
853.645	2979
853.78	3211
853.914	3077
854.048	3108
854.183	3055
854.317	3131
854.451	3268
854.585	3112
854.72	3077
854.854	3199
854.988	3070
855.122	3077
855.256	2971
855.39	3104
855.524	3222
855.658	3199
855.792	3116
855.926	3169
856.06	3214
856.194	3237
856.327	3138
856.461	3097
856.595	3036
856.729	3093
856.862	3195
856.996	3142
857.13	3192
857.263	3195
857.397	3268
857.53	3131
857.664	3184
857.797	3211
857.931	3249
858.064	3154
858.197	3207
858.331	3123
858.464	3066
858.597	3009
858.731	3165
858.864	3116
858.997	3055
859.13	3176
859.263	3169
859.396	3165
859.529	3062
859.662	3085
859.795	3032
859.928	3112
860.061	3306
860.194	3279
860.327	3119
860.46	3108
860.592	3214
860.725	3237
860.858	3241
860.99	3123
861.123	3024
861.256	3024
861.388	3116
861.521	3724
861.653	2967
861.786	2979
861.918	3020
862.05	3055
862.183	3074
862.315	3150
862.447	3230
862.58	3097
862.712	2929
862.844	2880
862.976	3028
863.108	2994
863.24	3405
863.372	2880
863.504	2994
863.636	2941
863.768	3032
863.9	2956
864.032	2922
864.164	2933
864.296	3036
864.428	3070
864.559	3104
864.691	3062
864.823	3047
864.954	3017
865.086	3039
865.217	3001
865.349	2918
865.48	2963
865.612	2990
865.743	3142
865.875	2986
866.006	2944
866.137	2956
866.269	2944
866.4	2910
866.531	2895
866.662	2876
866.793	2918
866.924	2887
867.055	2952
867.186	2895
867.317	2868
867.448	2800
867.579	2823
867.71	2857
867.841	2773
867.972	2883
868.103	2895
868.233	2830
868.364	2853
868.495	2925
868.625	3032
868.756	3146
868.886	2967
869.017	3020
869.147	3165
869.278	3169
869.408	3062
869.539	3051
869.669	3093
869.799	3036
869.929	3116
870.06	3112
870.19	3355
870.32	3222
870.45	3287
870.58	3386
870.71	3409
870.84	3431
870.97	3268
871.1	3214
871.23	3488
871.36	3397
871.489	3367
871.619	3378
871.749	3355
871.879	3428
872.008	3511
872.138	3313
872.267	3245
872.397	3135
872.526	3081
872.656	2994
872.785	3055
872.915	3268
873.044	3279
873.173	3195
873.303	3241
873.432	3249
873.561	3260
873.69	3165
873.819	3146
873.948	3192
874.077	3085
874.206	3024
874.335	3104
874.464	3218
874.593	3386
874.722	3260
874.851	3382
874.979	3355
875.108	3348
875.237	3203
875.365	3157
875.494	3146
875.623	3268
875.751	3066
875.88	3116
876.008	3176
876.136	3207
876.265	3317
876.393	3500
876.521	3397
876.65	3386
876.778	3325
876.906	3199
877.034	3203
877.162	3195
877.29	3195
877.418	3245
877.546	3268
877.674	3233
877.802	3176
877.93	3180
878.058	3131
878.185	3100
878.313	3214
878.441	3222
878.568	3058
878.696	3192
878.824	3253
878.951	3279
879.079	3454
879.206	3637
879.333	3431
879.461	3340
879.588	3336
879.715	3469
879.842	3622
879.97	3336
880.097	3188
880.224	3127
880.351	3211
880.478	3226
880.605	3161
880.732	3184
880.859	3469
880.986	3310
881.112	3317
881.239	3176
881.366	3089
881.493	3055
881.619	3020
881.746	3070
881.872	3055
881.999	3077
882.125	3142
882.252	3226
882.378	3256
882.505	3412
882.631	3272
882.757	3157
882.883	3226
883.01	3169
883.136	3119
883.262	3077
883.388	3089
883.514	3321
883.64	3386
883.766	3298
883.892	3154
884.018	3226
884.143	3382
884.269	3564
884.395	3150
884.52	3173
884.646	3157
884.772	3104
884.897	3104
885.023	3173
885.148	3317
885.274	3401
885.399	3370
885.524	3256
885.65	3256
885.775	3275
885.9	3256
886.025	3428
886.15	3363
886.275	3291
886.4	3218
886.525	3275
886.65	3230
886.775	3264
886.9	3507
887.025	3622
887.149	3359
887.274	3256
887.399	3195
887.523	3169
887.648	3199
887.773	3142
887.897	3355
888.021	3389
888.146	3291
888.27	3443
888.395	3515
888.519	3416
888.643	3458
888.767	3428
888.891	3283
889.015	3245
889.139	3275
889.263	3241
889.387	3405
889.511	3538
889.635	3443
889.759	3294
889.883	3279
890.006	3378
890.13	3462
890.254	3313
890.377	3321
890.501	3157
890.624	3184
890.748	3287
890.871	3184
890.995	3093
891.118	3051
891.241	3169
891.364	3199
891.488	3310
891.611	3119
891.734	3195
891.857	3294
891.98	3249
892.103	3321
892.226	3233
892.349	3218
892.471	3097
892.594	3218
892.717	3302
892.839	3253
892.962	3294
893.085	3355
893.207	3268
893.33	3135
893.452	3192
893.575	3306
893.697	3237
893.819	3435
893.941	3466
894.064	3435
894.186	3268
894.308	3256
894.43	3420
894.552	3511
894.674	3526
894.796	3230
894.918	3332
895.04	3275
895.161	3435
895.283	3389
895.405	3298
895.526	3325
895.648	3431
895.769	3412
895.891	3439
896.012	3458
896.134	3454
896.255	3355
896.376	3405
896.498	3378
896.619	3405
896.74	3355
896.861	3386
896.982	3713
897.103	3861
897.224	3606
897.345	3477
897.466	3420
897.587	3488
897.708	3633
897.828	3568
897.949	3431
898.07	3291
898.19	3355
898.311	3564
898.431	3431
898.552	3496
898.672	3561
898.792	3641
898.913	3488
899.033	3428
899.153	3272
899.273	3199
899.393	3306
899.513	3275
899.633	3287
899.753	3329
899.873	3313
899.993	3382
900.113	3313
900.232	3355
900.352	3348
900.472	3317
900.591	3214
900.711	3291
900.83	3222
900.95	3401
901.069	3507
901.189	3329
901.308	3188
901.427	3108
901.546	3161
901.665	3264
901.784	3355
901.904	3180
902.023	3138
902.141	2986
902.26	3005
902.379	3116
902.498	3066
902.617	3036
902.735	3176
902.854	3241
902.973	3169
903.091	3047
903.21	3058
903.328	3165
903.446	3138
903.565	3089
903.683	3157
903.801	3093
903.919	3214
904.038	3279
904.156	3127
904.274	3306
904.392	3260
904.51	3275
904.627	3302
904.745	3416
904.863	3496
904.981	3218
905.098	3154
905.216	3237
905.334	3294
905.451	3298
905.569	3283
905.686	3409
905.803	3428
905.921	3283
906.038	3428
906.155	3332
906.272	3260
906.389	3283
906.506	3241
906.623	3279
906.74	3268
906.857	3176
906.974	3195
907.091	3393
907.208	3576
907.324	3431
907.441	3386
907.557	3233
907.674	3211
907.79	3237
907.907	3275
908.023	3401
908.139	3336
908.256	3313
908.372	3344
908.488	3313
908.604	3230
908.72	3226
908.836	3230
908.952	3279
909.068	3291
909.184	3462
909.3	3374
909.415	3526
909.531	3477
909.647	3245
909.762	3283
909.878	3253
909.993	3306
910.108	3310
910.224	3367
910.339	3397
910.454	3313
910.57	3283
910.685	3218
910.8	3625
910.915	3500
911.03	3401
911.145	3245
911.259	3279
911.374	3306
911.489	3237
911.604	3237
911.718	3142
911.833	3157
911.947	3051
912.062	2960
912.176	3138
912.291	3230
912.405	3161
912.519	3420
912.633	3458
912.748	3317
912.862	3268
912.976	3161
913.09	2982
913.204	3093
913.318	3195
913.431	3340
913.545	3306
913.659	3367
913.772	3336
913.886	3237
914	3165
914.113	3374
914.226	3420
914.34	3348
914.453	3184
914.566	3386
914.68	3264
914.793	3310
914.906	3146
915.019	3100
915.132	3085
915.245	3135
915.358	3161
915.47	3203
915.583	3260
915.696	3291
915.809	3405
915.921	3409
916.034	3249
916.146	3253
916.259	3214
916.371	3378
916.483	3348
916.595	3272
916.708	3367
916.82	3325
916.932	3321
917.044	3348
917.156	3329
917.268	3230
917.38	3291
917.491	3275
917.603	3348
917.715	3454
917.826	3439
917.938	3321
918.049	3279
918.161	3469
918.272	3584
918.384	3591
918.495	3496
918.606	3310
918.717	3272
918.828	3374
918.939	3435
919.05	3321
919.161	3370
919.272	3127
919.383	3264
919.494	3526
919.604	3709
919.715	3523
919.826	3409
919.936	3435
920.047	3542
920.157	3580
920.267	3827
920.378	3625
920.488	3576
920.598	3781
920.708	3941
920.818	3831
920.928	3838
921.038	4010
921.148	4010
921.258	3743
921.368	3648
921.477	3595
921.587	3580
921.697	3473
921.806	3641
921.916	3572
922.025	3355
922.134	3363
922.244	3317
922.353	3473
922.462	3291
922.571	3253
922.68	3135
922.789	3131
922.898	3173
923.007	3161
923.116	3176
923.224	3199
923.333	3222
923.442	3154
923.55	3135
923.659	3180
923.767	3260
923.876	3150
923.984	3264
924.092	3176
924.201	3237
924.309	3241
924.417	3294
924.525	3161
924.633	3279
924.741	4025
924.849	3089
924.956	3294
925.064	3123
925.172	3074
925.279	3154
925.387	3226
925.494	3237
925.602	3401
925.709	3389
925.816	3264
925.924	3332
926.031	3439
926.138	3386
926.245	3370
926.352	3313
926.459	3439
926.566	3526
926.673	3336
926.779	3275
926.886	3249
926.993	3169
927.099	3161
927.206	3169
927.312	3199
927.419	3253
927.525	3256
927.631	3336
927.737	3184
927.843	3142
927.95	3058
928.056	3161
928.162	3226
928.267	3298
928.373	3880
928.479	3340
928.585	3138
928.69	3237
928.796	3294
928.901	3173
929.007	3100
929.112	3226
929.218	3222
929.323	3188
929.428	3184
929.533	3351
929.638	3146
929.743	3195
929.848	3283
929.953	3268
930.058	3199
930.163	3043
930.267	3077
930.372	3203
930.477	3055
930.581	3325
930.685	3218
930.79	3093
930.894	3112
930.998	3108
931.103	3279
931.207	3028
931.311	2952
931.415	2982
931.519	2849
931.623	2826
