Data from test_V78500241_430.txt Node
Date: Fri Mar 25 16:18:10 CST 2022
User: usil
Spectrometer: V785-0024
Trigger mode: 0
Integration Time (sec): 4.000000E-1
Scans to average: 1
Nonlinearity correction enabled: false
Boxcar width: 0
Storing dark spectrum: false
XAxis mode: Wavelengths
Number of Pixels in Spectrum: 1024
>>>>>Begin Spectral Data<<<<<
801.071	2883
801.214	2899
801.356	2853
801.499	2910
801.641	2887
801.783	2933
801.926	3055
802.068	2963
802.211	2971
802.353	3047
802.496	2944
802.638	2994
802.78	3028
802.923	3074
803.065	3051
803.208	2887
803.35	2914
803.492	2925
803.635	2895
803.777	2769
803.919	2891
804.061	3180
804.204	2956
804.346	2906
804.488	2826
804.63	2982
804.773	2906
804.915	2887
805.057	3043
805.199	2876
805.341	2933
805.483	3032
805.626	2986
805.768	2975
805.91	3085
806.052	3081
806.194	2975
806.336	3233
806.478	3032
806.62	2944
806.762	2944
806.904	3020
807.046	3150
807.188	2986
807.33	2906
807.472	3005
807.614	2887
807.756	2994
807.898	2880
808.04	2880
808.182	2956
808.324	2952
808.465	2887
808.607	2883
808.749	2804
808.891	2830
809.033	2982
809.174	3005
809.316	2925
809.458	2864
809.6	2773
809.741	2777
809.883	2773
810.025	2838
810.166	2876
810.308	2823
810.45	2849
810.591	2758
810.733	2758
810.875	2838
811.016	2777
811.158	2750
811.299	2815
811.441	2922
811.582	2899
811.724	2834
811.865	2830
812.007	2925
812.148	2864
812.29	2845
812.431	2891
812.573	2952
812.714	2998
812.855	3058
812.997	3039
813.138	3100
813.279	3017
813.421	2963
813.562	2975
813.703	2845
813.845	2895
813.986	2766
814.127	2743
814.268	2811
814.41	2853
814.551	2815
814.692	2880
814.833	2830
814.974	2929
815.115	2933
815.256	2819
815.397	2804
815.539	2861
815.68	2762
815.821	2815
815.962	2925
816.103	2956
816.244	2842
816.385	2868
816.526	2952
816.666	2906
816.807	2735
816.948	2872
817.089	2902
817.23	2880
817.371	2804
817.512	2807
817.653	2849
817.793	2823
817.934	2895
818.075	2929
818.216	2967
818.356	3036
818.497	2880
818.638	2804
818.778	2815
818.919	2781
819.06	2758
819.2	2880
819.341	2796
819.481	2777
819.622	2933
819.762	3112
819.903	3062
820.043	2922
820.184	2880
820.324	2956
820.465	3032
820.605	3036
820.746	3013
820.886	2925
821.026	3077
821.167	3176
821.307	3230
821.447	3256
821.588	3195
821.728	3188
821.868	3180
822.008	3112
822.149	3222
822.289	3230
822.429	3062
822.569	3108
822.709	3207
822.849	3028
822.99	3036
823.13	3119
823.27	3192
823.41	3119
823.55	3169
823.69	3154
823.83	3165
823.97	3119
824.11	2963
824.25	2998
824.389	3043
824.529	3142
824.669	3077
824.809	3154
824.949	3264
825.089	3230
825.228	3138
825.368	3009
825.508	2952
825.648	2948
825.787	3039
825.927	2963
826.067	2979
826.206	2952
826.346	3032
826.485	3043
826.625	3085
826.765	3230
826.904	3214
827.044	2990
827.183	2891
827.323	2853
827.462	2948
827.601	2937
827.741	2948
827.88	2971
828.02	2819
828.159	2971
828.298	3058
828.437	3093
828.577	3020
828.716	3253
828.855	3047
828.994	2914
829.134	2880
829.273	2925
829.412	2883
829.551	2849
829.69	2883
829.829	2982
829.968	3131
830.107	2998
830.246	2979
830.385	2910
830.524	2853
830.663	2838
830.802	2720
830.941	2659
831.08	2632
831.219	2766
831.357	2758
831.496	2971
831.635	2724
831.774	2648
831.913	2636
832.051	2530
832.19	2587
832.329	2655
832.467	2507
832.606	2499
832.744	2571
832.883	2590
833.022	2583
833.16	2625
833.299	2674
833.437	2670
833.576	2674
833.714	2727
833.852	2724
833.991	2743
834.129	2834
834.267	2830
834.406	2777
834.544	2853
834.682	2883
834.821	2864
834.959	3089
835.097	2857
835.235	3051
835.373	2975
835.511	3039
835.65	2963
835.788	2925
835.926	2804
836.064	2842
836.202	2823
836.34	3089
836.478	3165
836.615	3032
836.753	3150
836.891	3211
837.029	3203
837.167	3100
837.305	3043
837.443	3032
837.58	2975
837.718	3108
837.856	3032
837.993	2998
838.131	3112
838.269	3104
838.406	3104
838.544	3104
838.681	2929
838.819	2887
838.956	2849
839.094	2811
839.231	2891
839.369	3043
839.506	3367
839.643	3230
839.781	2952
839.918	2910
840.055	3039
840.193	3039
840.33	3055
840.467	3077
840.604	3154
840.742	3389
840.879	3039
841.016	3024
841.153	3093
841.29	3325
841.427	3275
841.564	3233
841.701	3287
841.838	3214
841.975	3165
842.112	3195
842.249	3093
842.385	3020
842.522	3233
842.659	3089
842.796	3032
842.933	3085
843.069	3051
843.206	3020
843.343	3180
843.479	3089
843.616	3150
843.752	2880
843.889	2872
844.025	3081
844.162	2861
844.298	3081
844.435	2922
844.571	2895
844.708	3058
844.844	3211
844.98	3249
845.117	3203
845.253	2994
845.389	3020
845.525	3085
845.661	3131
845.798	3047
845.934	3127
846.07	3047
846.206	3203
846.342	3321
846.478	3226
846.614	3097
846.75	3039
846.886	3013
847.022	3226
847.158	3157
847.294	3211
847.429	3218
847.565	3211
847.701	3450
847.837	3028
847.972	2982
848.108	3161
848.244	3150
848.379	2956
848.515	2933
848.65	2956
848.786	2979
848.921	3024
849.057	3116
849.192	3142
849.328	3070
849.463	3116
849.598	3070
849.734	3051
849.869	2986
850.004	2857
850.14	2925
850.275	2910
850.41	2849
850.545	2899
850.68	2914
850.815	2948
850.95	2952
851.085	3165
851.22	3070
851.355	3039
851.49	2963
851.625	2986
851.76	2998
851.895	2944
852.03	2895
852.165	3020
852.299	3104
852.434	3192
852.569	3104
852.703	3138
852.838	3264
852.973	3336
853.107	3325
853.242	3169
853.376	3116
853.511	3001
853.645	3005
853.78	3245
853.914	3089
854.048	3108
854.183	3043
854.317	3112
854.451	3279
854.585	3131
854.72	3100
854.854	3173
854.988	3058
855.122	3081
855.256	2963
855.39	3097
855.524	3218
855.658	3157
855.792	3165
855.926	3184
856.06	3222
856.194	3279
856.327	3150
856.461	3093
856.595	3116
856.729	3066
856.862	3245
856.996	3165
857.13	3211
857.263	3157
857.397	3298
857.53	3097
857.664	3184
857.797	3230
857.931	3275
858.064	3169
858.197	3249
858.331	3131
858.464	3089
858.597	2941
858.731	3100
858.864	3127
858.997	3093
859.13	3138
859.263	3180
859.396	3192
859.529	3116
859.662	3081
859.795	3055
859.928	3123
860.061	3268
860.194	3291
860.327	3116
860.46	3089
860.592	3233
860.725	3241
860.858	3245
860.99	3112
861.123	3043
861.256	3043
861.388	3188
861.521	3960
861.653	3028
861.786	2998
861.918	3009
862.05	3032
862.183	3131
862.315	3161
862.447	3233
862.58	3093
862.712	2948
862.844	2868
862.976	3013
863.108	2948
863.24	3389
863.372	2895
863.504	2944
863.636	2952
863.768	3047
863.9	3001
864.032	2914
864.164	2922
864.296	3001
864.428	3070
864.559	3093
864.691	3093
864.823	3081
864.954	3081
865.086	3047
865.217	3009
865.349	2933
865.48	2971
865.612	2998
865.743	3127
865.875	2963
866.006	2914
866.137	2967
866.269	2925
866.4	2933
866.531	2899
866.662	2891
866.793	2906
866.924	2891
867.055	2906
867.186	2918
867.317	2868
867.448	2842
867.579	2864
867.71	2895
867.841	2826
867.972	2906
868.103	2880
868.233	2895
868.364	2864
868.495	2891
868.625	3077
868.756	3173
868.886	2990
869.017	3028
869.147	3173
869.278	3195
869.408	3055
869.539	3028
869.669	3077
869.799	3013
869.929	3157
870.06	3081
870.19	3317
870.32	3264
870.45	3351
870.58	3359
870.71	3428
870.84	3466
870.97	3264
871.1	3237
871.23	3500
871.36	3477
871.489	3344
871.619	3424
871.749	3367
871.879	3454
872.008	3485
872.138	3332
872.267	3253
872.397	3123
872.526	3093
872.656	3013
872.785	3058
872.915	3237
873.044	3272
873.173	3214
873.303	3264
873.432	3237
873.561	3188
873.69	3154
873.819	3142
873.948	3192
874.077	3157
874.206	3013
874.335	3055
874.464	3211
874.593	3340
874.722	3203
874.851	3374
874.979	3393
875.108	3325
875.237	3195
875.365	3169
875.494	3161
875.623	3245
875.751	3093
875.88	3146
876.008	3161
876.136	3214
876.265	3378
876.393	3519
876.521	3409
876.65	3401
876.778	3332
876.906	3256
877.034	3203
877.162	3245
877.29	3211
877.418	3249
877.546	3264
877.674	3241
877.802	3218
877.93	3230
878.058	3142
878.185	3093
878.313	3199
878.441	3199
878.568	3055
878.696	3154
878.824	3222
878.951	3294
879.079	3397
879.206	3622
879.333	3443
879.461	3310
879.588	3370
879.715	3439
879.842	3568
879.97	3348
880.097	3157
880.224	3157
880.351	3161
880.478	3188
880.605	3192
880.732	3154
880.859	3507
880.986	3272
881.112	3298
881.239	3195
881.366	3108
881.493	3039
881.619	3017
881.746	3074
881.872	3104
881.999	3089
882.125	3154
882.252	3241
882.378	3260
882.505	3416
882.631	3294
882.757	3165
882.883	3188
883.01	3188
883.136	3146
883.262	3066
883.388	3146
883.514	3298
883.64	3363
883.766	3260
883.892	3173
884.018	3218
884.143	3405
884.269	3542
884.395	3176
884.52	3157
884.646	3169
884.772	3135
884.897	3108
885.023	3203
885.148	3336
885.274	3363
885.399	3370
885.524	3272
885.65	3256
885.775	3306
885.9	3291
886.025	3405
886.15	3355
886.275	3294
886.4	3211
886.525	3279
886.65	3302
886.775	3283
886.9	3504
887.025	3637
887.149	3416
887.274	3253
887.399	3188
887.523	3184
887.648	3207
887.773	3173
887.897	3355
888.021	3393
888.146	3336
888.27	3420
888.395	3523
888.519	3397
888.643	3424
888.767	3431
888.891	3294
889.015	3249
889.139	3241
889.263	3233
889.387	3416
889.511	3500
889.635	3454
889.759	3283
889.883	3306
890.006	3424
890.13	3477
890.254	3306
890.377	3310
890.501	3165
890.624	3142
890.748	3291
890.871	3165
890.995	3070
891.118	3058
891.241	3207
891.364	3207
891.488	3313
891.611	3169
891.734	3192
891.857	3317
891.98	3211
892.103	3340
892.226	3302
892.349	3233
892.471	3074
892.594	3211
892.717	3279
892.839	3253
892.962	3283
893.085	3332
893.207	3317
893.33	3165
893.452	3180
893.575	3325
893.697	3264
893.819	3447
893.941	3504
894.064	3428
894.186	3241
894.308	3272
894.43	3428
894.552	3542
894.674	3496
894.796	3195
894.918	3294
895.04	3264
895.161	3409
895.283	3386
895.405	3336
895.526	3344
895.648	3412
895.769	3405
895.891	3458
896.012	3469
896.134	3488
896.255	3412
896.376	3386
896.498	3374
896.619	3416
896.74	3359
896.861	3386
896.982	3663
897.103	3838
897.224	3606
897.345	3492
897.466	3454
897.587	3519
897.708	3637
897.828	3519
897.949	3447
898.07	3336
898.19	3389
898.311	3622
898.431	3473
898.552	3553
898.672	3584
898.792	3595
898.913	3526
899.033	3424
899.153	3272
899.273	3222
899.393	3264
899.513	3321
899.633	3325
899.753	3359
899.873	3310
899.993	3386
900.113	3340
900.232	3370
900.352	3332
900.472	3283
900.591	3173
900.711	3325
900.83	3237
900.95	3386
901.069	3519
901.189	3325
901.308	3173
901.427	3108
901.546	3203
901.665	3272
901.784	3302
901.904	3176
902.023	3104
902.141	2994
902.26	3001
902.379	3127
902.498	3081
902.617	3051
902.735	3230
902.854	3214
902.973	3192
903.091	3013
903.21	3036
903.328	3104
903.446	3093
903.565	3089
903.683	3203
903.801	3165
903.919	3233
904.038	3268
904.156	3150
904.274	3268
904.392	3275
904.51	3298
904.627	3344
904.745	3447
904.863	3488
904.981	3275
905.098	3173
905.216	3218
905.334	3302
905.451	3298
905.569	3313
905.686	3401
905.803	3431
905.921	3283
906.038	3409
906.155	3325
906.272	3272
906.389	3321
906.506	3222
906.623	3287
906.74	3287
906.857	3192
906.974	3218
907.091	3424
907.208	3549
907.324	3488
907.441	3348
907.557	3214
907.674	3226
907.79	3176
907.907	3268
908.023	3374
908.139	3378
908.256	3317
908.372	3359
908.488	3313
908.604	3241
908.72	3184
908.836	3283
908.952	3302
909.068	3332
909.184	3424
909.3	3389
909.415	3542
909.531	3481
909.647	3264
909.762	3275
909.878	3249
909.993	3336
910.108	3340
910.224	3370
910.339	3443
910.454	3298
910.57	3298
910.685	3260
910.8	3599
910.915	3530
911.03	3416
911.145	3291
911.259	3237
911.374	3332
911.489	3222
911.604	3241
911.718	3127
911.833	3116
911.947	2986
912.062	3020
912.176	3176
912.291	3176
912.405	3218
912.519	3458
912.633	3481
912.748	3329
912.862	3291
912.976	3207
913.09	3047
913.204	3104
913.318	3253
913.431	3344
913.545	3332
913.659	3378
913.772	3329
913.886	3222
914	3214
914.113	3351
914.226	3435
914.34	3332
914.453	3233
914.566	3412
914.68	3291
914.793	3272
914.906	3108
915.019	3093
915.132	3077
915.245	3188
915.358	3218
915.47	3195
915.583	3256
915.696	3298
915.809	3382
915.921	3428
916.034	3245
916.146	3275
916.259	3142
916.371	3378
916.483	3382
916.595	3291
916.708	3310
916.82	3298
916.932	3378
917.044	3332
917.156	3340
917.268	3230
917.38	3283
917.491	3355
917.603	3348
917.715	3481
917.826	3466
917.938	3363
918.049	3279
918.161	3450
918.272	3584
918.384	3584
918.495	3485
918.606	3321
918.717	3272
918.828	3367
918.939	3405
919.05	3313
919.161	3344
919.272	3165
919.383	3279
919.494	3485
919.604	3637
919.715	3485
919.826	3412
919.936	3435
920.047	3572
920.157	3542
920.267	3793
920.378	3603
920.488	3545
920.598	3789
920.708	3934
920.818	3861
920.928	3842
921.038	4063
921.148	3968
921.258	3713
921.368	3648
921.477	3549
921.587	3587
921.697	3416
921.806	3614
921.916	3477
922.025	3329
922.134	3344
922.244	3272
922.353	3420
922.462	3287
922.571	3222
922.68	3100
922.789	3100
922.898	3150
923.007	3104
923.116	3214
923.224	3207
923.333	3199
923.442	3066
923.55	3097
923.659	3112
923.767	3230
923.876	3112
923.984	3218
924.092	3104
924.201	3207
924.309	3226
924.417	3237
924.525	3180
924.633	3237
924.741	4181
924.849	3058
924.956	3298
925.064	3112
925.172	3024
925.279	3108
925.387	3176
925.494	3218
925.602	3340
925.709	3321
925.816	3176
925.924	3294
926.031	3363
926.138	3294
926.245	3348
926.352	3260
926.459	3401
926.566	3485
926.673	3332
926.779	3253
926.886	3249
926.993	3135
927.099	3127
927.206	3119
927.312	3093
927.419	3256
927.525	3230
927.631	3256
927.737	3131
927.843	3135
927.95	3028
928.056	3123
928.162	3169
928.267	3256
928.373	3880
928.479	3268
928.585	3055
928.69	3249
928.796	3264
928.901	3116
929.007	3039
929.112	3230
929.218	3173
929.323	3138
929.428	3138
929.533	3294
929.638	3135
929.743	3184
929.848	3264
929.953	3226
930.058	3173
930.163	3013
930.267	3028
930.372	3142
930.477	3066
930.581	3321
930.685	3199
930.79	3043
930.894	3142
930.998	3085
931.103	3279
931.207	2941
931.311	2922
931.415	2914
931.519	2773
931.623	2815
