Data from test_V78500241_1773.txt Node
Date: Fri Mar 25 16:27:29 CST 2022
User: usil
Spectrometer: V785-0024
Trigger mode: 0
Integration Time (sec): 4.000000E-1
Scans to average: 1
Nonlinearity correction enabled: false
Boxcar width: 0
Storing dark spectrum: false
XAxis mode: Wavelengths
Number of Pixels in Spectrum: 1024
>>>>>Begin Spectral Data<<<<<
801.071	2918
801.214	2963
801.356	2883
801.499	2948
801.641	2891
801.783	2971
801.926	3047
802.068	3005
802.211	3001
802.353	3036
802.496	2956
802.638	3036
802.78	3039
802.923	3089
803.065	3020
803.208	2937
803.35	2910
803.492	2990
803.635	2941
803.777	2777
803.919	2845
804.061	3214
804.204	2975
804.346	2925
804.488	2868
804.63	3043
804.773	2883
804.915	2887
805.057	3077
805.199	2910
805.341	2979
805.483	3119
805.626	3020
805.768	3001
805.91	3108
806.052	3131
806.194	3055
806.336	3272
806.478	3028
806.62	2990
806.762	2971
806.904	3070
807.046	3157
807.188	2975
807.33	2895
807.472	3009
807.614	2925
807.756	2990
807.898	2925
808.04	2929
808.182	2979
808.324	2967
808.465	2914
808.607	2880
808.749	2811
808.891	2887
809.033	2948
809.174	2971
809.316	2891
809.458	2891
809.6	2777
809.741	2758
809.883	2762
810.025	2845
810.166	2891
810.308	2872
810.45	2838
810.591	2750
810.733	2769
810.875	2845
811.016	2804
811.158	2750
811.299	2811
811.441	2929
811.582	2910
811.724	2819
811.865	2842
812.007	2929
812.148	2887
812.29	2845
812.431	2895
812.573	2948
812.714	2960
812.855	3055
812.997	3051
813.138	3138
813.279	3036
813.421	2994
813.562	2941
813.703	2864
813.845	2876
813.986	2819
814.127	2705
814.268	2834
814.41	2876
814.551	2807
814.692	2891
814.833	2849
814.974	2899
815.115	2967
815.256	2857
815.397	2834
815.539	2887
815.68	2785
815.821	2815
815.962	2941
816.103	2910
816.244	2883
816.385	2868
816.526	2986
816.666	2937
816.807	2743
816.948	2895
817.089	2902
817.23	2861
817.371	2769
817.512	2781
817.653	2857
817.793	2834
817.934	2933
818.075	2952
818.216	3028
818.356	3047
818.497	2883
818.638	2815
818.778	2800
818.919	2788
819.06	2766
819.2	2902
819.341	2823
819.481	2823
819.622	2933
819.762	3116
819.903	3036
820.043	2910
820.184	2906
820.324	2891
820.465	3017
820.605	3036
820.746	3047
820.886	2929
821.026	3116
821.167	3150
821.307	3253
821.447	3275
821.588	3214
821.728	3192
821.868	3195
822.008	3070
822.149	3176
822.289	3256
822.429	3089
822.569	3089
822.709	3188
822.849	3020
822.99	3062
823.13	3195
823.27	3195
823.41	3135
823.55	3138
823.69	3131
823.83	3192
823.97	3097
824.11	3017
824.25	3017
824.389	3028
824.529	3150
824.669	3093
824.809	3165
824.949	3241
825.089	3192
825.228	3131
825.368	2990
825.508	2979
825.648	2979
825.787	3009
825.927	3074
826.067	3017
826.206	2963
826.346	3070
826.485	3047
826.625	3146
826.765	3260
826.904	3203
827.044	3013
827.183	2944
827.323	2891
827.462	3005
827.601	2941
827.741	2948
827.88	2986
828.02	2807
828.159	2979
828.298	3024
828.437	3066
828.577	3062
828.716	3214
828.855	3104
828.994	2918
829.134	2899
829.273	2971
829.412	2868
829.551	2845
829.69	2883
829.829	3036
829.968	3123
830.107	3055
830.246	3028
830.385	2937
830.524	2872
830.663	2861
830.802	2769
830.941	2648
831.08	2670
831.219	2754
831.357	2750
831.496	2941
831.635	2750
831.774	2674
831.913	2655
832.051	2587
832.19	2602
832.329	2689
832.467	2514
832.606	2473
832.744	2575
832.883	2575
833.022	2598
833.16	2659
833.299	2667
833.437	2731
833.576	2708
833.714	2724
833.852	2731
833.991	2746
834.129	2800
834.267	2826
834.406	2796
834.544	2864
834.682	2899
834.821	2830
834.959	3055
835.097	2872
835.235	3074
835.373	2990
835.511	3039
835.65	2948
835.788	2963
835.926	2826
836.064	2826
836.202	2883
836.34	3085
836.478	3131
836.615	3081
836.753	3112
836.891	3226
837.029	3184
837.167	3135
837.305	3077
837.443	3055
837.58	2963
837.718	3138
837.856	3028
837.993	3001
838.131	3135
838.269	3112
838.406	3131
838.544	3089
838.681	2960
838.819	2902
838.956	2800
839.094	2804
839.231	2895
839.369	3017
839.506	3370
839.643	3230
839.781	3020
839.918	2948
840.055	3058
840.193	3070
840.33	3055
840.467	3097
840.604	3146
840.742	3389
840.879	3066
841.016	3070
841.153	3150
841.29	3332
841.427	3329
841.564	3275
841.701	3313
841.838	3218
841.975	3165
842.112	3188
842.249	3055
842.385	3085
842.522	3233
842.659	3089
842.796	3066
842.933	3119
843.069	3055
843.206	3017
843.343	3207
843.479	3097
843.616	3157
843.752	2883
843.889	2918
844.025	3070
844.162	2895
844.298	3097
844.435	2929
844.571	2933
844.708	3051
844.844	3184
844.98	3207
845.117	3199
845.253	3039
845.389	3043
845.525	3127
845.661	3089
845.798	3001
845.934	3154
846.07	3055
846.206	3222
846.342	3298
846.478	3260
846.614	3100
846.75	3070
846.886	3020
847.022	3237
847.158	3135
847.294	3199
847.429	3287
847.565	3199
847.701	3473
847.837	3062
847.972	3017
848.108	3161
848.244	3188
848.379	2998
848.515	2925
848.65	2918
848.786	2998
848.921	2982
849.057	3077
849.192	3127
849.328	3070
849.463	3127
849.598	3051
849.734	3005
849.869	2979
850.004	2914
850.14	2986
850.275	2891
850.41	2834
850.545	2906
850.68	2941
850.815	2975
850.95	2952
851.085	3214
851.22	3093
851.355	3009
851.49	3001
851.625	3001
851.76	3017
851.895	2941
852.03	2868
852.165	3036
852.299	3123
852.434	3176
852.569	3127
852.703	3176
852.838	3222
852.973	3348
853.107	3329
853.242	3104
853.376	3093
853.511	2990
853.645	3024
853.78	3233
853.914	3131
854.048	3070
854.183	3097
854.317	3154
854.451	3283
854.585	3123
854.72	3077
854.854	3184
854.988	3039
855.122	3058
855.256	2956
855.39	3089
855.524	3260
855.658	3173
855.792	3138
855.926	3188
856.06	3192
856.194	3214
856.327	3108
856.461	3055
856.595	3066
856.729	3127
856.862	3195
856.996	3146
857.13	3157
857.263	3222
857.397	3279
857.53	3089
857.664	3184
857.797	3226
857.931	3249
858.064	3150
858.197	3184
858.331	3116
858.464	3089
858.597	2994
858.731	3093
858.864	3138
858.997	3074
859.13	3146
859.263	3188
859.396	3203
859.529	3097
859.662	3062
859.795	3062
859.928	3112
860.061	3268
860.194	3283
860.327	3127
860.46	3077
860.592	3218
860.725	3222
860.858	3253
860.99	3104
861.123	3051
861.256	3036
861.388	3146
861.521	3869
861.653	3009
861.786	2956
861.918	2975
862.05	3089
862.183	3100
862.315	3138
862.447	3199
862.58	3077
862.712	2937
862.844	2895
862.976	3013
863.108	3020
863.24	3329
863.372	2895
863.504	2967
863.636	2979
863.768	3062
863.9	2944
864.032	2910
864.164	2929
864.296	2998
864.428	3097
864.559	3119
864.691	3089
864.823	3066
864.954	3028
865.086	3066
865.217	3017
865.349	2963
865.48	2986
865.612	2990
865.743	3173
865.875	2975
866.006	2948
866.137	2948
866.269	2941
866.4	2891
866.531	2899
866.662	2902
866.793	2914
866.924	2918
867.055	2963
867.186	2948
867.317	2914
867.448	2857
867.579	2838
867.71	2834
867.841	2804
867.972	2918
868.103	2902
868.233	2895
868.364	2864
868.495	2899
868.625	3066
868.756	3161
868.886	2914
869.017	3013
869.147	3203
869.278	3165
869.408	3039
869.539	3032
869.669	3062
869.799	3051
869.929	3135
870.06	3097
870.19	3302
870.32	3287
870.45	3298
870.58	3370
870.71	3443
870.84	3454
870.97	3260
871.1	3268
871.23	3496
871.36	3458
871.489	3329
871.619	3397
871.749	3386
871.879	3412
872.008	3473
872.138	3348
872.267	3283
872.397	3161
872.526	3093
872.656	3024
872.785	3108
872.915	3264
873.044	3291
873.173	3199
873.303	3237
873.432	3222
873.561	3249
873.69	3154
873.819	3131
873.948	3214
874.077	3123
874.206	3005
874.335	3089
874.464	3214
874.593	3351
874.722	3275
874.851	3382
874.979	3355
875.108	3298
875.237	3199
875.365	3165
875.494	3184
875.623	3218
875.751	3108
875.88	3097
876.008	3222
876.136	3184
876.265	3374
876.393	3496
876.521	3447
876.65	3363
876.778	3344
876.906	3226
877.034	3180
877.162	3199
877.29	3176
877.418	3233
877.546	3283
877.674	3199
877.802	3264
877.93	3237
878.058	3173
878.185	3077
878.313	3233
878.441	3241
878.568	3062
878.696	3146
878.824	3264
878.951	3283
879.079	3466
879.206	3641
879.333	3424
879.461	3287
879.588	3370
879.715	3447
879.842	3584
879.97	3386
880.097	3207
880.224	3108
880.351	3184
880.478	3184
880.605	3165
880.732	3184
880.859	3507
880.986	3313
881.112	3313
881.239	3188
881.366	3081
881.493	3028
881.619	3051
881.746	3081
881.872	3058
881.999	3100
882.125	3176
882.252	3249
882.378	3272
882.505	3462
882.631	3275
882.757	3165
882.883	3184
883.01	3249
883.136	3192
883.262	3100
883.388	3138
883.514	3294
883.64	3351
883.766	3325
883.892	3154
884.018	3245
884.143	3405
884.269	3545
884.395	3218
884.52	3180
884.646	3192
884.772	3097
884.897	3100
885.023	3180
885.148	3351
885.274	3405
885.399	3340
885.524	3245
885.65	3287
885.775	3351
885.9	3268
886.025	3435
886.15	3386
886.275	3291
886.4	3203
886.525	3298
886.65	3283
886.775	3268
886.9	3492
887.025	3599
887.149	3431
887.274	3268
887.399	3192
887.523	3199
887.648	3180
887.773	3173
887.897	3367
888.021	3397
888.146	3302
888.27	3416
888.395	3500
888.519	3416
888.643	3420
888.767	3469
888.891	3329
889.015	3218
889.139	3321
889.263	3249
889.387	3416
889.511	3477
889.635	3401
889.759	3294
889.883	3291
890.006	3370
890.13	3477
890.254	3283
890.377	3298
890.501	3180
890.624	3207
890.748	3306
890.871	3173
890.995	3146
891.118	3066
891.241	3203
891.364	3192
891.488	3313
891.611	3131
891.734	3207
891.857	3287
891.98	3226
892.103	3332
892.226	3275
892.349	3222
892.471	3089
892.594	3233
892.717	3310
892.839	3272
892.962	3317
893.085	3355
893.207	3283
893.33	3161
893.452	3192
893.575	3332
893.697	3237
893.819	3473
893.941	3507
894.064	3450
894.186	3256
894.308	3260
894.43	3450
894.552	3515
894.674	3447
894.796	3260
894.918	3302
895.04	3294
895.161	3420
895.283	3416
895.405	3313
895.526	3340
895.648	3431
895.769	3435
895.891	3454
896.012	3473
896.134	3466
896.255	3382
896.376	3389
896.498	3382
896.619	3386
896.74	3332
896.861	3386
896.982	3690
897.103	3869
897.224	3591
897.345	3469
897.466	3420
897.587	3462
897.708	3614
897.828	3576
897.949	3428
898.07	3336
898.19	3329
898.311	3614
898.431	3431
898.552	3507
898.672	3557
898.792	3549
898.913	3542
899.033	3412
899.153	3272
899.273	3241
899.393	3256
899.513	3294
899.633	3310
899.753	3378
899.873	3310
899.993	3389
900.113	3344
900.232	3382
900.352	3332
900.472	3291
900.591	3180
900.711	3298
900.83	3249
900.95	3412
901.069	3492
901.189	3325
901.308	3207
901.427	3123
901.546	3165
901.665	3279
901.784	3325
901.904	3241
902.023	3169
902.141	3028
902.26	3005
902.379	3142
902.498	3070
902.617	3036
902.735	3169
902.854	3233
902.973	3222
903.091	3062
903.21	3070
903.328	3131
903.446	3081
903.565	3123
903.683	3211
903.801	3116
903.919	3253
904.038	3306
904.156	3165
904.274	3332
904.392	3275
904.51	3256
904.627	3310
904.745	3424
904.863	3469
904.981	3264
905.098	3157
905.216	3249
905.334	3291
905.451	3291
905.569	3283
905.686	3416
905.803	3409
905.921	3321
906.038	3435
906.155	3355
906.272	3268
906.389	3317
906.506	3245
906.623	3237
906.74	3256
906.857	3184
906.974	3249
907.091	3462
907.208	3545
907.324	3542
907.441	3382
907.557	3241
907.674	3237
907.79	3173
907.907	3272
908.023	3397
908.139	3401
908.256	3340
908.372	3348
908.488	3374
908.604	3218
908.72	3203
908.836	3260
908.952	3268
909.068	3351
909.184	3473
909.3	3401
909.415	3492
909.531	3469
909.647	3272
909.762	3256
909.878	3233
909.993	3351
910.108	3348
910.224	3329
910.339	3420
910.454	3310
910.57	3272
910.685	3241
910.8	3606
910.915	3507
911.03	3443
911.145	3268
911.259	3237
911.374	3302
911.489	3222
911.604	3256
911.718	3116
911.833	3169
911.947	3036
912.062	2963
912.176	3184
912.291	3195
912.405	3237
912.519	3393
912.633	3458
912.748	3325
912.862	3279
912.976	3165
913.09	3043
913.204	3142
913.318	3176
913.431	3344
913.545	3294
913.659	3405
913.772	3351
913.886	3199
914	3203
914.113	3329
914.226	3405
914.34	3344
914.453	3222
914.566	3374
914.68	3222
914.793	3332
914.906	3116
915.019	3119
915.132	3062
915.245	3169
915.358	3195
915.47	3195
915.583	3256
915.696	3283
915.809	3428
915.921	3397
916.034	3249
916.146	3256
916.259	3253
916.371	3355
916.483	3321
916.595	3241
916.708	3317
916.82	3367
916.932	3325
917.044	3329
917.156	3306
917.268	3241
917.38	3291
917.491	3279
917.603	3367
917.715	3447
917.826	3439
917.938	3386
918.049	3302
918.161	3409
918.272	3523
918.384	3561
918.495	3473
918.606	3355
918.717	3245
918.828	3367
918.939	3405
919.05	3313
919.161	3397
919.272	3188
919.383	3291
919.494	3488
919.604	3671
919.715	3492
919.826	3409
919.936	3477
920.047	3557
920.157	3530
920.267	3755
920.378	3599
920.488	3610
920.598	3770
920.708	3945
920.818	3812
920.928	3842
921.038	3979
921.148	3941
921.258	3720
921.368	3629
921.477	3595
921.587	3545
921.697	3458
921.806	3614
921.916	3519
922.025	3344
922.134	3317
922.244	3306
922.353	3412
922.462	3249
922.571	3214
922.68	3066
922.789	3058
922.898	3146
923.007	3104
923.116	3233
923.224	3173
923.333	3180
923.442	3100
923.55	3112
923.659	3154
923.767	3207
923.876	3100
923.984	3260
924.092	3100
924.201	3211
924.309	3184
924.417	3230
924.525	3173
924.633	3218
924.741	3998
924.849	3051
924.956	3268
925.064	3131
925.172	3036
925.279	3131
925.387	3195
925.494	3176
925.602	3302
925.709	3306
925.816	3180
925.924	3294
926.031	3367
926.138	3313
926.245	3340
926.352	3275
926.459	3389
926.566	3477
926.673	3329
926.779	3226
926.886	3249
926.993	3116
927.099	3123
927.206	3119
927.312	3112
927.419	3211
927.525	3230
927.631	3283
927.737	3173
927.843	3112
927.95	3047
928.056	3104
928.162	3203
928.267	3279
928.373	3922
928.479	3321
928.585	3093
928.69	3268
928.796	3272
928.901	3173
929.007	3074
929.112	3218
929.218	3169
929.323	3165
929.428	3142
929.533	3298
929.638	3112
929.743	3161
929.848	3245
929.953	3192
930.058	3154
930.163	3028
930.267	3097
930.372	3192
930.477	3017
930.581	3310
930.685	3157
930.79	3077
930.894	3146
930.998	3104
931.103	3287
931.207	2982
931.311	2956
931.415	2952
931.519	2766
931.623	2815
