Data from test_V78500241_1916.txt Node
Date: Fri Mar 25 16:28:28 CST 2022
User: usil
Spectrometer: V785-0024
Trigger mode: 0
Integration Time (sec): 4.000000E-1
Scans to average: 1
Nonlinearity correction enabled: false
Boxcar width: 0
Storing dark spectrum: false
XAxis mode: Wavelengths
Number of Pixels in Spectrum: 1024
>>>>>Begin Spectral Data<<<<<
801.071	2922
801.214	2902
801.356	2868
801.499	2845
801.641	2861
801.783	2902
801.926	3051
802.068	3005
802.211	2971
802.353	3036
802.496	2937
802.638	3024
802.78	3070
802.923	3081
803.065	2990
803.208	2944
803.35	2914
803.492	2906
803.635	2918
803.777	2773
803.919	2842
804.061	3165
804.204	2952
804.346	2891
804.488	2857
804.63	3009
804.773	2861
804.915	2910
805.057	3062
805.199	2925
805.341	2986
805.483	3039
805.626	2952
805.768	2975
805.91	3074
806.052	3081
806.194	3020
806.336	3264
806.478	3020
806.62	2937
806.762	2956
806.904	3009
807.046	3146
807.188	2960
807.33	2883
807.472	2975
807.614	2902
807.756	2948
807.898	2914
808.04	2902
808.182	2982
808.324	2960
808.465	2868
808.607	2914
808.749	2807
808.891	2826
809.033	2948
809.174	2975
809.316	2891
809.458	2887
809.6	2762
809.741	2750
809.883	2750
810.025	2838
810.166	2838
810.308	2845
810.45	2826
810.591	2758
810.733	2788
810.875	2872
811.016	2815
811.158	2769
811.299	2788
811.441	2922
811.582	2868
811.724	2853
811.865	2823
812.007	2891
812.148	2891
812.29	2849
812.431	2902
812.573	2910
812.714	2944
812.855	3066
812.997	3017
813.138	3100
813.279	3013
813.421	2975
813.562	2967
813.703	2876
813.845	2906
813.986	2792
814.127	2720
814.268	2800
814.41	2823
814.551	2826
814.692	2861
814.833	2804
814.974	2914
815.115	2967
815.256	2796
815.397	2785
815.539	2845
815.68	2743
815.821	2788
815.962	2956
816.103	2979
816.244	2876
816.385	2834
816.526	2948
816.666	2941
816.807	2746
816.948	2880
817.089	2899
817.23	2842
817.371	2807
817.512	2823
817.653	2861
817.793	2800
817.934	2895
818.075	2971
818.216	2975
818.356	3020
818.497	2887
818.638	2785
818.778	2811
818.919	2815
819.06	2754
819.2	2891
819.341	2769
819.481	2785
819.622	2929
819.762	3066
819.903	3036
820.043	2929
820.184	2899
820.324	2910
820.465	2982
820.605	3032
820.746	2994
820.886	2887
821.026	3104
821.167	3184
821.307	3291
821.447	3294
821.588	3264
821.728	3173
821.868	3192
822.008	3081
822.149	3161
822.289	3214
822.429	3112
822.569	3119
822.709	3199
822.849	2990
822.99	3051
823.13	3192
823.27	3203
823.41	3108
823.55	3176
823.69	3142
823.83	3176
823.97	3089
824.11	2982
824.25	2979
824.389	3051
824.529	3123
824.669	3097
824.809	3199
824.949	3233
825.089	3218
825.228	3116
825.368	3017
825.508	2929
825.648	2975
825.787	2994
825.927	3005
826.067	2963
826.206	2937
826.346	3032
826.485	3036
826.625	3119
826.765	3268
826.904	3218
827.044	2998
827.183	2948
827.323	2868
827.462	2990
827.601	2902
827.741	2883
827.88	2990
828.02	2811
828.159	2941
828.298	3051
828.437	3100
828.577	3066
828.716	3283
828.855	3093
828.994	2918
829.134	2876
829.273	2929
829.412	2872
829.551	2842
829.69	2868
829.829	3005
829.968	3112
830.107	2975
830.246	3028
830.385	2918
830.524	2872
830.663	2796
830.802	2727
830.941	2613
831.08	2667
831.219	2788
831.357	2750
831.496	2925
831.635	2739
831.774	2636
831.913	2602
832.051	2514
832.19	2552
832.329	2682
832.467	2541
832.606	2492
832.744	2579
832.883	2583
833.022	2594
833.16	2678
833.299	2663
833.437	2693
833.576	2686
833.714	2731
833.852	2712
833.991	2785
834.129	2849
834.267	2796
834.406	2766
834.544	2842
834.682	2891
834.821	2849
834.959	3062
835.097	2895
835.235	3020
835.373	2994
835.511	2998
835.65	2941
835.788	2948
835.926	2811
836.064	2804
836.202	2815
836.34	3074
836.478	3112
836.615	3062
836.753	3135
836.891	3184
837.029	3176
837.167	3097
837.305	3051
837.443	3051
837.58	2967
837.718	3135
837.856	3051
837.993	3024
838.131	3119
838.269	3077
838.406	3077
838.544	3074
838.681	2929
838.819	2891
838.956	2796
839.094	2804
839.231	2906
839.369	3028
839.506	3359
839.643	3207
839.781	2982
839.918	2971
840.055	3058
840.193	3066
840.33	3032
840.467	3112
840.604	3138
840.742	3378
840.879	3028
841.016	3047
841.153	3100
841.29	3317
841.427	3302
841.564	3256
841.701	3302
841.838	3230
841.975	3165
842.112	3184
842.249	3047
842.385	3089
842.522	3226
842.659	3089
842.796	3066
842.933	3097
843.069	3028
843.206	3043
843.343	3173
843.479	3112
843.616	3093
843.752	2922
843.889	2857
844.025	3131
844.162	2891
844.298	3089
844.435	2941
844.571	2914
844.708	3055
844.844	3138
844.98	3245
845.117	3211
845.253	3032
845.389	3005
845.525	3119
845.661	3112
845.798	3009
845.934	3119
846.07	3051
846.206	3249
846.342	3340
846.478	3161
846.614	3100
846.75	3055
846.886	3005
847.022	3222
847.158	3100
847.294	3211
847.429	3237
847.565	3184
847.701	3450
847.837	3062
847.972	2948
848.108	3131
848.244	3150
848.379	2979
848.515	2937
848.65	2922
848.786	2948
848.921	2998
849.057	3104
849.192	3116
849.328	3089
849.463	3100
849.598	3070
849.734	3058
849.869	2990
850.004	2914
850.14	2960
850.275	2952
850.41	2800
850.545	2864
850.68	2906
850.815	2975
850.95	2979
851.085	3165
851.22	3093
851.355	3009
851.49	2994
851.625	2990
851.76	3036
851.895	2899
852.03	2918
852.165	3009
852.299	3085
852.434	3169
852.569	3138
852.703	3161
852.838	3237
852.973	3386
853.107	3325
853.242	3138
853.376	3100
853.511	2918
853.645	3032
853.78	3253
853.914	3138
854.048	3051
854.183	3104
854.317	3097
854.451	3283
854.585	3100
854.72	3104
854.854	3207
854.988	3043
855.122	3089
855.256	2948
855.39	3074
855.524	3218
855.658	3154
855.792	3195
855.926	3165
856.06	3230
856.194	3260
856.327	3127
856.461	3074
856.595	3104
856.729	3062
856.862	3249
856.996	3135
857.13	3203
857.263	3230
857.397	3264
857.53	3123
857.664	3192
857.797	3214
857.931	3241
858.064	3157
858.197	3211
858.331	3135
858.464	3112
858.597	2998
858.731	3077
858.864	3146
858.997	3097
859.13	3161
859.263	3150
859.396	3180
859.529	3119
859.662	3062
859.795	3043
859.928	3142
860.061	3275
860.194	3260
860.327	3127
860.46	3032
860.592	3218
860.725	3245
860.858	3241
860.99	3123
861.123	3074
861.256	3055
861.388	3135
861.521	3785
861.653	3032
861.786	2994
861.918	2998
862.05	3036
862.183	3036
862.315	3169
862.447	3203
862.58	3104
862.712	2944
862.844	2883
862.976	2990
863.108	3020
863.24	3329
863.372	2891
863.504	2952
863.636	2914
863.768	2998
863.9	2990
864.032	2937
864.164	2933
864.296	3047
864.428	3081
864.559	3085
864.691	3085
864.823	3051
864.954	3028
865.086	3028
865.217	2982
865.349	2937
865.48	2990
865.612	3024
865.743	3161
865.875	2941
866.006	2941
866.137	2990
866.269	2979
866.4	2910
866.531	2918
866.662	2891
866.793	2933
866.924	2883
867.055	2941
867.186	2952
867.317	2876
867.448	2842
867.579	2838
867.71	2872
867.841	2853
867.972	2918
868.103	2937
868.233	2876
868.364	2853
868.495	2922
868.625	3074
868.756	3150
868.886	2941
869.017	2994
869.147	3154
869.278	3165
869.408	3024
869.539	3017
869.669	3081
869.799	3043
869.929	3154
870.06	3119
870.19	3268
870.32	3298
870.45	3279
870.58	3355
870.71	3420
870.84	3435
870.97	3310
871.1	3283
871.23	3431
871.36	3477
871.489	3351
871.619	3420
871.749	3382
871.879	3416
872.008	3466
872.138	3370
872.267	3275
872.397	3138
872.526	3100
872.656	2979
872.785	3100
872.915	3241
873.044	3310
873.173	3211
873.303	3268
873.432	3214
873.561	3188
873.69	3138
873.819	3131
873.948	3180
874.077	3104
874.206	3036
874.335	3104
874.464	3195
874.593	3386
874.722	3256
874.851	3367
874.979	3348
875.108	3310
875.237	3203
875.365	3131
875.494	3188
875.623	3253
875.751	3081
875.88	3093
876.008	3211
876.136	3222
876.265	3367
876.393	3545
876.521	3401
876.65	3374
876.778	3351
876.906	3283
877.034	3169
877.162	3226
877.29	3154
877.418	3226
877.546	3203
877.674	3253
877.802	3245
877.93	3218
878.058	3161
878.185	3089
878.313	3222
878.441	3199
878.568	3070
878.696	3119
878.824	3241
878.951	3241
879.079	3409
879.206	3591
879.333	3416
879.461	3317
879.588	3317
879.715	3496
879.842	3576
879.97	3409
880.097	3161
880.224	3112
880.351	3195
880.478	3176
880.605	3188
880.732	3173
880.859	3454
880.986	3306
881.112	3329
881.239	3184
881.366	3127
881.493	3032
881.619	2998
881.746	3062
881.872	3104
881.999	3051
882.125	3112
882.252	3264
882.378	3340
882.505	3431
882.631	3268
882.757	3142
882.883	3207
883.01	3237
883.136	3131
883.262	3100
883.388	3119
883.514	3363
883.64	3386
883.766	3313
883.892	3173
884.018	3253
884.143	3389
884.269	3492
884.395	3199
884.52	3184
884.646	3150
884.772	3104
884.897	3100
885.023	3218
885.148	3332
885.274	3401
885.399	3363
885.524	3283
885.65	3226
885.775	3313
885.9	3264
886.025	3431
886.15	3359
886.275	3351
886.4	3245
886.525	3298
886.65	3264
886.775	3264
886.9	3473
887.025	3641
887.149	3397
887.274	3268
887.399	3154
887.523	3203
887.648	3123
887.773	3195
887.897	3344
888.021	3420
888.146	3268
888.27	3447
888.395	3519
888.519	3409
888.643	3458
888.767	3447
888.891	3302
889.015	3256
889.139	3275
889.263	3214
889.387	3393
889.511	3504
889.635	3454
889.759	3249
889.883	3279
890.006	3332
890.13	3526
890.254	3253
890.377	3325
890.501	3214
890.624	3169
890.748	3253
890.871	3157
890.995	3119
891.118	3055
891.241	3154
891.364	3233
891.488	3253
891.611	3157
891.734	3195
891.857	3310
891.98	3214
892.103	3336
892.226	3260
892.349	3207
892.471	3081
892.594	3199
892.717	3306
892.839	3260
892.962	3298
893.085	3336
893.207	3313
893.33	3146
893.452	3203
893.575	3340
893.697	3260
893.819	3496
893.941	3515
894.064	3443
894.186	3279
894.308	3256
894.43	3435
894.552	3515
894.674	3450
894.796	3256
894.918	3317
895.04	3283
895.161	3466
895.283	3386
895.405	3291
895.526	3363
895.648	3428
895.769	3393
895.891	3458
896.012	3454
896.134	3462
896.255	3397
896.376	3370
896.498	3367
896.619	3466
896.74	3370
896.861	3378
896.982	3663
897.103	3800
897.224	3610
897.345	3523
897.466	3439
897.587	3485
897.708	3622
897.828	3519
897.949	3447
898.07	3340
898.19	3397
898.311	3564
898.431	3473
898.552	3507
898.672	3576
898.792	3526
898.913	3523
899.033	3450
899.153	3298
899.273	3222
899.393	3298
899.513	3329
899.633	3348
899.753	3336
899.873	3310
899.993	3378
900.113	3287
900.232	3401
900.352	3329
900.472	3321
900.591	3176
900.711	3279
900.83	3199
900.95	3420
901.069	3519
901.189	3287
901.308	3188
901.427	3161
901.546	3169
901.665	3283
901.784	3291
901.904	3245
902.023	3123
902.141	2986
902.26	2982
902.379	3123
902.498	3066
902.617	3051
902.735	3184
902.854	3180
902.973	3188
903.091	3039
903.21	3036
903.328	3150
903.446	3089
903.565	3138
903.683	3161
903.801	3112
903.919	3260
904.038	3294
904.156	3146
904.274	3272
904.392	3279
904.51	3272
904.627	3306
904.745	3428
904.863	3500
904.981	3260
905.098	3104
905.216	3211
905.334	3275
905.451	3291
905.569	3291
905.686	3439
905.803	3454
905.921	3294
906.038	3424
906.155	3329
906.272	3287
906.389	3321
906.506	3188
906.623	3218
906.74	3260
906.857	3195
906.974	3222
907.091	3439
907.208	3595
907.324	3454
907.441	3393
907.557	3214
907.674	3222
907.79	3195
907.907	3287
908.023	3416
908.139	3386
908.256	3332
908.372	3370
908.488	3374
908.604	3245
908.72	3245
908.836	3226
908.952	3283
909.068	3310
909.184	3473
909.3	3351
909.415	3538
909.531	3492
909.647	3287
909.762	3249
909.878	3268
909.993	3351
910.108	3306
910.224	3367
910.339	3378
910.454	3310
910.57	3294
910.685	3237
910.8	3549
910.915	3526
911.03	3439
911.145	3260
911.259	3253
911.374	3294
911.489	3260
911.604	3188
911.718	3119
911.833	3138
911.947	3009
912.062	2975
912.176	3154
912.291	3207
912.405	3245
912.519	3412
912.633	3450
912.748	3332
912.862	3245
912.976	3161
913.09	3024
913.204	3123
913.318	3214
913.431	3340
913.545	3351
913.659	3401
913.772	3348
913.886	3226
914	3222
914.113	3306
914.226	3409
914.34	3363
914.453	3184
914.566	3401
914.68	3294
914.793	3260
914.906	3154
915.019	3089
915.132	3074
915.245	3161
915.358	3188
915.47	3218
915.583	3256
915.696	3291
915.809	3420
915.921	3393
916.034	3199
916.146	3260
916.259	3184
916.371	3363
916.483	3374
916.595	3195
916.708	3355
916.82	3336
916.932	3332
917.044	3351
917.156	3336
917.268	3214
917.38	3310
917.491	3298
917.603	3306
917.715	3405
917.826	3466
917.938	3370
918.049	3294
918.161	3431
918.272	3576
918.384	3534
918.495	3485
918.606	3310
918.717	3283
918.828	3363
918.939	3401
919.05	3283
919.161	3378
919.272	3161
919.383	3283
919.494	3488
919.604	3701
919.715	3443
919.826	3401
919.936	3447
920.047	3591
920.157	3553
920.267	3713
920.378	3599
920.488	3561
920.598	3740
920.708	3979
920.818	3831
920.928	3808
921.038	4021
921.148	3987
921.258	3705
921.368	3656
921.477	3587
921.587	3538
921.697	3435
921.806	3629
921.916	3515
922.025	3340
922.134	3340
922.244	3291
922.353	3428
922.462	3264
922.571	3222
922.68	3104
922.789	3085
922.898	3146
923.007	3085
923.116	3192
923.224	3192
923.333	3218
923.442	3081
923.55	3055
923.659	3108
923.767	3173
923.876	3104
923.984	3279
924.092	3093
924.201	3195
924.309	3184
924.417	3241
924.525	3165
924.633	3214
924.741	3968
924.849	3039
924.956	3230
925.064	3100
925.172	3013
925.279	3074
925.387	3192
925.494	3207
925.602	3344
925.709	3351
925.816	3180
925.924	3260
926.031	3393
926.138	3298
926.245	3325
926.352	3237
926.459	3378
926.566	3469
926.673	3332
926.779	3211
926.886	3249
926.993	3104
927.099	3146
927.206	3104
927.312	3116
927.419	3218
927.525	3199
927.631	3245
927.737	3135
927.843	3119
927.95	3020
928.056	3104
928.162	3146
928.267	3272
928.373	3892
928.479	3325
928.585	3089
928.69	3211
928.796	3294
928.901	3135
929.007	3077
929.112	3195
929.218	3207
929.323	3150
929.428	3146
929.533	3325
929.638	3123
929.743	3150
929.848	3226
929.953	3173
930.058	3123
930.163	2971
930.267	3028
930.372	3146
930.477	3013
930.581	3302
930.685	3173
930.79	3039
930.894	3116
930.998	3066
931.103	3260
931.207	2952
931.311	2895
931.415	2902
931.519	2781
931.623	2785
