Data from test_V78500241_1777.txt Node
Date: Fri Mar 25 16:27:30 CST 2022
User: usil
Spectrometer: V785-0024
Trigger mode: 0
Integration Time (sec): 4.000000E-1
Scans to average: 1
Nonlinearity correction enabled: false
Boxcar width: 0
Storing dark spectrum: false
XAxis mode: Wavelengths
Number of Pixels in Spectrum: 1024
>>>>>Begin Spectral Data<<<<<
801.071	2929
801.214	2994
801.356	2883
801.499	2918
801.641	2887
801.783	2967
801.926	3051
802.068	2963
802.211	3009
802.353	3039
802.496	2982
802.638	2986
802.78	3043
802.923	3093
803.065	3020
803.208	2925
803.35	2918
803.492	2922
803.635	2963
803.777	2823
803.919	2857
804.061	3218
804.204	2967
804.346	2922
804.488	2849
804.63	2990
804.773	2880
804.915	2960
805.057	3089
805.199	2918
805.341	2967
805.483	3070
805.626	3005
805.768	2963
805.91	3089
806.052	3135
806.194	3085
806.336	3268
806.478	2990
806.62	2948
806.762	2990
806.904	3074
807.046	3173
807.188	2975
807.33	2891
807.472	2982
807.614	2876
807.756	3001
807.898	2941
808.04	2872
808.182	2963
808.324	2937
808.465	2883
808.607	2864
808.749	2781
808.891	2804
809.033	3001
809.174	2975
809.316	2887
809.458	2906
809.6	2766
809.741	2758
809.883	2785
810.025	2834
810.166	2887
810.308	2857
810.45	2849
810.591	2766
810.733	2800
810.875	2883
811.016	2758
811.158	2727
811.299	2762
811.441	2883
811.582	2918
811.724	2804
811.865	2826
812.007	2929
812.148	2895
812.29	2868
812.431	2880
812.573	2971
812.714	2948
812.855	3032
812.997	3032
813.138	3108
813.279	2998
813.421	3009
813.562	2933
813.703	2887
813.845	2883
813.986	2807
814.127	2739
814.268	2845
814.41	2830
814.551	2807
814.692	2876
814.833	2811
814.974	2910
815.115	2952
815.256	2861
815.397	2823
815.539	2868
815.68	2716
815.821	2792
815.962	2929
816.103	2910
816.244	2876
816.385	2883
816.526	2963
816.666	2933
816.807	2746
816.948	2891
817.089	2914
817.23	2834
817.371	2796
817.512	2758
817.653	2845
817.793	2838
817.934	2876
818.075	2933
818.216	3009
818.356	3020
818.497	2857
818.638	2777
818.778	2788
818.919	2800
819.06	2735
819.2	2902
819.341	2811
819.481	2830
819.622	2922
819.762	3108
819.903	3039
820.043	2941
820.184	2918
820.324	2910
820.465	3036
820.605	2990
820.746	2994
820.886	2944
821.026	3104
821.167	3180
821.307	3241
821.447	3291
821.588	3226
821.728	3161
821.868	3199
822.008	3077
822.149	3173
822.289	3272
822.429	3074
822.569	3070
822.709	3173
822.849	2994
822.99	3036
823.13	3154
823.27	3184
823.41	3119
823.55	3138
823.69	3154
823.83	3184
823.97	3077
824.11	3009
824.25	3009
824.389	3066
824.529	3157
824.669	3081
824.809	3249
824.949	3275
825.089	3253
825.228	3180
825.368	3020
825.508	2998
825.648	3001
825.787	3039
825.927	3070
826.067	2979
826.206	2994
826.346	3066
826.485	3097
826.625	3146
826.765	3287
826.904	3237
827.044	3020
827.183	2967
827.323	2922
827.462	3013
827.601	2933
827.741	2929
827.88	2982
828.02	2895
828.159	3020
828.298	3051
828.437	3131
828.577	3077
828.716	3287
828.855	3108
828.994	2963
829.134	2944
829.273	2975
829.412	2902
829.551	2899
829.69	2967
829.829	3024
829.968	3157
830.107	3032
830.246	3020
830.385	2971
830.524	2902
830.663	2861
830.802	2796
830.941	2663
831.08	2697
831.219	2792
831.357	2769
831.496	2941
831.635	2769
831.774	2705
831.913	2682
832.051	2575
832.19	2594
832.329	2739
832.467	2598
832.606	2530
832.744	2625
832.883	2636
833.022	2621
833.16	2686
833.299	2708
833.437	2701
833.576	2724
833.714	2766
833.852	2762
833.991	2788
834.129	2883
834.267	2887
834.406	2758
834.544	2899
834.682	2906
834.821	2925
834.959	3097
835.097	2929
835.235	3097
835.373	3043
835.511	3058
835.65	2986
835.788	2967
835.926	2838
836.064	2849
836.202	2899
836.34	3123
836.478	3195
836.615	3070
836.753	3161
836.891	3222
837.029	3192
837.167	3150
837.305	3062
837.443	3074
837.58	2986
837.718	3161
837.856	3119
837.993	3077
838.131	3127
838.269	3161
838.406	3131
838.544	3097
838.681	2971
838.819	2956
838.956	2864
839.094	2868
839.231	2956
839.369	3039
839.506	3435
839.643	3226
839.781	3032
839.918	3005
840.055	3093
840.193	3089
840.33	3108
840.467	3119
840.604	3169
840.742	3428
840.879	3100
841.016	3051
841.153	3138
841.29	3409
841.427	3321
841.564	3298
841.701	3317
841.838	3272
841.975	3241
842.112	3241
842.249	3085
842.385	3036
842.522	3249
842.659	3112
842.796	3066
842.933	3135
843.069	3081
843.206	3089
843.343	3226
843.479	3146
843.616	3150
843.752	2941
843.889	2902
844.025	3123
844.162	2910
844.298	3074
844.435	2975
844.571	2929
844.708	3112
844.844	3226
844.98	3245
845.117	3211
845.253	3089
845.389	3077
845.525	3093
845.661	3119
845.798	3043
845.934	3169
846.07	3108
846.206	3260
846.342	3386
846.478	3287
846.614	3154
846.75	3097
846.886	3047
847.022	3272
847.158	3165
847.294	3237
847.429	3245
847.565	3272
847.701	3515
847.837	3047
847.972	3047
848.108	3161
848.244	3146
848.379	3005
848.515	3001
848.65	2998
848.786	2967
848.921	3024
849.057	3150
849.192	3203
849.328	3081
849.463	3112
849.598	3089
849.734	3085
849.869	2982
850.004	2975
850.14	3017
850.275	2937
850.41	2868
850.545	2918
850.68	2963
850.815	2967
850.95	2967
851.085	3157
851.22	3131
851.355	3051
851.49	3009
851.625	3062
851.76	3062
851.895	2975
852.03	2918
852.165	3077
852.299	3138
852.434	3199
852.569	3169
852.703	3211
852.838	3291
852.973	3389
853.107	3374
853.242	3188
853.376	3123
853.511	3009
853.645	3093
853.78	3260
853.914	3176
854.048	3135
854.183	3119
854.317	3150
854.451	3332
854.585	3154
854.72	3116
854.854	3214
854.988	3089
855.122	3127
855.256	2982
855.39	3184
855.524	3268
855.658	3188
855.792	3173
855.926	3214
856.06	3241
856.194	3275
856.327	3157
856.461	3112
856.595	3108
856.729	3135
856.862	3233
856.996	3165
857.13	3222
857.263	3245
857.397	3317
857.53	3108
857.664	3249
857.797	3253
857.931	3294
858.064	3180
858.197	3294
858.331	3184
858.464	3127
858.597	3024
858.731	3119
858.864	3157
858.997	3127
859.13	3184
859.263	3199
859.396	3237
859.529	3123
859.662	3074
859.795	3074
859.928	3161
860.061	3279
860.194	3321
860.327	3119
860.46	3085
860.592	3241
860.725	3283
860.858	3291
860.99	3112
861.123	3047
861.256	3093
861.388	3173
861.521	3907
861.653	3028
861.786	3001
861.918	3032
862.05	3100
862.183	3100
862.315	3199
862.447	3203
862.58	3123
862.712	2967
862.844	2910
862.976	3047
863.108	3013
863.24	3325
863.372	2925
863.504	2998
863.636	2971
863.768	3051
863.9	3032
864.032	2929
864.164	2979
864.296	3055
864.428	3100
864.559	3131
864.691	3077
864.823	3100
864.954	3081
865.086	3097
865.217	3028
865.349	2960
865.48	2986
865.612	3028
865.743	3146
865.875	2994
866.006	2956
866.137	3032
866.269	2948
866.4	2937
866.531	2967
866.662	2948
866.793	2918
866.924	2922
867.055	2982
867.186	2933
867.317	2906
867.448	2876
867.579	2876
867.71	2868
867.841	2853
867.972	2948
868.103	2937
868.233	2918
868.364	2902
868.495	2914
868.625	3089
868.756	3176
868.886	3005
869.017	3043
869.147	3192
869.278	3188
869.408	3058
869.539	3062
869.669	3127
869.799	3058
869.929	3119
870.06	3112
870.19	3313
870.32	3302
870.45	3310
870.58	3412
870.71	3496
870.84	3454
870.97	3268
871.1	3272
871.23	3466
871.36	3454
871.489	3393
871.619	3428
871.749	3431
871.879	3462
872.008	3462
872.138	3370
872.267	3325
872.397	3203
872.526	3108
872.656	3051
872.785	3112
872.915	3283
873.044	3321
873.173	3268
873.303	3245
873.432	3283
873.561	3245
873.69	3203
873.819	3176
873.948	3207
874.077	3093
874.206	3020
874.335	3154
874.464	3260
874.593	3348
874.722	3275
874.851	3401
874.979	3382
875.108	3344
875.237	3214
875.365	3211
875.494	3211
875.623	3245
875.751	3097
875.88	3135
876.008	3188
876.136	3233
876.265	3374
876.393	3523
876.521	3450
876.65	3420
876.778	3329
876.906	3275
877.034	3245
877.162	3230
877.29	3214
877.418	3256
877.546	3272
877.674	3253
877.802	3253
877.93	3264
878.058	3157
878.185	3112
878.313	3222
878.441	3211
878.568	3093
878.696	3169
878.824	3260
878.951	3321
879.079	3443
879.206	3610
879.333	3447
879.461	3355
879.588	3359
879.715	3515
879.842	3580
879.97	3409
880.097	3192
880.224	3116
880.351	3211
880.478	3253
880.605	3214
880.732	3188
880.859	3481
880.986	3370
881.112	3340
881.239	3207
881.366	3123
881.493	3043
881.619	3013
881.746	3097
881.872	3127
881.999	3123
882.125	3169
882.252	3230
882.378	3321
882.505	3443
882.631	3310
882.757	3188
882.883	3245
883.01	3260
883.136	3161
883.262	3116
883.388	3146
883.514	3359
883.64	3397
883.766	3355
883.892	3207
884.018	3275
884.143	3401
884.269	3557
884.395	3192
884.52	3176
884.646	3199
884.772	3142
884.897	3108
885.023	3230
885.148	3336
885.274	3454
885.399	3401
885.524	3279
885.65	3287
885.775	3344
885.9	3287
886.025	3431
886.15	3401
886.275	3329
886.4	3237
886.525	3336
886.65	3298
886.775	3237
886.9	3519
887.025	3667
887.149	3428
887.274	3268
887.399	3157
887.523	3195
887.648	3173
887.773	3214
887.897	3397
888.021	3409
888.146	3332
888.27	3447
888.395	3542
888.519	3447
888.643	3454
888.767	3488
888.891	3329
889.015	3226
889.139	3313
889.263	3260
889.387	3424
889.511	3534
889.635	3492
889.759	3325
889.883	3287
890.006	3348
890.13	3466
890.254	3298
890.377	3351
890.501	3245
890.624	3207
890.748	3306
890.871	3226
890.995	3154
891.118	3077
891.241	3222
891.364	3237
891.488	3340
891.611	3161
891.734	3237
891.857	3268
891.98	3241
892.103	3340
892.226	3283
892.349	3222
892.471	3135
892.594	3260
892.717	3283
892.839	3260
892.962	3302
893.085	3386
893.207	3325
893.33	3165
893.452	3275
893.575	3317
893.697	3256
893.819	3492
893.941	3530
894.064	3405
894.186	3268
894.308	3287
894.43	3443
894.552	3526
894.674	3523
894.796	3241
894.918	3329
895.04	3294
895.161	3447
895.283	3416
895.405	3340
895.526	3370
895.648	3454
895.769	3431
895.891	3428
896.012	3488
896.134	3431
896.255	3435
896.376	3374
896.498	3351
896.619	3397
896.74	3382
896.861	3447
896.982	3701
897.103	3846
897.224	3587
897.345	3488
897.466	3466
897.587	3500
897.708	3595
897.828	3564
897.949	3473
898.07	3359
898.19	3431
898.311	3572
898.431	3409
898.552	3496
898.672	3606
898.792	3644
898.913	3519
899.033	3428
899.153	3294
899.273	3245
899.393	3306
899.513	3355
899.633	3302
899.753	3363
899.873	3317
899.993	3382
900.113	3355
900.232	3370
900.352	3325
900.472	3298
900.591	3214
900.711	3268
900.83	3264
900.95	3454
901.069	3504
901.189	3321
901.308	3184
901.427	3135
901.546	3214
901.665	3298
901.784	3363
901.904	3218
902.023	3176
902.141	3051
902.26	2994
902.379	3135
902.498	3077
902.617	3077
902.735	3226
902.854	3222
902.973	3233
903.091	3055
903.21	3112
903.328	3142
903.446	3116
903.565	3104
903.683	3218
903.801	3131
903.919	3237
904.038	3275
904.156	3173
904.274	3291
904.392	3298
904.51	3294
904.627	3397
904.745	3443
904.863	3500
904.981	3287
905.098	3203
905.216	3207
905.334	3317
905.451	3279
905.569	3321
905.686	3435
905.803	3454
905.921	3302
906.038	3397
906.155	3370
906.272	3317
906.389	3340
906.506	3230
906.623	3245
906.74	3260
906.857	3173
906.974	3291
907.091	3424
907.208	3564
907.324	3466
907.441	3374
907.557	3241
907.674	3237
907.79	3233
907.907	3272
908.023	3374
908.139	3340
908.256	3325
908.372	3363
908.488	3351
908.604	3287
908.72	3226
908.836	3291
908.952	3287
909.068	3363
909.184	3504
909.3	3374
909.415	3469
909.531	3458
909.647	3279
909.762	3260
909.878	3272
909.993	3351
910.108	3329
910.224	3340
910.339	3389
910.454	3306
910.57	3321
910.685	3264
910.8	3561
910.915	3507
911.03	3424
911.145	3283
911.259	3287
911.374	3279
911.489	3260
911.604	3218
911.718	3119
911.833	3188
911.947	3043
912.062	3017
912.176	3161
912.291	3173
912.405	3214
912.519	3439
912.633	3488
912.748	3313
912.862	3310
912.976	3195
913.09	3085
913.204	3142
913.318	3218
913.431	3355
913.545	3344
913.659	3412
913.772	3355
913.886	3237
914	3253
914.113	3344
914.226	3435
914.34	3355
914.453	3218
914.566	3428
914.68	3283
914.793	3302
914.906	3165
915.019	3108
915.132	3104
915.245	3176
915.358	3233
915.47	3237
915.583	3287
915.696	3279
915.809	3409
915.921	3386
916.034	3264
916.146	3260
916.259	3226
916.371	3351
916.483	3363
916.595	3256
916.708	3355
916.82	3355
916.932	3348
917.044	3393
917.156	3359
917.268	3230
917.38	3313
917.491	3321
917.603	3374
917.715	3462
917.826	3443
917.938	3412
918.049	3237
918.161	3431
918.272	3622
918.384	3576
918.495	3481
918.606	3332
918.717	3279
918.828	3329
918.939	3389
919.05	3294
919.161	3378
919.272	3226
919.383	3291
919.494	3485
919.604	3660
919.715	3488
919.826	3435
919.936	3401
920.047	3599
920.157	3534
920.267	3774
920.378	3633
920.488	3538
920.598	3781
920.708	3956
920.818	3823
920.928	3842
921.038	4036
921.148	4002
921.258	3698
921.368	3648
921.477	3591
921.587	3557
921.697	3458
921.806	3629
921.916	3519
922.025	3393
922.134	3401
922.244	3306
922.353	3401
922.462	3272
922.571	3237
922.68	3116
922.789	3097
922.898	3169
923.007	3119
923.116	3222
923.224	3173
923.333	3176
923.442	3119
923.55	3112
923.659	3154
923.767	3211
923.876	3131
923.984	3287
924.092	3097
924.201	3195
924.309	3214
924.417	3249
924.525	3199
924.633	3249
924.741	4025
924.849	3066
924.956	3268
925.064	3116
925.172	3070
925.279	3089
925.387	3173
925.494	3199
925.602	3359
925.709	3367
925.816	3195
925.924	3298
926.031	3401
926.138	3336
926.245	3329
926.352	3230
926.459	3424
926.566	3473
926.673	3325
926.779	3253
926.886	3256
926.993	3127
927.099	3112
927.206	3116
927.312	3104
927.419	3233
927.525	3176
927.631	3294
927.737	3176
927.843	3097
927.95	3005
928.056	3112
928.162	3176
928.267	3233
928.373	3873
928.479	3279
928.585	3093
928.69	3226
928.796	3268
928.901	3176
929.007	3020
929.112	3195
929.218	3184
929.323	3127
929.428	3154
929.533	3332
929.638	3123
929.743	3184
929.848	3260
929.953	3195
930.058	3123
930.163	2990
930.267	3051
930.372	3199
930.477	3032
930.581	3340
930.685	3184
930.79	3051
930.894	3093
930.998	3093
931.103	3256
931.207	2979
931.311	2929
931.415	2933
931.519	2758
931.623	2804
