Data from test_V78500241_1679.txt Node
Date: Fri Mar 25 16:26:50 CST 2022
User: usil
Spectrometer: V785-0024
Trigger mode: 0
Integration Time (sec): 4.000000E-1
Scans to average: 1
Nonlinearity correction enabled: false
Boxcar width: 0
Storing dark spectrum: false
XAxis mode: Wavelengths
Number of Pixels in Spectrum: 1024
>>>>>Begin Spectral Data<<<<<
801.071	2883
801.214	2941
801.356	2864
801.499	2941
801.641	2872
801.783	2914
801.926	3051
802.068	2963
802.211	2963
802.353	3020
802.496	2956
802.638	2998
802.78	3017
802.923	3062
803.065	2979
803.208	2868
803.35	2918
803.492	2895
803.635	2918
803.777	2731
803.919	2861
804.061	3188
804.204	2933
804.346	2906
804.488	2845
804.63	2960
804.773	2883
804.915	2922
805.057	3058
805.199	2922
805.341	2986
805.483	3017
805.626	3013
805.768	2918
805.91	3085
806.052	3100
806.194	3001
806.336	3226
806.478	3013
806.62	2956
806.762	2998
806.904	3024
807.046	3165
807.188	2948
807.33	2910
807.472	2998
807.614	2910
807.756	3013
807.898	2914
808.04	2891
808.182	2956
808.324	2967
808.465	2910
808.607	2853
808.749	2788
808.891	2857
809.033	2998
809.174	2948
809.316	2868
809.458	2876
809.6	2773
809.741	2781
809.883	2758
810.025	2868
810.166	2819
810.308	2849
810.45	2845
810.591	2788
810.733	2754
810.875	2823
811.016	2788
811.158	2746
811.299	2800
811.441	2906
811.582	2906
811.724	2849
811.865	2796
812.007	2899
812.148	2880
812.29	2838
812.431	2861
812.573	2933
812.714	2979
812.855	3051
812.997	3032
813.138	3131
813.279	3005
813.421	2971
813.562	2944
813.703	2899
813.845	2887
813.986	2750
814.127	2708
814.268	2823
814.41	2842
814.551	2781
814.692	2872
814.833	2804
814.974	2910
815.115	2914
815.256	2826
815.397	2834
815.539	2864
815.68	2766
815.821	2804
815.962	2914
816.103	2902
816.244	2845
816.385	2864
816.526	2956
816.666	2922
816.807	2720
816.948	2918
817.089	2883
817.23	2849
817.371	2804
817.512	2781
817.653	2845
817.793	2838
817.934	2880
818.075	2963
818.216	2975
818.356	3005
818.497	2891
818.638	2788
818.778	2853
818.919	2773
819.06	2758
819.2	2876
819.341	2796
819.481	2823
819.622	2914
819.762	3123
819.903	3055
820.043	2910
820.184	2902
820.324	2880
820.465	2994
820.605	3028
820.746	3013
820.886	2922
821.026	3089
821.167	3157
821.307	3256
821.447	3294
821.588	3256
821.728	3230
821.868	3169
822.008	3093
822.149	3199
822.289	3241
822.429	3142
822.569	3100
822.709	3188
822.849	3036
822.99	3077
823.13	3127
823.27	3195
823.41	3097
823.55	3146
823.69	3150
823.83	3226
823.97	3081
824.11	3013
824.25	2986
824.389	3047
824.529	3108
824.669	3066
824.809	3199
824.949	3237
825.089	3207
825.228	3184
825.368	3017
825.508	2948
825.648	2937
825.787	2967
825.927	3020
826.067	2937
826.206	2960
826.346	3028
826.485	3066
826.625	3077
826.765	3291
826.904	3241
827.044	2986
827.183	2902
827.323	2880
827.462	2986
827.601	2929
827.741	2937
827.88	3017
828.02	2823
828.159	2971
828.298	2998
828.437	3131
828.577	3051
828.716	3256
828.855	3066
828.994	2933
829.134	2872
829.273	2929
829.412	2857
829.551	2868
829.69	2914
829.829	2975
829.968	3127
830.107	3024
830.246	3020
830.385	2944
830.524	2880
830.663	2807
830.802	2746
830.941	2651
831.08	2621
831.219	2781
831.357	2773
831.496	2941
831.635	2724
831.774	2663
831.913	2682
832.051	2514
832.19	2556
832.329	2686
832.467	2533
832.606	2465
832.744	2583
832.883	2617
833.022	2575
833.16	2689
833.299	2663
833.437	2670
833.576	2686
833.714	2716
833.852	2743
833.991	2746
834.129	2864
834.267	2785
834.406	2785
834.544	2876
834.682	2883
834.821	2838
834.959	3051
835.097	2902
835.235	3047
835.373	3001
835.511	3039
835.65	2948
835.788	2948
835.926	2830
836.064	2819
836.202	2842
836.34	3032
836.478	3169
836.615	3020
836.753	3074
836.891	3203
837.029	3119
837.167	3077
837.305	3066
837.443	3028
837.58	2960
837.718	3116
837.856	3036
837.993	3036
838.131	3100
838.269	3135
838.406	3104
838.544	3081
838.681	2948
838.819	2910
838.956	2834
839.094	2826
839.231	2910
839.369	2994
839.506	3355
839.643	3203
839.781	3013
839.918	2963
840.055	3024
840.193	3058
840.33	3043
840.467	3085
840.604	3112
840.742	3401
840.879	3020
841.016	3032
841.153	3112
841.29	3355
841.427	3298
841.564	3275
841.701	3344
841.838	3157
841.975	3211
842.112	3230
842.249	3089
842.385	3043
842.522	3249
842.659	3112
842.796	3032
842.933	3093
843.069	3074
843.206	3032
843.343	3161
843.479	3081
843.616	3131
843.752	2864
843.889	2868
844.025	3081
844.162	2883
844.298	3062
844.435	2941
844.571	2902
844.708	3058
844.844	3188
844.98	3230
845.117	3199
845.253	3032
845.389	2982
845.525	3074
845.661	3074
845.798	2982
845.934	3165
846.07	3036
846.206	3237
846.342	3317
846.478	3207
846.614	3100
846.75	3001
846.886	3028
847.022	3233
847.158	3116
847.294	3222
847.429	3218
847.565	3218
847.701	3439
847.837	3024
847.972	2975
848.108	3169
848.244	3097
848.379	2967
848.515	2922
848.65	2914
848.786	2948
848.921	3017
849.057	3108
849.192	3146
849.328	3066
849.463	3093
849.598	3070
849.734	3039
849.869	2979
850.004	2914
850.14	2982
850.275	2891
850.41	2800
850.545	2861
850.68	2922
850.815	2963
850.95	2975
851.085	3176
851.22	3127
851.355	3024
851.49	2986
851.625	2979
851.76	3024
851.895	2891
852.03	2914
852.165	3028
852.299	3104
852.434	3161
852.569	3150
852.703	3195
852.838	3214
852.973	3351
853.107	3306
853.242	3154
853.376	3119
853.511	2960
853.645	3043
853.78	3203
853.914	3138
854.048	3112
854.183	3074
854.317	3138
854.451	3264
854.585	3123
854.72	3127
854.854	3207
854.988	3066
855.122	3077
855.256	3001
855.39	3093
855.524	3241
855.658	3184
855.792	3142
855.926	3154
856.06	3226
856.194	3253
856.327	3150
856.461	3051
856.595	3093
856.729	3055
856.862	3192
856.996	3157
857.13	3161
857.263	3226
857.397	3272
857.53	3104
857.664	3142
857.797	3256
857.931	3272
858.064	3176
858.197	3203
858.331	3142
858.464	3089
858.597	3001
858.731	3116
858.864	3154
858.997	3081
859.13	3150
859.263	3161
859.396	3249
859.529	3116
859.662	3077
859.795	3043
859.928	3154
860.061	3230
860.194	3302
860.327	3131
860.46	3074
860.592	3230
860.725	3245
860.858	3256
860.99	3089
861.123	3047
861.256	3058
861.388	3123
861.521	3869
861.653	3001
861.786	2967
861.918	3024
862.05	3058
862.183	3081
862.315	3131
862.447	3214
862.58	3070
862.712	2925
862.844	2887
862.976	3020
863.108	2971
863.24	3428
863.372	2861
863.504	2952
863.636	2960
863.768	3036
863.9	2975
864.032	2933
864.164	2891
864.296	3013
864.428	3093
864.559	3074
864.691	3047
864.823	3077
864.954	3047
865.086	3020
865.217	2982
865.349	2922
865.48	2963
865.612	2986
865.743	3184
865.875	2971
866.006	2906
866.137	2979
866.269	2937
866.4	2937
866.531	2910
866.662	2876
866.793	2872
866.924	2929
867.055	2937
867.186	2944
867.317	2906
867.448	2834
867.579	2861
867.71	2819
867.841	2785
867.972	2941
868.103	2876
868.233	2880
868.364	2880
868.495	2929
868.625	3051
868.756	3169
868.886	2986
869.017	3013
869.147	3157
869.278	3161
869.408	3005
869.539	3039
869.669	3112
869.799	3001
869.929	3142
870.06	3104
870.19	3287
870.32	3306
870.45	3279
870.58	3397
870.71	3462
870.84	3447
870.97	3287
871.1	3230
871.23	3507
871.36	3428
871.489	3332
871.619	3386
871.749	3386
871.879	3439
872.008	3511
872.138	3302
872.267	3272
872.397	3150
872.526	3116
872.656	2990
872.785	3089
872.915	3241
873.044	3310
873.173	3226
873.303	3226
873.432	3233
873.561	3241
873.69	3123
873.819	3123
873.948	3188
874.077	3150
874.206	3070
874.335	3097
874.464	3260
874.593	3382
874.722	3275
874.851	3363
874.979	3367
875.108	3298
875.237	3203
875.365	3135
875.494	3173
875.623	3233
875.751	3074
875.88	3100
876.008	3173
876.136	3211
876.265	3370
876.393	3481
876.521	3397
876.65	3367
876.778	3389
876.906	3241
877.034	3184
877.162	3233
877.29	3138
877.418	3253
877.546	3218
877.674	3241
877.802	3233
877.93	3237
878.058	3123
878.185	3127
878.313	3192
878.441	3188
878.568	3093
878.696	3135
878.824	3287
878.951	3302
879.079	3473
879.206	3652
879.333	3447
879.461	3351
879.588	3336
879.715	3469
879.842	3564
879.97	3378
880.097	3142
880.224	3123
880.351	3161
880.478	3222
880.605	3195
880.732	3154
880.859	3492
880.986	3302
881.112	3302
881.239	3222
881.366	3077
881.493	3051
881.619	3001
881.746	3051
881.872	3085
881.999	3093
882.125	3161
882.252	3245
882.378	3275
882.505	3424
882.631	3279
882.757	3173
882.883	3237
883.01	3207
883.136	3142
883.262	3085
883.388	3119
883.514	3317
883.64	3386
883.766	3294
883.892	3203
884.018	3241
884.143	3401
884.269	3523
884.395	3188
884.52	3146
884.646	3207
884.772	3100
884.897	3085
885.023	3188
885.148	3355
885.274	3405
885.399	3370
885.524	3306
885.65	3275
885.775	3317
885.9	3275
886.025	3439
886.15	3329
886.275	3256
886.4	3218
886.525	3336
886.65	3298
886.775	3279
886.9	3507
887.025	3595
887.149	3412
887.274	3245
887.399	3154
887.523	3214
887.648	3184
887.773	3176
887.897	3340
888.021	3409
888.146	3268
888.27	3462
888.395	3538
888.519	3443
888.643	3431
888.767	3439
888.891	3291
889.015	3264
889.139	3268
889.263	3253
889.387	3378
889.511	3473
889.635	3477
889.759	3249
889.883	3268
890.006	3412
890.13	3496
890.254	3249
890.377	3317
890.501	3180
890.624	3180
890.748	3287
890.871	3188
890.995	3119
891.118	3081
891.241	3192
891.364	3222
891.488	3279
891.611	3192
891.734	3203
891.857	3268
891.98	3207
892.103	3336
892.226	3313
892.349	3169
892.471	3085
892.594	3218
892.717	3260
892.839	3253
892.962	3275
893.085	3386
893.207	3310
893.33	3146
893.452	3211
893.575	3287
893.697	3249
893.819	3450
893.941	3473
894.064	3447
894.186	3279
894.308	3249
894.43	3450
894.552	3511
894.674	3477
894.796	3283
894.918	3306
895.04	3268
895.161	3416
895.283	3370
895.405	3294
895.526	3348
895.648	3439
895.769	3420
895.891	3424
896.012	3469
896.134	3469
896.255	3374
896.376	3386
896.498	3332
896.619	3473
896.74	3363
896.861	3397
896.982	3675
897.103	3838
897.224	3622
897.345	3511
897.466	3424
897.587	3488
897.708	3572
897.828	3553
897.949	3454
898.07	3302
898.19	3431
898.311	3606
898.431	3416
898.552	3511
898.672	3614
898.792	3580
898.913	3507
899.033	3416
899.153	3291
899.273	3207
899.393	3268
899.513	3317
899.633	3298
899.753	3283
899.873	3302
899.993	3382
900.113	3329
900.232	3367
900.352	3374
900.472	3275
900.591	3211
900.711	3279
900.83	3222
900.95	3424
901.069	3477
901.189	3348
901.308	3138
901.427	3127
901.546	3169
901.665	3294
901.784	3359
901.904	3203
902.023	3116
902.141	3017
902.26	2998
902.379	3123
902.498	3085
902.617	3058
902.735	3192
902.854	3218
902.973	3173
903.091	3024
903.21	3093
903.328	3116
903.446	3066
903.565	3108
903.683	3169
903.801	3131
903.919	3230
904.038	3275
904.156	3165
904.274	3287
904.392	3203
904.51	3256
904.627	3332
904.745	3466
904.863	3492
904.981	3233
905.098	3131
905.216	3237
905.334	3340
905.451	3340
905.569	3332
905.686	3412
905.803	3439
905.921	3260
906.038	3386
906.155	3359
906.272	3256
906.389	3359
906.506	3230
906.623	3230
906.74	3253
906.857	3169
906.974	3275
907.091	3454
907.208	3568
907.324	3450
907.441	3393
907.557	3226
907.674	3272
907.79	3237
907.907	3313
908.023	3382
908.139	3348
908.256	3294
908.372	3397
908.488	3378
908.604	3226
908.72	3230
908.836	3302
908.952	3306
909.068	3351
909.184	3450
909.3	3367
909.415	3523
909.531	3462
909.647	3268
909.762	3264
909.878	3268
909.993	3317
910.108	3332
910.224	3325
910.339	3409
910.454	3329
910.57	3298
910.685	3253
910.8	3625
910.915	3549
911.03	3454
911.145	3237
911.259	3256
911.374	3321
911.489	3245
911.604	3188
911.718	3104
911.833	3154
911.947	3036
912.062	2990
912.176	3127
912.291	3157
912.405	3195
912.519	3428
912.633	3454
912.748	3344
912.862	3268
912.976	3138
913.09	3013
913.204	3165
913.318	3203
913.431	3351
913.545	3313
913.659	3431
913.772	3313
913.886	3230
914	3207
914.113	3378
914.226	3382
914.34	3336
914.453	3176
914.566	3401
914.68	3260
914.793	3298
914.906	3142
915.019	3108
915.132	3077
915.245	3176
915.358	3199
915.47	3233
915.583	3272
915.696	3310
915.809	3355
915.921	3424
916.034	3275
916.146	3233
916.259	3211
916.371	3378
916.483	3370
916.595	3260
916.708	3351
916.82	3302
916.932	3359
917.044	3321
917.156	3336
917.268	3241
917.38	3287
917.491	3313
917.603	3374
917.715	3431
917.826	3431
917.938	3386
918.049	3291
918.161	3428
918.272	3580
918.384	3564
918.495	3439
918.606	3332
918.717	3283
918.828	3370
918.939	3397
919.05	3317
919.161	3367
919.272	3207
919.383	3287
919.494	3515
919.604	3652
919.715	3500
919.826	3382
919.936	3488
920.047	3580
920.157	3553
920.267	3778
920.378	3618
920.488	3580
920.598	3797
920.708	3972
920.818	3823
920.928	3823
921.038	4032
921.148	3979
921.258	3705
921.368	3633
921.477	3595
921.587	3530
921.697	3443
921.806	3595
921.916	3534
922.025	3344
922.134	3374
922.244	3302
922.353	3443
922.462	3253
922.571	3188
922.68	3119
922.789	3058
922.898	3131
923.007	3104
923.116	3154
923.224	3180
923.333	3169
923.442	3112
923.55	3070
923.659	3192
923.767	3211
923.876	3093
923.984	3218
924.092	3097
924.201	3176
924.309	3233
924.417	3260
924.525	3192
924.633	3222
924.741	4211
924.849	3005
924.956	3298
925.064	3112
925.172	3043
925.279	3093
925.387	3188
925.494	3207
925.602	3329
925.709	3317
925.816	3222
925.924	3264
926.031	3393
926.138	3317
926.245	3363
926.352	3249
926.459	3416
926.566	3485
926.673	3344
926.779	3233
926.886	3260
926.993	3135
927.099	3104
927.206	3131
927.312	3116
927.419	3207
927.525	3180
927.631	3291
927.737	3165
927.843	3127
927.95	3032
928.056	3097
928.162	3154
928.267	3230
928.373	3865
928.479	3291
928.585	3043
928.69	3184
928.796	3260
928.901	3173
929.007	3070
929.112	3199
929.218	3180
929.323	3127
929.428	3123
929.533	3283
929.638	3131
929.743	3161
929.848	3237
929.953	3214
930.058	3180
930.163	3020
930.267	3039
930.372	3169
930.477	3066
930.581	3298
930.685	3184
930.79	3028
930.894	3100
930.998	3097
931.103	3249
931.207	2967
931.311	2929
931.415	2918
931.519	2807
931.623	2792
