Data from test_V78500241_1316.txt Node
Date: Fri Mar 25 16:24:19 CST 2022
User: usil
Spectrometer: V785-0024
Trigger mode: 0
Integration Time (sec): 4.000000E-1
Scans to average: 1
Nonlinearity correction enabled: false
Boxcar width: 0
Storing dark spectrum: false
XAxis mode: Wavelengths
Number of Pixels in Spectrum: 1024
>>>>>Begin Spectral Data<<<<<
801.071	2887
801.214	2937
801.356	2887
801.499	2899
801.641	2849
801.783	2887
801.926	3074
802.068	2971
802.211	2956
802.353	3051
802.496	2941
802.638	3074
802.78	3077
802.923	3119
803.065	2994
803.208	2891
803.35	2899
803.492	2956
803.635	2937
803.777	2766
803.919	2819
804.061	3161
804.204	2944
804.346	2883
804.488	2891
804.63	2979
804.773	2834
804.915	2868
805.057	3077
805.199	2956
805.341	2971
805.483	3032
805.626	2994
805.768	2963
805.91	3058
806.052	3116
806.194	3005
806.336	3203
806.478	3036
806.62	2960
806.762	2986
806.904	3047
807.046	3165
807.188	2956
807.33	2922
807.472	2990
807.614	2895
807.756	2986
807.898	2902
808.04	2883
808.182	2956
808.324	2941
808.465	2845
808.607	2849
808.749	2815
808.891	2849
809.033	2960
809.174	2960
809.316	2857
809.458	2910
809.6	2781
809.741	2758
809.883	2743
810.025	2868
810.166	2830
810.308	2845
810.45	2864
810.591	2735
810.733	2720
810.875	2781
811.016	2800
811.158	2758
811.299	2842
811.441	2891
811.582	2857
811.724	2800
811.865	2830
812.007	2902
812.148	2891
812.29	2861
812.431	2906
812.573	2929
812.714	2952
812.855	3051
812.997	3036
813.138	3135
813.279	3005
813.421	2967
813.562	2933
813.703	2883
813.845	2910
813.986	2781
814.127	2743
814.268	2815
814.41	2788
814.551	2796
814.692	2887
814.833	2788
814.974	2902
815.115	2944
815.256	2830
815.397	2838
815.539	2876
815.68	2766
815.821	2773
815.962	2902
816.103	2952
816.244	2849
816.385	2830
816.526	2944
816.666	2910
816.807	2724
816.948	2849
817.089	2910
817.23	2857
817.371	2788
817.512	2796
817.653	2845
817.793	2815
817.934	2902
818.075	2948
818.216	2975
818.356	3009
818.497	2864
818.638	2758
818.778	2788
818.919	2781
819.06	2731
819.2	2861
819.341	2811
819.481	2819
819.622	2880
819.762	3127
819.903	3039
820.043	2929
820.184	2868
820.324	2861
820.465	3036
820.605	3028
820.746	3028
820.886	2899
821.026	3104
821.167	3157
821.307	3272
821.447	3249
821.588	3249
821.728	3199
821.868	3195
822.008	3024
822.149	3184
822.289	3199
822.429	3077
822.569	3112
822.709	3203
822.849	3032
822.99	3005
823.13	3138
823.27	3211
823.41	3116
823.55	3146
823.69	3142
823.83	3176
823.97	3070
824.11	3036
824.25	2963
824.389	3081
824.529	3097
824.669	3043
824.809	3169
824.949	3222
825.089	3230
825.228	3123
825.368	3043
825.508	2963
825.648	2944
825.787	2998
825.927	3009
826.067	2933
826.206	2937
826.346	3039
826.485	3024
826.625	3097
826.765	3218
826.904	3184
827.044	3005
827.183	2910
827.323	2895
827.462	2994
827.601	2925
827.741	2925
827.88	2937
828.02	2868
828.159	2956
828.298	3089
828.437	3112
828.577	3005
828.716	3207
828.855	3093
828.994	2914
829.134	2864
829.273	2914
829.412	2883
829.551	2834
829.69	2868
829.829	2941
829.968	3127
830.107	3032
830.246	3024
830.385	2887
830.524	2887
830.663	2804
830.802	2708
830.941	2648
831.08	2667
831.219	2781
831.357	2750
831.496	2948
831.635	2754
831.774	2667
831.913	2648
832.051	2575
832.19	2552
832.329	2689
832.467	2530
832.606	2476
832.744	2564
832.883	2579
833.022	2594
833.16	2617
833.299	2678
833.437	2659
833.576	2682
833.714	2727
833.852	2716
833.991	2739
834.129	2845
834.267	2823
834.406	2781
834.544	2872
834.682	2883
834.821	2868
834.959	3047
835.097	2868
835.235	3032
835.373	2979
835.511	3009
835.65	2979
835.788	2948
835.926	2811
836.064	2800
836.202	2845
836.34	3062
836.478	3131
836.615	3074
836.753	3142
836.891	3180
837.029	3157
837.167	3100
837.305	2990
837.443	3039
837.58	2937
837.718	3104
837.856	3070
837.993	3051
838.131	3112
838.269	3081
838.406	3108
838.544	3070
838.681	2922
838.819	2922
838.956	2781
839.094	2807
839.231	2910
839.369	3024
839.506	3397
839.643	3230
839.781	2975
839.918	2994
840.055	3020
840.193	3055
840.33	3047
840.467	3074
840.604	3150
840.742	3424
840.879	3066
841.016	3032
841.153	3085
841.29	3363
841.427	3302
841.564	3294
841.701	3268
841.838	3165
841.975	3146
842.112	3180
842.249	3066
842.385	3058
842.522	3249
842.659	3108
842.796	3051
842.933	3093
843.069	3051
843.206	3036
843.343	3192
843.479	3085
843.616	3104
843.752	2899
843.889	2830
844.025	3089
844.162	2857
844.298	3051
844.435	2956
844.571	2963
844.708	3085
844.844	3161
844.98	3214
845.117	3165
845.253	3043
845.389	3009
845.525	3077
845.661	3093
845.798	2975
845.934	3127
846.07	3028
846.206	3199
846.342	3325
846.478	3233
846.614	3085
846.75	3055
846.886	3062
847.022	3211
847.158	3097
847.294	3176
847.429	3207
847.565	3245
847.701	3504
847.837	3024
847.972	2982
848.108	3150
848.244	3150
848.379	2963
848.515	2925
848.65	2918
848.786	2960
848.921	3017
849.057	3070
849.192	3146
849.328	3017
849.463	3104
849.598	3058
849.734	3047
849.869	2963
850.004	2918
850.14	2960
850.275	2922
850.41	2800
850.545	2906
850.68	2941
850.815	2922
850.95	2986
851.085	3188
851.22	3062
851.355	3036
851.49	2986
851.625	2998
851.76	3020
851.895	2883
852.03	2895
852.165	3055
852.299	3123
852.434	3165
852.569	3116
852.703	3184
852.838	3226
852.973	3279
853.107	3287
853.242	3169
853.376	3112
853.511	2986
853.645	3005
853.78	3222
853.914	3097
854.048	3100
854.183	3066
854.317	3135
854.451	3283
854.585	3104
854.72	3047
854.854	3176
854.988	3020
855.122	3055
855.256	2990
855.39	3089
855.524	3253
855.658	3180
855.792	3154
855.926	3176
856.06	3203
856.194	3218
856.327	3161
856.461	3077
856.595	3123
856.729	3062
856.862	3218
856.996	3146
857.13	3264
857.263	3249
857.397	3237
857.53	3135
857.664	3195
857.797	3214
857.931	3241
858.064	3173
858.197	3203
858.331	3119
858.464	3093
858.597	2986
858.731	3089
858.864	3146
858.997	3066
859.13	3119
859.263	3112
859.396	3195
859.529	3070
859.662	3043
859.795	2986
859.928	3108
860.061	3264
860.194	3245
860.327	3116
860.46	3043
860.592	3237
860.725	3214
860.858	3230
860.99	3077
861.123	3032
861.256	3051
861.388	3119
861.521	3717
861.653	2998
861.786	2960
861.918	2990
862.05	3055
862.183	3119
862.315	3138
862.447	3184
862.58	3058
862.712	2902
862.844	2880
862.976	2979
863.108	2982
863.24	3317
863.372	2891
863.504	2967
863.636	2922
863.768	3036
863.9	2963
864.032	2864
864.164	2895
864.296	3013
864.428	3051
864.559	3116
864.691	3055
864.823	3024
864.954	3013
865.086	3036
865.217	2998
865.349	2960
865.48	2975
865.612	3020
865.743	3131
865.875	2994
866.006	2933
866.137	2979
866.269	2975
866.4	2960
866.531	2925
866.662	2883
866.793	2887
866.924	2902
867.055	2952
867.186	2895
867.317	2876
867.448	2857
867.579	2842
867.71	2876
867.841	2826
867.972	2922
868.103	2918
868.233	2842
868.364	2887
868.495	2906
868.625	3077
868.756	3127
868.886	2967
869.017	2994
869.147	3161
869.278	3157
869.408	3093
869.539	2982
869.669	3077
869.799	3036
869.929	3157
870.06	3119
870.19	3332
870.32	3298
870.45	3283
870.58	3329
870.71	3481
870.84	3447
870.97	3306
871.1	3226
871.23	3466
871.36	3420
871.489	3386
871.619	3378
871.749	3428
871.879	3450
872.008	3485
872.138	3336
872.267	3279
872.397	3116
872.526	3074
872.656	3009
872.785	3119
872.915	3184
873.044	3313
873.173	3222
873.303	3222
873.432	3241
873.561	3260
873.69	3135
873.819	3112
873.948	3222
874.077	3127
874.206	2990
874.335	3081
874.464	3180
874.593	3355
874.722	3275
874.851	3359
874.979	3332
875.108	3313
875.237	3176
875.365	3157
875.494	3169
875.623	3226
875.751	3077
875.88	3093
876.008	3176
876.136	3218
876.265	3378
876.393	3504
876.521	3416
876.65	3405
876.778	3325
876.906	3237
877.034	3199
877.162	3237
877.29	3157
877.418	3275
877.546	3245
877.674	3245
877.802	3249
877.93	3195
878.058	3169
878.185	3108
878.313	3199
878.441	3176
878.568	3077
878.696	3108
878.824	3260
878.951	3302
879.079	3420
879.206	3618
879.333	3431
879.461	3340
879.588	3340
879.715	3424
879.842	3587
879.97	3355
880.097	3138
880.224	3135
880.351	3169
880.478	3157
880.605	3195
880.732	3169
880.859	3473
880.986	3294
881.112	3321
881.239	3176
881.366	3077
881.493	3013
881.619	3017
881.746	3066
881.872	3070
881.999	3123
882.125	3150
882.252	3241
882.378	3298
882.505	3397
882.631	3275
882.757	3142
882.883	3226
883.01	3192
883.136	3138
883.262	3100
883.388	3112
883.514	3302
883.64	3397
883.766	3321
883.892	3211
884.018	3241
884.143	3416
884.269	3523
884.395	3207
884.52	3188
884.646	3180
884.772	3100
884.897	3074
885.023	3184
885.148	3283
885.274	3401
885.399	3359
885.524	3275
885.65	3256
885.775	3313
885.9	3294
886.025	3428
886.15	3344
886.275	3287
886.4	3214
886.525	3310
886.65	3287
886.775	3249
886.9	3492
887.025	3610
887.149	3397
887.274	3253
887.399	3222
887.523	3226
887.648	3138
887.773	3222
887.897	3382
888.021	3367
888.146	3256
888.27	3466
888.395	3500
888.519	3409
888.643	3428
888.767	3401
888.891	3287
889.015	3260
889.139	3256
889.263	3203
889.387	3420
889.511	3511
889.635	3428
889.759	3264
889.883	3260
890.006	3420
890.13	3462
890.254	3218
890.377	3344
890.501	3260
890.624	3165
890.748	3321
890.871	3184
890.995	3100
891.118	3077
891.241	3169
891.364	3207
891.488	3298
891.611	3192
891.734	3230
891.857	3287
891.98	3253
892.103	3317
892.226	3294
892.349	3195
892.471	3150
892.594	3264
892.717	3264
892.839	3249
892.962	3283
893.085	3329
893.207	3294
893.33	3112
893.452	3218
893.575	3355
893.697	3214
893.819	3439
893.941	3504
894.064	3409
894.186	3264
894.308	3279
894.43	3397
894.552	3530
894.674	3458
894.796	3268
894.918	3344
895.04	3253
895.161	3393
895.283	3412
895.405	3367
895.526	3351
895.648	3409
895.769	3447
895.891	3473
896.012	3466
896.134	3450
896.255	3405
896.376	3386
896.498	3378
896.619	3405
896.74	3386
896.861	3359
896.982	3660
897.103	3819
897.224	3587
897.345	3545
897.466	3443
897.587	3481
897.708	3644
897.828	3587
897.949	3428
898.07	3348
898.19	3405
898.311	3587
898.431	3416
898.552	3557
898.672	3564
898.792	3584
898.913	3515
899.033	3466
899.153	3287
899.273	3154
899.393	3298
899.513	3313
899.633	3344
899.753	3325
899.873	3287
899.993	3370
900.113	3325
900.232	3393
900.352	3321
900.472	3264
900.591	3230
900.711	3287
900.83	3264
900.95	3359
901.069	3530
901.189	3348
901.308	3207
901.427	3135
901.546	3199
901.665	3287
901.784	3298
901.904	3195
902.023	3135
902.141	2979
902.26	2979
902.379	3123
902.498	3081
902.617	3055
902.735	3226
902.854	3195
902.973	3173
903.091	3051
903.21	3032
903.328	3138
903.446	3142
903.565	3127
903.683	3192
903.801	3131
903.919	3241
904.038	3279
904.156	3161
904.274	3256
904.392	3226
904.51	3272
904.627	3291
904.745	3401
904.863	3488
904.981	3214
905.098	3180
905.216	3192
905.334	3298
905.451	3287
905.569	3291
905.686	3435
905.803	3473
905.921	3344
906.038	3420
906.155	3355
906.272	3249
906.389	3317
906.506	3199
906.623	3249
906.74	3249
906.857	3180
906.974	3302
907.091	3435
907.208	3610
907.324	3485
907.441	3367
907.557	3249
907.674	3199
907.79	3211
907.907	3283
908.023	3378
908.139	3348
908.256	3306
908.372	3370
908.488	3306
908.604	3275
908.72	3218
908.836	3279
908.952	3272
909.068	3355
909.184	3466
909.3	3397
909.415	3504
909.531	3466
909.647	3302
909.762	3260
909.878	3260
909.993	3294
910.108	3348
910.224	3367
910.339	3401
910.454	3363
910.57	3237
910.685	3241
910.8	3561
910.915	3504
911.03	3412
911.145	3272
911.259	3233
911.374	3329
911.489	3237
911.604	3188
911.718	3116
911.833	3161
911.947	3043
912.062	2971
912.176	3176
912.291	3188
912.405	3230
912.519	3424
912.633	3466
912.748	3348
912.862	3272
912.976	3184
913.09	3047
913.204	3157
913.318	3222
913.431	3340
913.545	3344
913.659	3401
913.772	3329
913.886	3222
914	3207
914.113	3329
914.226	3382
914.34	3348
914.453	3241
914.566	3405
914.68	3275
914.793	3317
914.906	3127
915.019	3131
915.132	3093
915.245	3150
915.358	3192
915.47	3230
915.583	3283
915.696	3298
915.809	3401
915.921	3405
916.034	3253
916.146	3260
916.259	3226
916.371	3370
916.483	3363
916.595	3294
916.708	3351
916.82	3359
916.932	3329
917.044	3329
917.156	3348
917.268	3233
917.38	3291
917.491	3302
917.603	3332
917.715	3447
917.826	3435
917.938	3397
918.049	3291
918.161	3431
918.272	3599
918.384	3591
918.495	3500
918.606	3359
918.717	3260
918.828	3351
918.939	3378
919.05	3321
919.161	3382
919.272	3192
919.383	3275
919.494	3458
919.604	3660
919.715	3492
919.826	3428
919.936	3428
920.047	3591
920.157	3530
920.267	3732
920.378	3572
920.488	3526
920.598	3778
920.708	3949
920.818	3800
920.928	3819
921.038	3975
921.148	3979
921.258	3694
921.368	3595
921.477	3557
921.587	3507
921.697	3435
921.806	3603
921.916	3564
922.025	3370
922.134	3306
922.244	3317
922.353	3458
922.462	3310
922.571	3199
922.68	3097
922.789	3066
922.898	3074
923.007	3108
923.116	3203
923.224	3150
923.333	3195
923.442	3108
923.55	3062
923.659	3104
923.767	3218
923.876	3173
923.984	3249
924.092	3085
924.201	3169
924.309	3203
924.417	3199
924.525	3173
924.633	3184
924.741	4036
924.849	3024
924.956	3264
925.064	3077
925.172	3039
925.279	3093
925.387	3176
925.494	3192
925.602	3367
925.709	3313
925.816	3180
925.924	3310
926.031	3367
926.138	3306
926.245	3378
926.352	3218
926.459	3393
926.566	3500
926.673	3294
926.779	3233
926.886	3233
926.993	3157
927.099	3150
927.206	3104
927.312	3097
927.419	3226
927.525	3192
927.631	3253
927.737	3146
927.843	3108
927.95	3017
928.056	3119
928.162	3195
928.267	3226
928.373	3884
928.479	3306
928.585	3097
928.69	3233
928.796	3298
928.901	3161
929.007	3039
929.112	3214
929.218	3154
929.323	3161
929.428	3135
929.533	3321
929.638	3127
929.743	3165
929.848	3245
929.953	3214
930.058	3142
930.163	2975
930.267	3051
930.372	3207
930.477	3074
930.581	3329
930.685	3173
930.79	3104
930.894	3131
930.998	3093
931.103	3279
931.207	2956
931.311	2963
931.415	2941
931.519	2769
931.623	2792
