Data from test_V78500241_560.txt Node
Date: Fri Mar 25 16:19:04 CST 2022
User: usil
Spectrometer: V785-0024
Trigger mode: 0
Integration Time (sec): 4.000000E-1
Scans to average: 1
Nonlinearity correction enabled: false
Boxcar width: 0
Storing dark spectrum: false
XAxis mode: Wavelengths
Number of Pixels in Spectrum: 1024
>>>>>Begin Spectral Data<<<<<
801.071	2895
801.214	2982
801.356	2861
801.499	2910
801.641	2914
801.783	2914
801.926	3093
802.068	2982
802.211	3020
802.353	3043
802.496	2982
802.638	3001
802.78	3074
802.923	3097
803.065	2952
803.208	2922
803.35	2937
803.492	2975
803.635	2929
803.777	2773
803.919	2857
804.061	3207
804.204	2956
804.346	2906
804.488	2872
804.63	3001
804.773	2899
804.915	2906
805.057	3074
805.199	2971
805.341	2979
805.483	2994
805.626	3009
805.768	2967
805.91	3051
806.052	3127
806.194	3058
806.336	3226
806.478	3017
806.62	2986
806.762	2971
806.904	3100
807.046	3176
807.188	3001
807.33	2902
807.472	2979
807.614	2910
807.756	3001
807.898	2960
808.04	2918
808.182	2960
808.324	2975
808.465	2891
808.607	2910
808.749	2823
808.891	2853
809.033	2994
809.174	2975
809.316	2891
809.458	2887
809.6	2773
809.741	2777
809.883	2811
810.025	2838
810.166	2823
810.308	2876
810.45	2838
810.591	2781
810.733	2785
810.875	2838
811.016	2766
811.158	2762
811.299	2849
811.441	2941
811.582	2861
811.724	2845
811.865	2830
812.007	2925
812.148	2838
812.29	2868
812.431	2910
812.573	2910
812.714	2960
812.855	3017
812.997	3051
813.138	3131
813.279	3020
813.421	2979
813.562	2925
813.703	2845
813.845	2891
813.986	2769
814.127	2735
814.268	2796
814.41	2819
814.551	2804
814.692	2857
814.833	2826
814.974	2876
815.115	2967
815.256	2834
815.397	2785
815.539	2830
815.68	2777
815.821	2785
815.962	2937
816.103	2899
816.244	2891
816.385	2887
816.526	2944
816.666	2918
816.807	2746
816.948	2891
817.089	2891
817.23	2845
817.371	2773
817.512	2781
817.653	2823
817.793	2815
817.934	2902
818.075	2982
818.216	3017
818.356	3028
818.497	2868
818.638	2800
818.778	2773
818.919	2800
819.06	2762
819.2	2838
819.341	2781
819.481	2785
819.622	2937
819.762	3119
819.903	3047
820.043	2918
820.184	2891
820.324	2937
820.465	3020
820.605	3032
820.746	3013
820.886	2941
821.026	3066
821.167	3135
821.307	3207
821.447	3253
821.588	3226
821.728	3184
821.868	3165
822.008	3085
822.149	3165
822.289	3253
822.429	3070
822.569	3089
822.709	3157
822.849	3028
822.99	3070
823.13	3127
823.27	3226
823.41	3135
823.55	3154
823.69	3176
823.83	3211
823.97	3112
824.11	2986
824.25	3009
824.389	3047
824.529	3131
824.669	3093
824.809	3173
824.949	3294
825.089	3253
825.228	3176
825.368	3024
825.508	2956
825.648	3005
825.787	2990
825.927	3074
826.067	2982
826.206	2967
826.346	3043
826.485	3062
826.625	3112
826.765	3313
826.904	3249
827.044	3036
827.183	2971
827.323	2914
827.462	3024
827.601	2941
827.741	2941
827.88	2971
828.02	2922
828.159	3036
828.298	3043
828.437	3192
828.577	3089
828.716	3245
828.855	3093
828.994	2922
829.134	2933
829.273	2982
829.412	2906
829.551	2910
829.69	2933
829.829	3055
829.968	3173
830.107	3047
830.246	3062
830.385	2956
830.524	2929
830.663	2849
830.802	2773
830.941	2705
831.08	2686
831.219	2762
831.357	2823
831.496	2998
831.635	2758
831.774	2678
831.913	2659
832.051	2564
832.19	2632
832.329	2731
832.467	2606
832.606	2503
832.744	2648
832.883	2632
833.022	2587
833.16	2682
833.299	2754
833.437	2746
833.576	2731
833.714	2769
833.852	2800
833.991	2811
834.129	2906
834.267	2838
834.406	2815
834.544	2895
834.682	2887
834.821	2937
834.959	3112
835.097	2948
835.235	3089
835.373	3043
835.511	3062
835.65	3013
835.788	2975
835.926	2872
836.064	2826
836.202	2864
836.34	3100
836.478	3203
836.615	3051
836.753	3127
836.891	3222
837.029	3214
837.167	3154
837.305	3085
837.443	3077
837.58	2994
837.718	3188
837.856	3070
837.993	3077
838.131	3142
838.269	3127
838.406	3135
838.544	3131
838.681	2944
838.819	2925
838.956	2823
839.094	2864
839.231	2960
839.369	3032
839.506	3420
839.643	3249
839.781	3028
839.918	2990
840.055	3089
840.193	3100
840.33	3074
840.467	3123
840.604	3211
840.742	3397
840.879	3093
841.016	3081
841.153	3135
841.29	3336
841.427	3298
841.564	3275
841.701	3294
841.838	3256
841.975	3211
842.112	3264
842.249	3108
842.385	3070
842.522	3294
842.659	3104
842.796	3043
842.933	3157
843.069	3112
843.206	3089
843.343	3230
843.479	3154
843.616	3195
843.752	2952
843.889	2887
844.025	3066
844.162	2891
844.298	3077
844.435	2971
844.571	2948
844.708	3100
844.844	3184
844.98	3275
845.117	3211
845.253	3070
845.389	3039
845.525	3138
845.661	3173
845.798	3013
845.934	3211
846.07	3123
846.206	3218
846.342	3351
846.478	3264
846.614	3127
846.75	3081
846.886	3043
847.022	3310
847.158	3146
847.294	3237
847.429	3294
847.565	3253
847.701	3538
847.837	3074
847.972	3039
848.108	3211
848.244	3142
848.379	3024
848.515	2982
848.65	2929
848.786	2971
848.921	3055
849.057	3119
849.192	3150
849.328	3085
849.463	3131
849.598	3097
849.734	3043
849.869	2967
850.004	2952
850.14	2956
850.275	2971
850.41	2887
850.545	2944
850.68	2963
850.815	2998
850.95	2979
851.085	3218
851.22	3154
851.355	3074
851.49	3013
851.625	3028
851.76	3047
851.895	2990
852.03	2933
852.165	3055
852.299	3146
852.434	3237
852.569	3169
852.703	3176
852.838	3298
852.973	3374
853.107	3359
853.242	3176
853.376	3112
853.511	3028
853.645	3066
853.78	3241
853.914	3123
854.048	3112
854.183	3112
854.317	3169
854.451	3325
854.585	3161
854.72	3108
854.854	3253
854.988	3066
855.122	3127
855.256	2982
855.39	3169
855.524	3260
855.658	3230
855.792	3195
855.926	3237
856.06	3260
856.194	3294
856.327	3211
856.461	3138
856.595	3066
856.729	3119
856.862	3233
856.996	3207
857.13	3214
857.263	3249
857.397	3321
857.53	3142
857.664	3173
857.797	3233
857.931	3249
858.064	3226
858.197	3241
858.331	3131
858.464	3138
858.597	3017
858.731	3112
858.864	3123
858.997	3127
859.13	3180
859.263	3184
859.396	3211
859.529	3081
859.662	3081
859.795	3062
859.928	3146
860.061	3306
860.194	3310
860.327	3165
860.46	3123
860.592	3245
860.725	3268
860.858	3249
860.99	3119
861.123	3093
861.256	3108
861.388	3180
861.521	3717
861.653	3017
861.786	3020
861.918	2986
862.05	3062
862.183	3085
862.315	3188
862.447	3211
862.58	3104
862.712	2963
862.844	2887
862.976	3043
863.108	3043
863.24	3431
863.372	2887
863.504	2986
863.636	2956
863.768	3093
863.9	3017
864.032	2944
864.164	2979
864.296	3024
864.428	3119
864.559	3131
864.691	3066
864.823	3104
864.954	3070
865.086	3066
865.217	3020
865.349	2960
865.48	2986
865.612	3020
865.743	3146
865.875	2986
866.006	2971
866.137	3017
866.269	2982
866.4	2933
866.531	2941
866.662	2899
866.793	2918
866.924	2918
867.055	3017
867.186	2922
867.317	2895
867.448	2876
867.579	2849
867.71	2849
867.841	2880
867.972	2937
868.103	2910
868.233	2895
868.364	2872
868.495	2922
868.625	3070
868.756	3169
868.886	2979
869.017	3028
869.147	3199
869.278	3203
869.408	3062
869.539	3039
869.669	3127
869.799	3036
869.929	3169
870.06	3142
870.19	3291
870.32	3275
870.45	3317
870.58	3420
870.71	3428
870.84	3450
870.97	3332
871.1	3268
871.23	3492
871.36	3492
871.489	3363
871.619	3409
871.749	3412
871.879	3466
872.008	3526
872.138	3424
872.267	3283
872.397	3154
872.526	3154
872.656	3047
872.785	3127
872.915	3279
873.044	3306
873.173	3211
873.303	3264
873.432	3287
873.561	3237
873.69	3157
873.819	3142
873.948	3237
874.077	3169
874.206	3100
874.335	3093
874.464	3256
874.593	3401
874.722	3275
874.851	3420
874.979	3336
875.108	3363
875.237	3233
875.365	3165
875.494	3207
875.623	3268
875.751	3116
875.88	3146
876.008	3214
876.136	3218
876.265	3359
876.393	3515
876.521	3450
876.65	3412
876.778	3355
876.906	3249
877.034	3211
877.162	3256
877.29	3192
877.418	3268
877.546	3275
877.674	3218
877.802	3237
877.93	3226
878.058	3165
878.185	3146
878.313	3256
878.441	3195
878.568	3081
878.696	3176
878.824	3260
878.951	3344
879.079	3443
879.206	3675
879.333	3397
879.461	3351
879.588	3348
879.715	3473
879.842	3584
879.97	3393
880.097	3150
880.224	3165
880.351	3203
880.478	3253
880.605	3253
880.732	3230
880.859	3507
880.986	3317
881.112	3363
881.239	3218
881.366	3112
881.493	3043
881.619	3085
881.746	3077
881.872	3100
881.999	3135
882.125	3184
882.252	3283
882.378	3275
882.505	3443
882.631	3302
882.757	3192
882.883	3233
883.01	3245
883.136	3176
883.262	3085
883.388	3131
883.514	3298
883.64	3397
883.766	3344
883.892	3211
884.018	3272
884.143	3401
884.269	3587
884.395	3249
884.52	3150
884.646	3176
884.772	3142
884.897	3119
885.023	3249
885.148	3344
885.274	3420
885.399	3393
885.524	3298
885.65	3275
885.775	3325
885.9	3317
886.025	3454
886.15	3370
886.275	3344
886.4	3256
886.525	3298
886.65	3306
886.775	3294
886.9	3542
887.025	3675
887.149	3450
887.274	3237
887.399	3226
887.523	3203
887.648	3218
887.773	3207
887.897	3393
888.021	3454
888.146	3340
888.27	3397
888.395	3526
888.519	3473
888.643	3473
888.767	3496
888.891	3287
889.015	3226
889.139	3325
889.263	3253
889.387	3431
889.511	3519
889.635	3443
889.759	3325
889.883	3325
890.006	3393
890.13	3488
890.254	3264
890.377	3363
890.501	3226
890.624	3165
890.748	3313
890.871	3192
890.995	3135
891.118	3036
891.241	3230
891.364	3260
891.488	3344
891.611	3218
891.734	3226
891.857	3260
891.98	3268
892.103	3367
892.226	3283
892.349	3226
892.471	3119
892.594	3283
892.717	3291
892.839	3294
892.962	3279
893.085	3344
893.207	3321
893.33	3180
893.452	3241
893.575	3424
893.697	3264
893.819	3500
893.941	3553
894.064	3450
894.186	3260
894.308	3283
894.43	3469
894.552	3519
894.674	3481
894.796	3275
894.918	3359
895.04	3310
895.161	3416
895.283	3405
895.405	3329
895.526	3382
895.648	3420
895.769	3473
895.891	3466
896.012	3458
896.134	3492
896.255	3401
896.376	3435
896.498	3370
896.619	3382
896.74	3382
896.861	3397
896.982	3728
897.103	3827
897.224	3599
897.345	3545
897.466	3428
897.587	3507
897.708	3641
897.828	3576
897.949	3443
898.07	3355
898.19	3397
898.311	3584
898.431	3488
898.552	3523
898.672	3595
898.792	3584
898.913	3519
899.033	3466
899.153	3272
899.273	3199
899.393	3325
899.513	3325
899.633	3329
899.753	3351
899.873	3291
899.993	3424
900.113	3374
900.232	3393
900.352	3313
900.472	3283
900.591	3249
900.711	3321
900.83	3272
900.95	3416
901.069	3485
901.189	3367
901.308	3218
901.427	3169
901.546	3199
901.665	3272
901.784	3351
901.904	3207
902.023	3188
902.141	3032
902.26	2986
902.379	3135
902.498	3085
902.617	3043
902.735	3203
902.854	3264
902.973	3207
903.091	3028
903.21	3066
903.328	3161
903.446	3135
903.565	3093
903.683	3218
903.801	3119
903.919	3195
904.038	3306
904.156	3195
904.274	3294
904.392	3268
904.51	3313
904.627	3317
904.745	3462
904.863	3504
904.981	3283
905.098	3180
905.216	3237
905.334	3294
905.451	3298
905.569	3317
905.686	3409
905.803	3473
905.921	3272
906.038	3412
906.155	3393
906.272	3287
906.389	3321
906.506	3241
906.623	3245
906.74	3268
906.857	3207
906.974	3237
907.091	3439
907.208	3519
907.324	3519
907.441	3374
907.557	3233
907.674	3226
907.79	3207
907.907	3279
908.023	3363
908.139	3344
908.256	3287
908.372	3351
908.488	3340
908.604	3233
908.72	3245
908.836	3336
908.952	3291
909.068	3317
909.184	3500
909.3	3405
909.415	3507
909.531	3462
909.647	3275
909.762	3275
909.878	3249
909.993	3336
910.108	3344
910.224	3370
910.339	3435
910.454	3332
910.57	3291
910.685	3222
910.8	3599
910.915	3507
911.03	3431
911.145	3264
911.259	3230
911.374	3291
911.489	3245
911.604	3264
911.718	3150
911.833	3142
911.947	3047
912.062	3017
912.176	3169
912.291	3199
912.405	3180
912.519	3409
912.633	3515
912.748	3332
912.862	3253
912.976	3230
913.09	3100
913.204	3142
913.318	3184
913.431	3389
913.545	3348
913.659	3420
913.772	3359
913.886	3275
914	3211
914.113	3363
914.226	3409
914.34	3397
914.453	3203
914.566	3412
914.68	3275
914.793	3313
914.906	3119
915.019	3119
915.132	3074
915.245	3165
915.358	3226
915.47	3264
915.583	3279
915.696	3298
915.809	3435
915.921	3416
916.034	3275
916.146	3275
916.259	3211
916.371	3378
916.483	3397
916.595	3283
916.708	3355
916.82	3355
916.932	3359
917.044	3344
917.156	3336
917.268	3264
917.38	3321
917.491	3298
917.603	3329
917.715	3481
917.826	3469
917.938	3363
918.049	3291
918.161	3447
918.272	3572
918.384	3580
918.495	3511
918.606	3359
918.717	3298
918.828	3405
918.939	3454
919.05	3298
919.161	3367
919.272	3184
919.383	3241
919.494	3519
919.604	3679
919.715	3507
919.826	3412
919.936	3450
920.047	3644
920.157	3542
920.267	3743
920.378	3599
920.488	3526
920.598	3781
920.708	3937
920.818	3861
920.928	3827
921.038	4048
921.148	4010
921.258	3679
921.368	3667
921.477	3599
921.587	3591
921.697	3473
921.806	3663
921.916	3534
922.025	3374
922.134	3321
922.244	3336
922.353	3443
922.462	3222
922.571	3241
922.68	3085
922.789	3077
922.898	3157
923.007	3093
923.116	3211
923.224	3207
923.333	3157
923.442	3100
923.55	3116
923.659	3142
923.767	3222
923.876	3104
923.984	3237
924.092	3131
924.201	3207
924.309	3256
924.417	3241
924.525	3173
924.633	3241
924.741	4040
924.849	3081
924.956	3275
925.064	3043
925.172	3047
925.279	3112
925.387	3222
925.494	3176
925.602	3325
925.709	3313
925.816	3184
925.924	3279
926.031	3351
926.138	3325
926.245	3393
926.352	3283
926.459	3424
926.566	3466
926.673	3359
926.779	3287
926.886	3253
926.993	3173
927.099	3146
927.206	3154
927.312	3112
927.419	3192
927.525	3207
927.631	3256
927.737	3157
927.843	3089
927.95	3017
928.056	3119
928.162	3195
928.267	3241
928.373	3816
928.479	3294
928.585	3066
928.69	3226
928.796	3253
928.901	3180
929.007	3043
929.112	3211
929.218	3173
929.323	3146
929.428	3146
929.533	3313
929.638	3108
929.743	3150
929.848	3275
929.953	3237
930.058	3138
930.163	2971
930.267	3032
930.372	3214
930.477	3074
930.581	3298
930.685	3116
930.79	3066
930.894	3104
930.998	3093
931.103	3275
931.207	2982
931.311	2963
931.415	2933
931.519	2766
931.623	2819
