Data from test_V78500241_1420.txt Node
Date: Fri Mar 25 16:25:02 CST 2022
User: usil
Spectrometer: V785-0024
Trigger mode: 0
Integration Time (sec): 4.000000E-1
Scans to average: 1
Nonlinearity correction enabled: false
Boxcar width: 0
Storing dark spectrum: false
XAxis mode: Wavelengths
Number of Pixels in Spectrum: 1024
>>>>>Begin Spectral Data<<<<<
801.071	2922
801.214	2975
801.356	2891
801.499	2902
801.641	2910
801.783	2952
801.926	3039
802.068	2941
802.211	3032
802.353	3020
802.496	3024
802.638	3020
802.78	3024
802.923	3100
803.065	2960
803.208	2891
803.35	2914
803.492	2929
803.635	2925
803.777	2727
803.919	2826
804.061	3169
804.204	2922
804.346	2929
804.488	2857
804.63	2967
804.773	2883
804.915	2876
805.057	3108
805.199	2960
805.341	2994
805.483	3039
805.626	3036
805.768	2979
805.91	3093
806.052	3119
806.194	3051
806.336	3222
806.478	3028
806.62	2956
806.762	2971
806.904	3055
807.046	3135
807.188	2960
807.33	2864
807.472	2994
807.614	2922
807.756	2975
807.898	2914
808.04	2899
808.182	2979
808.324	2982
808.465	2891
808.607	2891
808.749	2781
808.891	2842
809.033	2979
809.174	2975
809.316	2891
809.458	2906
809.6	2785
809.741	2773
809.883	2785
810.025	2849
810.166	2834
810.308	2834
810.45	2895
810.591	2762
810.733	2739
810.875	2838
811.016	2796
811.158	2746
811.299	2826
811.441	2902
811.582	2929
811.724	2823
811.865	2868
812.007	2899
812.148	2876
812.29	2838
812.431	2887
812.573	2944
812.714	2956
812.855	3062
812.997	3043
813.138	3112
813.279	2986
813.421	3009
813.562	2906
813.703	2845
813.845	2880
813.986	2769
814.127	2712
814.268	2826
814.41	2868
814.551	2785
814.692	2842
814.833	2804
814.974	2883
815.115	2937
815.256	2811
815.397	2785
815.539	2857
815.68	2731
815.821	2788
815.962	2922
816.103	2914
816.244	2876
816.385	2864
816.526	2944
816.666	2880
816.807	2754
816.948	2872
817.089	2853
817.23	2838
817.371	2807
817.512	2788
817.653	2868
817.793	2872
817.934	2864
818.075	2975
818.216	2982
818.356	3058
818.497	2887
818.638	2777
818.778	2811
818.919	2750
819.06	2766
819.2	2883
819.341	2777
819.481	2788
819.622	2948
819.762	3127
819.903	3017
820.043	2918
820.184	2857
820.324	2929
820.465	3001
820.605	3024
820.746	3001
820.886	2933
821.026	3108
821.167	3165
821.307	3233
821.447	3283
821.588	3222
821.728	3218
821.868	3195
822.008	3009
822.149	3150
822.289	3203
822.429	3097
822.569	3100
822.709	3188
822.849	2979
822.99	3150
823.13	3157
823.27	3192
823.41	3135
823.55	3154
823.69	3138
823.83	3173
823.97	3100
824.11	2971
824.25	3024
824.389	3047
824.529	3089
824.669	3074
824.809	3214
824.949	3253
825.089	3176
825.228	3135
825.368	3024
825.508	2971
825.648	2967
825.787	3036
825.927	3013
826.067	2941
826.206	2933
826.346	3055
826.485	3116
826.625	3100
826.765	3230
826.904	3188
827.044	2990
827.183	2929
827.323	2857
827.462	3005
827.601	2880
827.741	2956
827.88	2933
828.02	2857
828.159	2948
828.298	3028
828.437	3131
828.577	3032
828.716	3264
828.855	3093
828.994	2891
829.134	2849
829.273	2937
829.412	2853
829.551	2861
829.69	2895
829.829	2982
829.968	3104
830.107	2967
830.246	3074
830.385	2880
830.524	2861
830.663	2815
830.802	2724
830.941	2659
831.08	2682
831.219	2762
831.357	2716
831.496	2944
831.635	2739
831.774	2610
831.913	2648
832.051	2537
832.19	2583
832.329	2659
832.467	2526
832.606	2492
832.744	2564
832.883	2594
833.022	2579
833.16	2629
833.299	2712
833.437	2689
833.576	2697
833.714	2705
833.852	2720
833.991	2758
834.129	2842
834.267	2819
834.406	2781
834.544	2849
834.682	2849
834.821	2819
834.959	3043
835.097	2910
835.235	3055
835.373	2998
835.511	3020
835.65	2944
835.788	2960
835.926	2815
836.064	2800
836.202	2823
836.34	3089
836.478	3154
836.615	3058
836.753	3093
836.891	3165
837.029	3173
837.167	3104
837.305	3070
837.443	3032
837.58	2975
837.718	3116
837.856	3051
837.993	3013
838.131	3154
838.269	3055
838.406	3093
838.544	3062
838.681	2914
838.819	2895
838.956	2758
839.094	2819
839.231	2883
839.369	3017
839.506	3382
839.643	3214
839.781	2979
839.918	2994
840.055	3020
840.193	3013
840.33	3070
840.467	3085
840.604	3104
840.742	3428
840.879	3024
841.016	3051
841.153	3138
841.29	3336
841.427	3264
841.564	3230
841.701	3302
841.838	3222
841.975	3176
842.112	3207
842.249	3043
842.385	3017
842.522	3264
842.659	3085
842.796	3058
842.933	3108
843.069	3047
843.206	3028
843.343	3214
843.479	3039
843.616	3142
843.752	2853
843.889	2872
844.025	3039
844.162	2895
844.298	3066
844.435	2937
844.571	2937
844.708	3070
844.844	3154
844.98	3199
845.117	3157
845.253	3024
845.389	3013
845.525	3074
845.661	3085
845.798	2994
845.934	3108
846.07	3077
846.206	3188
846.342	3325
846.478	3195
846.614	3039
846.75	3051
846.886	3001
847.022	3268
847.158	3150
847.294	3207
847.429	3233
847.565	3199
847.701	3477
847.837	3039
847.972	2963
848.108	3142
848.244	3184
848.379	3013
848.515	2963
848.65	2918
848.786	2967
848.921	3009
849.057	3085
849.192	3116
849.328	3036
849.463	3097
849.598	3047
849.734	3051
849.869	2929
850.004	2895
850.14	2925
850.275	2899
850.41	2830
850.545	2914
850.68	2895
850.815	2956
850.95	2956
851.085	3211
851.22	3077
851.355	3028
851.49	2990
851.625	2979
851.76	2971
851.895	2929
852.03	2906
852.165	3047
852.299	3119
852.434	3165
852.569	3127
852.703	3157
852.838	3222
852.973	3321
853.107	3260
853.242	3116
853.376	3123
853.511	2941
853.645	3024
853.78	3211
853.914	3112
854.048	3127
854.183	3116
854.317	3138
854.451	3302
854.585	3142
854.72	3051
854.854	3173
854.988	3009
855.122	3119
855.256	2963
855.39	3119
855.524	3253
855.658	3119
855.792	3108
855.926	3142
856.06	3199
856.194	3268
856.327	3119
856.461	3058
856.595	3066
856.729	3097
856.862	3195
856.996	3135
857.13	3180
857.263	3165
857.397	3230
857.53	3108
857.664	3184
857.797	3222
857.931	3233
858.064	3150
858.197	3222
858.331	3100
858.464	3093
858.597	3005
858.731	3112
858.864	3104
858.997	3097
859.13	3135
859.263	3195
859.396	3176
859.529	3116
859.662	3051
859.795	3055
859.928	3097
860.061	3260
860.194	3230
860.327	3142
860.46	3097
860.592	3222
860.725	3237
860.858	3260
860.99	3066
861.123	3039
861.256	3051
861.388	3112
861.521	3724
861.653	3001
861.786	2986
861.918	2971
862.05	3047
862.183	3097
862.315	3173
862.447	3214
862.58	3055
862.712	2933
862.844	2864
862.976	2994
863.108	3001
863.24	3325
863.372	2857
863.504	2937
863.636	2918
863.768	3013
863.9	2952
864.032	2883
864.164	2929
864.296	3013
864.428	3089
864.559	3100
864.691	3089
864.823	3055
864.954	3036
865.086	3047
865.217	2971
865.349	2929
865.48	2971
865.612	3020
865.743	3135
865.875	2975
866.006	2967
866.137	2960
866.269	2952
866.4	2971
866.531	2937
866.662	2864
866.793	2902
866.924	2906
867.055	2967
867.186	2902
867.317	2880
867.448	2826
867.579	2834
867.71	2804
867.841	2819
867.972	2838
868.103	2899
868.233	2864
868.364	2861
868.495	2906
868.625	3070
868.756	3165
868.886	3009
869.017	3020
869.147	3165
869.278	3127
869.408	3024
869.539	3024
869.669	3142
869.799	3055
869.929	3135
870.06	3119
870.19	3325
870.32	3279
870.45	3294
870.58	3351
870.71	3428
870.84	3424
870.97	3264
871.1	3211
871.23	3488
871.36	3462
871.489	3344
871.619	3389
871.749	3382
871.879	3416
872.008	3477
872.138	3405
872.267	3245
872.397	3180
872.526	3085
872.656	2986
872.785	3100
872.915	3192
873.044	3287
873.173	3245
873.303	3214
873.432	3169
873.561	3230
873.69	3150
873.819	3142
873.948	3211
874.077	3112
874.206	3047
874.335	3074
874.464	3176
874.593	3332
874.722	3241
874.851	3397
874.979	3325
875.108	3279
875.237	3157
875.365	3150
875.494	3207
875.623	3233
875.751	3074
875.88	3081
876.008	3161
876.136	3203
876.265	3370
876.393	3473
876.521	3405
876.65	3386
876.778	3287
876.906	3214
877.034	3154
877.162	3203
877.29	3180
877.418	3199
877.546	3260
877.674	3230
877.802	3214
877.93	3256
878.058	3127
878.185	3085
878.313	3214
878.441	3169
878.568	3062
878.696	3154
878.824	3233
878.951	3275
879.079	3435
879.206	3584
879.333	3405
879.461	3256
879.588	3317
879.715	3458
879.842	3557
879.97	3351
880.097	3157
880.224	3093
880.351	3131
880.478	3222
880.605	3169
880.732	3165
880.859	3477
880.986	3279
881.112	3329
881.239	3195
881.366	3089
881.493	2998
881.619	2967
881.746	3043
881.872	3097
881.999	3070
882.125	3142
882.252	3222
882.378	3272
882.505	3378
882.631	3279
882.757	3150
882.883	3226
883.01	3222
883.136	3138
883.262	3089
883.388	3112
883.514	3310
883.64	3393
883.766	3340
883.892	3211
884.018	3233
884.143	3428
884.269	3542
884.395	3203
884.52	3127
884.646	3211
884.772	3135
884.897	3138
885.023	3230
885.148	3370
885.274	3443
885.399	3382
885.524	3310
885.65	3287
885.775	3340
885.9	3306
886.025	3393
886.15	3378
886.275	3340
886.4	3275
886.525	3340
886.65	3363
886.775	3268
886.9	3500
887.025	3644
887.149	3443
887.274	3317
887.399	3226
887.523	3230
887.648	3207
887.773	3199
887.897	3420
888.021	3424
888.146	3336
888.27	3420
888.395	3549
888.519	3454
888.643	3504
888.767	3500
888.891	3348
889.015	3279
889.139	3321
889.263	3287
889.387	3439
889.511	3564
889.635	3496
889.759	3275
889.883	3310
890.006	3443
890.13	3504
890.254	3317
890.377	3386
890.501	3245
890.624	3222
890.748	3348
890.871	3222
890.995	3135
891.118	3097
891.241	3253
891.364	3245
891.488	3348
891.611	3176
891.734	3207
891.857	3302
891.98	3291
892.103	3359
892.226	3291
892.349	3272
892.471	3081
892.594	3253
892.717	3329
892.839	3302
892.962	3336
893.085	3367
893.207	3336
893.33	3165
893.452	3245
893.575	3374
893.697	3233
893.819	3488
893.941	3545
894.064	3526
894.186	3317
894.308	3310
894.43	3477
894.552	3564
894.674	3511
894.796	3340
894.918	3313
895.04	3317
895.161	3469
895.283	3420
895.405	3310
895.526	3386
895.648	3477
895.769	3454
895.891	3454
896.012	3500
896.134	3526
896.255	3443
896.376	3389
896.498	3393
896.619	3439
896.74	3382
896.861	3386
896.982	3732
897.103	3842
897.224	3618
897.345	3564
897.466	3485
897.587	3576
897.708	3648
897.828	3572
897.949	3500
898.07	3370
898.19	3416
898.311	3625
898.431	3504
898.552	3526
898.672	3629
898.792	3622
898.913	3561
899.033	3447
899.153	3351
899.273	3249
899.393	3321
899.513	3363
899.633	3351
899.753	3344
899.873	3313
899.993	3397
900.113	3401
900.232	3389
900.352	3397
900.472	3321
900.591	3245
900.711	3359
900.83	3249
900.95	3450
901.069	3526
901.189	3386
901.308	3195
901.427	3173
901.546	3230
901.665	3298
901.784	3351
901.904	3256
902.023	3165
902.141	3074
902.26	3051
902.379	3173
902.498	3104
902.617	3108
902.735	3211
902.854	3245
902.973	3230
903.091	3085
903.21	3116
903.328	3138
903.446	3161
903.565	3127
903.683	3241
903.801	3165
903.919	3253
904.038	3302
904.156	3226
904.274	3321
904.392	3275
904.51	3253
904.627	3409
904.745	3431
904.863	3519
904.981	3310
905.098	3180
905.216	3272
905.334	3313
905.451	3344
905.569	3363
905.686	3450
905.803	3485
905.921	3359
906.038	3447
906.155	3393
906.272	3287
906.389	3370
906.506	3230
906.623	3313
906.74	3313
906.857	3222
906.974	3279
907.091	3454
907.208	3614
907.324	3500
907.441	3401
907.557	3287
907.674	3249
907.79	3253
907.907	3321
908.023	3397
908.139	3389
908.256	3374
908.372	3401
908.488	3382
908.604	3287
908.72	3253
908.836	3329
908.952	3313
909.068	3355
909.184	3507
909.3	3428
909.415	3500
909.531	3500
909.647	3302
909.762	3298
909.878	3321
909.993	3393
910.108	3355
910.224	3393
910.339	3424
910.454	3397
910.57	3317
910.685	3287
910.8	3606
910.915	3530
911.03	3462
911.145	3325
911.259	3264
911.374	3336
911.489	3302
911.604	3272
911.718	3161
911.833	3184
911.947	3055
912.062	3047
912.176	3180
912.291	3230
912.405	3237
912.519	3431
912.633	3458
912.748	3401
912.862	3287
912.976	3184
913.09	3100
913.204	3142
913.318	3214
913.431	3344
913.545	3344
913.659	3428
913.772	3359
913.886	3253
914	3211
914.113	3389
914.226	3435
914.34	3409
914.453	3230
914.566	3435
914.68	3279
914.793	3370
914.906	3214
915.019	3127
915.132	3131
915.245	3188
915.358	3203
915.47	3245
915.583	3249
915.696	3325
915.809	3424
915.921	3424
916.034	3310
916.146	3253
916.259	3253
916.371	3386
916.483	3431
916.595	3302
916.708	3351
916.82	3367
916.932	3336
917.044	3348
917.156	3370
917.268	3279
917.38	3325
917.491	3313
917.603	3443
917.715	3454
917.826	3500
917.938	3401
918.049	3344
918.161	3466
918.272	3625
918.384	3648
918.495	3488
918.606	3355
918.717	3287
918.828	3382
918.939	3443
919.05	3321
919.161	3355
919.272	3176
919.383	3313
919.494	3526
919.604	3690
919.715	3584
919.826	3443
919.936	3492
920.047	3603
920.157	3576
920.267	3755
920.378	3625
920.488	3595
920.598	3789
920.708	3983
920.818	3842
920.928	3873
921.038	4040
921.148	4040
921.258	3690
921.368	3622
921.477	3610
921.587	3557
921.697	3473
921.806	3644
921.916	3545
922.025	3435
922.134	3344
922.244	3359
922.353	3431
922.462	3275
922.571	3279
922.68	3165
922.789	3074
922.898	3188
923.007	3138
923.116	3230
923.224	3188
923.333	3195
923.442	3131
923.55	3119
923.659	3146
923.767	3241
923.876	3135
923.984	3253
924.092	3131
924.201	3245
924.309	3249
924.417	3222
924.525	3214
924.633	3298
924.741	4177
924.849	3093
924.956	3272
925.064	3116
925.172	3058
925.279	3138
925.387	3199
925.494	3218
925.602	3378
925.709	3389
925.816	3214
925.924	3294
926.031	3393
926.138	3310
926.245	3405
926.352	3233
926.459	3424
926.566	3504
926.673	3321
926.779	3279
926.886	3291
926.993	3146
927.099	3142
927.206	3089
927.312	3100
927.419	3249
927.525	3218
927.631	3302
927.737	3199
927.843	3131
927.95	3032
928.056	3161
928.162	3226
928.267	3291
928.373	3857
928.479	3336
928.585	3036
928.69	3245
928.796	3253
928.901	3176
929.007	3062
929.112	3214
929.218	3199
929.323	3176
929.428	3188
929.533	3367
929.638	3150
929.743	3195
929.848	3287
929.953	3256
930.058	3146
930.163	3043
930.267	3070
930.372	3249
930.477	3066
930.581	3348
930.685	3180
930.79	3085
930.894	3135
930.998	3108
931.103	3291
931.207	2998
931.311	2944
931.415	2941
931.519	2792
931.623	2849
