Data from test_V78500241_1132.txt Node
Date: Fri Mar 25 16:23:02 CST 2022
User: usil
Spectrometer: V785-0024
Trigger mode: 0
Integration Time (sec): 4.000000E-1
Scans to average: 1
Nonlinearity correction enabled: false
Boxcar width: 0
Storing dark spectrum: false
XAxis mode: Wavelengths
Number of Pixels in Spectrum: 1024
>>>>>Begin Spectral Data<<<<<
801.071	2899
801.214	2960
801.356	2914
801.499	2937
801.641	2891
801.783	2963
801.926	3116
802.068	2971
802.211	3009
802.353	3051
802.496	2979
802.638	3081
802.78	3093
802.923	3077
803.065	3043
803.208	2929
803.35	2948
803.492	2948
803.635	2975
803.777	2762
803.919	2906
804.061	3184
804.204	2960
804.346	2948
804.488	2883
804.63	3036
804.773	2906
804.915	2929
805.057	3077
805.199	2956
805.341	2963
805.483	3077
805.626	3032
805.768	2986
805.91	3138
806.052	3123
806.194	3058
806.336	3241
806.478	3047
806.62	2975
806.762	3020
806.904	3051
807.046	3195
807.188	2975
807.33	2937
807.472	3005
807.614	2925
807.756	2990
807.898	2975
808.04	2929
808.182	3017
808.324	2967
808.465	2868
808.607	2948
808.749	2796
808.891	2826
809.033	2994
809.174	2982
809.316	2864
809.458	2933
809.6	2769
809.741	2819
809.883	2785
810.025	2861
810.166	2876
810.308	2849
810.45	2857
810.591	2766
810.733	2788
810.875	2853
811.016	2800
811.158	2800
811.299	2834
811.441	2952
811.582	2895
811.724	2842
811.865	2845
812.007	2941
812.148	2902
812.29	2853
812.431	2933
812.573	2944
812.714	3009
812.855	3074
812.997	3074
813.138	3173
813.279	3024
813.421	3013
813.562	2986
813.703	2883
813.845	2929
813.986	2769
814.127	2724
814.268	2887
814.41	2857
814.551	2800
814.692	2929
814.833	2834
814.974	2857
815.115	2963
815.256	2872
815.397	2834
815.539	2861
815.68	2762
815.821	2823
815.962	2941
816.103	2967
816.244	2857
816.385	2876
816.526	2971
816.666	2933
816.807	2746
816.948	2895
817.089	2918
817.23	2899
817.371	2792
817.512	2826
817.653	2864
817.793	2868
817.934	2895
818.075	2990
818.216	2998
818.356	3036
818.497	2895
818.638	2811
818.778	2819
818.919	2804
819.06	2762
819.2	2914
819.341	2804
819.481	2804
819.622	2944
819.762	3138
819.903	3093
820.043	2956
820.184	2902
820.324	2899
820.465	3028
820.605	3047
820.746	3062
820.886	2994
821.026	3108
821.167	3165
821.307	3287
821.447	3313
821.588	3256
821.728	3264
821.868	3241
822.008	3081
822.149	3180
822.289	3226
822.429	3089
822.569	3093
822.709	3192
822.849	3058
822.99	3127
823.13	3131
823.27	3207
823.41	3108
823.55	3176
823.69	3192
823.83	3226
823.97	3100
824.11	3028
824.25	3009
824.389	3058
824.529	3138
824.669	3119
824.809	3173
824.949	3260
825.089	3256
825.228	3169
825.368	3017
825.508	2979
825.648	2998
825.787	3036
825.927	3039
826.067	3039
826.206	2975
826.346	3077
826.485	3093
826.625	3199
826.765	3256
826.904	3192
827.044	2971
827.183	2941
827.323	2845
827.462	3020
827.601	2933
827.741	2941
827.88	2941
828.02	2872
828.159	2956
828.298	3039
828.437	3116
828.577	3032
828.716	3249
828.855	3146
828.994	2937
829.134	2883
829.273	2925
829.412	2876
829.551	2868
829.69	2864
829.829	3017
829.968	3112
830.107	3028
830.246	3047
830.385	2918
830.524	2902
830.663	2842
830.802	2731
830.941	2640
831.08	2644
831.219	2792
831.357	2781
831.496	2948
831.635	2724
831.774	2686
831.913	2678
832.051	2537
832.19	2598
832.329	2739
832.467	2537
832.606	2499
832.744	2594
832.883	2606
833.022	2610
833.16	2686
833.299	2693
833.437	2701
833.576	2678
833.714	2754
833.852	2746
833.991	2762
834.129	2830
834.267	2838
834.406	2811
834.544	2906
834.682	2895
834.821	2899
834.959	3070
835.097	2922
835.235	3097
835.373	3032
835.511	3055
835.65	2933
835.788	2956
835.926	2849
836.064	2815
836.202	2872
836.34	3127
836.478	3150
836.615	3097
836.753	3176
836.891	3237
837.029	3116
837.167	3089
837.305	3127
837.443	3051
837.58	2979
837.718	3112
837.856	3036
837.993	3028
838.131	3108
838.269	3135
838.406	3097
838.544	3123
838.681	2925
838.819	2948
838.956	2834
839.094	2823
839.231	2906
839.369	3009
839.506	3386
839.643	3218
839.781	3024
839.918	3009
840.055	3032
840.193	3036
840.33	3081
840.467	3081
840.604	3154
840.742	3435
840.879	3017
841.016	3097
841.153	3119
841.29	3317
841.427	3291
841.564	3283
841.701	3313
841.838	3207
841.975	3150
842.112	3237
842.249	3058
842.385	3039
842.522	3260
842.659	3104
842.796	3062
842.933	3100
843.069	3024
843.206	3020
843.343	3173
843.479	3119
843.616	3154
843.752	2929
843.889	2864
844.025	3100
844.162	2861
844.298	3074
844.435	2960
844.571	2948
844.708	3081
844.844	3169
844.98	3245
845.117	3192
845.253	3062
845.389	3043
845.525	3104
845.661	3070
845.798	3058
845.934	3123
846.07	3058
846.206	3268
846.342	3317
846.478	3241
846.614	3066
846.75	3013
846.886	3024
847.022	3230
847.158	3138
847.294	3199
847.429	3245
847.565	3207
847.701	3485
847.837	3039
847.972	2998
848.108	3161
848.244	3127
848.379	2979
848.515	2967
848.65	2948
848.786	2971
848.921	2986
849.057	3100
849.192	3154
849.328	3093
849.463	3123
849.598	3051
849.734	3013
849.869	2933
850.004	2902
850.14	2971
850.275	2948
850.41	2819
850.545	2880
850.68	2975
850.815	2963
850.95	2948
851.085	3195
851.22	3108
851.355	3058
851.49	2979
851.625	2982
851.76	3039
851.895	2944
852.03	2914
852.165	3036
852.299	3138
852.434	3199
852.569	3112
852.703	3165
852.838	3226
852.973	3329
853.107	3344
853.242	3138
853.376	3104
853.511	3009
853.645	3081
853.78	3192
853.914	3127
854.048	3127
854.183	3070
854.317	3135
854.451	3291
854.585	3116
854.72	3070
854.854	3218
854.988	3062
855.122	3089
855.256	2990
855.39	3116
855.524	3249
855.658	3233
855.792	3165
855.926	3203
856.06	3176
856.194	3264
856.327	3150
856.461	3081
856.595	3074
856.729	3097
856.862	3199
856.996	3169
857.13	3195
857.263	3253
857.397	3287
857.53	3127
857.664	3173
857.797	3233
857.931	3253
858.064	3203
858.197	3222
858.331	3142
858.464	3089
858.597	3009
858.731	3116
858.864	3173
858.997	3097
859.13	3203
859.263	3161
859.396	3195
859.529	3070
859.662	3093
859.795	3055
859.928	3161
860.061	3291
860.194	3287
860.327	3161
860.46	3077
860.592	3272
860.725	3241
860.858	3237
860.99	3089
861.123	3051
861.256	3062
861.388	3142
861.521	3747
861.653	2963
861.786	2986
861.918	3005
862.05	3051
862.183	3108
862.315	3138
862.447	3188
862.58	3062
862.712	2944
862.844	2864
862.976	3017
863.108	2967
863.24	3348
863.372	2899
863.504	2948
863.636	2952
863.768	3036
863.9	2982
864.032	2906
864.164	2906
864.296	3036
864.428	3104
864.559	3085
864.691	3074
864.823	3032
864.954	3043
865.086	3055
865.217	2975
865.349	2948
865.48	2948
865.612	3047
865.743	3127
865.875	2994
866.006	2922
866.137	2937
866.269	2963
866.4	2967
866.531	2891
866.662	2883
866.793	2872
866.924	2902
867.055	2967
867.186	2941
867.317	2872
867.448	2830
867.579	2838
867.71	2864
867.841	2815
867.972	2891
868.103	2891
868.233	2880
868.364	2861
868.495	2929
868.625	3062
868.756	3131
868.886	2982
869.017	2982
869.147	3169
869.278	3184
869.408	3047
869.539	3043
869.669	3074
869.799	3051
869.929	3104
870.06	3108
870.19	3298
870.32	3264
870.45	3287
870.58	3409
870.71	3416
870.84	3409
870.97	3321
871.1	3237
871.23	3507
871.36	3447
871.489	3336
871.619	3409
871.749	3409
871.879	3450
872.008	3485
872.138	3405
872.267	3253
872.397	3116
872.526	3123
872.656	3017
872.785	3085
872.915	3268
873.044	3336
873.173	3218
873.303	3264
873.432	3203
873.561	3226
873.69	3142
873.819	3150
873.948	3192
874.077	3093
874.206	3009
874.335	3116
874.464	3245
874.593	3332
874.722	3268
874.851	3389
874.979	3302
875.108	3294
875.237	3173
875.365	3161
875.494	3176
875.623	3253
875.751	3039
875.88	3097
876.008	3192
876.136	3222
876.265	3355
876.393	3534
876.521	3393
876.65	3401
876.778	3325
876.906	3230
877.034	3192
877.162	3207
877.29	3199
877.418	3241
877.546	3249
877.674	3249
877.802	3256
877.93	3241
878.058	3131
878.185	3089
878.313	3211
878.441	3199
878.568	3039
878.696	3157
878.824	3249
878.951	3279
879.079	3481
879.206	3610
879.333	3412
879.461	3340
879.588	3340
879.715	3507
879.842	3564
879.97	3405
880.097	3161
880.224	3146
880.351	3192
880.478	3237
880.605	3188
880.732	3161
880.859	3534
880.986	3321
881.112	3317
881.239	3165
881.366	3062
881.493	3017
881.619	3013
881.746	3081
881.872	3058
881.999	3154
882.125	3150
882.252	3253
882.378	3268
882.505	3454
882.631	3279
882.757	3173
882.883	3226
883.01	3272
883.136	3154
883.262	3138
883.388	3077
883.514	3298
883.64	3378
883.766	3317
883.892	3192
884.018	3249
884.143	3374
884.269	3545
884.395	3218
884.52	3211
884.646	3192
884.772	3108
884.897	3093
885.023	3180
885.148	3302
885.274	3412
885.399	3386
885.524	3256
885.65	3233
885.775	3302
885.9	3249
886.025	3454
886.15	3389
886.275	3268
886.4	3192
886.525	3287
886.65	3260
886.775	3291
886.9	3466
887.025	3637
887.149	3386
887.274	3226
887.399	3203
887.523	3230
887.648	3192
887.773	3176
887.897	3348
888.021	3359
888.146	3279
888.27	3412
888.395	3526
888.519	3447
888.643	3428
888.767	3435
888.891	3313
889.015	3218
889.139	3256
889.263	3283
889.387	3428
889.511	3526
889.635	3416
889.759	3268
889.883	3317
890.006	3378
890.13	3492
890.254	3245
890.377	3336
890.501	3192
890.624	3203
890.748	3302
890.871	3169
890.995	3081
891.118	3070
891.241	3203
891.364	3207
891.488	3340
891.611	3226
891.734	3207
891.857	3310
891.98	3230
892.103	3336
892.226	3272
892.349	3207
892.471	3127
892.594	3253
892.717	3294
892.839	3272
892.962	3313
893.085	3382
893.207	3253
893.33	3169
893.452	3203
893.575	3359
893.697	3237
893.819	3473
893.941	3485
894.064	3454
894.186	3237
894.308	3291
894.43	3458
894.552	3545
894.674	3450
894.796	3241
894.918	3302
895.04	3249
895.161	3405
895.283	3367
895.405	3317
895.526	3386
895.648	3397
895.769	3416
895.891	3454
896.012	3477
896.134	3492
896.255	3409
896.376	3351
896.498	3370
896.619	3401
896.74	3355
896.861	3397
896.982	3637
897.103	3835
897.224	3584
897.345	3515
897.466	3378
897.587	3511
897.708	3610
897.828	3584
897.949	3424
898.07	3336
898.19	3431
898.311	3625
898.431	3439
898.552	3542
898.672	3599
898.792	3576
898.913	3511
899.033	3389
899.153	3272
899.273	3226
899.393	3256
899.513	3298
899.633	3272
899.753	3336
899.873	3313
899.993	3359
900.113	3367
900.232	3401
900.352	3317
900.472	3294
900.591	3192
900.711	3310
900.83	3222
900.95	3412
901.069	3488
901.189	3367
901.308	3154
901.427	3131
901.546	3230
901.665	3306
901.784	3344
901.904	3230
902.023	3108
902.141	2967
902.26	3017
902.379	3112
902.498	3024
902.617	3062
902.735	3214
902.854	3233
902.973	3146
903.091	3074
903.21	3104
903.328	3127
903.446	3116
903.565	3089
903.683	3199
903.801	3104
903.919	3260
904.038	3291
904.156	3176
904.274	3298
904.392	3226
904.51	3249
904.627	3313
904.745	3462
904.863	3515
904.981	3260
905.098	3173
905.216	3176
905.334	3287
905.451	3298
905.569	3302
905.686	3428
905.803	3492
905.921	3245
906.038	3370
906.155	3348
906.272	3336
906.389	3386
906.506	3211
906.623	3268
906.74	3245
906.857	3192
906.974	3256
907.091	3443
907.208	3595
907.324	3473
907.441	3386
907.557	3241
907.674	3253
907.79	3203
907.907	3253
908.023	3348
908.139	3401
908.256	3310
908.372	3348
908.488	3332
908.604	3253
908.72	3245
908.836	3260
908.952	3264
909.068	3351
909.184	3458
909.3	3409
909.415	3500
909.531	3492
909.647	3279
909.762	3279
909.878	3199
909.993	3355
910.108	3325
910.224	3355
910.339	3378
910.454	3325
910.57	3329
910.685	3233
910.8	3568
910.915	3553
911.03	3367
911.145	3260
911.259	3260
911.374	3321
911.489	3222
911.604	3195
911.718	3127
911.833	3169
911.947	3009
912.062	3005
912.176	3180
912.291	3211
912.405	3214
912.519	3431
912.633	3424
912.748	3378
912.862	3279
912.976	3119
913.09	3039
913.204	3135
913.318	3211
913.431	3325
913.545	3310
913.659	3378
913.772	3321
913.886	3195
914	3226
914.113	3317
914.226	3412
914.34	3382
914.453	3176
914.566	3401
914.68	3275
914.793	3321
914.906	3131
915.019	3108
915.132	3017
915.245	3169
915.358	3214
915.47	3195
915.583	3245
915.696	3298
915.809	3397
915.921	3439
916.034	3275
916.146	3279
916.259	3222
916.371	3374
916.483	3374
916.595	3298
916.708	3298
916.82	3351
916.932	3298
917.044	3336
917.156	3363
917.268	3249
917.38	3294
917.491	3317
917.603	3374
917.715	3454
917.826	3450
917.938	3401
918.049	3298
918.161	3405
918.272	3580
918.384	3530
918.495	3500
918.606	3329
918.717	3287
918.828	3389
918.939	3405
919.05	3325
919.161	3355
919.272	3142
919.383	3325
919.494	3530
919.604	3637
919.715	3504
919.826	3405
919.936	3450
920.047	3599
920.157	3515
920.267	3713
920.378	3610
920.488	3538
920.598	3785
920.708	3953
920.818	3835
920.928	3804
921.038	4017
921.148	3960
921.258	3682
921.368	3618
921.477	3557
921.587	3545
921.697	3405
921.806	3637
921.916	3511
922.025	3313
922.134	3359
922.244	3317
922.353	3424
922.462	3256
922.571	3237
922.68	3127
922.789	3077
922.898	3085
923.007	3089
923.116	3188
923.224	3176
923.333	3165
923.442	3051
923.55	3097
923.659	3100
923.767	3195
923.876	3104
923.984	3211
924.092	3100
924.201	3192
924.309	3211
924.417	3298
924.525	3211
924.633	3218
924.741	3964
924.849	3047
924.956	3275
925.064	3127
925.172	3051
925.279	3112
925.387	3161
925.494	3173
925.602	3378
925.709	3313
925.816	3173
925.924	3272
926.031	3374
926.138	3329
926.245	3332
926.352	3272
926.459	3409
926.566	3488
926.673	3313
926.779	3256
926.886	3237
926.993	3104
927.099	3116
927.206	3135
927.312	3093
927.419	3218
927.525	3207
927.631	3264
927.737	3142
927.843	3154
927.95	2986
928.056	3127
928.162	3184
928.267	3245
928.373	3869
928.479	3291
928.585	3039
928.69	3214
928.796	3253
928.901	3157
929.007	3047
929.112	3203
929.218	3150
929.323	3157
929.428	3138
929.533	3317
929.638	3085
929.743	3157
929.848	3218
929.953	3203
930.058	3138
930.163	2986
930.267	3051
930.372	3207
930.477	3009
930.581	3344
930.685	3165
930.79	3043
930.894	3108
930.998	3062
931.103	3260
931.207	2971
931.311	2925
931.415	2925
931.519	2769
931.623	2800
