Data from test_V78500241_1859.txt Node
Date: Fri Mar 25 16:28:04 CST 2022
User: usil
Spectrometer: V785-0024
Trigger mode: 0
Integration Time (sec): 4.000000E-1
Scans to average: 1
Nonlinearity correction enabled: false
Boxcar width: 0
Storing dark spectrum: false
XAxis mode: Wavelengths
Number of Pixels in Spectrum: 1024
>>>>>Begin Spectral Data<<<<<
801.071	2925
801.214	2925
801.356	2853
801.499	2880
801.641	2876
801.783	2887
801.926	3043
802.068	2998
802.211	2990
802.353	3020
802.496	2941
802.638	3024
802.78	3066
802.923	3036
803.065	2990
803.208	2933
803.35	2891
803.492	2899
803.635	2899
803.777	2773
803.919	2842
804.061	3188
804.204	2952
804.346	2876
804.488	2830
804.63	2982
804.773	2876
804.915	2899
805.057	3055
805.199	2891
805.341	2960
805.483	3066
805.626	2979
805.768	2982
805.91	3058
806.052	3097
806.194	3039
806.336	3230
806.478	3036
806.62	2960
806.762	2971
806.904	3032
807.046	3119
807.188	2982
807.33	2899
807.472	2990
807.614	2895
807.756	2979
807.898	2922
808.04	2933
808.182	2952
808.324	2952
808.465	2868
808.607	2876
808.749	2788
808.891	2838
809.033	2990
809.174	2956
809.316	2880
809.458	2902
809.6	2766
809.741	2762
809.883	2777
810.025	2861
810.166	2868
810.308	2838
810.45	2876
810.591	2788
810.733	2781
810.875	2864
811.016	2792
811.158	2769
811.299	2811
811.441	2922
811.582	2876
811.724	2819
811.865	2853
812.007	2902
812.148	2872
812.29	2857
812.431	2899
812.573	2944
812.714	2929
812.855	3024
812.997	3081
813.138	3085
813.279	3001
813.421	2956
813.562	2910
813.703	2906
813.845	2868
813.986	2777
814.127	2743
814.268	2830
814.41	2861
814.551	2777
814.692	2895
814.833	2815
814.974	2899
815.115	2948
815.256	2819
815.397	2796
815.539	2830
815.68	2754
815.821	2788
815.962	3001
816.103	2914
816.244	2849
816.385	2845
816.526	2963
816.666	2876
816.807	2689
816.948	2887
817.089	2880
817.23	2845
817.371	2781
817.512	2758
817.653	2807
817.793	2823
817.934	2883
818.075	2956
818.216	2975
818.356	3028
818.497	2868
818.638	2762
818.778	2842
818.919	2807
819.06	2746
819.2	2883
819.341	2773
819.481	2811
819.622	2910
819.762	3100
819.903	3051
820.043	2891
820.184	2944
820.324	2906
820.465	3066
820.605	3028
820.746	3036
820.886	2925
821.026	3043
821.167	3146
821.307	3260
821.447	3329
821.588	3211
821.728	3222
821.868	3176
822.008	3081
822.149	3165
822.289	3241
822.429	3097
822.569	3085
822.709	3142
822.849	3024
822.99	3093
823.13	3142
823.27	3203
823.41	3074
823.55	3142
823.69	3176
823.83	3184
823.97	3100
824.11	2998
824.25	2982
824.389	3039
824.529	3097
824.669	3066
824.809	3192
824.949	3222
825.089	3195
825.228	3131
825.368	2967
825.508	2960
825.648	2994
825.787	2979
825.927	3017
826.067	2979
826.206	2963
826.346	3043
826.485	3104
826.625	3104
826.765	3272
826.904	3180
827.044	3001
827.183	2925
827.323	2861
827.462	2982
827.601	2899
827.741	2937
827.88	2941
828.02	2883
828.159	2944
828.298	3032
828.437	3150
828.577	3055
828.716	3211
828.855	3112
828.994	2918
829.134	2880
829.273	2899
829.412	2910
829.551	2853
829.69	2857
829.829	2960
829.968	3119
830.107	3024
830.246	3024
830.385	2933
830.524	2868
830.663	2766
830.802	2712
830.941	2651
831.08	2659
831.219	2724
831.357	2746
831.496	2941
831.635	2697
831.774	2640
831.913	2625
832.051	2533
832.19	2560
832.329	2648
832.467	2530
832.606	2473
832.744	2560
832.883	2579
833.022	2583
833.16	2644
833.299	2686
833.437	2670
833.576	2697
833.714	2712
833.852	2716
833.991	2769
834.129	2796
834.267	2800
834.406	2781
834.544	2834
834.682	2830
834.821	2849
834.959	3047
835.097	2899
835.235	3077
835.373	3009
835.511	2975
835.65	2963
835.788	2979
835.926	2830
836.064	2762
836.202	2823
836.34	3108
836.478	3127
836.615	3074
836.753	3146
836.891	3203
837.029	3123
837.167	3085
837.305	3085
837.443	3039
837.58	2933
837.718	3104
837.856	3093
837.993	2998
838.131	3138
838.269	3142
838.406	3062
838.544	3100
838.681	2944
838.819	2944
838.956	2823
839.094	2800
839.231	2948
839.369	3028
839.506	3355
839.643	3195
839.781	3024
839.918	3005
840.055	3020
840.193	3020
840.33	3028
840.467	3093
840.604	3116
840.742	3397
840.879	3055
841.016	3058
841.153	3127
841.29	3302
841.427	3287
841.564	3291
841.701	3283
841.838	3195
841.975	3180
842.112	3195
842.249	3077
842.385	3047
842.522	3272
842.659	3108
842.796	3043
842.933	3077
843.069	3024
843.206	2994
843.343	3173
843.479	3074
843.616	3131
843.752	2910
843.889	2857
844.025	3055
844.162	2861
844.298	3070
844.435	2922
844.571	2864
844.708	3055
844.844	3142
844.98	3226
845.117	3184
845.253	3051
845.389	3013
845.525	3100
845.661	3112
845.798	3020
845.934	3108
846.07	3036
846.206	3207
846.342	3313
846.478	3176
846.614	3077
846.75	3066
846.886	3036
847.022	3230
847.158	3142
847.294	3176
847.429	3237
847.565	3157
847.701	3488
847.837	3047
847.972	3013
848.108	3161
848.244	3089
848.379	3024
848.515	2944
848.65	2914
848.786	2960
848.921	2982
849.057	3127
849.192	3104
849.328	3051
849.463	3127
849.598	3047
849.734	3039
849.869	2956
850.004	2925
850.14	2956
850.275	2902
850.41	2804
850.545	2883
850.68	2891
850.815	2979
850.95	2956
851.085	3199
851.22	3070
851.355	3024
851.49	2986
851.625	3036
851.76	3005
851.895	2902
852.03	2906
852.165	3013
852.299	3100
852.434	3211
852.569	3142
852.703	3169
852.838	3275
852.973	3291
853.107	3294
853.242	3165
853.376	3097
853.511	2971
853.645	3013
853.78	3222
853.914	3089
854.048	3104
854.183	3070
854.317	3127
854.451	3298
854.585	3131
854.72	3077
854.854	3211
854.988	3024
855.122	3047
855.256	2994
855.39	3081
855.524	3249
855.658	3173
855.792	3112
855.926	3146
856.06	3192
856.194	3241
856.327	3146
856.461	3036
856.595	3089
856.729	3070
856.862	3226
856.996	3131
857.13	3176
857.263	3218
857.397	3310
857.53	3089
857.664	3150
857.797	3211
857.931	3249
858.064	3146
858.197	3169
858.331	3169
858.464	3085
858.597	2963
858.731	3146
858.864	3119
858.997	3100
859.13	3135
859.263	3150
859.396	3207
859.529	3104
859.662	3062
859.795	3062
859.928	3112
860.061	3291
860.194	3306
860.327	3127
860.46	3104
860.592	3253
860.725	3218
860.858	3275
860.99	3093
861.123	3032
861.256	3070
861.388	3188
861.521	3823
861.653	3001
861.786	3024
861.918	3032
862.05	3055
862.183	3047
862.315	3131
862.447	3180
862.58	3085
862.712	2960
862.844	2868
862.976	2986
863.108	3001
863.24	3424
863.372	2891
863.504	2971
863.636	2971
863.768	3036
863.9	2967
864.032	2910
864.164	2948
864.296	3058
864.428	3108
864.559	3104
864.691	3070
864.823	3032
864.954	3024
865.086	3028
865.217	2975
865.349	2971
865.48	2963
865.612	2986
865.743	3157
865.875	2944
866.006	2910
866.137	2990
866.269	2963
866.4	2963
866.531	2887
866.662	2872
866.793	2910
866.924	2929
867.055	2975
867.186	2914
867.317	2902
867.448	2830
867.579	2830
867.71	2823
867.841	2826
867.972	2902
868.103	2887
868.233	2838
868.364	2872
868.495	2902
868.625	3043
868.756	3138
868.886	2986
869.017	3028
869.147	3157
869.278	3176
869.408	3032
869.539	3020
869.669	3123
869.799	3043
869.929	3142
870.06	3112
870.19	3313
870.32	3260
870.45	3302
870.58	3382
870.71	3428
870.84	3439
870.97	3272
871.1	3233
871.23	3504
871.36	3420
871.489	3332
871.619	3374
871.749	3428
871.879	3447
872.008	3477
872.138	3359
872.267	3233
872.397	3154
872.526	3108
872.656	3017
872.785	3055
872.915	3203
873.044	3306
873.173	3211
873.303	3272
873.432	3241
873.561	3283
873.69	3146
873.819	3169
873.948	3176
874.077	3108
874.206	3036
874.335	3070
874.464	3207
874.593	3340
874.722	3233
874.851	3405
874.979	3340
875.108	3306
875.237	3207
875.365	3150
875.494	3154
875.623	3226
875.751	3039
875.88	3093
876.008	3146
876.136	3222
876.265	3359
876.393	3496
876.521	3393
876.65	3374
876.778	3329
876.906	3237
877.034	3188
877.162	3226
877.29	3188
877.418	3222
877.546	3245
877.674	3222
877.802	3195
877.93	3203
878.058	3123
878.185	3119
878.313	3180
878.441	3249
878.568	3077
878.696	3112
878.824	3222
878.951	3275
879.079	3447
879.206	3618
879.333	3412
879.461	3340
879.588	3340
879.715	3485
879.842	3587
879.97	3374
880.097	3131
880.224	3180
880.351	3176
880.478	3192
880.605	3169
880.732	3195
880.859	3507
880.986	3294
881.112	3321
881.239	3237
881.366	3074
881.493	3024
881.619	3039
881.746	3062
881.872	3070
881.999	3081
882.125	3165
882.252	3241
882.378	3317
882.505	3431
882.631	3298
882.757	3142
882.883	3199
883.01	3180
883.136	3173
883.262	3077
883.388	3127
883.514	3321
883.64	3393
883.766	3291
883.892	3161
884.018	3237
884.143	3409
884.269	3534
884.395	3195
884.52	3150
884.646	3211
884.772	3161
884.897	3089
885.023	3211
885.148	3325
885.274	3386
885.399	3340
885.524	3298
885.65	3260
885.775	3336
885.9	3272
886.025	3428
886.15	3355
886.275	3268
886.4	3195
886.525	3313
886.65	3222
886.775	3283
886.9	3481
887.025	3641
887.149	3409
887.274	3275
887.399	3199
887.523	3176
887.648	3169
887.773	3207
887.897	3367
888.021	3370
888.146	3279
888.27	3435
888.395	3530
888.519	3435
888.643	3439
888.767	3473
888.891	3294
889.015	3279
889.139	3260
889.263	3264
889.387	3397
889.511	3523
889.635	3431
889.759	3291
889.883	3268
890.006	3412
890.13	3496
890.254	3283
890.377	3344
890.501	3161
890.624	3157
890.748	3302
890.871	3184
890.995	3074
891.118	3066
891.241	3184
891.364	3222
891.488	3329
891.611	3184
891.734	3218
891.857	3287
891.98	3245
892.103	3313
892.226	3291
892.349	3211
892.471	3123
892.594	3226
892.717	3321
892.839	3279
892.962	3287
893.085	3317
893.207	3283
893.33	3135
893.452	3195
893.575	3336
893.697	3230
893.819	3462
893.941	3538
894.064	3462
894.186	3279
894.308	3260
894.43	3420
894.552	3485
894.674	3485
894.796	3256
894.918	3329
895.04	3291
895.161	3397
895.283	3370
895.405	3283
895.526	3344
895.648	3412
895.769	3447
895.891	3477
896.012	3473
896.134	3424
896.255	3420
896.376	3370
896.498	3325
896.619	3416
896.74	3344
896.861	3374
896.982	3709
897.103	3842
897.224	3580
897.345	3538
897.466	3466
897.587	3477
897.708	3606
897.828	3561
897.949	3462
898.07	3321
898.19	3401
898.311	3572
898.431	3443
898.552	3511
898.672	3587
898.792	3606
898.913	3515
899.033	3473
899.153	3321
899.273	3237
899.393	3260
899.513	3329
899.633	3321
899.753	3332
899.873	3302
899.993	3409
900.113	3344
900.232	3367
900.352	3370
900.472	3260
900.591	3214
900.711	3294
900.83	3256
900.95	3374
901.069	3504
901.189	3370
901.308	3161
901.427	3127
901.546	3146
901.665	3313
901.784	3340
901.904	3192
902.023	3138
902.141	3013
902.26	2986
902.379	3146
902.498	3062
902.617	3051
902.735	3169
902.854	3226
902.973	3157
903.091	3032
903.21	3062
903.328	3108
903.446	3100
903.565	3131
903.683	3184
903.801	3123
903.919	3241
904.038	3294
904.156	3169
904.274	3306
904.392	3268
904.51	3313
904.627	3325
904.745	3420
904.863	3504
904.981	3233
905.098	3173
905.216	3241
905.334	3268
905.451	3302
905.569	3313
905.686	3424
905.803	3439
905.921	3298
906.038	3435
906.155	3348
906.272	3279
906.389	3287
906.506	3253
906.623	3230
906.74	3294
906.857	3173
906.974	3241
907.091	3416
907.208	3557
907.324	3473
907.441	3386
907.557	3245
907.674	3260
907.79	3203
907.907	3230
908.023	3336
908.139	3344
908.256	3310
908.372	3382
908.488	3336
908.604	3253
908.72	3222
908.836	3272
908.952	3249
909.068	3344
909.184	3488
909.3	3401
909.415	3492
909.531	3466
909.647	3287
909.762	3275
909.878	3222
909.993	3405
910.108	3321
910.224	3302
910.339	3428
910.454	3329
910.57	3268
910.685	3256
910.8	3549
910.915	3530
911.03	3382
911.145	3249
911.259	3272
911.374	3329
911.489	3211
911.604	3226
911.718	3116
911.833	3142
911.947	3028
912.062	3024
912.176	3161
912.291	3195
912.405	3199
912.519	3454
912.633	3462
912.748	3329
912.862	3283
912.976	3157
913.09	3047
913.204	3127
913.318	3192
913.431	3287
913.545	3332
913.659	3397
913.772	3329
913.886	3214
914	3230
914.113	3370
914.226	3405
914.34	3336
914.453	3180
914.566	3420
914.68	3249
914.793	3302
914.906	3135
915.019	3093
915.132	3055
915.245	3176
915.358	3195
915.47	3184
915.583	3241
915.696	3283
915.809	3409
915.921	3416
916.034	3264
916.146	3233
916.259	3245
916.371	3412
916.483	3363
916.595	3279
916.708	3313
916.82	3287
916.932	3298
917.044	3363
917.156	3378
917.268	3249
917.38	3287
917.491	3279
917.603	3348
917.715	3405
917.826	3431
917.938	3389
918.049	3268
918.161	3454
918.272	3561
918.384	3568
918.495	3507
918.606	3302
918.717	3264
918.828	3363
918.939	3370
919.05	3336
919.161	3367
919.272	3161
919.383	3279
919.494	3496
919.604	3660
919.715	3511
919.826	3348
919.936	3466
920.047	3591
920.157	3557
920.267	3755
920.378	3610
920.488	3595
920.598	3751
920.708	3953
920.818	3827
920.928	3819
921.038	4051
921.148	3960
921.258	3701
921.368	3625
921.477	3572
921.587	3564
921.697	3466
921.806	3610
921.916	3519
922.025	3344
922.134	3332
922.244	3298
922.353	3401
922.462	3272
922.571	3253
922.68	3070
922.789	3085
922.898	3138
923.007	3089
923.116	3230
923.224	3142
923.333	3184
923.442	3116
923.55	3100
923.659	3116
923.767	3207
923.876	3123
923.984	3233
924.092	3165
924.201	3218
924.309	3253
924.417	3253
924.525	3222
924.633	3237
924.741	4010
924.849	3036
924.956	3279
925.064	3085
925.172	3062
925.279	3127
925.387	3165
925.494	3203
925.602	3344
925.709	3325
925.816	3165
925.924	3313
926.031	3317
926.138	3306
926.245	3378
926.352	3207
926.459	3428
926.566	3466
926.673	3325
926.779	3279
926.886	3279
926.993	3161
927.099	3146
927.206	3131
927.312	3116
927.419	3245
927.525	3199
927.631	3260
927.737	3154
927.843	3112
927.95	3009
928.056	3123
928.162	3161
928.267	3245
928.373	3781
928.479	3291
928.585	3047
928.69	3195
928.796	3313
928.901	3169
929.007	3051
929.112	3203
929.218	3192
929.323	3154
929.428	3157
929.533	3313
929.638	3097
929.743	3188
929.848	3260
929.953	3222
930.058	3127
930.163	2998
930.267	3039
930.372	3218
930.477	3093
930.581	3313
930.685	3157
930.79	3043
930.894	3131
930.998	3089
931.103	3306
931.207	2979
931.311	2948
931.415	2933
931.519	2758
931.623	2796
