Data from test_V78500241_1318.txt Node
Date: Fri Mar 25 16:24:20 CST 2022
User: usil
Spectrometer: V785-0024
Trigger mode: 0
Integration Time (sec): 4.000000E-1
Scans to average: 1
Nonlinearity correction enabled: false
Boxcar width: 0
Storing dark spectrum: false
XAxis mode: Wavelengths
Number of Pixels in Spectrum: 1024
>>>>>Begin Spectral Data<<<<<
801.071	2906
801.214	2922
801.356	2887
801.499	2880
801.641	2918
801.783	2914
801.926	3039
802.068	2990
802.211	2994
802.353	3047
802.496	2933
802.638	2990
802.78	3051
802.923	3055
803.065	2982
803.208	2876
803.35	2918
803.492	2963
803.635	2880
803.777	2766
803.919	2830
804.061	3142
804.204	2933
804.346	2887
804.488	2853
804.63	2994
804.773	2880
804.915	2929
805.057	3074
805.199	2941
805.341	2986
805.483	3070
805.626	2975
805.768	2960
805.91	3066
806.052	3135
806.194	3024
806.336	3226
806.478	3013
806.62	2979
806.762	2963
806.904	3043
807.046	3173
807.188	2967
807.33	2910
807.472	2944
807.614	2876
807.756	3009
807.898	2906
808.04	2876
808.182	3001
808.324	2941
808.465	2887
808.607	2864
808.749	2796
808.891	2811
809.033	2979
809.174	2952
809.316	2891
809.458	2883
809.6	2785
809.741	2777
809.883	2769
810.025	2849
810.166	2838
810.308	2826
810.45	2823
810.591	2727
810.733	2754
810.875	2845
811.016	2766
811.158	2716
811.299	2800
811.441	2922
811.582	2861
811.724	2800
811.865	2811
812.007	2895
812.148	2880
812.29	2887
812.431	2861
812.573	2937
812.714	2944
812.855	3066
812.997	3039
813.138	3097
813.279	3043
813.421	2982
813.562	2971
813.703	2845
813.845	2880
813.986	2777
814.127	2716
814.268	2788
814.41	2864
814.551	2811
814.692	2861
814.833	2796
814.974	2864
815.115	2929
815.256	2849
815.397	2807
815.539	2902
815.68	2785
815.821	2796
815.962	2918
816.103	2929
816.244	2876
816.385	2872
816.526	2929
816.666	2891
816.807	2716
816.948	2902
817.089	2899
817.23	2823
817.371	2766
817.512	2792
817.653	2845
817.793	2807
817.934	2861
818.075	2982
818.216	2979
818.356	3039
818.497	2857
818.638	2811
818.778	2845
818.919	2819
819.06	2758
819.2	2880
819.341	2830
819.481	2804
819.622	2906
819.762	3055
819.903	3051
820.043	2902
820.184	2906
820.324	2872
820.465	2982
820.605	3036
820.746	3039
820.886	2906
821.026	3097
821.167	3119
821.307	3264
821.447	3294
821.588	3192
821.728	3218
821.868	3173
822.008	3039
822.149	3241
822.289	3218
822.429	3104
822.569	3081
822.709	3188
822.849	3017
822.99	3032
823.13	3146
823.27	3192
823.41	3123
823.55	3089
823.69	3150
823.83	3195
823.97	3089
824.11	2986
824.25	2960
824.389	3070
824.529	3074
824.669	3081
824.809	3241
824.949	3241
825.089	3203
825.228	3127
825.368	3032
825.508	2914
825.648	2982
825.787	3020
825.927	3039
826.067	2971
826.206	2929
826.346	3066
826.485	3100
826.625	3135
826.765	3226
826.904	3199
827.044	2971
827.183	2925
827.323	2876
827.462	3009
827.601	2925
827.741	2933
827.88	2929
828.02	2834
828.159	2960
828.298	3047
828.437	3077
828.577	3047
828.716	3211
828.855	3062
828.994	2849
829.134	2853
829.273	2902
829.412	2838
829.551	2834
829.69	2864
829.829	2979
829.968	3116
830.107	2986
830.246	3047
830.385	2899
830.524	2887
830.663	2800
830.802	2712
830.941	2640
831.08	2678
831.219	2777
831.357	2724
831.496	2937
831.635	2682
831.774	2644
831.913	2667
832.051	2511
832.19	2560
832.329	2667
832.467	2541
832.606	2457
832.744	2575
832.883	2579
833.022	2613
833.16	2590
833.299	2651
833.437	2705
833.576	2678
833.714	2739
833.852	2727
833.991	2750
834.129	2830
834.267	2815
834.406	2807
834.544	2861
834.682	2868
834.821	2838
834.959	3024
835.097	2880
835.235	3074
835.373	3009
835.511	3028
835.65	2933
835.788	2952
835.926	2849
836.064	2815
836.202	2815
836.34	3062
836.478	3165
836.615	3058
836.753	3074
836.891	3218
837.029	3131
837.167	3112
837.305	3047
837.443	3043
837.58	2979
837.718	3104
837.856	3036
837.993	3013
838.131	3089
838.269	3081
838.406	3089
838.544	3100
838.681	2922
838.819	2902
838.956	2807
839.094	2815
839.231	2880
839.369	3043
839.506	3401
839.643	3195
839.781	3017
839.918	2914
840.055	3017
840.193	3047
840.33	3043
840.467	3097
840.604	3123
840.742	3378
840.879	3047
841.016	3074
841.153	3108
841.29	3298
841.427	3287
841.564	3275
841.701	3310
841.838	3218
841.975	3173
842.112	3184
842.249	3116
842.385	3009
842.522	3275
842.659	3070
842.796	3043
842.933	3127
843.069	3017
843.206	3039
843.343	3146
843.479	3074
843.616	3116
843.752	2872
843.889	2864
844.025	3066
844.162	2845
844.298	3085
844.435	2979
844.571	2918
844.708	3051
844.844	3161
844.98	3222
845.117	3188
845.253	3013
845.389	2994
845.525	3135
845.661	3100
845.798	3013
845.934	3123
846.07	3051
846.206	3199
846.342	3291
846.478	3233
846.614	3066
846.75	3039
846.886	2994
847.022	3245
847.158	3150
847.294	3176
847.429	3245
847.565	3218
847.701	3435
847.837	3017
847.972	2975
848.108	3157
848.244	3135
848.379	2960
848.515	2937
848.65	2941
848.786	2960
848.921	2994
849.057	3058
849.192	3135
849.328	3036
849.463	3112
849.598	3032
849.734	3066
849.869	2994
850.004	2883
850.14	2937
850.275	2883
850.41	2838
850.545	2864
850.68	2887
850.815	2975
850.95	2952
851.085	3150
851.22	3112
851.355	3024
851.49	2952
851.625	2990
851.76	3013
851.895	2933
852.03	2895
852.165	3024
852.299	3070
852.434	3180
852.569	3150
852.703	3188
852.838	3222
852.973	3321
853.107	3306
853.242	3146
853.376	3070
853.511	2956
853.645	3020
853.78	3218
853.914	3116
854.048	3089
854.183	3077
854.317	3176
854.451	3272
854.585	3089
854.72	3123
854.854	3230
854.988	3047
855.122	3055
855.256	2952
855.39	3112
855.524	3211
855.658	3142
855.792	3123
855.926	3173
856.06	3226
856.194	3214
856.327	3180
856.461	3062
856.595	3058
856.729	3055
856.862	3214
856.996	3184
857.13	3154
857.263	3176
857.397	3272
857.53	3127
857.664	3154
857.797	3199
857.931	3279
858.064	3135
858.197	3237
858.331	3161
858.464	3058
858.597	2994
858.731	3089
858.864	3123
858.997	3036
859.13	3154
859.263	3131
859.396	3173
859.529	3074
859.662	3066
859.795	3001
859.928	3131
860.061	3291
860.194	3287
860.327	3131
860.46	3100
860.592	3233
860.725	3245
860.858	3264
860.99	3077
861.123	3070
861.256	3032
861.388	3131
861.521	3732
861.653	2975
861.786	2986
861.918	2975
862.05	3009
862.183	3062
862.315	3150
862.447	3146
862.58	3074
862.712	2941
862.844	2864
862.976	2994
863.108	2975
863.24	3310
863.372	2887
863.504	2914
863.636	2922
863.768	3036
863.9	2948
864.032	2899
864.164	2929
864.296	3009
864.428	3058
864.559	3062
864.691	3074
864.823	3047
864.954	3043
865.086	3024
865.217	2979
865.349	2914
865.48	3017
865.612	3028
865.743	3146
865.875	2998
866.006	2925
866.137	2952
866.269	2979
866.4	2986
866.531	2925
866.662	2895
866.793	2876
866.924	2918
867.055	2963
867.186	2994
867.317	2906
867.448	2872
867.579	2868
867.71	2876
867.841	2811
867.972	2952
868.103	2883
868.233	2891
868.364	2929
868.495	2887
868.625	3116
868.756	3173
868.886	3013
869.017	3028
869.147	3176
869.278	3165
869.408	3066
869.539	3055
869.669	3135
869.799	3093
869.929	3169
870.06	3112
870.19	3397
870.32	3344
870.45	3321
870.58	3420
870.71	3458
870.84	3519
870.97	3306
871.1	3275
871.23	3545
871.36	3473
871.489	3348
871.619	3466
871.749	3450
871.879	3466
872.008	3504
872.138	3412
872.267	3306
872.397	3146
872.526	3138
872.656	3047
872.785	3157
872.915	3279
873.044	3363
873.173	3249
873.303	3291
873.432	3306
873.561	3275
873.69	3188
873.819	3173
873.948	3245
874.077	3112
874.206	3077
874.335	3081
874.464	3245
874.593	3416
874.722	3283
874.851	3447
874.979	3389
875.108	3344
875.237	3237
875.365	3161
875.494	3245
875.623	3325
875.751	3123
875.88	3119
876.008	3222
876.136	3260
876.265	3378
876.393	3557
876.521	3473
876.65	3420
876.778	3340
876.906	3268
877.034	3245
877.162	3230
877.29	3237
877.418	3272
877.546	3256
877.674	3321
877.802	3249
877.93	3272
878.058	3138
878.185	3112
878.313	3237
878.441	3207
878.568	3123
878.696	3176
878.824	3306
878.951	3321
879.079	3454
879.206	3648
879.333	3420
879.461	3344
879.588	3378
879.715	3507
879.842	3618
879.97	3447
880.097	3180
880.224	3150
880.351	3245
880.478	3245
880.605	3165
880.732	3214
880.859	3466
880.986	3325
881.112	3348
881.239	3226
881.366	3108
881.493	3112
881.619	3081
881.746	3093
881.872	3108
881.999	3112
882.125	3157
882.252	3283
882.378	3302
882.505	3466
882.631	3325
882.757	3188
882.883	3264
883.01	3268
883.136	3214
883.262	3119
883.388	3146
883.514	3317
883.64	3389
883.766	3340
883.892	3241
884.018	3253
884.143	3424
884.269	3557
884.395	3199
884.52	3195
884.646	3199
884.772	3135
884.897	3146
885.023	3211
885.148	3336
885.274	3435
885.399	3393
885.524	3283
885.65	3287
885.775	3340
885.9	3283
886.025	3447
886.15	3382
886.275	3298
886.4	3256
886.525	3306
886.65	3287
886.775	3306
886.9	3481
887.025	3625
887.149	3420
887.274	3279
887.399	3195
887.523	3203
887.648	3233
887.773	3237
887.897	3374
888.021	3458
888.146	3329
888.27	3454
888.395	3564
888.519	3428
888.643	3530
888.767	3496
888.891	3306
889.015	3253
889.139	3313
889.263	3256
889.387	3450
889.511	3526
889.635	3454
889.759	3325
889.883	3313
890.006	3447
890.13	3557
890.254	3359
890.377	3351
890.501	3218
890.624	3222
890.748	3332
890.871	3184
890.995	3157
891.118	3104
891.241	3233
891.364	3241
891.488	3355
891.611	3199
891.734	3268
891.857	3306
891.98	3272
892.103	3351
892.226	3298
892.349	3241
892.471	3165
892.594	3249
892.717	3306
892.839	3264
892.962	3279
893.085	3370
893.207	3321
893.33	3165
893.452	3249
893.575	3344
893.697	3329
893.819	3511
893.941	3530
894.064	3466
894.186	3294
894.308	3340
894.43	3466
894.552	3545
894.674	3530
894.796	3279
894.918	3325
895.04	3298
895.161	3420
895.283	3416
895.405	3325
895.526	3397
895.648	3469
895.769	3424
895.891	3469
896.012	3519
896.134	3447
896.255	3439
896.376	3374
896.498	3378
896.619	3435
896.74	3420
896.861	3458
896.982	3728
897.103	3838
897.224	3618
897.345	3603
897.466	3439
897.587	3515
897.708	3625
897.828	3561
897.949	3443
898.07	3355
898.19	3382
898.311	3629
898.431	3485
898.552	3519
898.672	3660
898.792	3568
898.913	3545
899.033	3439
899.153	3279
899.273	3237
899.393	3294
899.513	3344
899.633	3336
899.753	3344
899.873	3321
899.993	3412
900.113	3382
900.232	3435
900.352	3359
900.472	3287
900.591	3268
900.711	3298
900.83	3272
900.95	3473
901.069	3462
901.189	3359
901.308	3169
901.427	3150
901.546	3260
901.665	3306
901.784	3405
901.904	3218
902.023	3157
902.141	3043
902.26	3024
902.379	3135
902.498	3135
902.617	3062
902.735	3211
902.854	3245
902.973	3154
903.091	3077
903.21	3085
903.328	3165
903.446	3146
903.565	3131
903.683	3222
903.801	3154
903.919	3260
904.038	3359
904.156	3188
904.274	3306
904.392	3283
904.51	3268
904.627	3367
904.745	3481
904.863	3545
904.981	3279
905.098	3184
905.216	3294
905.334	3348
905.451	3348
905.569	3336
905.686	3443
905.803	3416
905.921	3287
906.038	3458
906.155	3378
906.272	3279
906.389	3355
906.506	3241
906.623	3294
906.74	3310
906.857	3222
906.974	3283
907.091	3488
907.208	3584
907.324	3515
907.441	3393
907.557	3253
907.674	3272
907.79	3233
907.907	3321
908.023	3428
908.139	3393
908.256	3363
908.372	3386
908.488	3378
908.604	3291
908.72	3249
908.836	3310
908.952	3317
909.068	3363
909.184	3492
909.3	3382
909.415	3523
909.531	3500
909.647	3291
909.762	3298
909.878	3306
909.993	3367
910.108	3340
910.224	3389
910.339	3450
910.454	3355
910.57	3329
910.685	3222
910.8	3652
910.915	3515
911.03	3477
911.145	3283
911.259	3275
911.374	3374
911.489	3245
911.604	3283
911.718	3165
911.833	3176
911.947	3043
912.062	2998
912.176	3180
912.291	3249
912.405	3214
912.519	3450
912.633	3500
912.748	3344
912.862	3302
912.976	3176
913.09	3108
913.204	3161
913.318	3222
913.431	3374
913.545	3355
913.659	3428
913.772	3344
913.886	3241
914	3245
914.113	3367
914.226	3412
914.34	3359
914.453	3226
914.566	3447
914.68	3294
914.793	3306
914.906	3169
915.019	3161
915.132	3093
915.245	3230
915.358	3218
915.47	3275
915.583	3283
915.696	3321
915.809	3454
915.921	3435
916.034	3287
916.146	3245
916.259	3249
916.371	3424
916.483	3416
916.595	3306
916.708	3317
916.82	3351
916.932	3355
917.044	3401
917.156	3374
917.268	3256
917.38	3336
917.491	3313
917.603	3386
917.715	3431
917.826	3519
917.938	3397
918.049	3310
918.161	3447
918.272	3603
918.384	3564
918.495	3462
918.606	3355
918.717	3298
918.828	3382
918.939	3450
919.05	3344
919.161	3370
919.272	3214
919.383	3256
919.494	3545
919.604	3720
919.715	3515
919.826	3420
919.936	3515
920.047	3572
920.157	3564
920.267	3800
920.378	3606
920.488	3622
920.598	3800
920.708	3987
920.818	3865
920.928	3865
921.038	4032
921.148	4036
921.258	3759
921.368	3656
921.477	3595
921.587	3576
921.697	3488
921.806	3660
921.916	3523
922.025	3370
922.134	3416
922.244	3287
922.353	3450
922.462	3302
922.571	3241
922.68	3127
922.789	3112
922.898	3150
923.007	3123
923.116	3249
923.224	3230
923.333	3214
923.442	3081
923.55	3131
923.659	3157
923.767	3245
923.876	3112
923.984	3241
924.092	3135
924.201	3211
924.309	3245
924.417	3207
924.525	3184
924.633	3256
924.741	3994
924.849	3085
924.956	3291
925.064	3123
925.172	3097
925.279	3116
925.387	3203
925.494	3211
925.602	3393
925.709	3283
925.816	3184
925.924	3294
926.031	3412
926.138	3321
926.245	3378
926.352	3321
926.459	3401
926.566	3466
926.673	3332
926.779	3272
926.886	3268
926.993	3173
927.099	3146
927.206	3135
927.312	3138
927.419	3264
927.525	3241
927.631	3275
927.737	3116
927.843	3138
927.95	3036
928.056	3135
928.162	3146
928.267	3287
928.373	3896
928.479	3363
928.585	3104
928.69	3249
928.796	3268
928.901	3203
929.007	3047
929.112	3249
929.218	3157
929.323	3173
929.428	3173
929.533	3329
929.638	3123
929.743	3169
929.848	3260
929.953	3218
930.058	3146
930.163	2986
930.267	3108
930.372	3237
930.477	3058
930.581	3321
930.685	3230
930.79	3074
930.894	3142
930.998	3116
931.103	3283
931.207	2975
931.311	2906
931.415	2952
931.519	2788
931.623	2853
