Data from test_V78500241_1735.txt Node
Date: Fri Mar 25 16:27:13 CST 2022
User: usil
Spectrometer: V785-0024
Trigger mode: 0
Integration Time (sec): 4.000000E-1
Scans to average: 1
Nonlinearity correction enabled: false
Boxcar width: 0
Storing dark spectrum: false
XAxis mode: Wavelengths
Number of Pixels in Spectrum: 1024
>>>>>Begin Spectral Data<<<<<
801.071	2933
801.214	2925
801.356	2914
801.499	2887
801.641	2891
801.783	2944
801.926	3017
802.068	2994
802.211	3005
802.353	3058
802.496	2979
802.638	3013
802.78	3070
802.923	3081
803.065	3028
803.208	2937
803.35	2922
803.492	2956
803.635	2925
803.777	2735
803.919	2872
804.061	3249
804.204	2967
804.346	2891
804.488	2849
804.63	3043
804.773	2876
804.915	2948
805.057	3062
805.199	2925
805.341	3009
805.483	3055
805.626	3009
805.768	2948
805.91	3135
806.052	3093
806.194	3058
806.336	3256
806.478	3032
806.62	2975
806.762	3028
806.904	3070
807.046	3195
807.188	2971
807.33	2914
807.472	3024
807.614	2948
807.756	2998
807.898	2906
808.04	2910
808.182	2998
808.324	2956
808.465	2902
808.607	2929
808.749	2807
808.891	2868
809.033	2986
809.174	2963
809.316	2914
809.458	2922
809.6	2815
809.741	2769
809.883	2811
810.025	2849
810.166	2883
810.308	2868
810.45	2861
810.591	2766
810.733	2781
810.875	2834
811.016	2773
811.158	2788
811.299	2849
811.441	2952
811.582	2918
811.724	2849
811.865	2834
812.007	2952
812.148	2891
812.29	2842
812.431	2891
812.573	2982
812.714	2982
812.855	3062
812.997	3005
813.138	3127
813.279	3043
813.421	2982
813.562	2990
813.703	2857
813.845	2902
813.986	2815
814.127	2766
814.268	2826
814.41	2838
814.551	2872
814.692	2906
814.833	2838
814.974	2864
815.115	2979
815.256	2853
815.397	2796
815.539	2876
815.68	2792
815.821	2800
815.962	2937
816.103	2979
816.244	2883
816.385	2849
816.526	3028
816.666	2937
816.807	2781
816.948	2925
817.089	2933
817.23	2857
817.371	2823
817.512	2792
817.653	2861
817.793	2842
817.934	2922
818.075	2975
818.216	2971
818.356	3024
818.497	2868
818.638	2811
818.778	2819
818.919	2781
819.06	2781
819.2	2902
819.341	2823
819.481	2807
819.622	2956
819.762	3112
819.903	3085
820.043	2925
820.184	2925
820.324	2902
820.465	3039
820.605	3036
820.746	3036
820.886	2941
821.026	3135
821.167	3131
821.307	3237
821.447	3283
821.588	3207
821.728	3226
821.868	3249
822.008	3058
822.149	3176
822.289	3245
822.429	3100
822.569	3135
822.709	3207
822.849	3024
822.99	3074
823.13	3180
823.27	3218
823.41	3119
823.55	3157
823.69	3157
823.83	3184
823.97	3108
824.11	3017
824.25	2994
824.389	3085
824.529	3116
824.669	3127
824.809	3214
824.949	3253
825.089	3241
825.228	3131
825.368	3062
825.508	2963
825.648	2967
825.787	3020
825.927	3020
826.067	3020
826.206	3001
826.346	3047
826.485	3085
826.625	3089
826.765	3298
826.904	3195
827.044	2975
827.183	2982
827.323	2899
827.462	2994
827.601	2960
827.741	2933
827.88	2944
828.02	2902
828.159	2998
828.298	3058
828.437	3142
828.577	3062
828.716	3230
828.855	3131
828.994	2925
829.134	2910
829.273	2925
829.412	2887
829.551	2887
829.69	2902
829.829	2998
829.968	3123
830.107	2998
830.246	3055
830.385	2960
830.524	2864
830.663	2853
830.802	2720
830.941	2667
831.08	2693
831.219	2769
831.357	2754
831.496	2967
831.635	2762
831.774	2689
831.913	2674
832.051	2526
832.19	2571
832.329	2674
832.467	2568
832.606	2492
832.744	2590
832.883	2560
833.022	2587
833.16	2655
833.299	2716
833.437	2720
833.576	2689
833.714	2724
833.852	2754
833.991	2746
834.129	2826
834.267	2845
834.406	2811
834.544	2899
834.682	2902
834.821	2853
834.959	3062
835.097	2906
835.235	3062
835.373	2971
835.511	3055
835.65	2967
835.788	2960
835.926	2853
836.064	2781
836.202	2880
836.34	3085
836.478	3180
836.615	3085
836.753	3135
836.891	3233
837.029	3150
837.167	3127
837.305	3093
837.443	3055
837.58	2975
837.718	3138
837.856	3077
837.993	3062
838.131	3138
838.269	3123
838.406	3081
838.544	3077
838.681	2967
838.819	2922
838.956	2807
839.094	2823
839.231	2979
839.369	3024
839.506	3393
839.643	3211
839.781	3043
839.918	2975
840.055	3036
840.193	3043
840.33	3062
840.467	3089
840.604	3161
840.742	3401
840.879	3047
841.016	3047
841.153	3119
841.29	3348
841.427	3283
841.564	3264
841.701	3253
841.838	3207
841.975	3188
842.112	3203
842.249	3116
842.385	3055
842.522	3291
842.659	3070
842.796	3066
842.933	3093
843.069	3081
843.206	3043
843.343	3169
843.479	3089
843.616	3127
843.752	2864
843.889	2864
844.025	3081
844.162	2880
844.298	3100
844.435	2960
844.571	2918
844.708	3097
844.844	3207
844.98	3245
845.117	3214
845.253	3104
845.389	3051
845.525	3100
845.661	3081
845.798	3039
845.934	3150
846.07	3062
846.206	3245
846.342	3329
846.478	3260
846.614	3074
846.75	3028
846.886	3032
847.022	3230
847.158	3127
847.294	3199
847.429	3237
847.565	3253
847.701	3511
847.837	3047
847.972	3013
848.108	3173
848.244	3142
848.379	2990
848.515	2933
848.65	2937
848.786	2982
848.921	3017
849.057	3116
849.192	3138
849.328	3070
849.463	3070
849.598	3058
849.734	3047
849.869	2971
850.004	2922
850.14	2971
850.275	2914
850.41	2800
850.545	2899
850.68	2929
850.815	2933
850.95	2941
851.085	3211
851.22	3085
851.355	3020
851.49	2979
851.625	3009
851.76	2994
851.895	2918
852.03	2914
852.165	3043
852.299	3135
852.434	3176
852.569	3123
852.703	3165
852.838	3294
852.973	3332
853.107	3336
853.242	3169
853.376	3089
853.511	2963
853.645	3070
853.78	3249
853.914	3104
854.048	3161
854.183	3043
854.317	3146
854.451	3302
854.585	3131
854.72	3089
854.854	3176
854.988	3047
855.122	3104
855.256	2952
855.39	3142
855.524	3195
855.658	3188
855.792	3146
855.926	3199
856.06	3245
856.194	3283
856.327	3184
856.461	3093
856.595	3066
856.729	3024
856.862	3176
856.996	3138
857.13	3195
857.263	3241
857.397	3275
857.53	3108
857.664	3165
857.797	3214
857.931	3260
858.064	3150
858.197	3199
858.331	3138
858.464	3154
858.597	3039
858.731	3089
858.864	3146
858.997	3055
859.13	3135
859.263	3180
859.396	3203
859.529	3108
859.662	3062
859.795	3013
859.928	3123
860.061	3287
860.194	3279
860.327	3138
860.46	3089
860.592	3214
860.725	3214
860.858	3253
860.99	3104
861.123	3062
861.256	3058
861.388	3138
861.521	3953
861.653	3001
861.786	2994
861.918	3001
862.05	3081
862.183	3070
862.315	3157
862.447	3211
862.58	3097
862.712	2929
862.844	2868
862.976	3039
863.108	3009
863.24	3336
863.372	2857
863.504	2925
863.636	2929
863.768	3013
863.9	2967
864.032	2891
864.164	2963
864.296	2994
864.428	3089
864.559	3123
864.691	3074
864.823	3066
864.954	3024
865.086	3043
865.217	2952
865.349	2956
865.48	2952
865.612	3013
865.743	3169
865.875	2994
866.006	2948
866.137	2967
866.269	2941
866.4	2952
866.531	2948
866.662	2857
866.793	2902
866.924	2861
867.055	2979
867.186	2918
867.317	2872
867.448	2883
867.579	2849
867.71	2830
867.841	2819
867.972	2910
868.103	2895
868.233	2872
868.364	2868
868.495	2883
868.625	3081
868.756	3226
868.886	2982
869.017	2990
869.147	3180
869.278	3154
869.408	3062
869.539	3047
869.669	3070
869.799	3039
869.929	3123
870.06	3085
870.19	3306
870.32	3294
870.45	3272
870.58	3389
870.71	3458
870.84	3439
870.97	3298
871.1	3241
871.23	3473
871.36	3450
871.489	3340
871.619	3378
871.749	3374
871.879	3386
872.008	3466
872.138	3351
872.267	3249
872.397	3150
872.526	3112
872.656	2979
872.785	3089
872.915	3268
873.044	3256
873.173	3188
873.303	3249
873.432	3241
873.561	3222
873.69	3169
873.819	3157
873.948	3192
874.077	3104
874.206	3055
874.335	3085
874.464	3211
874.593	3325
874.722	3199
874.851	3355
874.979	3332
875.108	3321
875.237	3203
875.365	3192
875.494	3123
875.623	3199
875.751	3077
875.88	3131
876.008	3188
876.136	3237
876.265	3348
876.393	3477
876.521	3424
876.65	3401
876.778	3367
876.906	3256
877.034	3169
877.162	3218
877.29	3188
877.418	3260
877.546	3241
877.674	3211
877.802	3253
877.93	3214
878.058	3161
878.185	3104
878.313	3195
878.441	3195
878.568	3074
878.696	3119
878.824	3256
878.951	3275
879.079	3458
879.206	3629
879.333	3443
879.461	3298
879.588	3336
879.715	3507
879.842	3576
879.97	3409
880.097	3135
880.224	3142
880.351	3195
880.478	3199
880.605	3199
880.732	3180
880.859	3454
880.986	3294
881.112	3317
881.239	3211
881.366	3093
881.493	3074
881.619	3020
881.746	3055
881.872	3089
881.999	3108
882.125	3161
882.252	3207
882.378	3317
882.505	3416
882.631	3268
882.757	3131
882.883	3180
883.01	3230
883.136	3169
883.262	3131
883.388	3089
883.514	3329
883.64	3340
883.766	3283
883.892	3180
884.018	3180
884.143	3424
884.269	3534
884.395	3195
884.52	3131
884.646	3173
884.772	3131
884.897	3127
885.023	3211
885.148	3321
885.274	3405
885.399	3378
885.524	3245
885.65	3294
885.775	3329
885.9	3275
886.025	3431
886.15	3389
886.275	3275
886.4	3256
886.525	3302
886.65	3283
886.775	3287
886.9	3481
887.025	3660
887.149	3401
887.274	3256
887.399	3195
887.523	3157
887.648	3203
887.773	3222
887.897	3355
888.021	3401
888.146	3287
888.27	3443
888.395	3538
888.519	3416
888.643	3458
888.767	3469
888.891	3325
889.015	3233
889.139	3291
889.263	3268
889.387	3378
889.511	3466
889.635	3492
889.759	3279
889.883	3279
890.006	3409
890.13	3481
890.254	3298
890.377	3325
890.501	3230
890.624	3157
890.748	3268
890.871	3184
890.995	3112
891.118	3066
891.241	3157
891.364	3233
891.488	3310
891.611	3199
891.734	3237
891.857	3264
891.98	3253
892.103	3317
892.226	3291
892.349	3230
892.471	3131
892.594	3283
892.717	3291
892.839	3294
892.962	3256
893.085	3367
893.207	3283
893.33	3150
893.452	3173
893.575	3367
893.697	3260
893.819	3458
893.941	3477
894.064	3477
894.186	3283
894.308	3264
894.43	3416
894.552	3511
894.674	3462
894.796	3256
894.918	3313
895.04	3317
895.161	3397
895.283	3401
895.405	3302
895.526	3389
895.648	3393
895.769	3393
895.891	3469
896.012	3416
896.134	3481
896.255	3409
896.376	3367
896.498	3344
896.619	3412
896.74	3370
896.861	3378
896.982	3682
897.103	3838
897.224	3557
897.345	3515
897.466	3363
897.587	3523
897.708	3656
897.828	3561
897.949	3378
898.07	3336
898.19	3439
898.311	3568
898.431	3424
898.552	3511
898.672	3595
898.792	3530
898.913	3519
899.033	3405
899.153	3302
899.273	3176
899.393	3355
899.513	3317
899.633	3291
899.753	3260
899.873	3306
899.993	3393
900.113	3310
900.232	3397
900.352	3332
900.472	3268
900.591	3237
900.711	3317
900.83	3233
900.95	3409
901.069	3481
901.189	3348
901.308	3180
901.427	3100
901.546	3192
901.665	3294
901.784	3317
901.904	3184
902.023	3112
902.141	3009
902.26	2998
902.379	3154
902.498	3047
902.617	3089
902.735	3184
902.854	3249
902.973	3173
903.091	3047
903.21	3085
903.328	3108
903.446	3142
903.565	3089
903.683	3173
903.801	3104
903.919	3249
904.038	3287
904.156	3165
904.274	3302
904.392	3260
904.51	3291
904.627	3321
904.745	3431
904.863	3469
904.981	3272
905.098	3176
905.216	3222
905.334	3306
905.451	3283
905.569	3294
905.686	3435
905.803	3447
905.921	3253
906.038	3443
906.155	3344
906.272	3287
906.389	3336
906.506	3233
906.623	3260
906.74	3268
906.857	3192
906.974	3260
907.091	3416
907.208	3557
907.324	3477
907.441	3359
907.557	3249
907.674	3253
907.79	3222
907.907	3256
908.023	3382
908.139	3378
908.256	3351
908.372	3355
908.488	3355
908.604	3237
908.72	3222
908.836	3253
908.952	3298
909.068	3336
909.184	3454
909.3	3397
909.415	3500
909.531	3431
909.647	3275
909.762	3317
909.878	3245
909.993	3370
910.108	3329
910.224	3378
910.339	3405
910.454	3325
910.57	3272
910.685	3253
910.8	3622
910.915	3515
911.03	3431
911.145	3241
911.259	3222
911.374	3272
911.489	3256
911.604	3211
911.718	3085
911.833	3161
911.947	3013
912.062	2994
912.176	3165
912.291	3203
912.405	3237
912.519	3401
912.633	3469
912.748	3351
912.862	3260
912.976	3150
913.09	3058
913.204	3161
913.318	3249
913.431	3355
913.545	3351
913.659	3393
913.772	3359
913.886	3192
914	3173
914.113	3374
914.226	3435
914.34	3382
914.453	3218
914.566	3370
914.68	3268
914.793	3279
914.906	3169
915.019	3100
915.132	3055
915.245	3169
915.358	3233
915.47	3245
915.583	3294
915.696	3336
915.809	3393
915.921	3386
916.034	3237
916.146	3241
916.259	3230
916.371	3424
916.483	3355
916.595	3264
916.708	3355
916.82	3332
916.932	3340
917.044	3348
917.156	3355
917.268	3256
917.38	3329
917.491	3275
917.603	3386
917.715	3450
917.826	3439
917.938	3363
918.049	3237
918.161	3435
918.272	3580
918.384	3576
918.495	3466
918.606	3340
918.717	3256
918.828	3409
918.939	3409
919.05	3291
919.161	3329
919.272	3192
919.383	3268
919.494	3496
919.604	3701
919.715	3488
919.826	3378
919.936	3496
920.047	3561
920.157	3538
920.267	3793
920.378	3595
920.488	3576
920.598	3781
920.708	4021
920.818	3797
920.928	3869
921.038	4006
921.148	3934
921.258	3679
921.368	3644
921.477	3568
921.587	3538
921.697	3435
921.806	3644
921.916	3469
922.025	3367
922.134	3348
922.244	3302
922.353	3405
922.462	3253
922.571	3233
922.68	3085
922.789	3074
922.898	3116
923.007	3119
923.116	3241
923.224	3195
923.333	3195
923.442	3077
923.55	3077
923.659	3138
923.767	3222
923.876	3116
923.984	3237
924.092	3085
924.201	3199
924.309	3180
924.417	3237
924.525	3184
924.633	3233
924.741	4021
924.849	3055
924.956	3233
925.064	3108
925.172	3055
925.279	3112
925.387	3176
925.494	3226
925.602	3298
925.709	3302
925.816	3184
925.924	3287
926.031	3374
926.138	3298
926.245	3359
926.352	3253
926.459	3412
926.566	3458
926.673	3302
926.779	3195
926.886	3249
926.993	3150
927.099	3142
927.206	3131
927.312	3100
927.419	3222
927.525	3214
927.631	3291
927.737	3135
927.843	3138
927.95	3066
928.056	3108
928.162	3211
928.267	3279
928.373	3850
928.479	3329
928.585	3089
928.69	3211
928.796	3310
928.901	3157
929.007	3047
929.112	3218
929.218	3211
929.323	3104
929.428	3127
929.533	3329
929.638	3108
929.743	3195
929.848	3253
929.953	3226
930.058	3108
930.163	3013
930.267	3081
930.372	3173
930.477	3032
930.581	3298
930.685	3188
930.79	2967
930.894	3135
930.998	3066
931.103	3256
931.207	2971
931.311	2914
931.415	2937
931.519	2796
931.623	2815
