Data from test_V78500241_1189.txt Node
Date: Fri Mar 25 16:23:26 CST 2022
User: usil
Spectrometer: V785-0024
Trigger mode: 0
Integration Time (sec): 4.000000E-1
Scans to average: 1
Nonlinearity correction enabled: false
Boxcar width: 0
Storing dark spectrum: false
XAxis mode: Wavelengths
Number of Pixels in Spectrum: 1024
>>>>>Begin Spectral Data<<<<<
801.071	2895
801.214	2956
801.356	2868
801.499	2845
801.641	2857
801.783	2956
801.926	3062
802.068	2982
802.211	2967
802.353	3028
802.496	2986
802.638	3001
802.78	3051
802.923	3070
803.065	2944
803.208	2914
803.35	2914
803.492	2922
803.635	2914
803.777	2781
803.919	2876
804.061	3203
804.204	2971
804.346	2883
804.488	2849
804.63	2956
804.773	2845
804.915	2887
805.057	3089
805.199	2910
805.341	2982
805.483	3009
805.626	2982
805.768	2918
805.91	3055
806.052	3119
806.194	3077
806.336	3188
806.478	3001
806.62	2914
806.762	3005
806.904	3032
807.046	3157
807.188	2967
807.33	2887
807.472	2971
807.614	2887
807.756	2960
807.898	2922
808.04	2857
808.182	2952
808.324	2944
808.465	2876
808.607	2853
808.749	2781
808.891	2819
809.033	2933
809.174	2922
809.316	2887
809.458	2864
809.6	2781
809.741	2769
809.883	2769
810.025	2834
810.166	2796
810.308	2792
810.45	2872
810.591	2785
810.733	2762
810.875	2826
811.016	2754
811.158	2724
811.299	2819
811.441	2933
811.582	2891
811.724	2785
811.865	2815
812.007	2868
812.148	2845
812.29	2842
812.431	2883
812.573	2899
812.714	2967
812.855	2994
812.997	3047
813.138	3131
813.279	2982
813.421	2967
813.562	2925
813.703	2842
813.845	2845
813.986	2773
814.127	2727
814.268	2811
814.41	2842
814.551	2800
814.692	2864
814.833	2804
814.974	2883
815.115	2906
815.256	2838
815.397	2819
815.539	2876
815.68	2800
815.821	2785
815.962	2960
816.103	2880
816.244	2891
816.385	2853
816.526	2948
816.666	2883
816.807	2720
816.948	2891
817.089	2842
817.23	2838
817.371	2785
817.512	2762
817.653	2807
817.793	2826
817.934	2880
818.075	2910
818.216	2975
818.356	3005
818.497	2883
818.638	2777
818.778	2823
818.919	2788
819.06	2743
819.2	2876
819.341	2823
819.481	2800
819.622	2872
819.762	3108
819.903	3093
820.043	2883
820.184	2925
820.324	2864
820.465	2998
820.605	3028
820.746	3001
820.886	2922
821.026	3127
821.167	3169
821.307	3230
821.447	3294
821.588	3233
821.728	3157
821.868	3203
822.008	3051
822.149	3173
822.289	3230
822.429	3051
822.569	3074
822.709	3154
822.849	3062
822.99	3062
823.13	3157
823.27	3195
823.41	3108
823.55	3165
823.69	3150
823.83	3192
823.97	3104
824.11	2975
824.25	3009
824.389	3051
824.529	3104
824.669	3058
824.809	3180
824.949	3211
825.089	3207
825.228	3154
825.368	3001
825.508	2902
825.648	2960
825.787	3005
825.927	2994
826.067	2952
826.206	2956
826.346	3028
826.485	3055
826.625	3093
826.765	3249
826.904	3195
827.044	2979
827.183	2902
827.323	2876
827.462	2967
827.601	2910
827.741	2891
827.88	2944
828.02	2849
828.159	2990
828.298	3043
828.437	3077
828.577	3013
828.716	3233
828.855	3055
828.994	2899
829.134	2842
829.273	2914
829.412	2823
829.551	2838
829.69	2861
829.829	2998
829.968	3089
830.107	2979
830.246	3028
830.385	2876
830.524	2849
830.663	2815
830.802	2712
830.941	2629
831.08	2636
831.219	2777
831.357	2705
831.496	2902
831.635	2689
831.774	2636
831.913	2655
832.051	2514
832.19	2552
832.329	2667
832.467	2526
832.606	2473
832.744	2533
832.883	2575
833.022	2556
833.16	2625
833.299	2663
833.437	2693
833.576	2697
833.714	2739
833.852	2724
833.991	2746
834.129	2826
834.267	2758
834.406	2769
834.544	2853
834.682	2826
834.821	2857
834.959	3036
835.097	2902
835.235	3017
835.373	2971
835.511	2971
835.65	2937
835.788	2918
835.926	2785
836.064	2788
836.202	2849
836.34	3077
836.478	3154
836.615	3043
836.753	3138
836.891	3180
837.029	3184
837.167	3093
837.305	3024
837.443	3055
837.58	2944
837.718	3150
837.856	3051
837.993	3024
838.131	3116
838.269	3100
838.406	3093
838.544	3085
838.681	2906
838.819	2887
838.956	2800
839.094	2823
839.231	2902
839.369	3005
839.506	3386
839.643	3241
839.781	2998
839.918	2952
840.055	3066
840.193	3005
840.33	3055
840.467	3066
840.604	3085
840.742	3374
840.879	3062
841.016	3013
841.153	3077
841.29	3306
841.427	3310
841.564	3256
841.701	3279
841.838	3211
841.975	3135
842.112	3222
842.249	3089
842.385	3024
842.522	3207
842.659	3062
842.796	3043
842.933	3077
843.069	3009
843.206	3032
843.343	3180
843.479	3085
843.616	3127
843.752	2883
843.889	2857
844.025	3085
844.162	2895
844.298	3066
844.435	2929
844.571	2864
844.708	3039
844.844	3169
844.98	3256
845.117	3176
845.253	2994
845.389	3017
845.525	3097
845.661	3112
845.798	3001
845.934	3100
846.07	3047
846.206	3188
846.342	3313
846.478	3218
846.614	3074
846.75	3051
846.886	3028
847.022	3222
847.158	3108
847.294	3207
847.429	3291
847.565	3176
847.701	3458
847.837	3039
847.972	3005
848.108	3165
848.244	3104
848.379	2952
848.515	2910
848.65	2887
848.786	2960
848.921	2963
849.057	3070
849.192	3119
849.328	3017
849.463	3066
849.598	3013
849.734	3009
849.869	2967
850.004	2925
850.14	2956
850.275	2883
850.41	2826
850.545	2861
850.68	2933
850.815	2948
850.95	2963
851.085	3176
851.22	3104
851.355	3017
851.49	3013
851.625	2944
851.76	3009
851.895	2941
852.03	2925
852.165	3036
852.299	3146
852.434	3184
852.569	3131
852.703	3195
852.838	3241
852.973	3325
853.107	3317
853.242	3146
853.376	3112
853.511	3009
853.645	3077
853.78	3260
853.914	3135
854.048	3119
854.183	3074
854.317	3176
854.451	3313
854.585	3169
854.72	3116
854.854	3237
854.988	3058
855.122	3097
855.256	3036
855.39	3135
855.524	3279
855.658	3165
855.792	3199
855.926	3199
856.06	3237
856.194	3256
856.327	3226
856.461	3081
856.595	3112
856.729	3142
856.862	3272
856.996	3233
857.13	3188
857.263	3256
857.397	3321
857.53	3161
857.664	3214
857.797	3256
857.931	3340
858.064	3188
858.197	3256
858.331	3173
858.464	3104
858.597	3036
858.731	3157
858.864	3161
858.997	3108
859.13	3207
859.263	3203
859.396	3203
859.529	3127
859.662	3089
859.795	3097
859.928	3157
860.061	3275
860.194	3317
860.327	3169
860.46	3116
860.592	3245
860.725	3310
860.858	3268
860.99	3131
861.123	3104
861.256	3081
861.388	3195
861.521	3751
861.653	3032
861.786	3028
861.918	3062
862.05	3127
862.183	3135
862.315	3192
862.447	3207
862.58	3119
862.712	3017
862.844	2906
862.976	3051
863.108	3032
863.24	3344
863.372	2922
863.504	3036
863.636	2975
863.768	3066
863.9	2998
864.032	2933
864.164	2975
864.296	3028
864.428	3135
864.559	3119
864.691	3131
864.823	3085
864.954	3066
865.086	3032
865.217	3013
865.349	3017
865.48	3036
865.612	3039
865.743	3146
865.875	3013
866.006	2956
866.137	3013
866.269	2937
866.4	2952
866.531	2971
866.662	2941
866.793	2937
866.924	2941
867.055	3013
867.186	2929
867.317	2929
867.448	2838
867.579	2883
867.71	2861
867.841	2842
867.972	2918
868.103	2922
868.233	2910
868.364	2902
868.495	2925
868.625	3116
868.756	3188
868.886	2982
869.017	3051
869.147	3161
869.278	3157
869.408	3039
869.539	3089
869.669	3127
869.799	3081
869.929	3150
870.06	3146
870.19	3336
870.32	3298
870.45	3325
870.58	3405
870.71	3462
870.84	3462
870.97	3291
871.1	3253
871.23	3530
871.36	3477
871.489	3351
871.619	3389
871.749	3420
871.879	3447
872.008	3523
872.138	3386
872.267	3291
872.397	3173
872.526	3123
872.656	3051
872.785	3131
872.915	3279
873.044	3344
873.173	3245
873.303	3275
873.432	3256
873.561	3275
873.69	3169
873.819	3184
873.948	3218
874.077	3112
874.206	3104
874.335	3135
874.464	3226
874.593	3382
874.722	3230
874.851	3393
874.979	3355
875.108	3351
875.237	3245
875.365	3207
875.494	3192
875.623	3241
875.751	3070
875.88	3142
876.008	3199
876.136	3241
876.265	3389
876.393	3549
876.521	3447
876.65	3450
876.778	3374
876.906	3272
877.034	3218
877.162	3264
877.29	3214
877.418	3302
877.546	3218
877.674	3264
877.802	3264
877.93	3237
878.058	3211
878.185	3135
878.313	3222
878.441	3272
878.568	3100
878.696	3188
878.824	3302
878.951	3359
879.079	3443
879.206	3637
879.333	3420
879.461	3386
879.588	3393
879.715	3504
879.842	3633
879.97	3382
880.097	3188
880.224	3176
880.351	3241
880.478	3214
880.605	3226
880.732	3237
880.859	3534
880.986	3332
881.112	3370
881.239	3233
881.366	3157
881.493	3062
881.619	3017
881.746	3123
881.872	3089
881.999	3150
882.125	3169
882.252	3264
882.378	3279
882.505	3424
882.631	3321
882.757	3176
882.883	3237
883.01	3245
883.136	3184
883.262	3081
883.388	3127
883.514	3355
883.64	3409
883.766	3317
883.892	3230
884.018	3260
884.143	3439
884.269	3568
884.395	3279
884.52	3184
884.646	3169
884.772	3131
884.897	3142
885.023	3214
885.148	3355
885.274	3435
885.399	3401
885.524	3317
885.65	3291
885.775	3359
885.9	3275
886.025	3435
886.15	3405
886.275	3310
886.4	3287
886.525	3310
886.65	3325
886.775	3294
886.9	3549
887.025	3622
887.149	3405
887.274	3287
887.399	3211
887.523	3245
887.648	3176
887.773	3214
887.897	3397
888.021	3370
888.146	3359
888.27	3439
888.395	3549
888.519	3401
888.643	3485
888.767	3458
888.891	3329
889.015	3275
889.139	3325
889.263	3256
889.387	3443
889.511	3542
889.635	3523
889.759	3291
889.883	3348
890.006	3439
890.13	3526
890.254	3321
890.377	3367
890.501	3237
890.624	3203
890.748	3336
890.871	3203
890.995	3112
891.118	3081
891.241	3214
891.364	3268
891.488	3336
891.611	3199
891.734	3207
891.857	3306
891.98	3241
892.103	3325
892.226	3283
892.349	3214
892.471	3142
892.594	3298
892.717	3294
892.839	3291
892.962	3294
893.085	3359
893.207	3332
893.33	3214
893.452	3211
893.575	3325
893.697	3260
893.819	3485
893.941	3523
894.064	3485
894.186	3287
894.308	3317
894.43	3450
894.552	3542
894.674	3492
894.796	3283
894.918	3317
895.04	3275
895.161	3462
895.283	3439
895.405	3317
895.526	3386
895.648	3424
895.769	3462
895.891	3492
896.012	3496
896.134	3477
896.255	3412
896.376	3397
896.498	3374
896.619	3443
896.74	3325
896.861	3348
896.982	3682
897.103	3835
897.224	3591
897.345	3504
897.466	3431
897.587	3526
897.708	3606
897.828	3534
897.949	3424
898.07	3340
898.19	3412
898.311	3599
898.431	3401
898.552	3526
898.672	3610
898.792	3557
898.913	3584
899.033	3447
899.153	3329
899.273	3241
899.393	3325
899.513	3310
899.633	3321
899.753	3359
899.873	3306
899.993	3401
900.113	3359
900.232	3382
900.352	3370
900.472	3317
900.591	3211
900.711	3332
900.83	3264
900.95	3412
901.069	3500
901.189	3367
901.308	3154
901.427	3131
901.546	3199
901.665	3256
901.784	3374
901.904	3199
902.023	3161
902.141	3047
902.26	3051
902.379	3135
902.498	3093
902.617	3062
902.735	3211
902.854	3233
902.973	3226
903.091	3058
903.21	3093
903.328	3184
903.446	3150
903.565	3138
903.683	3230
903.801	3157
903.919	3241
904.038	3268
904.156	3184
904.274	3279
904.392	3264
904.51	3340
904.627	3306
904.745	3397
904.863	3538
904.981	3264
905.098	3218
905.216	3192
905.334	3294
905.451	3302
905.569	3317
905.686	3450
905.803	3485
905.921	3287
906.038	3496
906.155	3359
906.272	3329
906.389	3344
906.506	3203
906.623	3268
906.74	3291
906.857	3184
906.974	3264
907.091	3496
907.208	3549
907.324	3458
907.441	3428
907.557	3253
907.674	3256
907.79	3188
907.907	3317
908.023	3401
908.139	3393
908.256	3313
908.372	3363
908.488	3401
908.604	3260
908.72	3230
908.836	3325
908.952	3279
909.068	3370
909.184	3477
909.3	3412
909.415	3507
909.531	3511
909.647	3310
909.762	3287
909.878	3264
909.993	3340
910.108	3340
910.224	3378
910.339	3420
910.454	3374
910.57	3268
910.685	3268
910.8	3606
910.915	3557
911.03	3458
911.145	3275
911.259	3325
911.374	3329
911.489	3268
911.604	3226
911.718	3142
911.833	3157
911.947	3020
912.062	2998
912.176	3173
912.291	3211
912.405	3173
912.519	3466
912.633	3507
912.748	3340
912.862	3302
912.976	3176
913.09	3066
913.204	3165
913.318	3222
913.431	3325
913.545	3355
913.659	3401
913.772	3332
913.886	3253
914	3214
914.113	3317
914.226	3420
914.34	3363
914.453	3203
914.566	3405
914.68	3298
914.793	3302
914.906	3154
915.019	3112
915.132	3081
915.245	3180
915.358	3173
915.47	3256
915.583	3272
915.696	3310
915.809	3431
915.921	3420
916.034	3275
916.146	3237
916.259	3222
916.371	3405
916.483	3367
916.595	3272
916.708	3332
916.82	3325
916.932	3351
917.044	3351
917.156	3351
917.268	3249
917.38	3336
917.491	3306
917.603	3386
917.715	3466
917.826	3492
917.938	3382
918.049	3287
918.161	3405
918.272	3599
918.384	3603
918.495	3515
918.606	3344
918.717	3291
918.828	3351
918.939	3458
919.05	3279
919.161	3378
919.272	3203
919.383	3245
919.494	3504
919.604	3709
919.715	3526
919.826	3469
919.936	3450
920.047	3599
920.157	3584
920.267	3781
920.378	3599
920.488	3584
920.598	3770
920.708	3956
920.818	3857
920.928	3857
921.038	4025
921.148	4036
921.258	3747
921.368	3705
921.477	3595
921.587	3587
921.697	3496
921.806	3656
921.916	3545
922.025	3397
922.134	3412
922.244	3367
922.353	3469
922.462	3374
922.571	3291
922.68	3138
922.789	3127
922.898	3188
923.007	3146
923.116	3279
923.224	3199
923.333	3184
923.442	3119
923.55	3112
923.659	3199
923.767	3279
923.876	3165
923.984	3275
924.092	3161
924.201	3275
924.309	3298
924.417	3306
924.525	3222
924.633	3294
924.741	4093
924.849	3085
924.956	3310
925.064	3138
925.172	3043
925.279	3135
925.387	3230
925.494	3233
925.602	3405
925.709	3370
925.816	3233
925.924	3340
926.031	3431
926.138	3359
926.245	3416
926.352	3294
926.459	3431
926.566	3511
926.673	3332
926.779	3294
926.886	3329
926.993	3169
927.099	3150
927.206	3173
927.312	3142
927.419	3253
927.525	3245
927.631	3306
927.737	3188
927.843	3165
927.95	3039
928.056	3150
928.162	3180
928.267	3272
928.373	3915
928.479	3325
928.585	3089
928.69	3279
928.796	3310
928.901	3241
929.007	3074
929.112	3260
929.218	3195
929.323	3203
929.428	3161
929.533	3367
929.638	3203
929.743	3230
929.848	3268
929.953	3268
930.058	3180
930.163	3013
930.267	3104
930.372	3233
930.477	3066
930.581	3348
930.685	3211
930.79	3089
930.894	3161
930.998	3135
931.103	3291
931.207	2975
931.311	2982
931.415	2971
931.519	2857
931.623	2834
