Data from test_V78500241_1774.txt Node
Date: Fri Mar 25 16:27:29 CST 2022
User: usil
Spectrometer: V785-0024
Trigger mode: 0
Integration Time (sec): 4.000000E-1
Scans to average: 1
Nonlinearity correction enabled: false
Boxcar width: 0
Storing dark spectrum: false
XAxis mode: Wavelengths
Number of Pixels in Spectrum: 1024
>>>>>Begin Spectral Data<<<<<
801.071	2902
801.214	2948
801.356	2883
801.499	2880
801.641	2861
801.783	2948
801.926	3074
802.068	2906
802.211	2979
802.353	3005
802.496	2937
802.638	3024
802.78	3028
802.923	3074
803.065	2982
803.208	2876
803.35	2960
803.492	2918
803.635	2944
803.777	2773
803.919	2842
804.061	3188
804.204	2925
804.346	2899
804.488	2861
804.63	2990
804.773	2857
804.915	2925
805.057	3077
805.199	2948
805.341	2998
805.483	3039
805.626	2963
805.768	2982
805.91	3032
806.052	3074
806.194	3024
806.336	3222
806.478	3020
806.62	2929
806.762	2979
806.904	3085
807.046	3176
807.188	2967
807.33	2933
807.472	2975
807.614	2925
807.756	2986
807.898	2918
808.04	2883
808.182	2975
808.324	2922
808.465	2864
808.607	2876
808.749	2781
808.891	2842
809.033	2960
809.174	2979
809.316	2883
809.458	2872
809.6	2773
809.741	2754
809.883	2754
810.025	2853
810.166	2838
810.308	2811
810.45	2830
810.591	2777
810.733	2762
810.875	2811
811.016	2777
811.158	2773
811.299	2815
811.441	2922
811.582	2868
811.724	2826
811.865	2849
812.007	2883
812.148	2861
812.29	2857
812.431	2857
812.573	2910
812.714	2982
812.855	3032
812.997	3039
813.138	3142
813.279	3009
813.421	2952
813.562	2914
813.703	2864
813.845	2887
813.986	2766
814.127	2708
814.268	2823
814.41	2826
814.551	2800
814.692	2857
814.833	2811
814.974	2883
815.115	2941
815.256	2815
815.397	2826
815.539	2845
815.68	2754
815.821	2758
815.962	2967
816.103	2944
816.244	2899
816.385	2864
816.526	2948
816.666	2910
816.807	2777
816.948	2876
817.089	2914
817.23	2845
817.371	2746
817.512	2781
817.653	2861
817.793	2838
817.934	2914
818.075	2967
818.216	3001
818.356	3017
818.497	2864
818.638	2762
818.778	2819
818.919	2796
819.06	2781
819.2	2872
819.341	2811
819.481	2807
819.622	2914
819.762	3127
819.903	3058
820.043	2895
820.184	2902
820.324	2883
820.465	3013
820.605	3001
820.746	3005
820.886	2929
821.026	3100
821.167	3165
821.307	3233
821.447	3302
821.588	3245
821.728	3195
821.868	3192
822.008	3085
822.149	3222
822.289	3180
822.429	3112
822.569	3085
822.709	3173
822.849	3020
822.99	3058
823.13	3135
823.27	3173
823.41	3104
823.55	3154
823.69	3146
823.83	3203
823.97	3093
824.11	2998
824.25	2967
824.389	3055
824.529	3074
824.669	3051
824.809	3211
824.949	3211
825.089	3211
825.228	3135
825.368	3013
825.508	2948
825.648	2967
825.787	2998
825.927	2990
826.067	2967
826.206	2971
826.346	3055
826.485	3055
826.625	3097
826.765	3253
826.904	3192
827.044	2998
827.183	2967
827.323	2861
827.462	2975
827.601	2914
827.741	2956
827.88	2952
828.02	2872
828.159	2967
828.298	3081
828.437	3085
828.577	3055
828.716	3199
828.855	3066
828.994	2918
829.134	2845
829.273	2887
829.412	2853
829.551	2830
829.69	2880
829.829	2967
829.968	3093
830.107	2998
830.246	3009
830.385	2891
830.524	2842
830.663	2842
830.802	2708
830.941	2651
831.08	2659
831.219	2758
831.357	2762
831.496	2952
831.635	2724
831.774	2659
831.913	2636
832.051	2552
832.19	2587
832.329	2655
832.467	2499
832.606	2476
832.744	2560
832.883	2552
833.022	2594
833.16	2655
833.299	2678
833.437	2674
833.576	2686
833.714	2708
833.852	2720
833.991	2754
834.129	2834
834.267	2792
834.406	2781
834.544	2853
834.682	2872
834.821	2845
834.959	3062
835.097	2880
835.235	3032
835.373	2998
835.511	2990
835.65	2933
835.788	2971
835.926	2815
836.064	2769
836.202	2842
836.34	3100
836.478	3127
836.615	3039
836.753	3138
836.891	3214
837.029	3173
837.167	3077
837.305	3051
837.443	3017
837.58	2952
837.718	3097
837.856	3066
837.993	3017
838.131	3097
838.269	3097
838.406	3142
838.544	3066
838.681	2944
838.819	2914
838.956	2834
839.094	2807
839.231	2914
839.369	3013
839.506	3355
839.643	3203
839.781	3032
839.918	2948
840.055	3039
840.193	3032
840.33	3077
840.467	3104
840.604	3188
840.742	3393
840.879	3051
841.016	3043
841.153	3074
841.29	3310
841.427	3287
841.564	3275
841.701	3291
841.838	3230
841.975	3176
842.112	3237
842.249	3085
842.385	3028
842.522	3249
842.659	3108
842.796	3058
842.933	3097
843.069	3058
843.206	3039
843.343	3169
843.479	3089
843.616	3138
843.752	2864
843.889	2872
844.025	3066
844.162	2883
844.298	3070
844.435	2952
844.571	2902
844.708	3058
844.844	3184
844.98	3199
845.117	3203
845.253	3039
845.389	2971
845.525	3081
845.661	3081
845.798	3005
845.934	3081
846.07	3039
846.206	3203
846.342	3291
846.478	3237
846.614	3047
846.75	3062
846.886	3020
847.022	3226
847.158	3146
847.294	3173
847.429	3214
847.565	3222
847.701	3473
847.837	3024
847.972	2986
848.108	3123
848.244	3135
848.379	2979
848.515	2960
848.65	2937
848.786	2937
848.921	3020
849.057	3066
849.192	3146
849.328	3036
849.463	3077
849.598	3017
849.734	3066
849.869	2994
850.004	2876
850.14	2960
850.275	2910
850.41	2842
850.545	2891
850.68	2922
850.815	2929
850.95	2990
851.085	3222
851.22	3097
851.355	3062
851.49	2982
851.625	2994
851.76	3028
851.895	2952
852.03	2906
852.165	3036
852.299	3100
852.434	3176
852.569	3138
852.703	3123
852.838	3226
852.973	3393
853.107	3294
853.242	3161
853.376	3097
853.511	2937
853.645	3036
853.78	3233
853.914	3104
854.048	3062
854.183	3070
854.317	3108
854.451	3298
854.585	3097
854.72	3093
854.854	3192
854.988	3062
855.122	3085
855.256	2963
855.39	3112
855.524	3241
855.658	3184
855.792	3169
855.926	3138
856.06	3195
856.194	3253
856.327	3131
856.461	3089
856.595	3077
856.729	3093
856.862	3253
856.996	3169
857.13	3184
857.263	3226
857.397	3302
857.53	3127
857.664	3157
857.797	3260
857.931	3207
858.064	3146
858.197	3203
858.331	3119
858.464	3074
858.597	2971
858.731	3085
858.864	3131
858.997	3081
859.13	3150
859.263	3161
859.396	3184
859.529	3058
859.662	3070
859.795	3055
859.928	3157
860.061	3241
860.194	3287
860.327	3150
860.46	3081
860.592	3207
860.725	3214
860.858	3256
860.99	3097
861.123	3017
861.256	3039
861.388	3150
861.521	3846
861.653	3036
861.786	2975
861.918	2986
862.05	3005
862.183	3104
862.315	3116
862.447	3214
862.58	3070
862.712	2941
862.844	2849
862.976	3028
863.108	2986
863.24	3291
863.372	2864
863.504	2963
863.636	2918
863.768	3017
863.9	2967
864.032	2922
864.164	2929
864.296	3043
864.428	3074
864.559	3074
864.691	3070
864.823	3062
864.954	3020
865.086	3036
865.217	3005
865.349	2944
865.48	2963
865.612	3009
865.743	3108
865.875	2979
866.006	2963
866.137	2963
866.269	2971
866.4	2979
866.531	2883
866.662	2902
866.793	2891
866.924	2872
867.055	2956
867.186	2910
867.317	2883
867.448	2838
867.579	2826
867.71	2845
867.841	2807
867.972	2861
868.103	2864
868.233	2861
868.364	2861
868.495	2868
868.625	3047
868.756	3150
868.886	2960
869.017	2986
869.147	3116
869.278	3154
869.408	3036
869.539	2998
869.669	3089
869.799	3051
869.929	3116
870.06	3093
870.19	3317
870.32	3279
870.45	3279
870.58	3378
870.71	3439
870.84	3420
870.97	3302
871.1	3226
871.23	3481
871.36	3409
871.489	3386
871.619	3359
871.749	3378
871.879	3412
872.008	3428
872.138	3329
872.267	3218
872.397	3131
872.526	3085
872.656	3024
872.785	3081
872.915	3199
873.044	3287
873.173	3195
873.303	3226
873.432	3214
873.561	3199
873.69	3142
873.819	3131
873.948	3165
874.077	3077
874.206	2990
874.335	3058
874.464	3199
874.593	3370
874.722	3226
874.851	3378
874.979	3325
875.108	3310
875.237	3165
875.365	3112
875.494	3157
875.623	3211
875.751	3062
875.88	3104
876.008	3169
876.136	3214
876.265	3420
876.393	3481
876.521	3405
876.65	3359
876.778	3306
876.906	3203
877.034	3188
877.162	3169
877.29	3180
877.418	3260
877.546	3192
877.674	3199
877.802	3241
877.93	3245
878.058	3131
878.185	3093
878.313	3249
878.441	3207
878.568	3058
878.696	3135
878.824	3275
878.951	3321
879.079	3466
879.206	3633
879.333	3450
879.461	3359
879.588	3355
879.715	3477
879.842	3606
879.97	3393
880.097	3142
880.224	3112
880.351	3222
880.478	3222
880.605	3241
880.732	3199
880.859	3504
880.986	3291
881.112	3340
881.239	3245
881.366	3062
881.493	3085
881.619	3055
881.746	3085
881.872	3127
881.999	3135
882.125	3169
882.252	3302
882.378	3306
882.505	3477
882.631	3302
882.757	3230
882.883	3272
883.01	3207
883.136	3218
883.262	3135
883.388	3173
883.514	3340
883.64	3439
883.766	3370
883.892	3237
884.018	3279
884.143	3439
884.269	3545
884.395	3211
884.52	3218
884.646	3218
884.772	3138
884.897	3127
885.023	3241
885.148	3370
885.274	3485
885.399	3363
885.524	3283
885.65	3348
885.775	3340
885.9	3329
886.025	3530
886.15	3389
886.275	3367
886.4	3298
886.525	3325
886.65	3306
886.775	3321
886.9	3545
887.025	3705
887.149	3469
887.274	3294
887.399	3241
887.523	3249
887.648	3264
887.773	3214
887.897	3401
888.021	3428
888.146	3351
888.27	3485
888.395	3557
888.519	3469
888.643	3469
888.767	3488
888.891	3329
889.015	3245
889.139	3332
889.263	3287
889.387	3454
889.511	3542
889.635	3458
889.759	3344
889.883	3332
890.006	3393
890.13	3515
890.254	3313
890.377	3344
890.501	3241
890.624	3211
890.748	3367
890.871	3184
890.995	3146
891.118	3062
891.241	3230
891.364	3226
891.488	3348
891.611	3184
891.734	3222
891.857	3310
891.98	3268
892.103	3348
892.226	3310
892.349	3241
892.471	3165
892.594	3317
892.717	3359
892.839	3294
892.962	3332
893.085	3386
893.207	3348
893.33	3199
893.452	3253
893.575	3359
893.697	3253
893.819	3492
893.941	3534
894.064	3523
894.186	3344
894.308	3306
894.43	3462
894.552	3576
894.674	3496
894.796	3306
894.918	3363
895.04	3298
895.161	3428
895.283	3447
895.405	3340
895.526	3386
895.648	3450
895.769	3515
895.891	3507
896.012	3504
896.134	3500
896.255	3447
896.376	3424
896.498	3386
896.619	3443
896.74	3386
896.861	3473
896.982	3736
897.103	3888
897.224	3648
897.345	3526
897.466	3447
897.587	3515
897.708	3671
897.828	3606
897.949	3428
898.07	3355
898.19	3439
898.311	3603
898.431	3492
898.552	3561
898.672	3648
898.792	3576
898.913	3534
899.033	3450
899.153	3313
899.273	3249
899.393	3291
899.513	3386
899.633	3325
899.753	3393
899.873	3359
899.993	3416
900.113	3359
900.232	3393
900.352	3340
900.472	3317
900.591	3203
900.711	3321
900.83	3294
900.95	3469
901.069	3526
901.189	3355
901.308	3230
901.427	3169
901.546	3237
901.665	3321
901.784	3321
901.904	3275
902.023	3173
902.141	3077
902.26	3009
902.379	3180
902.498	3077
902.617	3100
902.735	3275
902.854	3298
902.973	3211
903.091	3081
903.21	3135
903.328	3108
903.446	3150
903.565	3116
903.683	3275
903.801	3150
903.919	3253
904.038	3348
904.156	3214
904.274	3340
904.392	3260
904.51	3370
904.627	3367
904.745	3416
904.863	3530
904.981	3302
905.098	3211
905.216	3291
905.334	3310
905.451	3359
905.569	3336
905.686	3435
905.803	3496
905.921	3325
906.038	3454
906.155	3378
906.272	3272
906.389	3393
906.506	3245
906.623	3268
906.74	3291
906.857	3218
906.974	3264
907.091	3435
907.208	3561
907.324	3473
907.441	3389
907.557	3233
907.674	3279
907.79	3230
907.907	3310
908.023	3412
908.139	3389
908.256	3336
908.372	3389
908.488	3393
908.604	3287
908.72	3264
908.836	3287
908.952	3306
909.068	3340
909.184	3473
909.3	3397
909.415	3500
909.531	3500
909.647	3329
909.762	3306
909.878	3306
909.993	3393
910.108	3351
910.224	3367
910.339	3447
910.454	3321
910.57	3340
910.685	3260
910.8	3606
910.915	3572
911.03	3439
911.145	3321
911.259	3287
911.374	3329
911.489	3264
911.604	3226
911.718	3154
911.833	3165
911.947	3028
912.062	3009
912.176	3188
912.291	3222
912.405	3275
912.519	3431
912.633	3469
912.748	3363
912.862	3325
912.976	3214
913.09	3066
913.204	3150
913.318	3207
913.431	3386
913.545	3378
913.659	3454
913.772	3367
913.886	3218
914	3245
914.113	3370
914.226	3428
914.34	3378
914.453	3241
914.566	3424
914.68	3313
914.793	3332
914.906	3184
915.019	3154
915.132	3112
915.245	3211
915.358	3253
915.47	3287
915.583	3321
915.696	3302
915.809	3428
915.921	3485
916.034	3279
916.146	3264
916.259	3241
916.371	3393
916.483	3401
916.595	3310
916.708	3397
916.82	3389
916.932	3355
917.044	3367
917.156	3363
917.268	3260
917.38	3344
917.491	3321
917.603	3378
917.715	3473
917.826	3504
917.938	3428
918.049	3298
918.161	3416
918.272	3591
918.384	3595
918.495	3469
918.606	3325
918.717	3348
918.828	3420
918.939	3473
919.05	3363
919.161	3378
919.272	3150
919.383	3291
919.494	3511
919.604	3701
919.715	3542
919.826	3439
919.936	3500
920.047	3606
920.157	3591
920.267	3793
920.378	3648
920.488	3587
920.598	3831
920.708	3994
920.818	3823
920.928	3861
921.038	4051
921.148	4040
921.258	3728
921.368	3663
921.477	3576
921.587	3553
921.697	3488
921.806	3698
921.916	3545
922.025	3363
922.134	3363
922.244	3336
922.353	3454
922.462	3275
922.571	3233
922.68	3142
922.789	3055
922.898	3150
923.007	3135
923.116	3237
923.224	3203
923.333	3245
923.442	3119
923.55	3093
923.659	3138
923.767	3233
923.876	3135
923.984	3287
924.092	3150
924.201	3211
924.309	3249
924.417	3310
924.525	3188
924.633	3245
924.741	4048
924.849	3043
924.956	3245
925.064	3123
925.172	3085
925.279	3100
925.387	3230
925.494	3211
925.602	3325
925.709	3355
925.816	3230
925.924	3298
926.031	3416
926.138	3405
926.245	3374
926.352	3272
926.459	3439
926.566	3488
926.673	3317
926.779	3275
926.886	3245
926.993	3173
927.099	3161
927.206	3123
927.312	3161
927.419	3214
927.525	3199
927.631	3294
927.737	3176
927.843	3165
927.95	3055
928.056	3142
928.162	3199
928.267	3287
928.373	3884
928.479	3325
928.585	3085
928.69	3207
928.796	3313
928.901	3180
929.007	3062
929.112	3218
929.218	3199
929.323	3192
929.428	3146
929.533	3367
929.638	3108
929.743	3211
929.848	3256
929.953	3264
930.058	3154
930.163	3009
930.267	3100
930.372	3218
930.477	3055
930.581	3344
930.685	3173
930.79	3051
930.894	3142
930.998	3146
931.103	3298
931.207	3001
931.311	2929
931.415	2971
931.519	2762
931.623	2853
