Data from test_V78500241_735.txt Node
Date: Fri Mar 25 16:20:17 CST 2022
User: usil
Spectrometer: V785-0024
Trigger mode: 0
Integration Time (sec): 4.000000E-1
Scans to average: 1
Nonlinearity correction enabled: false
Boxcar width: 0
Storing dark spectrum: false
XAxis mode: Wavelengths
Number of Pixels in Spectrum: 1024
>>>>>Begin Spectral Data<<<<<
801.071	2914
801.214	2933
801.356	2868
801.499	2849
801.641	2872
801.783	2906
801.926	3032
802.068	2944
802.211	2979
802.353	3005
802.496	2975
802.638	2979
802.78	3028
802.923	3089
803.065	3017
803.208	2906
803.35	2880
803.492	2956
803.635	2899
803.777	2781
803.919	2834
804.061	3192
804.204	2941
804.346	2883
804.488	2811
804.63	2952
804.773	2868
804.915	2914
805.057	3100
805.199	2929
805.341	2918
805.483	3017
805.626	2990
805.768	2925
805.91	3100
806.052	3119
806.194	3039
806.336	3237
806.478	3005
806.62	2975
806.762	2963
806.904	3032
807.046	3211
807.188	2990
807.33	2876
807.472	2998
807.614	2887
807.756	2967
807.898	2929
808.04	2891
808.182	2994
808.324	2948
808.465	2857
808.607	2880
808.749	2766
808.891	2834
809.033	2960
809.174	2994
809.316	2864
809.458	2914
809.6	2746
809.741	2739
809.883	2766
810.025	2853
810.166	2880
810.308	2849
810.45	2823
810.591	2785
810.733	2758
810.875	2815
811.016	2781
811.158	2743
811.299	2769
811.441	2952
811.582	2861
811.724	2800
811.865	2823
812.007	2925
812.148	2876
812.29	2838
812.431	2899
812.573	2914
812.714	2960
812.855	3009
812.997	3070
813.138	3119
813.279	2990
813.421	3024
813.562	2948
813.703	2883
813.845	2853
813.986	2762
814.127	2743
814.268	2800
814.41	2834
814.551	2785
814.692	2880
814.833	2796
814.974	2872
815.115	2922
815.256	2876
815.397	2800
815.539	2880
815.68	2800
815.821	2830
815.962	2990
816.103	2925
816.244	2868
816.385	2849
816.526	2944
816.666	2880
816.807	2781
816.948	2864
817.089	2891
817.23	2861
817.371	2777
817.512	2773
817.653	2838
817.793	2811
817.934	2853
818.075	2952
818.216	2986
818.356	3013
818.497	2864
818.638	2773
818.778	2811
818.919	2796
819.06	2705
819.2	2883
819.341	2823
819.481	2830
819.622	2922
819.762	3051
819.903	3005
820.043	2922
820.184	2895
820.324	2895
820.465	3005
820.605	2990
820.746	3032
820.886	2895
821.026	3093
821.167	3150
821.307	3249
821.447	3249
821.588	3237
821.728	3180
821.868	3165
822.008	3077
822.149	3169
822.289	3211
822.429	3108
822.569	3089
822.709	3173
822.849	3017
822.99	3036
823.13	3169
823.27	3211
823.41	3100
823.55	3154
823.69	3165
823.83	3188
823.97	3066
824.11	3009
824.25	2971
824.389	3055
824.529	3116
824.669	3051
824.809	3169
824.949	3256
825.089	3230
825.228	3116
825.368	3005
825.508	2948
825.648	2967
825.787	2994
825.927	3009
826.067	2967
826.206	2941
826.346	3032
826.485	3051
826.625	3093
826.765	3233
826.904	3214
827.044	2979
827.183	2922
827.323	2880
827.462	2986
827.601	2899
827.741	2918
827.88	2975
828.02	2861
828.159	2975
828.298	3020
828.437	3112
828.577	3051
828.716	3226
828.855	3154
828.994	2922
829.134	2883
829.273	2941
829.412	2891
829.551	2868
829.69	2929
829.829	2982
829.968	3131
830.107	3028
830.246	3047
830.385	2914
830.524	2906
830.663	2838
830.802	2762
830.941	2682
831.08	2686
831.219	2781
831.357	2811
831.496	2941
831.635	2762
831.774	2663
831.913	2686
832.051	2610
832.19	2655
832.329	2693
832.467	2564
832.606	2518
832.744	2621
832.883	2621
833.022	2636
833.16	2682
833.299	2758
833.437	2743
833.576	2693
833.714	2758
833.852	2796
833.991	2796
834.129	2899
834.267	2853
834.406	2777
834.544	2914
834.682	2868
834.821	2868
834.959	3100
835.097	2910
835.235	3112
835.373	3051
835.511	3074
835.65	2971
835.788	2982
835.926	2853
836.064	2853
836.202	2845
836.34	3108
836.478	3161
836.615	3074
836.753	3180
836.891	3226
837.029	3180
837.167	3131
837.305	3089
837.443	3036
837.58	3009
837.718	3165
837.856	3123
837.993	3036
838.131	3138
838.269	3142
838.406	3108
838.544	3112
838.681	3001
838.819	2914
838.956	2807
839.094	2891
839.231	2944
839.369	3051
839.506	3401
839.643	3253
839.781	3089
839.918	3009
840.055	3062
840.193	3089
840.33	3108
840.467	3085
840.604	3188
840.742	3412
840.879	3085
841.016	3089
841.153	3165
841.29	3386
841.427	3344
841.564	3298
841.701	3344
841.838	3264
841.975	3207
842.112	3245
842.249	3116
842.385	3043
842.522	3291
842.659	3108
842.796	3085
842.933	3119
843.069	3097
843.206	3100
843.343	3237
843.479	3112
843.616	3165
843.752	2963
843.889	2902
844.025	3123
844.162	2937
844.298	3127
844.435	2960
844.571	2933
844.708	3058
844.844	3226
844.98	3310
845.117	3253
845.253	3074
845.389	3036
845.525	3165
845.661	3154
845.798	3005
845.934	3157
846.07	3074
846.206	3264
846.342	3378
846.478	3260
846.614	3108
846.75	3070
846.886	3074
847.022	3268
847.158	3135
847.294	3230
847.429	3306
847.565	3245
847.701	3504
847.837	3062
847.972	2998
848.108	3195
848.244	3176
848.379	3020
848.515	2994
848.65	2956
848.786	2998
848.921	3028
849.057	3157
849.192	3150
849.328	3108
849.463	3142
849.598	3123
849.734	3074
849.869	2971
850.004	2918
850.14	3005
850.275	2895
850.41	2876
850.545	2933
850.68	2979
850.815	2960
850.95	3024
851.085	3218
851.22	3123
851.355	3077
851.49	3017
851.625	3020
851.76	3009
851.895	2990
852.03	2941
852.165	3070
852.299	3154
852.434	3207
852.569	3161
852.703	3192
852.838	3249
852.973	3386
853.107	3321
853.242	3195
853.376	3097
853.511	2998
853.645	3081
853.78	3256
853.914	3154
854.048	3154
854.183	3127
854.317	3173
854.451	3325
854.585	3142
854.72	3104
854.854	3214
854.988	3100
855.122	3116
855.256	3013
855.39	3119
855.524	3237
855.658	3154
855.792	3192
855.926	3211
856.06	3222
856.194	3310
856.327	3199
856.461	3085
856.595	3127
856.729	3100
856.862	3230
856.996	3192
857.13	3233
857.263	3237
857.397	3253
857.53	3165
857.664	3207
857.797	3256
857.931	3272
858.064	3157
858.197	3233
858.331	3180
858.464	3112
858.597	3009
858.731	3119
858.864	3165
858.997	3131
859.13	3188
859.263	3211
859.396	3184
859.529	3085
859.662	3116
859.795	3070
859.928	3154
860.061	3275
860.194	3298
860.327	3176
860.46	3131
860.592	3245
860.725	3275
860.858	3275
860.99	3161
861.123	3089
861.256	3089
861.388	3176
861.521	3873
861.653	3055
861.786	2979
861.918	3039
862.05	3100
862.183	3104
862.315	3169
862.447	3237
862.58	3131
862.712	2975
862.844	2906
862.976	3020
863.108	3051
863.24	3431
863.372	2891
863.504	2998
863.636	2960
863.768	3032
863.9	2982
864.032	2941
864.164	3013
864.296	3020
864.428	3123
864.559	3112
864.691	3123
864.823	3085
864.954	3070
865.086	3058
865.217	3055
865.349	2998
865.48	3013
865.612	3013
865.743	3195
865.875	3047
866.006	2963
866.137	3020
866.269	2922
866.4	2982
866.531	2967
866.662	2906
866.793	2933
866.924	2944
867.055	3001
867.186	2941
867.317	2910
867.448	2883
867.579	2899
867.71	2899
867.841	2857
867.972	2922
868.103	2902
868.233	2872
868.364	2880
868.495	2922
868.625	3097
868.756	3195
868.886	2975
869.017	3039
869.147	3188
869.278	3173
869.408	3036
869.539	3036
869.669	3119
869.799	3062
869.929	3142
870.06	3138
870.19	3321
870.32	3317
870.45	3294
870.58	3439
870.71	3488
870.84	3450
870.97	3279
871.1	3211
871.23	3515
871.36	3504
871.489	3428
871.619	3393
871.749	3420
871.879	3443
872.008	3473
872.138	3329
872.267	3310
872.397	3150
872.526	3112
872.656	3062
872.785	3123
872.915	3279
873.044	3306
873.173	3256
873.303	3268
873.432	3275
873.561	3268
873.69	3161
873.819	3157
873.948	3222
874.077	3131
874.206	3089
874.335	3100
874.464	3203
874.593	3389
874.722	3253
874.851	3466
874.979	3329
875.108	3287
875.237	3218
875.365	3211
875.494	3176
875.623	3283
875.751	3081
875.88	3173
876.008	3226
876.136	3214
876.265	3378
876.393	3545
876.521	3492
876.65	3416
876.778	3340
876.906	3260
877.034	3253
877.162	3226
877.29	3211
877.418	3249
877.546	3272
877.674	3268
877.802	3253
877.93	3253
878.058	3180
878.185	3154
878.313	3237
878.441	3233
878.568	3093
878.696	3214
878.824	3245
878.951	3313
879.079	3439
879.206	3652
879.333	3462
879.461	3363
879.588	3351
879.715	3523
879.842	3637
879.97	3435
880.097	3165
880.224	3150
880.351	3188
880.478	3268
880.605	3214
880.732	3207
880.859	3538
880.986	3325
881.112	3378
881.239	3203
881.366	3066
881.493	3070
881.619	3032
881.746	3066
881.872	3165
881.999	3123
882.125	3169
882.252	3260
882.378	3306
882.505	3454
882.631	3287
882.757	3207
882.883	3222
883.01	3260
883.136	3233
883.262	3112
883.388	3135
883.514	3348
883.64	3378
883.766	3329
883.892	3226
884.018	3218
884.143	3416
884.269	3515
884.395	3180
884.52	3218
884.646	3195
884.772	3131
884.897	3154
885.023	3211
885.148	3374
885.274	3435
885.399	3409
885.524	3306
885.65	3313
885.775	3336
885.9	3298
886.025	3458
886.15	3378
886.275	3302
886.4	3241
886.525	3359
886.65	3279
886.775	3332
886.9	3507
887.025	3648
887.149	3450
887.274	3287
887.399	3211
887.523	3184
887.648	3184
887.773	3211
887.897	3386
888.021	3428
888.146	3291
888.27	3412
888.395	3580
888.519	3412
888.643	3450
888.767	3473
888.891	3325
889.015	3253
889.139	3332
889.263	3275
889.387	3370
889.511	3530
889.635	3488
889.759	3283
889.883	3321
890.006	3416
890.13	3473
890.254	3302
890.377	3382
890.501	3237
890.624	3176
890.748	3336
890.871	3157
890.995	3119
891.118	3089
891.241	3184
891.364	3222
891.488	3287
891.611	3180
891.734	3245
891.857	3294
891.98	3264
892.103	3367
892.226	3294
892.349	3199
892.471	3135
892.594	3275
892.717	3260
892.839	3268
892.962	3329
893.085	3370
893.207	3332
893.33	3169
893.452	3249
893.575	3336
893.697	3245
893.819	3473
893.941	3485
894.064	3492
894.186	3298
894.308	3275
894.43	3439
894.552	3576
894.674	3477
894.796	3283
894.918	3348
895.04	3321
895.161	3420
895.283	3397
895.405	3359
895.526	3401
895.648	3405
895.769	3435
895.891	3454
896.012	3450
896.134	3492
896.255	3431
896.376	3378
896.498	3378
896.619	3424
896.74	3367
896.861	3405
896.982	3705
897.103	3850
897.224	3595
897.345	3538
897.466	3462
897.587	3466
897.708	3682
897.828	3576
897.949	3454
898.07	3370
898.19	3409
898.311	3633
898.431	3454
898.552	3549
898.672	3614
898.792	3572
898.913	3553
899.033	3458
899.153	3336
899.273	3237
899.393	3310
899.513	3291
899.633	3317
899.753	3325
899.873	3332
899.993	3363
900.113	3321
900.232	3447
900.352	3336
900.472	3287
900.591	3203
900.711	3336
900.83	3298
900.95	3458
901.069	3530
901.189	3344
901.308	3188
901.427	3138
901.546	3199
901.665	3321
901.784	3348
901.904	3226
902.023	3173
902.141	3032
902.26	3051
902.379	3165
902.498	3089
902.617	3043
902.735	3188
902.854	3272
902.973	3218
903.091	3089
903.21	3089
903.328	3169
903.446	3112
903.565	3154
903.683	3222
903.801	3169
903.919	3283
904.038	3291
904.156	3180
904.274	3332
904.392	3249
904.51	3313
904.627	3313
904.745	3416
904.863	3523
904.981	3268
905.098	3154
905.216	3241
905.334	3272
905.451	3268
905.569	3298
905.686	3431
905.803	3416
905.921	3344
906.038	3431
906.155	3363
906.272	3279
906.389	3325
906.506	3233
906.623	3241
906.74	3253
906.857	3214
906.974	3256
907.091	3439
907.208	3572
907.324	3492
907.441	3397
907.557	3256
907.674	3230
907.79	3199
907.907	3298
908.023	3409
908.139	3378
908.256	3336
908.372	3389
908.488	3386
908.604	3268
908.72	3230
908.836	3287
908.952	3302
909.068	3325
909.184	3500
909.3	3367
909.415	3481
909.531	3511
909.647	3287
909.762	3310
909.878	3264
909.993	3367
910.108	3367
910.224	3298
910.339	3412
910.454	3329
910.57	3275
910.685	3264
910.8	3599
910.915	3584
911.03	3420
911.145	3268
911.259	3294
911.374	3313
911.489	3241
911.604	3241
911.718	3100
911.833	3154
911.947	3013
912.062	2963
912.176	3195
912.291	3173
912.405	3237
912.519	3485
912.633	3450
912.748	3313
912.862	3287
912.976	3173
913.09	3066
913.204	3161
913.318	3192
913.431	3344
913.545	3329
913.659	3439
913.772	3325
913.886	3264
914	3241
914.113	3359
914.226	3405
914.34	3378
914.453	3237
914.566	3401
914.68	3249
914.793	3310
914.906	3150
915.019	3131
915.132	3093
915.245	3165
915.358	3233
915.47	3226
915.583	3264
915.696	3302
915.809	3428
915.921	3420
916.034	3268
916.146	3237
916.259	3268
916.371	3382
916.483	3344
916.595	3298
916.708	3344
916.82	3363
916.932	3317
917.044	3332
917.156	3336
917.268	3279
917.38	3291
917.491	3298
917.603	3420
917.715	3431
917.826	3481
917.938	3397
918.049	3291
918.161	3389
918.272	3557
918.384	3542
918.495	3496
918.606	3359
918.717	3321
918.828	3393
918.939	3409
919.05	3306
919.161	3321
919.272	3154
919.383	3279
919.494	3504
919.604	3667
919.715	3530
919.826	3443
919.936	3477
920.047	3584
920.157	3557
920.267	3812
920.378	3599
920.488	3610
920.598	3778
920.708	3888
920.818	3816
920.928	3861
921.038	4021
921.148	4006
921.258	3732
921.368	3648
921.477	3557
921.587	3553
921.697	3477
921.806	3641
921.916	3557
922.025	3367
922.134	3370
922.244	3321
922.353	3428
922.462	3245
922.571	3268
922.68	3100
922.789	3081
922.898	3089
923.007	3119
923.116	3207
923.224	3199
923.333	3173
923.442	3108
923.55	3074
923.659	3157
923.767	3207
923.876	3112
923.984	3214
924.092	3127
924.201	3169
924.309	3226
924.417	3241
924.525	3192
924.633	3214
924.741	4219
924.849	3017
924.956	3298
925.064	3131
925.172	3051
925.279	3131
925.387	3199
925.494	3203
925.602	3344
925.709	3344
925.816	3173
925.924	3283
926.031	3397
926.138	3321
926.245	3378
926.352	3264
926.459	3409
926.566	3485
926.673	3283
926.779	3222
926.886	3218
926.993	3154
927.099	3146
927.206	3093
927.312	3138
927.419	3233
927.525	3192
927.631	3268
927.737	3150
927.843	3150
927.95	3039
928.056	3138
928.162	3169
928.267	3241
928.373	3888
928.479	3306
928.585	3066
928.69	3230
928.796	3260
928.901	3161
929.007	3062
929.112	3192
929.218	3165
929.323	3135
929.428	3131
929.533	3332
929.638	3104
929.743	3192
929.848	3256
929.953	3230
930.058	3123
930.163	2952
930.267	3066
930.372	3241
930.477	3039
930.581	3302
930.685	3161
930.79	3020
930.894	3085
930.998	3112
931.103	3291
931.207	2971
931.311	2952
931.415	2887
931.519	2807
931.623	2792
