Data from test_V78500241_1042.txt Node
Date: Fri Mar 25 16:22:25 CST 2022
User: usil
Spectrometer: V785-0024
Trigger mode: 0
Integration Time (sec): 4.000000E-1
Scans to average: 1
Nonlinearity correction enabled: false
Boxcar width: 0
Storing dark spectrum: false
XAxis mode: Wavelengths
Number of Pixels in Spectrum: 1024
>>>>>Begin Spectral Data<<<<<
801.071	2910
801.214	2929
801.356	2880
801.499	2891
801.641	2864
801.783	2933
801.926	3077
802.068	2952
802.211	3009
802.353	3005
802.496	2998
802.638	3028
802.78	3058
802.923	3100
803.065	3005
803.208	2902
803.35	2906
803.492	2933
803.635	2948
803.777	2773
803.919	2849
804.061	3230
804.204	2998
804.346	2902
804.488	2842
804.63	3028
804.773	2906
804.915	2933
805.057	3116
805.199	2944
805.341	2998
805.483	3070
805.626	3028
805.768	2986
805.91	3085
806.052	3142
806.194	3024
806.336	3214
806.478	3047
806.62	2998
806.762	3009
806.904	3116
807.046	3180
807.188	3028
807.33	2960
807.472	2979
807.614	2948
807.756	3020
807.898	2971
808.04	2922
808.182	2990
808.324	2986
808.465	2922
808.607	2906
808.749	2807
808.891	2861
809.033	3024
809.174	2994
809.316	2922
809.458	2899
809.6	2777
809.741	2815
809.883	2823
810.025	2853
810.166	2887
810.308	2887
810.45	2849
810.591	2830
810.733	2819
810.875	2853
811.016	2819
811.158	2796
811.299	2842
811.441	2963
811.582	2910
811.724	2883
811.865	2842
812.007	2971
812.148	2910
812.29	2880
812.431	2948
812.573	2990
812.714	2941
812.855	3085
812.997	3127
813.138	3207
813.279	3020
813.421	3032
813.562	2956
813.703	2922
813.845	2941
813.986	2788
814.127	2750
814.268	2887
814.41	2895
814.551	2868
814.692	2906
814.833	2857
814.974	2883
815.115	2986
815.256	2853
815.397	2853
815.539	2849
815.68	2781
815.821	2804
815.962	2986
816.103	2982
816.244	2933
816.385	2899
816.526	2986
816.666	2956
816.807	2785
816.948	2918
817.089	2963
817.23	2906
817.371	2819
817.512	2830
817.653	2872
817.793	2864
817.934	2906
818.075	3001
818.216	3024
818.356	3062
818.497	2899
818.638	2857
818.778	2842
818.919	2845
819.06	2823
819.2	2899
819.341	2845
819.481	2842
819.622	2994
819.762	3138
819.903	3077
820.043	2975
820.184	2922
820.324	2914
820.465	3032
820.605	3058
820.746	3055
820.886	2994
821.026	3127
821.167	3195
821.307	3283
821.447	3287
821.588	3230
821.728	3199
821.868	3279
822.008	3093
822.149	3188
822.289	3264
822.429	3116
822.569	3116
822.709	3192
822.849	3074
822.99	3081
823.13	3222
823.27	3226
823.41	3138
823.55	3165
823.69	3176
823.83	3222
823.97	3123
824.11	3055
824.25	2994
824.389	3074
824.529	3142
824.669	3093
824.809	3222
824.949	3264
825.089	3249
825.228	3192
825.368	3013
825.508	2990
825.648	3005
825.787	3047
825.927	3036
826.067	2982
826.206	2986
826.346	3066
826.485	3104
826.625	3104
826.765	3294
826.904	3211
827.044	3036
827.183	2952
827.323	2922
827.462	2990
827.601	2963
827.741	2944
827.88	2982
828.02	2876
828.159	2975
828.298	3039
828.437	3104
828.577	3093
828.716	3268
828.855	3123
828.994	2956
829.134	2925
829.273	2944
829.412	2902
829.551	2895
829.69	2914
829.829	3005
829.968	3138
830.107	3017
830.246	3043
830.385	2944
830.524	2872
830.663	2815
830.802	2769
830.941	2693
831.08	2689
831.219	2811
831.357	2766
831.496	2960
831.635	2743
831.774	2659
831.913	2663
832.051	2568
832.19	2648
832.329	2693
832.467	2552
832.606	2511
832.744	2590
832.883	2621
833.022	2640
833.16	2701
833.299	2708
833.437	2731
833.576	2716
833.714	2735
833.852	2754
833.991	2788
834.129	2842
834.267	2868
834.406	2804
834.544	2872
834.682	2880
834.821	2895
834.959	3074
835.097	2922
835.235	3062
835.373	3013
835.511	3024
835.65	2998
835.788	2967
835.926	2872
836.064	2792
836.202	2868
836.34	3104
836.478	3142
836.615	3074
836.753	3169
836.891	3222
837.029	3173
837.167	3123
837.305	3070
837.443	3032
837.58	2982
837.718	3165
837.856	3093
837.993	3081
838.131	3123
838.269	3135
838.406	3100
838.544	3116
838.681	2952
838.819	2971
838.956	2861
839.094	2872
839.231	2960
839.369	3039
839.506	3412
839.643	3256
839.781	3047
839.918	2952
840.055	3047
840.193	3047
840.33	3108
840.467	3100
840.604	3173
840.742	3405
840.879	3123
841.016	3085
841.153	3165
841.29	3359
841.427	3336
841.564	3283
841.701	3310
841.838	3214
841.975	3188
842.112	3188
842.249	3074
842.385	3055
842.522	3237
842.659	3112
842.796	3066
842.933	3127
843.069	3028
843.206	3039
843.343	3184
843.479	3123
843.616	3161
843.752	2941
843.889	2899
844.025	3055
844.162	2910
844.298	3123
844.435	2944
844.571	2963
844.708	3108
844.844	3184
844.98	3237
845.117	3211
845.253	3066
845.389	2998
845.525	3116
845.661	3123
845.798	3085
845.934	3127
846.07	3062
846.206	3207
846.342	3355
846.478	3275
846.614	3081
846.75	3043
846.886	3055
847.022	3253
847.158	3154
847.294	3222
847.429	3230
847.565	3199
847.701	3504
847.837	3039
847.972	3005
848.108	3180
848.244	3142
848.379	2963
848.515	2956
848.65	2914
848.786	2979
848.921	3047
849.057	3142
849.192	3157
849.328	3058
849.463	3100
849.598	3055
849.734	3131
849.869	3009
850.004	2922
850.14	3009
850.275	2933
850.41	2845
850.545	2880
850.68	2937
850.815	2952
850.95	2986
851.085	3211
851.22	3108
851.355	3089
851.49	2982
851.625	3039
851.76	3039
851.895	2922
852.03	2922
852.165	3020
852.299	3165
852.434	3184
852.569	3127
852.703	3214
852.838	3253
852.973	3313
853.107	3344
853.242	3207
853.376	3089
853.511	3013
853.645	3043
853.78	3241
853.914	3154
854.048	3097
854.183	3097
854.317	3195
854.451	3302
854.585	3127
854.72	3135
854.854	3230
854.988	3047
855.122	3127
855.256	2994
855.39	3100
855.524	3253
855.658	3161
855.792	3154
855.926	3195
856.06	3233
856.194	3287
856.327	3142
856.461	3066
856.595	3081
856.729	3093
856.862	3222
856.996	3146
857.13	3214
857.263	3249
857.397	3275
857.53	3131
857.664	3214
857.797	3260
857.931	3260
858.064	3203
858.197	3218
858.331	3165
858.464	3119
858.597	3043
858.731	3142
858.864	3142
858.997	3085
859.13	3173
859.263	3135
859.396	3188
859.529	3112
859.662	3074
859.795	3081
859.928	3169
860.061	3298
860.194	3302
860.327	3154
860.46	3108
860.592	3253
860.725	3302
860.858	3264
860.99	3127
861.123	3074
861.256	3047
861.388	3146
861.521	3819
861.653	3043
861.786	3017
861.918	3001
862.05	3062
862.183	3093
862.315	3157
862.447	3222
862.58	3127
862.712	2933
862.844	2895
862.976	3036
863.108	3005
863.24	3428
863.372	2883
863.504	2971
863.636	2975
863.768	3009
863.9	3001
864.032	2914
864.164	2982
864.296	3020
864.428	3100
864.559	3089
864.691	3081
864.823	3074
864.954	3036
865.086	3070
865.217	3024
865.349	2971
865.48	2967
865.612	3005
865.743	3146
865.875	3009
866.006	2910
866.137	2971
866.269	2918
866.4	2941
866.531	2948
866.662	2887
866.793	2902
866.924	2922
867.055	2979
867.186	2914
867.317	2887
867.448	2868
867.579	2834
867.71	2849
867.841	2842
867.972	2952
868.103	2925
868.233	2895
868.364	2883
868.495	2891
868.625	3135
868.756	3154
868.886	2982
869.017	3009
869.147	3173
869.278	3195
869.408	3070
869.539	3013
869.669	3154
869.799	3036
869.929	3157
870.06	3138
870.19	3275
870.32	3294
870.45	3321
870.58	3416
870.71	3473
870.84	3477
870.97	3325
871.1	3214
871.23	3492
871.36	3466
871.489	3382
871.619	3416
871.749	3409
871.879	3447
872.008	3526
872.138	3351
872.267	3256
872.397	3150
872.526	3100
872.656	3024
872.785	3116
872.915	3218
873.044	3291
873.173	3256
873.303	3253
873.432	3279
873.561	3291
873.69	3180
873.819	3123
873.948	3203
874.077	3081
874.206	3039
874.335	3097
874.464	3207
874.593	3336
874.722	3211
874.851	3412
874.979	3321
875.108	3321
875.237	3195
875.365	3157
875.494	3146
875.623	3230
875.751	3081
875.88	3116
876.008	3211
876.136	3211
876.265	3389
876.393	3488
876.521	3431
876.65	3359
876.778	3340
876.906	3256
877.034	3211
877.162	3260
877.29	3211
877.418	3264
877.546	3268
877.674	3226
877.802	3218
877.93	3218
878.058	3169
878.185	3135
878.313	3180
878.441	3199
878.568	3062
878.696	3161
878.824	3294
878.951	3313
879.079	3504
879.206	3610
879.333	3439
879.461	3310
879.588	3351
879.715	3519
879.842	3584
879.97	3397
880.097	3207
880.224	3161
880.351	3192
880.478	3226
880.605	3226
880.732	3199
880.859	3439
880.986	3321
881.112	3321
881.239	3218
881.366	3138
881.493	3047
881.619	3013
881.746	3085
881.872	3093
881.999	3112
882.125	3127
882.252	3298
882.378	3283
882.505	3462
882.631	3268
882.757	3154
882.883	3199
883.01	3237
883.136	3146
883.262	3100
883.388	3138
883.514	3344
883.64	3367
883.766	3317
883.892	3161
884.018	3199
884.143	3409
884.269	3500
884.395	3211
884.52	3176
884.646	3165
884.772	3077
884.897	3100
885.023	3199
885.148	3313
885.274	3428
885.399	3378
885.524	3283
885.65	3272
885.775	3306
885.9	3302
886.025	3462
886.15	3370
886.275	3355
886.4	3226
886.525	3310
886.65	3264
886.775	3283
886.9	3530
887.025	3644
887.149	3401
887.274	3245
887.399	3207
887.523	3207
887.648	3184
887.773	3211
887.897	3374
888.021	3378
888.146	3340
888.27	3412
888.395	3542
888.519	3439
888.643	3462
888.767	3496
888.891	3351
889.015	3249
889.139	3302
889.263	3253
889.387	3374
889.511	3492
889.635	3477
889.759	3302
889.883	3294
890.006	3378
890.13	3477
890.254	3253
890.377	3317
890.501	3192
890.624	3176
890.748	3317
890.871	3184
890.995	3093
891.118	3047
891.241	3199
891.364	3192
891.488	3344
891.611	3184
891.734	3241
891.857	3268
891.98	3245
892.103	3340
892.226	3275
892.349	3176
892.471	3123
892.594	3264
892.717	3302
892.839	3249
892.962	3310
893.085	3374
893.207	3272
893.33	3138
893.452	3169
893.575	3317
893.697	3245
893.819	3443
893.941	3511
894.064	3435
894.186	3245
894.308	3264
894.43	3473
894.552	3549
894.674	3500
894.796	3260
894.918	3313
895.04	3317
895.161	3435
895.283	3397
895.405	3329
895.526	3363
895.648	3412
895.769	3405
895.891	3454
896.012	3481
896.134	3450
896.255	3424
896.376	3378
896.498	3355
896.619	3435
896.74	3389
896.861	3386
896.982	3698
897.103	3865
897.224	3576
897.345	3511
897.466	3424
897.587	3511
897.708	3633
897.828	3568
897.949	3439
898.07	3321
898.19	3409
898.311	3637
898.431	3454
898.552	3496
898.672	3591
898.792	3606
898.913	3576
899.033	3386
899.153	3256
899.273	3222
899.393	3272
899.513	3264
899.633	3313
899.753	3348
899.873	3332
899.993	3412
900.113	3351
900.232	3340
900.352	3355
900.472	3317
900.591	3195
900.711	3310
900.83	3237
900.95	3431
901.069	3511
901.189	3351
901.308	3161
901.427	3123
901.546	3180
901.665	3275
901.784	3344
901.904	3218
902.023	3146
902.141	3039
902.26	2922
902.379	3123
902.498	3093
902.617	3058
902.735	3214
902.854	3249
902.973	3192
903.091	3055
903.21	3070
903.328	3154
903.446	3119
903.565	3089
903.683	3184
903.801	3135
903.919	3214
904.038	3287
904.156	3180
904.274	3279
904.392	3272
904.51	3317
904.627	3340
904.745	3378
904.863	3530
904.981	3222
905.098	3157
905.216	3230
905.334	3317
905.451	3321
905.569	3325
905.686	3435
905.803	3450
905.921	3275
906.038	3416
906.155	3386
906.272	3253
906.389	3340
906.506	3230
906.623	3256
906.74	3245
906.857	3192
906.974	3237
907.091	3458
907.208	3580
907.324	3466
907.441	3424
907.557	3218
907.674	3237
907.79	3180
907.907	3275
908.023	3389
908.139	3389
908.256	3291
908.372	3401
908.488	3355
908.604	3203
908.72	3237
908.836	3302
908.952	3287
909.068	3325
909.184	3477
909.3	3374
909.415	3447
909.531	3466
909.647	3306
909.762	3283
909.878	3260
909.993	3374
910.108	3329
910.224	3329
910.339	3351
910.454	3329
910.57	3256
910.685	3272
910.8	3587
910.915	3549
911.03	3424
911.145	3279
911.259	3279
911.374	3332
911.489	3245
911.604	3203
911.718	3135
911.833	3161
911.947	3039
912.062	3005
912.176	3173
912.291	3184
912.405	3192
912.519	3454
912.633	3462
912.748	3313
912.862	3313
912.976	3157
913.09	3066
913.204	3116
913.318	3188
913.431	3336
913.545	3351
913.659	3386
913.772	3332
913.886	3218
914	3203
914.113	3405
914.226	3397
914.34	3344
914.453	3199
914.566	3412
914.68	3249
914.793	3344
914.906	3138
915.019	3135
915.132	3028
915.245	3146
915.358	3214
915.47	3218
915.583	3302
915.696	3268
915.809	3397
915.921	3397
916.034	3249
916.146	3264
916.259	3256
916.371	3386
916.483	3340
916.595	3306
916.708	3363
916.82	3313
916.932	3363
917.044	3317
917.156	3355
917.268	3249
917.38	3241
917.491	3275
917.603	3393
917.715	3428
917.826	3469
917.938	3370
918.049	3241
918.161	3443
918.272	3538
918.384	3572
918.495	3473
918.606	3291
918.717	3222
918.828	3412
918.939	3424
919.05	3275
919.161	3378
919.272	3173
919.383	3268
919.494	3466
919.604	3633
919.715	3492
919.826	3382
919.936	3469
920.047	3568
920.157	3523
920.267	3759
920.378	3633
920.488	3568
920.598	3766
920.708	3956
920.818	3838
920.928	3884
921.038	4002
921.148	4040
921.258	3720
921.368	3663
921.477	3580
921.587	3553
921.697	3439
921.806	3618
921.916	3519
922.025	3317
922.134	3359
922.244	3313
922.353	3439
922.462	3272
922.571	3211
922.68	3097
922.789	3066
922.898	3089
923.007	3097
923.116	3203
923.224	3165
923.333	3173
923.442	3070
923.55	3085
923.659	3157
923.767	3184
923.876	3150
923.984	3222
924.092	3127
924.201	3214
924.309	3241
924.417	3245
924.525	3173
924.633	3245
924.741	4207
924.849	3070
924.956	3291
925.064	3093
925.172	3051
925.279	3089
925.387	3157
925.494	3192
925.602	3367
925.709	3329
925.816	3203
925.924	3253
926.031	3397
926.138	3294
926.245	3359
926.352	3256
926.459	3412
926.566	3466
926.673	3287
926.779	3264
926.886	3211
926.993	3135
927.099	3165
927.206	3135
927.312	3104
927.419	3214
927.525	3211
927.631	3302
927.737	3173
927.843	3161
927.95	2990
928.056	3119
928.162	3195
928.267	3214
928.373	3884
928.479	3317
928.585	3097
928.69	3203
928.796	3199
928.901	3154
929.007	3055
929.112	3211
929.218	3211
929.323	3135
929.428	3150
929.533	3325
929.638	3108
929.743	3154
929.848	3272
929.953	3192
930.058	3142
930.163	3032
930.267	3070
930.372	3211
930.477	3024
930.581	3317
930.685	3165
930.79	3070
930.894	3112
930.998	3085
931.103	3283
931.207	2937
931.311	2941
931.415	2937
931.519	2739
931.623	2815
