Data from test_V78500241_1404.txt Node
Date: Fri Mar 25 16:24:55 CST 2022
User: usil
Spectrometer: V785-0024
Trigger mode: 0
Integration Time (sec): 4.000000E-1
Scans to average: 1
Nonlinearity correction enabled: false
Boxcar width: 0
Storing dark spectrum: false
XAxis mode: Wavelengths
Number of Pixels in Spectrum: 1024
>>>>>Begin Spectral Data<<<<<
801.071	2918
801.214	2990
801.356	2902
801.499	2937
801.641	2902
801.783	2952
801.926	3055
802.068	2979
802.211	3028
802.353	3062
802.496	2979
802.638	3017
802.78	3036
802.923	3074
803.065	3032
803.208	2906
803.35	2914
803.492	2963
803.635	2918
803.777	2777
803.919	2864
804.061	3233
804.204	2990
804.346	2918
804.488	2868
804.63	3017
804.773	2895
804.915	2906
805.057	3089
805.199	2963
805.341	2967
805.483	3100
805.626	3051
805.768	2990
805.91	3119
806.052	3165
806.194	3089
806.336	3207
806.478	3039
806.62	2990
806.762	2990
806.904	3077
807.046	3188
807.188	2960
807.33	2933
807.472	2994
807.614	2918
807.756	2982
807.898	2952
808.04	2906
808.182	2971
808.324	2986
808.465	2918
808.607	2864
808.749	2804
808.891	2853
809.033	3036
809.174	3020
809.316	2922
809.458	2967
809.6	2792
809.741	2819
809.883	2792
810.025	2902
810.166	2864
810.308	2899
810.45	2872
810.591	2796
810.733	2826
810.875	2853
811.016	2781
811.158	2811
811.299	2823
811.441	2986
811.582	2910
811.724	2823
811.865	2823
812.007	2902
812.148	2899
812.29	2861
812.431	2922
812.573	2986
812.714	2994
812.855	3066
812.997	3089
813.138	3192
813.279	3028
813.421	2979
813.562	2960
813.703	2868
813.845	2906
813.986	2807
814.127	2773
814.268	2842
814.41	2857
814.551	2838
814.692	2876
814.833	2864
814.974	2914
815.115	3013
815.256	2902
815.397	2849
815.539	2891
815.68	2807
815.821	2823
815.962	2982
816.103	2975
816.244	2895
816.385	2880
816.526	2982
816.666	2914
816.807	2762
816.948	2922
817.089	2918
817.23	2895
817.371	2773
817.512	2823
817.653	2826
817.793	2842
817.934	2925
818.075	2986
818.216	3039
818.356	3039
818.497	2922
818.638	2815
818.778	2845
818.919	2804
819.06	2807
819.2	2876
819.341	2842
819.481	2826
819.622	2956
819.762	3150
819.903	3097
820.043	2891
820.184	2937
820.324	2918
820.465	3055
820.605	3043
820.746	3055
820.886	2948
821.026	3116
821.167	3207
821.307	3268
821.447	3336
821.588	3230
821.728	3188
821.868	3207
822.008	3070
822.149	3173
822.289	3222
822.429	3135
822.569	3150
822.709	3169
822.849	3009
822.99	3093
823.13	3199
823.27	3222
823.41	3127
823.55	3188
823.69	3211
823.83	3222
823.97	3089
824.11	3020
824.25	2990
824.389	3089
824.529	3104
824.669	3150
824.809	3199
824.949	3260
825.089	3256
825.228	3176
825.368	3013
825.508	2960
825.648	2971
825.787	3051
825.927	3017
826.067	3024
826.206	3013
826.346	3077
826.485	3051
826.625	3131
826.765	3233
826.904	3214
827.044	2979
827.183	2956
827.323	2876
827.462	2979
827.601	2906
827.741	2941
827.88	2937
828.02	2834
828.159	2971
828.298	3017
828.437	3138
828.577	3074
828.716	3245
828.855	3097
828.994	2944
829.134	2918
829.273	2937
829.412	2868
829.551	2883
829.69	2918
829.829	2982
829.968	3135
830.107	3020
830.246	3028
830.385	2944
830.524	2906
830.663	2819
830.802	2750
830.941	2693
831.08	2659
831.219	2800
831.357	2785
831.496	2998
831.635	2712
831.774	2670
831.913	2674
832.051	2571
832.19	2621
832.329	2701
832.467	2564
832.606	2503
832.744	2594
832.883	2575
833.022	2598
833.16	2674
833.299	2701
833.437	2735
833.576	2735
833.714	2758
833.852	2769
833.991	2796
834.129	2861
834.267	2830
834.406	2811
834.544	2857
834.682	2902
834.821	2872
834.959	3051
835.097	2910
835.235	3074
835.373	2979
835.511	3009
835.65	2986
835.788	2948
835.926	2845
836.064	2853
836.202	2864
836.34	3104
836.478	3176
836.615	3074
836.753	3112
836.891	3230
837.029	3173
837.167	3116
837.305	3077
837.443	3108
837.58	2971
837.718	3154
837.856	3085
837.993	3013
838.131	3127
838.269	3123
838.406	3138
838.544	3055
838.681	2941
838.819	2937
838.956	2842
839.094	2861
839.231	2902
839.369	3043
839.506	3401
839.643	3264
839.781	3028
839.918	3001
840.055	3070
840.193	3108
840.33	3043
840.467	3123
840.604	3150
840.742	3443
840.879	3077
841.016	3043
841.153	3108
841.29	3340
841.427	3325
841.564	3317
841.701	3325
841.838	3207
841.975	3184
842.112	3264
842.249	3097
842.385	3104
842.522	3294
842.659	3093
842.796	3089
842.933	3150
843.069	3051
843.206	3032
843.343	3199
843.479	3100
843.616	3150
843.752	2891
843.889	2887
844.025	3062
844.162	2918
844.298	3135
844.435	2952
844.571	2941
844.708	3074
844.844	3218
844.98	3245
845.117	3211
845.253	3058
845.389	3005
845.525	3119
845.661	3085
845.798	3024
845.934	3131
846.07	3116
846.206	3203
846.342	3298
846.478	3264
846.614	3058
846.75	3047
846.886	3024
847.022	3253
847.158	3180
847.294	3195
847.429	3211
847.565	3192
847.701	3500
847.837	3043
847.972	2994
848.108	3169
848.244	3131
848.379	3024
848.515	2944
848.65	2937
848.786	2963
848.921	2971
849.057	3077
849.192	3150
849.328	3074
849.463	3142
849.598	3043
849.734	3081
849.869	3005
850.004	2887
850.14	2952
850.275	2910
850.41	2811
850.545	2895
850.68	2944
850.815	2963
850.95	2994
851.085	3211
851.22	3165
851.355	3020
851.49	2994
851.625	3017
851.76	3036
851.895	2922
852.03	2918
852.165	3036
852.299	3112
852.434	3173
852.569	3108
852.703	3169
852.838	3256
852.973	3344
853.107	3313
853.242	3138
853.376	3081
853.511	2986
853.645	3032
853.78	3245
853.914	3127
854.048	3131
854.183	3097
854.317	3150
854.451	3291
854.585	3146
854.72	3108
854.854	3203
854.988	3058
855.122	3104
855.256	2982
855.39	3100
855.524	3241
855.658	3192
855.792	3176
855.926	3188
856.06	3253
856.194	3268
856.327	3161
856.461	3077
856.595	3131
856.729	3108
856.862	3245
856.996	3135
857.13	3222
857.263	3218
857.397	3249
857.53	3127
857.664	3203
857.797	3245
857.931	3279
858.064	3165
858.197	3214
858.331	3150
858.464	3127
858.597	3005
858.731	3112
858.864	3119
858.997	3058
859.13	3161
859.263	3146
859.396	3188
859.529	3093
859.662	3081
859.795	3085
859.928	3150
860.061	3279
860.194	3298
860.327	3146
860.46	3097
860.592	3237
860.725	3230
860.858	3222
860.99	3100
861.123	3089
861.256	3024
861.388	3108
861.521	3766
861.653	2990
861.786	2979
861.918	2994
862.05	3047
862.183	3089
862.315	3131
862.447	3195
862.58	3104
862.712	2982
862.844	2861
862.976	3024
863.108	3024
863.24	3287
863.372	2910
863.504	2937
863.636	2963
863.768	3047
863.9	3009
864.032	2899
864.164	2937
864.296	3028
864.428	3100
864.559	3093
864.691	3093
864.823	3093
864.954	3028
865.086	3066
865.217	3028
865.349	2952
865.48	3024
865.612	3020
865.743	3169
865.875	2982
866.006	2925
866.137	2941
866.269	2967
866.4	2941
866.531	2948
866.662	2902
866.793	2933
866.924	2899
867.055	2979
867.186	2910
867.317	2891
867.448	2853
867.579	2868
867.71	2853
867.841	2811
867.972	2902
868.103	2902
868.233	2887
868.364	2868
868.495	2891
868.625	3100
868.756	3154
868.886	2971
869.017	2994
869.147	3173
869.278	3135
869.408	3032
869.539	3036
869.669	3119
869.799	3039
869.929	3146
870.06	3112
870.19	3325
870.32	3275
870.45	3275
870.58	3363
870.71	3458
870.84	3412
870.97	3287
871.1	3260
871.23	3500
871.36	3435
871.489	3359
871.619	3420
871.749	3458
871.879	3435
872.008	3515
872.138	3348
872.267	3249
872.397	3138
872.526	3097
872.656	2994
872.785	3127
872.915	3275
873.044	3336
873.173	3230
873.303	3203
873.432	3230
873.561	3214
873.69	3131
873.819	3116
873.948	3211
874.077	3161
874.206	3032
874.335	3100
874.464	3203
874.593	3310
874.722	3249
874.851	3389
874.979	3329
875.108	3325
875.237	3211
875.365	3127
875.494	3195
875.623	3260
875.751	3058
875.88	3104
876.008	3173
876.136	3241
876.265	3355
876.393	3526
876.521	3412
876.65	3420
876.778	3336
876.906	3245
877.034	3184
877.162	3222
877.29	3211
877.418	3233
877.546	3230
877.674	3233
877.802	3192
877.93	3256
878.058	3142
878.185	3127
878.313	3222
878.441	3199
878.568	3055
878.696	3157
878.824	3249
878.951	3317
879.079	3469
879.206	3610
879.333	3416
879.461	3336
879.588	3378
879.715	3466
879.842	3591
879.97	3420
880.097	3180
880.224	3127
880.351	3199
880.478	3211
880.605	3199
880.732	3173
880.859	3492
880.986	3332
881.112	3363
881.239	3188
881.366	3097
881.493	3055
881.619	3028
881.746	3062
881.872	3051
881.999	3097
882.125	3131
882.252	3203
882.378	3332
882.505	3454
882.631	3336
882.757	3157
882.883	3211
883.01	3233
883.136	3135
883.262	3108
883.388	3100
883.514	3325
883.64	3363
883.766	3264
883.892	3180
884.018	3218
884.143	3420
884.269	3523
884.395	3218
884.52	3154
884.646	3226
884.772	3146
884.897	3119
885.023	3173
885.148	3336
885.274	3370
885.399	3405
885.524	3237
885.65	3291
885.775	3283
885.9	3283
886.025	3424
886.15	3344
886.275	3310
886.4	3218
886.525	3264
886.65	3264
886.775	3306
886.9	3466
887.025	3576
887.149	3420
887.274	3245
887.399	3154
887.523	3165
887.648	3203
887.773	3218
887.897	3359
888.021	3409
888.146	3233
888.27	3443
888.395	3511
888.519	3409
888.643	3450
888.767	3473
888.891	3279
889.015	3241
889.139	3294
889.263	3260
889.387	3401
889.511	3542
889.635	3462
889.759	3283
889.883	3306
890.006	3344
890.13	3450
890.254	3268
890.377	3374
890.501	3237
890.624	3184
890.748	3306
890.871	3180
890.995	3131
891.118	3047
891.241	3169
891.364	3192
891.488	3287
891.611	3199
891.734	3226
891.857	3283
891.98	3260
892.103	3329
892.226	3298
892.349	3233
892.471	3135
892.594	3264
892.717	3294
892.839	3256
892.962	3279
893.085	3363
893.207	3291
893.33	3138
893.452	3207
893.575	3306
893.697	3241
893.819	3435
893.941	3534
894.064	3447
894.186	3264
894.308	3237
894.43	3462
894.552	3538
894.674	3477
894.796	3233
894.918	3321
895.04	3245
895.161	3435
895.283	3386
895.405	3294
895.526	3382
895.648	3416
895.769	3450
895.891	3428
896.012	3477
896.134	3420
896.255	3389
896.376	3397
896.498	3374
896.619	3469
896.74	3363
896.861	3386
896.982	3698
897.103	3838
897.224	3580
897.345	3485
897.466	3458
897.587	3504
897.708	3614
897.828	3542
897.949	3401
898.07	3310
898.19	3439
898.311	3610
898.431	3450
898.552	3511
898.672	3603
898.792	3557
898.913	3538
899.033	3477
899.153	3291
899.273	3230
899.393	3222
899.513	3325
899.633	3344
899.753	3283
899.873	3325
899.993	3393
900.113	3313
900.232	3389
900.352	3321
900.472	3264
900.591	3180
900.711	3298
900.83	3211
900.95	3416
901.069	3473
901.189	3355
901.308	3176
901.427	3116
901.546	3188
901.665	3249
901.784	3340
901.904	3237
902.023	3146
902.141	3043
902.26	2963
902.379	3169
902.498	3051
902.617	3066
902.735	3192
902.854	3214
902.973	3203
903.091	3039
903.21	3058
903.328	3157
903.446	3135
903.565	3100
903.683	3195
903.801	3169
903.919	3249
904.038	3313
904.156	3173
904.274	3298
904.392	3245
904.51	3287
904.627	3313
904.745	3435
904.863	3488
904.981	3230
905.098	3161
905.216	3199
905.334	3268
905.451	3302
905.569	3306
905.686	3424
905.803	3439
905.921	3306
906.038	3431
906.155	3378
906.272	3275
906.389	3329
906.506	3237
906.623	3241
906.74	3253
906.857	3161
906.974	3260
907.091	3447
907.208	3587
907.324	3481
907.441	3397
907.557	3260
907.674	3264
907.79	3214
907.907	3294
908.023	3393
908.139	3409
908.256	3340
908.372	3382
908.488	3348
908.604	3279
908.72	3230
908.836	3313
908.952	3241
909.068	3317
909.184	3488
909.3	3370
909.415	3496
909.531	3473
909.647	3256
909.762	3260
909.878	3214
909.993	3340
910.108	3370
910.224	3344
910.339	3401
910.454	3329
910.57	3287
910.685	3283
910.8	3610
910.915	3561
911.03	3412
911.145	3249
911.259	3279
911.374	3298
911.489	3253
911.604	3230
911.718	3135
911.833	3127
911.947	3020
912.062	2944
912.176	3169
912.291	3211
912.405	3207
912.519	3393
912.633	3458
912.748	3321
912.862	3260
912.976	3188
913.09	3051
913.204	3131
913.318	3230
913.431	3321
913.545	3355
913.659	3374
913.772	3332
913.886	3241
914	3207
914.113	3310
914.226	3367
914.34	3389
914.453	3195
914.566	3424
914.68	3317
914.793	3306
914.906	3123
915.019	3100
915.132	3070
915.245	3218
915.358	3195
915.47	3230
915.583	3230
915.696	3294
915.809	3355
915.921	3435
916.034	3245
916.146	3268
916.259	3222
916.371	3370
916.483	3340
916.595	3245
916.708	3348
916.82	3363
916.932	3370
917.044	3363
917.156	3310
917.268	3230
917.38	3306
917.491	3294
917.603	3363
917.715	3443
917.826	3454
917.938	3344
918.049	3237
918.161	3443
918.272	3603
918.384	3557
918.495	3458
918.606	3344
918.717	3306
918.828	3374
918.939	3428
919.05	3306
919.161	3359
919.272	3180
919.383	3283
919.494	3507
919.604	3686
919.715	3481
919.826	3374
919.936	3428
920.047	3561
920.157	3526
920.267	3766
920.378	3584
920.488	3576
920.598	3781
920.708	3975
920.818	3789
920.928	3838
921.038	4044
921.148	3983
921.258	3701
921.368	3618
921.477	3603
921.587	3519
921.697	3420
921.806	3580
921.916	3534
922.025	3321
922.134	3321
922.244	3310
922.353	3393
922.462	3256
922.571	3184
922.68	3097
922.789	3104
922.898	3051
923.007	3100
923.116	3195
923.224	3138
923.333	3176
923.442	3085
923.55	3097
923.659	3119
923.767	3237
923.876	3116
923.984	3260
924.092	3074
924.201	3188
924.309	3256
924.417	3260
924.525	3214
924.633	3256
924.741	4006
924.849	3085
924.956	3241
925.064	3097
925.172	3062
925.279	3051
925.387	3188
925.494	3199
925.602	3359
925.709	3310
925.816	3180
925.924	3272
926.031	3389
926.138	3359
926.245	3348
926.352	3241
926.459	3416
926.566	3447
926.673	3275
926.779	3222
926.886	3218
926.993	3157
927.099	3150
927.206	3074
927.312	3119
927.419	3237
927.525	3222
927.631	3253
927.737	3131
927.843	3123
927.95	3036
928.056	3127
928.162	3165
928.267	3241
928.373	3884
928.479	3306
928.585	3055
928.69	3211
928.796	3294
928.901	3203
929.007	3066
929.112	3195
929.218	3161
929.323	3180
929.428	3146
929.533	3310
929.638	3112
929.743	3157
929.848	3218
929.953	3165
930.058	3135
930.163	3001
930.267	3051
930.372	3180
930.477	3066
930.581	3268
930.685	3180
930.79	3081
930.894	3100
930.998	3108
931.103	3260
931.207	2910
931.311	2937
931.415	2929
931.519	2750
931.623	2785
