Data from test_V78500241_1399.txt Node
Date: Fri Mar 25 16:24:53 CST 2022
User: usil
Spectrometer: V785-0024
Trigger mode: 0
Integration Time (sec): 4.000000E-1
Scans to average: 1
Nonlinearity correction enabled: false
Boxcar width: 0
Storing dark spectrum: false
XAxis mode: Wavelengths
Number of Pixels in Spectrum: 1024
>>>>>Begin Spectral Data<<<<<
801.071	2887
801.214	2922
801.356	2887
801.499	2891
801.641	2861
801.783	2918
801.926	3051
802.068	2998
802.211	2971
802.353	3077
802.496	2937
802.638	2960
802.78	3043
802.923	3047
803.065	2979
803.208	2887
803.35	2914
803.492	2952
803.635	2914
803.777	2750
803.919	2861
804.061	3214
804.204	2952
804.346	2902
804.488	2838
804.63	2971
804.773	2861
804.915	2937
805.057	3077
805.199	2922
805.341	2960
805.483	3066
805.626	3001
805.768	2941
805.91	3085
806.052	3112
806.194	3039
806.336	3211
806.478	2979
806.62	2948
806.762	2979
806.904	3039
807.046	3161
807.188	2998
807.33	2910
807.472	2979
807.614	2895
807.756	2998
807.898	2922
808.04	2872
808.182	2960
808.324	2956
808.465	2868
808.607	2868
808.749	2788
808.891	2849
809.033	2956
809.174	3013
809.316	2891
809.458	2899
809.6	2739
809.741	2781
809.883	2762
810.025	2861
810.166	2853
810.308	2823
810.45	2834
810.591	2773
810.733	2727
810.875	2834
811.016	2773
811.158	2762
811.299	2785
811.441	2922
811.582	2910
811.724	2842
811.865	2819
812.007	2887
812.148	2906
812.29	2845
812.431	2880
812.573	2956
812.714	2952
812.855	3043
812.997	3032
813.138	3119
813.279	2967
813.421	2975
813.562	2998
813.703	2857
813.845	2891
813.986	2777
814.127	2735
814.268	2811
814.41	2826
814.551	2811
814.692	2864
814.833	2845
814.974	2887
815.115	2967
815.256	2826
815.397	2800
815.539	2876
815.68	2792
815.821	2773
815.962	2922
816.103	2941
816.244	2849
816.385	2902
816.526	2952
816.666	2910
816.807	2754
816.948	2891
817.089	2895
817.23	2861
817.371	2754
817.512	2792
817.653	2842
817.793	2804
817.934	2857
818.075	2971
818.216	2982
818.356	2998
818.497	2864
818.638	2830
818.778	2834
818.919	2807
819.06	2769
819.2	2891
819.341	2800
819.481	2826
819.622	2906
819.762	3062
819.903	3028
820.043	2887
820.184	2883
820.324	2861
820.465	3013
820.605	3013
820.746	2998
820.886	2956
821.026	3074
821.167	3173
821.307	3256
821.447	3268
821.588	3226
821.728	3165
821.868	3211
822.008	3074
822.149	3207
822.289	3218
822.429	3070
822.569	3081
822.709	3127
822.849	3001
822.99	3085
823.13	3135
823.27	3184
823.41	3154
823.55	3116
823.69	3146
823.83	3188
823.97	3077
824.11	3009
824.25	3013
824.389	3074
824.529	3127
824.669	3085
824.809	3218
824.949	3272
825.089	3218
825.228	3180
825.368	2990
825.508	2994
825.648	2956
825.787	3047
825.927	3043
826.067	2941
826.206	2929
826.346	3074
826.485	3081
826.625	3081
826.765	3253
826.904	3203
827.044	3020
827.183	2944
827.323	2857
827.462	3001
827.601	2891
827.741	2925
827.88	2944
828.02	2842
828.159	2963
828.298	3005
828.437	3123
828.577	3062
828.716	3218
828.855	3070
828.994	2933
829.134	2899
829.273	2899
829.412	2861
829.551	2853
829.69	2914
829.829	2994
829.968	3131
830.107	3032
830.246	2994
830.385	2910
830.524	2864
830.663	2811
830.802	2724
830.941	2640
831.08	2606
831.219	2743
831.357	2689
831.496	2944
831.635	2697
831.774	2655
831.913	2651
832.051	2556
832.19	2564
832.329	2670
832.467	2537
832.606	2476
832.744	2568
832.883	2530
833.022	2564
833.16	2632
833.299	2689
833.437	2663
833.576	2712
833.714	2716
833.852	2670
833.991	2727
834.129	2815
834.267	2823
834.406	2758
834.544	2842
834.682	2830
834.821	2861
834.959	3070
835.097	2853
835.235	3047
835.373	2960
835.511	3047
835.65	2963
835.788	2941
835.926	2811
836.064	2838
836.202	2826
836.34	3070
836.478	3150
836.615	3024
836.753	3093
836.891	3192
837.029	3146
837.167	3108
837.305	3062
837.443	3024
837.58	2956
837.718	3123
837.856	3039
837.993	3017
838.131	3108
838.269	3127
838.406	3108
838.544	3055
838.681	2929
838.819	2929
838.956	2811
839.094	2861
839.231	2895
839.369	2986
839.506	3344
839.643	3233
839.781	2963
839.918	2971
840.055	3066
840.193	3028
840.33	3043
840.467	3081
840.604	3116
840.742	3389
840.879	3036
841.016	3051
841.153	3116
841.29	3336
841.427	3272
841.564	3279
841.701	3317
841.838	3203
841.975	3146
842.112	3203
842.249	3089
842.385	3077
842.522	3291
842.659	3108
842.796	3074
842.933	3081
843.069	3051
843.206	3043
843.343	3142
843.479	3074
843.616	3127
843.752	2918
843.889	2891
844.025	3055
844.162	2902
844.298	3077
844.435	2918
844.571	2910
844.708	3051
844.844	3165
844.98	3218
845.117	3173
845.253	3047
845.389	3009
845.525	3097
845.661	3081
845.798	3009
845.934	3138
846.07	3058
846.206	3211
846.342	3306
846.478	3211
846.614	3104
846.75	3062
846.886	2982
847.022	3245
847.158	3150
847.294	3173
847.429	3226
847.565	3195
847.701	3473
847.837	3009
847.972	2986
848.108	3112
848.244	3142
848.379	2986
848.515	2929
848.65	2929
848.786	2979
848.921	2986
849.057	3100
849.192	3146
849.328	3066
849.463	3089
849.598	3058
849.734	3039
849.869	2990
850.004	2902
850.14	2998
850.275	2914
850.41	2838
850.545	2838
850.68	2929
850.815	2944
850.95	2967
851.085	3203
851.22	3085
851.355	3047
851.49	2967
851.625	3024
851.76	2994
851.895	2933
852.03	2918
852.165	3024
852.299	3100
852.434	3203
852.569	3123
852.703	3184
852.838	3218
852.973	3321
853.107	3367
853.242	3123
853.376	3097
853.511	2944
853.645	3020
853.78	3237
853.914	3089
854.048	3089
854.183	3093
854.317	3169
854.451	3256
854.585	3119
854.72	3066
854.854	3199
854.988	3039
855.122	3039
855.256	2937
855.39	3100
855.524	3222
855.658	3169
855.792	3108
855.926	3184
856.06	3218
856.194	3275
856.327	3154
856.461	3036
856.595	3081
856.729	3062
856.862	3218
856.996	3138
857.13	3203
857.263	3233
857.397	3279
857.53	3104
857.664	3173
857.797	3226
857.931	3203
858.064	3169
858.197	3207
858.331	3161
858.464	3074
858.597	2979
858.731	3123
858.864	3100
858.997	3093
859.13	3116
859.263	3146
859.396	3211
859.529	3062
859.662	3066
859.795	3066
859.928	3135
860.061	3264
860.194	3310
860.327	3157
860.46	3119
860.592	3192
860.725	3253
860.858	3241
860.99	3097
861.123	3032
861.256	3043
861.388	3135
861.521	3774
861.653	2994
861.786	2967
861.918	2986
862.05	3051
862.183	3062
862.315	3142
862.447	3218
862.58	3108
862.712	2895
862.844	2895
862.976	3017
863.108	3005
863.24	3272
863.372	2902
863.504	2948
863.636	2925
863.768	2990
863.9	2963
864.032	2872
864.164	2929
864.296	3017
864.428	3093
864.559	3104
864.691	3112
864.823	3058
864.954	3017
865.086	3013
865.217	2956
865.349	2952
865.48	2963
865.612	3036
865.743	3157
865.875	2975
866.006	2952
866.137	2960
866.269	2952
866.4	2937
866.531	2902
866.662	2872
866.793	2853
866.924	2880
867.055	2952
867.186	2925
867.317	2880
867.448	2842
867.579	2823
867.71	2830
867.841	2830
867.972	2876
868.103	2891
868.233	2830
868.364	2864
868.495	2842
868.625	3081
868.756	3123
868.886	2967
869.017	3024
869.147	3154
869.278	3150
869.408	3039
869.539	3024
869.669	3074
869.799	3020
869.929	3138
870.06	3104
870.19	3317
870.32	3260
870.45	3298
870.58	3348
870.71	3443
870.84	3420
870.97	3275
871.1	3283
871.23	3511
871.36	3435
871.489	3348
871.619	3412
871.749	3374
871.879	3469
872.008	3462
872.138	3363
872.267	3283
872.397	3112
872.526	3104
872.656	2994
872.785	3116
872.915	3195
873.044	3294
873.173	3203
873.303	3237
873.432	3218
873.561	3230
873.69	3154
873.819	3142
873.948	3184
874.077	3055
874.206	3070
874.335	3085
874.464	3237
874.593	3344
874.722	3245
874.851	3382
874.979	3317
875.108	3291
875.237	3169
875.365	3173
875.494	3150
875.623	3249
875.751	3081
875.88	3108
876.008	3150
876.136	3184
876.265	3374
876.393	3500
876.521	3393
876.65	3416
876.778	3298
876.906	3260
877.034	3165
877.162	3268
877.29	3169
877.418	3249
877.546	3241
877.674	3245
877.802	3256
877.93	3233
878.058	3142
878.185	3085
878.313	3169
878.441	3211
878.568	3043
878.696	3138
878.824	3241
878.951	3264
879.079	3450
879.206	3572
879.333	3439
879.461	3275
879.588	3325
879.715	3462
879.842	3606
879.97	3378
880.097	3131
880.224	3081
880.351	3188
880.478	3207
880.605	3176
880.732	3161
880.859	3496
880.986	3275
881.112	3287
881.239	3180
881.366	3081
881.493	3013
881.619	3009
881.746	3039
881.872	3077
881.999	3104
882.125	3127
882.252	3195
882.378	3298
882.505	3405
882.631	3291
882.757	3165
882.883	3195
883.01	3169
883.136	3142
883.262	3062
883.388	3116
883.514	3321
883.64	3382
883.766	3287
883.892	3207
884.018	3211
884.143	3386
884.269	3580
884.395	3218
884.52	3176
884.646	3192
884.772	3119
884.897	3085
885.023	3207
885.148	3313
885.274	3416
885.399	3348
885.524	3260
885.65	3245
885.775	3294
885.9	3249
886.025	3412
886.15	3348
886.275	3294
886.4	3245
886.525	3310
886.65	3249
886.775	3256
886.9	3492
887.025	3606
887.149	3382
887.274	3218
887.399	3116
887.523	3180
887.648	3165
887.773	3218
887.897	3355
888.021	3355
888.146	3344
888.27	3424
888.395	3534
888.519	3435
888.643	3397
888.767	3412
888.891	3287
889.015	3237
889.139	3264
889.263	3218
889.387	3393
889.511	3485
889.635	3485
889.759	3291
889.883	3302
890.006	3378
890.13	3466
890.254	3260
890.377	3329
890.501	3195
890.624	3184
890.748	3325
890.871	3176
890.995	3051
891.118	3039
891.241	3214
891.364	3233
891.488	3332
891.611	3176
891.734	3237
891.857	3279
891.98	3218
892.103	3310
892.226	3264
892.349	3214
892.471	3104
892.594	3214
892.717	3233
892.839	3279
892.962	3260
893.085	3374
893.207	3291
893.33	3119
893.452	3165
893.575	3359
893.697	3245
893.819	3447
893.941	3500
894.064	3454
894.186	3275
894.308	3283
894.43	3416
894.552	3538
894.674	3473
894.796	3317
894.918	3317
895.04	3275
895.161	3393
895.283	3412
895.405	3306
895.526	3351
895.648	3428
895.769	3420
895.891	3424
896.012	3473
896.134	3443
896.255	3386
896.376	3340
896.498	3355
896.619	3401
896.74	3363
896.861	3409
896.982	3686
897.103	3823
897.224	3564
897.345	3507
897.466	3397
897.587	3488
897.708	3633
897.828	3564
897.949	3397
898.07	3325
898.19	3420
898.311	3580
898.431	3450
898.552	3526
898.672	3542
898.792	3576
898.913	3511
899.033	3420
899.153	3294
899.273	3188
899.393	3264
899.513	3302
899.633	3298
899.753	3351
899.873	3264
899.993	3363
900.113	3329
900.232	3405
900.352	3325
900.472	3275
900.591	3161
900.711	3279
900.83	3188
900.95	3374
901.069	3504
901.189	3370
901.308	3176
901.427	3116
901.546	3184
901.665	3268
901.784	3306
901.904	3161
902.023	3169
902.141	3005
902.26	3047
902.379	3142
902.498	3100
902.617	3039
902.735	3211
902.854	3222
902.973	3154
903.091	3043
903.21	3036
903.328	3100
903.446	3089
903.565	3100
903.683	3222
903.801	3119
903.919	3241
904.038	3249
904.156	3173
904.274	3321
904.392	3237
904.51	3279
904.627	3317
904.745	3481
904.863	3523
904.981	3230
905.098	3169
905.216	3264
905.334	3249
905.451	3222
905.569	3321
905.686	3420
905.803	3397
905.921	3287
906.038	3424
906.155	3340
906.272	3211
906.389	3313
906.506	3207
906.623	3253
906.74	3253
906.857	3222
906.974	3253
907.091	3416
907.208	3519
907.324	3439
907.441	3378
907.557	3214
907.674	3230
907.79	3180
907.907	3256
908.023	3359
908.139	3348
908.256	3329
908.372	3351
908.488	3355
908.604	3203
908.72	3207
908.836	3249
908.952	3256
909.068	3279
909.184	3469
909.3	3424
909.415	3466
909.531	3431
909.647	3264
909.762	3264
909.878	3249
909.993	3374
910.108	3351
910.224	3294
910.339	3405
910.454	3279
910.57	3306
910.685	3237
910.8	3603
910.915	3519
911.03	3420
911.145	3214
911.259	3253
911.374	3283
911.489	3275
911.604	3207
911.718	3112
911.833	3150
911.947	2994
912.062	2956
912.176	3157
912.291	3226
912.405	3180
912.519	3443
912.633	3447
912.748	3325
912.862	3298
912.976	3150
913.09	3058
913.204	3161
913.318	3214
913.431	3340
913.545	3367
913.659	3386
913.772	3351
913.886	3230
914	3188
914.113	3336
914.226	3454
914.34	3382
914.453	3211
914.566	3473
914.68	3249
914.793	3336
914.906	3184
915.019	3146
915.132	3093
915.245	3218
915.358	3199
915.47	3275
915.583	3279
915.696	3336
915.809	3405
915.921	3462
916.034	3275
916.146	3260
916.259	3268
916.371	3412
916.483	3439
916.595	3306
916.708	3389
916.82	3355
916.932	3389
917.044	3405
917.156	3389
917.268	3298
917.38	3321
917.491	3294
917.603	3435
917.715	3466
917.826	3511
917.938	3382
918.049	3348
918.161	3466
918.272	3603
918.384	3633
918.495	3523
918.606	3370
918.717	3294
918.828	3447
918.939	3458
919.05	3321
919.161	3386
919.272	3211
919.383	3370
919.494	3507
919.604	3724
919.715	3507
919.826	3443
919.936	3477
920.047	3637
920.157	3576
920.267	3770
920.378	3648
920.488	3606
920.598	3808
920.708	3994
920.818	3808
920.928	3850
921.038	4078
921.148	4032
921.258	3789
921.368	3675
921.477	3603
921.587	3545
921.697	3507
921.806	3690
921.916	3549
922.025	3386
922.134	3386
922.244	3359
922.353	3435
922.462	3310
922.571	3268
922.68	3119
922.789	3085
922.898	3180
923.007	3150
923.116	3226
923.224	3203
923.333	3199
923.442	3142
923.55	3119
923.659	3199
923.767	3230
923.876	3150
923.984	3279
924.092	3127
924.201	3230
924.309	3245
924.417	3249
924.525	3253
924.633	3256
924.741	4048
924.849	3112
924.956	3302
925.064	3157
925.172	3085
925.279	3119
925.387	3268
925.494	3203
925.602	3382
925.709	3382
925.816	3214
925.924	3313
926.031	3393
926.138	3340
926.245	3431
926.352	3256
926.459	3485
926.566	3485
926.673	3374
926.779	3298
926.886	3287
926.993	3123
927.099	3157
927.206	3116
927.312	3165
927.419	3283
927.525	3268
927.631	3321
927.737	3154
927.843	3119
927.95	3093
928.056	3169
928.162	3222
928.267	3287
928.373	3896
928.479	3348
928.585	3100
928.69	3237
928.796	3294
928.901	3188
929.007	3066
929.112	3218
929.218	3214
929.323	3127
929.428	3154
929.533	3306
929.638	3127
929.743	3230
929.848	3298
929.953	3233
930.058	3146
930.163	3043
930.267	3108
930.372	3180
930.477	3062
930.581	3348
930.685	3256
930.79	3077
930.894	3146
930.998	3161
931.103	3298
931.207	3001
931.311	2975
931.415	2933
931.519	2804
931.623	2857
