Data from test_V78500241_1411.txt Node
Date: Fri Mar 25 16:24:58 CST 2022
User: usil
Spectrometer: V785-0024
Trigger mode: 0
Integration Time (sec): 4.000000E-1
Scans to average: 1
Nonlinearity correction enabled: false
Boxcar width: 0
Storing dark spectrum: false
XAxis mode: Wavelengths
Number of Pixels in Spectrum: 1024
>>>>>Begin Spectral Data<<<<<
801.071	2929
801.214	2971
801.356	2906
801.499	2925
801.641	2910
801.783	2967
801.926	3081
802.068	3009
802.211	3009
802.353	3085
802.496	3017
802.638	3028
802.78	3032
802.923	3093
803.065	3013
803.208	2914
803.35	2944
803.492	2967
803.635	2963
803.777	2792
803.919	2883
804.061	3237
804.204	2952
804.346	2937
804.488	2842
804.63	3001
804.773	2922
804.915	2929
805.057	3081
805.199	2952
805.341	2971
805.483	3020
805.626	3005
805.768	3009
805.91	3081
806.052	3138
806.194	3039
806.336	3272
806.478	3062
806.62	2941
806.762	2982
806.904	3085
807.046	3188
807.188	3009
807.33	2956
807.472	3024
807.614	2933
807.756	2998
807.898	2937
808.04	2918
808.182	2990
808.324	2971
808.465	2906
808.607	2868
808.749	2804
808.891	2868
809.033	2967
809.174	2967
809.316	2906
809.458	2891
809.6	2796
809.741	2773
809.883	2796
810.025	2845
810.166	2872
810.308	2887
810.45	2861
810.591	2777
810.733	2777
810.875	2834
811.016	2800
811.158	2746
811.299	2815
811.441	2944
811.582	2922
811.724	2830
811.865	2864
812.007	2967
812.148	2864
812.29	2861
812.431	2876
812.573	2937
812.714	2956
812.855	3074
812.997	3093
813.138	3104
813.279	2998
813.421	2994
813.562	2994
813.703	2876
813.845	2891
813.986	2762
814.127	2750
814.268	2861
814.41	2845
814.551	2842
814.692	2895
814.833	2842
814.974	2918
815.115	2982
815.256	2849
815.397	2826
815.539	2857
815.68	2788
815.821	2815
815.962	2914
816.103	2941
816.244	2895
816.385	2857
816.526	2956
816.666	2952
816.807	2781
816.948	2853
817.089	2933
817.23	2864
817.371	2804
817.512	2834
817.653	2861
817.793	2826
817.934	2883
818.075	2982
818.216	3020
818.356	3028
818.497	2891
818.638	2804
818.778	2819
818.919	2754
819.06	2766
819.2	2918
819.341	2811
819.481	2811
819.622	2910
819.762	3119
819.903	3043
820.043	2944
820.184	2887
820.324	2941
820.465	3024
820.605	3047
820.746	3043
820.886	2941
821.026	3127
821.167	3199
821.307	3218
821.447	3264
821.588	3195
821.728	3233
821.868	3188
822.008	3077
822.149	3199
822.289	3237
822.429	3123
822.569	3108
822.709	3237
822.849	3074
822.99	3062
823.13	3135
823.27	3222
823.41	3154
823.55	3169
823.69	3192
823.83	3161
823.97	3127
824.11	3001
824.25	2990
824.389	3066
824.529	3119
824.669	3058
824.809	3218
824.949	3230
825.089	3176
825.228	3146
825.368	3028
825.508	2990
825.648	2963
825.787	3013
825.927	3051
826.067	2986
826.206	2952
826.346	3047
826.485	3081
826.625	3108
826.765	3272
826.904	3203
827.044	3009
827.183	2952
827.323	2883
827.462	2994
827.601	2937
827.741	2933
827.88	2967
828.02	2876
828.159	2944
828.298	3036
828.437	3123
828.577	3062
828.716	3260
828.855	3108
828.994	2948
829.134	2883
829.273	2925
829.412	2861
829.551	2887
829.69	2918
829.829	2975
829.968	3112
830.107	3055
830.246	3032
830.385	2922
830.524	2868
830.663	2857
830.802	2769
830.941	2659
831.08	2648
831.219	2815
831.357	2785
831.496	2941
831.635	2720
831.774	2674
831.913	2693
832.051	2549
832.19	2606
832.329	2693
832.467	2537
832.606	2492
832.744	2590
832.883	2610
833.022	2590
833.16	2651
833.299	2716
833.437	2701
833.576	2693
833.714	2724
833.852	2762
833.991	2781
834.129	2883
834.267	2815
834.406	2804
834.544	2864
834.682	2887
834.821	2925
834.959	3070
835.097	2933
835.235	3089
835.373	2982
835.511	3005
835.65	2979
835.788	2956
835.926	2830
836.064	2811
836.202	2906
836.34	3127
836.478	3131
836.615	3066
836.753	3142
836.891	3203
837.029	3173
837.167	3108
837.305	3085
837.443	3039
837.58	2941
837.718	3138
837.856	3062
837.993	2990
838.131	3161
838.269	3119
838.406	3123
838.544	3097
838.681	2933
838.819	2910
838.956	2804
839.094	2826
839.231	2925
839.369	3013
839.506	3409
839.643	3222
839.781	2979
839.918	2975
840.055	3051
840.193	3058
840.33	3070
840.467	3116
840.604	3154
840.742	3389
840.879	3058
841.016	3058
841.153	3123
841.29	3310
841.427	3306
841.564	3287
841.701	3317
841.838	3199
841.975	3195
842.112	3230
842.249	3062
842.385	3066
842.522	3230
842.659	3108
842.796	3085
842.933	3131
843.069	3051
843.206	3020
843.343	3176
843.479	3131
843.616	3142
843.752	2929
843.889	2880
844.025	3081
844.162	2876
844.298	3081
844.435	2937
844.571	2960
844.708	3077
844.844	3154
844.98	3245
845.117	3207
845.253	3028
845.389	3005
845.525	3077
845.661	3116
845.798	2986
845.934	3119
846.07	3116
846.206	3230
846.342	3332
846.478	3203
846.614	3100
846.75	3039
846.886	3047
847.022	3226
847.158	3123
847.294	3195
847.429	3275
847.565	3214
847.701	3469
847.837	3020
847.972	3001
848.108	3135
848.244	3150
848.379	3001
848.515	2952
848.65	2933
848.786	2960
848.921	3009
849.057	3089
849.192	3131
849.328	3089
849.463	3100
849.598	3055
849.734	3036
849.869	2986
850.004	2922
850.14	2994
850.275	2937
850.41	2857
850.545	2876
850.68	2929
850.815	3001
850.95	2956
851.085	3180
851.22	3142
851.355	3032
851.49	2971
851.625	2986
851.76	3013
851.895	2944
852.03	2891
852.165	3013
852.299	3085
852.434	3184
852.569	3135
852.703	3157
852.838	3249
852.973	3351
853.107	3336
853.242	3154
853.376	3070
853.511	2963
853.645	3024
853.78	3214
853.914	3138
854.048	3127
854.183	3104
854.317	3142
854.451	3310
854.585	3119
854.72	3100
854.854	3203
854.988	3074
855.122	3085
855.256	2960
855.39	3127
855.524	3264
855.658	3184
855.792	3150
855.926	3176
856.06	3214
856.194	3253
856.327	3131
856.461	3081
856.595	3089
856.729	3119
856.862	3203
856.996	3138
857.13	3230
857.263	3241
857.397	3256
857.53	3127
857.664	3203
857.797	3226
857.931	3260
858.064	3192
858.197	3207
858.331	3127
858.464	3116
858.597	2990
858.731	3077
858.864	3104
858.997	3112
859.13	3176
859.263	3188
859.396	3211
859.529	3081
859.662	3077
859.795	3066
859.928	3157
860.061	3275
860.194	3279
860.327	3165
860.46	3070
860.592	3226
860.725	3275
860.858	3222
860.99	3100
861.123	3024
861.256	3055
861.388	3135
861.521	3755
861.653	3013
861.786	3009
861.918	3009
862.05	3047
862.183	3123
862.315	3150
862.447	3188
862.58	3077
862.712	2971
862.844	2883
862.976	3028
863.108	3043
863.24	3302
863.372	2876
863.504	3001
863.636	2918
863.768	3013
863.9	2952
864.032	2899
864.164	2941
864.296	3032
864.428	3043
864.559	3093
864.691	3066
864.823	3066
864.954	3062
865.086	3051
865.217	2994
865.349	2937
865.48	2979
865.612	3020
865.743	3184
865.875	2982
866.006	2925
866.137	2948
866.269	2956
866.4	2918
866.531	2941
866.662	2906
866.793	2929
866.924	2929
867.055	2998
867.186	2960
867.317	2876
867.448	2842
867.579	2823
867.71	2845
867.841	2849
867.972	2891
868.103	2902
868.233	2918
868.364	2880
868.495	2876
868.625	3085
868.756	3146
868.886	2960
869.017	3005
869.147	3165
869.278	3135
869.408	3055
869.539	3005
869.669	3108
869.799	3013
869.929	3108
870.06	3135
870.19	3317
870.32	3283
870.45	3291
870.58	3363
870.71	3447
870.84	3447
870.97	3329
871.1	3275
871.23	3454
871.36	3435
871.489	3374
871.619	3409
871.749	3386
871.879	3431
872.008	3492
872.138	3336
872.267	3249
872.397	3123
872.526	3116
872.656	2998
872.785	3093
872.915	3211
873.044	3321
873.173	3203
873.303	3241
873.432	3199
873.561	3211
873.69	3161
873.819	3154
873.948	3165
874.077	3127
874.206	3043
874.335	3085
874.464	3199
874.593	3306
874.722	3237
874.851	3344
874.979	3313
875.108	3291
875.237	3180
875.365	3169
875.494	3169
875.623	3233
875.751	3066
875.88	3123
876.008	3157
876.136	3249
876.265	3382
876.393	3488
876.521	3397
876.65	3389
876.778	3359
876.906	3256
877.034	3180
877.162	3241
877.29	3165
877.418	3256
877.546	3268
877.674	3222
877.802	3222
877.93	3218
878.058	3161
878.185	3070
878.313	3199
878.441	3214
878.568	3070
878.696	3180
878.824	3218
878.951	3302
879.079	3477
879.206	3599
879.333	3439
879.461	3294
879.588	3355
879.715	3473
879.842	3576
879.97	3420
880.097	3176
880.224	3138
880.351	3199
880.478	3249
880.605	3176
880.732	3211
880.859	3519
880.986	3329
881.112	3321
881.239	3188
881.366	3089
881.493	3047
881.619	3001
881.746	3058
881.872	3081
881.999	3070
882.125	3142
882.252	3260
882.378	3260
882.505	3409
882.631	3291
882.757	3150
882.883	3157
883.01	3188
883.136	3157
883.262	3116
883.388	3116
883.514	3298
883.64	3355
883.766	3332
883.892	3176
884.018	3245
884.143	3424
884.269	3564
884.395	3195
884.52	3165
884.646	3237
884.772	3123
884.897	3108
885.023	3176
885.148	3351
885.274	3382
885.399	3317
885.524	3294
885.65	3256
885.775	3310
885.9	3291
886.025	3389
886.15	3393
886.275	3256
886.4	3230
886.525	3310
886.65	3283
886.775	3241
886.9	3466
887.025	3637
887.149	3416
887.274	3253
887.399	3192
887.523	3176
887.648	3199
887.773	3233
887.897	3355
888.021	3420
888.146	3256
888.27	3397
888.395	3557
888.519	3424
888.643	3443
888.767	3450
888.891	3313
889.015	3237
889.139	3302
889.263	3230
889.387	3397
889.511	3507
889.635	3439
889.759	3275
889.883	3264
890.006	3355
890.13	3492
890.254	3241
890.377	3355
890.501	3176
890.624	3161
890.748	3264
890.871	3176
890.995	3081
891.118	3013
891.241	3199
891.364	3192
891.488	3306
891.611	3173
891.734	3203
891.857	3275
891.98	3222
892.103	3329
892.226	3268
892.349	3188
892.471	3089
892.594	3283
892.717	3256
892.839	3294
892.962	3279
893.085	3363
893.207	3287
893.33	3135
893.452	3214
893.575	3332
893.697	3207
893.819	3447
893.941	3511
894.064	3439
894.186	3264
894.308	3260
894.43	3431
894.552	3545
894.674	3469
894.796	3253
894.918	3272
895.04	3279
895.161	3447
895.283	3393
895.405	3367
895.526	3359
895.648	3401
895.769	3424
895.891	3454
896.012	3458
896.134	3492
896.255	3409
896.376	3424
896.498	3344
896.619	3424
896.74	3321
896.861	3393
896.982	3641
897.103	3800
897.224	3599
897.345	3500
897.466	3416
897.587	3496
897.708	3610
897.828	3545
897.949	3424
898.07	3329
898.19	3393
898.311	3599
898.431	3443
898.552	3515
898.672	3599
898.792	3599
898.913	3538
899.033	3405
899.153	3298
899.273	3214
899.393	3260
899.513	3291
899.633	3294
899.753	3336
899.873	3321
899.993	3378
900.113	3348
900.232	3401
900.352	3313
900.472	3260
900.591	3184
900.711	3283
900.83	3253
900.95	3416
901.069	3477
901.189	3363
901.308	3207
901.427	3127
901.546	3173
901.665	3313
901.784	3355
901.904	3176
902.023	3154
902.141	3051
902.26	2986
902.379	3135
902.498	3116
902.617	3066
902.735	3192
902.854	3222
902.973	3192
903.091	3039
903.21	3066
903.328	3146
903.446	3112
903.565	3085
903.683	3188
903.801	3135
903.919	3287
904.038	3253
904.156	3161
904.274	3313
904.392	3222
904.51	3272
904.627	3302
904.745	3420
904.863	3515
904.981	3249
905.098	3176
905.216	3180
905.334	3317
905.451	3294
905.569	3287
905.686	3397
905.803	3435
905.921	3298
906.038	3447
906.155	3340
906.272	3287
906.389	3378
906.506	3230
906.623	3268
906.74	3275
906.857	3188
906.974	3245
907.091	3466
907.208	3542
907.324	3481
907.441	3389
907.557	3214
907.674	3222
907.79	3245
907.907	3245
908.023	3374
908.139	3317
908.256	3325
908.372	3359
908.488	3329
908.604	3249
908.72	3230
908.836	3275
908.952	3226
909.068	3321
909.184	3485
909.3	3378
909.415	3500
909.531	3424
909.647	3237
909.762	3298
909.878	3256
909.993	3363
910.108	3313
910.224	3329
910.339	3439
910.454	3340
910.57	3272
910.685	3230
910.8	3584
910.915	3557
911.03	3435
911.145	3268
911.259	3260
911.374	3279
911.489	3226
911.604	3237
911.718	3131
911.833	3157
911.947	2975
912.062	2998
912.176	3154
912.291	3173
912.405	3192
912.519	3439
912.633	3447
912.748	3340
912.862	3272
912.976	3207
913.09	3062
913.204	3135
913.318	3180
913.431	3310
913.545	3340
913.659	3363
913.772	3351
913.886	3203
914	3195
914.113	3348
914.226	3401
914.34	3416
914.453	3203
914.566	3424
914.68	3313
914.793	3294
914.906	3165
915.019	3108
915.132	3062
915.245	3169
915.358	3180
915.47	3211
915.583	3264
915.696	3291
915.809	3428
915.921	3397
916.034	3253
916.146	3272
916.259	3176
916.371	3370
916.483	3355
916.595	3279
916.708	3336
916.82	3321
916.932	3325
917.044	3359
917.156	3351
917.268	3233
917.38	3321
917.491	3291
917.603	3329
917.715	3401
917.826	3439
917.938	3424
918.049	3264
918.161	3393
918.272	3542
918.384	3507
918.495	3500
918.606	3336
918.717	3272
918.828	3374
918.939	3382
919.05	3294
919.161	3336
919.272	3150
919.383	3302
919.494	3443
919.604	3652
919.715	3454
919.826	3386
919.936	3435
920.047	3564
920.157	3534
920.267	3789
920.378	3599
920.488	3568
920.598	3781
920.708	3975
920.818	3819
920.928	3770
921.038	3953
921.148	4002
921.258	3652
921.368	3622
921.477	3538
921.587	3549
921.697	3431
921.806	3618
921.916	3519
922.025	3374
922.134	3340
922.244	3329
922.353	3435
922.462	3279
922.571	3222
922.68	3089
922.789	3039
922.898	3173
923.007	3112
923.116	3199
923.224	3188
923.333	3195
923.442	3074
923.55	3074
923.659	3154
923.767	3218
923.876	3077
923.984	3253
924.092	3104
924.201	3207
924.309	3211
924.417	3268
924.525	3180
924.633	3241
924.741	4135
924.849	3066
924.956	3260
925.064	3058
925.172	3066
925.279	3047
925.387	3199
925.494	3195
925.602	3344
925.709	3348
925.816	3165
925.924	3260
926.031	3378
926.138	3355
926.245	3340
926.352	3218
926.459	3401
926.566	3447
926.673	3310
926.779	3264
926.886	3287
926.993	3180
927.099	3123
927.206	3116
927.312	3112
927.419	3211
927.525	3214
927.631	3272
927.737	3112
927.843	3085
927.95	3017
928.056	3142
928.162	3150
928.267	3268
928.373	3880
928.479	3310
928.585	3051
928.69	3214
928.796	3272
928.901	3169
929.007	3028
929.112	3211
929.218	3157
929.323	3199
929.428	3127
929.533	3310
929.638	3119
929.743	3150
929.848	3260
929.953	3237
930.058	3176
930.163	3005
930.267	3077
930.372	3184
930.477	3043
930.581	3348
930.685	3157
930.79	3058
930.894	3116
930.998	3104
931.103	3260
931.207	2952
931.311	2971
931.415	2910
931.519	2788
931.623	2804
