Data from test_V78500241_1814.txt Node
Date: Fri Mar 25 16:27:46 CST 2022
User: usil
Spectrometer: V785-0024
Trigger mode: 0
Integration Time (sec): 4.000000E-1
Scans to average: 1
Nonlinearity correction enabled: false
Boxcar width: 0
Storing dark spectrum: false
XAxis mode: Wavelengths
Number of Pixels in Spectrum: 1024
>>>>>Begin Spectral Data<<<<<
801.071	2895
801.214	2925
801.356	2861
801.499	2876
801.641	2861
801.783	2906
801.926	3051
802.068	2979
802.211	2998
802.353	3024
802.496	2918
802.638	3001
802.78	3070
802.923	3074
803.065	3005
803.208	2880
803.35	2971
803.492	2922
803.635	2925
803.777	2754
803.919	2853
804.061	3203
804.204	2925
804.346	2914
804.488	2826
804.63	2975
804.773	2902
804.915	2941
805.057	3093
805.199	2963
805.341	2967
805.483	3036
805.626	3009
805.768	2975
805.91	3089
806.052	3070
806.194	3039
806.336	3226
806.478	3077
806.62	2948
806.762	3009
806.904	3051
807.046	3135
807.188	3013
807.33	2891
807.472	3009
807.614	2899
807.756	2982
807.898	2922
808.04	2918
808.182	2994
808.324	2937
808.465	2849
808.607	2910
808.749	2796
808.891	2868
809.033	2956
809.174	2956
809.316	2902
809.458	2861
809.6	2773
809.741	2766
809.883	2773
810.025	2872
810.166	2834
810.308	2853
810.45	2872
810.591	2800
810.733	2735
810.875	2872
811.016	2796
811.158	2754
811.299	2792
811.441	2922
811.582	2922
811.724	2830
811.865	2800
812.007	2902
812.148	2853
812.29	2849
812.431	2891
812.573	2956
812.714	2956
812.855	3051
812.997	3051
813.138	3108
813.279	3005
813.421	2929
813.562	2986
813.703	2883
813.845	2872
813.986	2762
814.127	2724
814.268	2834
814.41	2853
814.551	2792
814.692	2872
814.833	2823
814.974	2845
815.115	2994
815.256	2838
815.397	2811
815.539	2876
815.68	2792
815.821	2777
815.962	2948
816.103	2906
816.244	2834
816.385	2849
816.526	2948
816.666	2929
816.807	2758
816.948	2864
817.089	2876
817.23	2838
817.371	2815
817.512	2807
817.653	2864
817.793	2804
817.934	2857
818.075	2979
818.216	2975
818.356	3001
818.497	2902
818.638	2781
818.778	2804
818.919	2785
819.06	2769
819.2	2899
819.341	2815
819.481	2830
819.622	2910
819.762	3081
819.903	3005
820.043	2902
820.184	2906
820.324	2849
820.465	3020
820.605	3009
820.746	3009
820.886	2944
821.026	3104
821.167	3142
821.307	3226
821.447	3272
821.588	3233
821.728	3180
821.868	3180
822.008	3085
822.149	3169
822.289	3176
822.429	3093
822.569	3070
822.709	3165
822.849	3013
822.99	3081
823.13	3169
823.27	3203
823.41	3081
823.55	3127
823.69	3173
823.83	3150
823.97	3074
824.11	2998
824.25	3039
824.389	3032
824.529	3127
824.669	3062
824.809	3180
824.949	3226
825.089	3199
825.228	3123
825.368	2982
825.508	2948
825.648	2971
825.787	3032
825.927	3017
826.067	2948
826.206	2933
826.346	2986
826.485	3039
826.625	3135
826.765	3253
826.904	3157
827.044	3017
827.183	2906
827.323	2876
827.462	2967
827.601	2914
827.741	2941
827.88	2960
828.02	2830
828.159	2982
828.298	3020
828.437	3097
828.577	3043
828.716	3253
828.855	3119
828.994	2933
829.134	2902
829.273	2918
829.412	2895
829.551	2845
829.69	2845
829.829	2994
829.968	3112
830.107	3001
830.246	3032
830.385	2918
830.524	2857
830.663	2773
830.802	2716
830.941	2651
831.08	2644
831.219	2769
831.357	2743
831.496	2925
831.635	2697
831.774	2655
831.913	2648
832.051	2549
832.19	2545
832.329	2682
832.467	2564
832.606	2480
832.744	2575
832.883	2583
833.022	2590
833.16	2613
833.299	2670
833.437	2678
833.576	2689
833.714	2750
833.852	2705
833.991	2746
834.129	2823
834.267	2830
834.406	2754
834.544	2853
834.682	2876
834.821	2849
834.959	3032
835.097	2925
835.235	3024
835.373	2994
835.511	2986
835.65	2944
835.788	2994
835.926	2853
836.064	2834
836.202	2834
836.34	3077
836.478	3138
836.615	3024
836.753	3104
836.891	3188
837.029	3157
837.167	3100
837.305	3017
837.443	3009
837.58	2941
837.718	3154
837.856	3036
837.993	3036
838.131	3093
838.269	3142
838.406	3081
838.544	3062
838.681	2929
838.819	2895
838.956	2811
839.094	2807
839.231	2899
839.369	2990
839.506	3348
839.643	3222
839.781	3017
839.918	2944
840.055	3058
840.193	3047
840.33	3081
840.467	3127
840.604	3131
840.742	3401
840.879	3062
841.016	3020
841.153	3074
841.29	3306
841.427	3272
841.564	3260
841.701	3260
841.838	3138
841.975	3173
842.112	3173
842.249	3089
842.385	3051
842.522	3237
842.659	3089
842.796	3077
842.933	3077
843.069	3032
843.206	3043
843.343	3157
843.479	3077
843.616	3119
843.752	2906
843.889	2872
844.025	3070
844.162	2849
844.298	3100
844.435	2925
844.571	2960
844.708	3093
844.844	3203
844.98	3233
845.117	3165
845.253	3024
845.389	2990
845.525	3097
845.661	3081
845.798	2979
845.934	3100
846.07	3066
846.206	3180
846.342	3310
846.478	3195
846.614	3058
846.75	3047
846.886	3013
847.022	3230
847.158	3138
847.294	3226
847.429	3253
847.565	3184
847.701	3488
847.837	3028
847.972	3017
848.108	3146
848.244	3146
848.379	2960
848.515	2937
848.65	2899
848.786	2994
848.921	3001
849.057	3108
849.192	3146
849.328	3097
849.463	3112
849.598	3066
849.734	3058
849.869	2963
850.004	2933
850.14	2948
850.275	2922
850.41	2838
850.545	2883
850.68	2937
850.815	2929
850.95	2960
851.085	3176
851.22	3150
851.355	3039
851.49	3005
851.625	2963
851.76	3028
851.895	2902
852.03	2899
852.165	3013
852.299	3150
852.434	3157
852.569	3131
852.703	3188
852.838	3211
852.973	3367
853.107	3313
853.242	3142
853.376	3074
853.511	2975
853.645	3032
853.78	3214
853.914	3058
854.048	3062
854.183	3047
854.317	3138
854.451	3260
854.585	3100
854.72	3085
854.854	3176
854.988	3039
855.122	3097
855.256	2956
855.39	3108
855.524	3237
855.658	3173
855.792	3157
855.926	3188
856.06	3241
856.194	3256
856.327	3131
856.461	3039
856.595	3112
856.729	3100
856.862	3203
856.996	3176
857.13	3203
857.263	3233
857.397	3253
857.53	3123
857.664	3207
857.797	3226
857.931	3264
858.064	3150
858.197	3230
858.331	3127
858.464	3032
858.597	3036
858.731	3135
858.864	3150
858.997	3097
859.13	3135
859.263	3165
859.396	3203
859.529	3081
859.662	3081
859.795	2994
859.928	3112
860.061	3272
860.194	3291
860.327	3127
860.46	3070
860.592	3245
860.725	3218
860.858	3230
860.99	3085
861.123	3051
861.256	3017
861.388	3135
861.521	3857
861.653	3020
861.786	2982
861.918	3005
862.05	3043
862.183	3085
862.315	3157
862.447	3180
862.58	3100
862.712	2937
862.844	2849
862.976	2979
863.108	3017
863.24	3405
863.372	2857
863.504	2956
863.636	2922
863.768	3013
863.9	2952
864.032	2922
864.164	2918
864.296	2990
864.428	3116
864.559	3089
864.691	3097
864.823	3066
864.954	3032
865.086	3005
865.217	2982
865.349	2944
865.48	2941
865.612	3017
865.743	3195
865.875	2967
866.006	2937
866.137	2963
866.269	2922
866.4	2937
866.531	2895
866.662	2880
866.793	2910
866.924	2868
867.055	2963
867.186	2922
867.317	2857
867.448	2826
867.579	2849
867.71	2857
867.841	2819
867.972	2891
868.103	2906
868.233	2880
868.364	2868
868.495	2883
868.625	3051
868.756	3123
868.886	2971
869.017	3020
869.147	3173
869.278	3165
869.408	3055
869.539	3017
869.669	3123
869.799	3024
869.929	3077
870.06	3081
870.19	3340
870.32	3302
870.45	3291
870.58	3355
870.71	3458
870.84	3447
870.97	3268
871.1	3218
871.23	3458
871.36	3450
871.489	3370
871.619	3359
871.749	3401
871.879	3428
872.008	3488
872.138	3317
872.267	3287
872.397	3146
872.526	3081
872.656	3039
872.785	3097
872.915	3237
873.044	3317
873.173	3180
873.303	3211
873.432	3233
873.561	3272
873.69	3165
873.819	3157
873.948	3161
874.077	3123
874.206	3017
874.335	3093
874.464	3211
874.593	3344
874.722	3253
874.851	3443
874.979	3348
875.108	3306
875.237	3211
875.365	3211
875.494	3180
875.623	3256
875.751	3108
875.88	3089
876.008	3146
876.136	3214
876.265	3397
876.393	3538
876.521	3420
876.65	3367
876.778	3329
876.906	3230
877.034	3184
877.162	3211
877.29	3199
877.418	3268
877.546	3245
877.674	3245
877.802	3237
877.93	3188
878.058	3131
878.185	3108
878.313	3150
878.441	3203
878.568	3077
878.696	3199
878.824	3268
878.951	3291
879.079	3439
879.206	3603
879.333	3424
879.461	3359
879.588	3332
879.715	3496
879.842	3606
879.97	3389
880.097	3169
880.224	3116
880.351	3161
880.478	3207
880.605	3195
880.732	3184
880.859	3477
880.986	3310
881.112	3294
881.239	3184
881.366	3089
881.493	3017
881.619	3009
881.746	3108
881.872	3093
881.999	3093
882.125	3138
882.252	3264
882.378	3317
882.505	3466
882.631	3230
882.757	3203
882.883	3230
883.01	3253
883.136	3184
883.262	3097
883.388	3112
883.514	3329
883.64	3367
883.766	3302
883.892	3199
884.018	3256
884.143	3382
884.269	3530
884.395	3192
884.52	3142
884.646	3192
884.772	3112
884.897	3104
885.023	3188
885.148	3306
885.274	3405
885.399	3359
885.524	3291
885.65	3226
885.775	3317
885.9	3306
886.025	3431
886.15	3378
886.275	3302
886.4	3233
886.525	3268
886.65	3256
886.775	3268
886.9	3447
887.025	3610
887.149	3401
887.274	3268
887.399	3180
887.523	3180
887.648	3207
887.773	3176
887.897	3363
888.021	3401
888.146	3302
888.27	3428
888.395	3561
888.519	3393
888.643	3450
888.767	3454
888.891	3310
889.015	3233
889.139	3298
889.263	3237
889.387	3420
889.511	3545
889.635	3420
889.759	3291
889.883	3294
890.006	3378
890.13	3481
890.254	3268
890.377	3340
890.501	3199
890.624	3180
890.748	3291
890.871	3188
890.995	3123
891.118	3043
891.241	3203
891.364	3222
891.488	3306
891.611	3195
891.734	3253
891.857	3283
891.98	3188
892.103	3355
892.226	3298
892.349	3226
892.471	3085
892.594	3237
892.717	3283
892.839	3264
892.962	3264
893.085	3329
893.207	3264
893.33	3161
893.452	3222
893.575	3321
893.697	3230
893.819	3454
893.941	3488
894.064	3428
894.186	3249
894.308	3264
894.43	3431
894.552	3504
894.674	3481
894.796	3268
894.918	3275
895.04	3279
895.161	3431
895.283	3370
895.405	3359
895.526	3351
895.648	3439
895.769	3420
895.891	3435
896.012	3481
896.134	3424
896.255	3416
896.376	3344
896.498	3359
896.619	3405
896.74	3332
896.861	3401
896.982	3686
897.103	3842
897.224	3625
897.345	3485
897.466	3412
897.587	3488
897.708	3595
897.828	3534
897.949	3439
898.07	3348
898.19	3370
898.311	3553
898.431	3454
898.552	3519
898.672	3587
898.792	3568
898.913	3507
899.033	3450
899.153	3279
899.273	3180
899.393	3291
899.513	3287
899.633	3321
899.753	3370
899.873	3329
899.993	3359
900.113	3348
900.232	3401
900.352	3344
900.472	3283
900.591	3211
900.711	3294
900.83	3253
900.95	3431
901.069	3492
901.189	3359
901.308	3192
901.427	3127
901.546	3222
901.665	3279
901.784	3344
901.904	3226
902.023	3169
902.141	3005
902.26	3005
902.379	3161
902.498	3066
902.617	3036
902.735	3199
902.854	3245
902.973	3203
903.091	3032
903.21	3055
903.328	3127
903.446	3104
903.565	3066
903.683	3195
903.801	3138
903.919	3245
904.038	3249
904.156	3195
904.274	3287
904.392	3249
904.51	3279
904.627	3321
904.745	3409
904.863	3511
904.981	3256
905.098	3161
905.216	3249
905.334	3306
905.451	3279
905.569	3306
905.686	3374
905.803	3393
905.921	3268
906.038	3435
906.155	3367
906.272	3279
906.389	3336
906.506	3249
906.623	3237
906.74	3268
906.857	3188
906.974	3249
907.091	3416
907.208	3587
907.324	3469
907.441	3370
907.557	3233
907.674	3192
907.79	3211
907.907	3287
908.023	3355
908.139	3382
908.256	3325
908.372	3382
908.488	3310
908.604	3279
908.72	3260
908.836	3302
908.952	3287
909.068	3283
909.184	3485
909.3	3389
909.415	3485
909.531	3428
909.647	3253
909.762	3283
909.878	3237
909.993	3332
910.108	3313
910.224	3298
910.339	3401
910.454	3344
910.57	3298
910.685	3272
910.8	3568
910.915	3557
911.03	3416
911.145	3313
911.259	3264
911.374	3294
911.489	3256
911.604	3230
911.718	3173
911.833	3146
911.947	3062
912.062	2956
912.176	3184
912.291	3249
912.405	3207
912.519	3431
912.633	3496
912.748	3283
912.862	3275
912.976	3169
913.09	3097
913.204	3138
913.318	3199
913.431	3348
913.545	3351
913.659	3393
913.772	3325
913.886	3192
914	3207
914.113	3370
914.226	3428
914.34	3348
914.453	3230
914.566	3386
914.68	3268
914.793	3272
914.906	3123
915.019	3100
915.132	3028
915.245	3199
915.358	3192
915.47	3233
915.583	3222
915.696	3249
915.809	3370
915.921	3367
916.034	3287
916.146	3256
916.259	3233
916.371	3386
916.483	3382
916.595	3291
916.708	3325
916.82	3340
916.932	3344
917.044	3317
917.156	3370
917.268	3264
917.38	3317
917.491	3302
917.603	3359
917.715	3462
917.826	3454
917.938	3359
918.049	3272
918.161	3420
918.272	3568
918.384	3580
918.495	3500
918.606	3325
918.717	3310
918.828	3378
918.939	3363
919.05	3260
919.161	3374
919.272	3154
919.383	3222
919.494	3504
919.604	3694
919.715	3504
919.826	3420
919.936	3466
920.047	3610
920.157	3568
920.267	3793
920.378	3595
920.488	3534
920.598	3747
920.708	3991
920.818	3785
920.928	3816
921.038	4074
921.148	4006
921.258	3713
921.368	3656
921.477	3610
921.587	3504
921.697	3469
921.806	3622
921.916	3530
922.025	3325
922.134	3397
922.244	3310
922.353	3405
922.462	3249
922.571	3275
922.68	3119
922.789	3062
922.898	3150
923.007	3108
923.116	3222
923.224	3150
923.333	3180
923.442	3142
923.55	3089
923.659	3150
923.767	3195
923.876	3112
923.984	3241
924.092	3093
924.201	3211
924.309	3214
924.417	3233
924.525	3157
924.633	3279
924.741	4044
924.849	3074
924.956	3256
925.064	3112
925.172	2998
925.279	3074
925.387	3195
925.494	3226
925.602	3386
925.709	3359
925.816	3195
925.924	3268
926.031	3367
926.138	3321
926.245	3389
926.352	3218
926.459	3412
926.566	3454
926.673	3321
926.779	3241
926.886	3260
926.993	3157
927.099	3116
927.206	3100
927.312	3142
927.419	3253
927.525	3203
927.631	3283
927.737	3119
927.843	3119
927.95	2986
928.056	3119
928.162	3184
928.267	3260
928.373	3778
928.479	3302
928.585	3017
928.69	3188
928.796	3222
928.901	3135
929.007	3039
929.112	3203
929.218	3131
929.323	3131
929.428	3188
929.533	3313
929.638	3112
929.743	3207
929.848	3260
929.953	3188
930.058	3180
930.163	2979
930.267	3055
930.372	3173
930.477	3036
930.581	3302
930.685	3184
930.79	3024
930.894	3138
930.998	3081
931.103	3272
931.207	2941
931.311	2906
931.415	2918
931.519	2766
931.623	2819
