Data from test_V78500241_422.txt Node
Date: Fri Mar 25 16:18:07 CST 2022
User: usil
Spectrometer: V785-0024
Trigger mode: 0
Integration Time (sec): 4.000000E-1
Scans to average: 1
Nonlinearity correction enabled: false
Boxcar width: 0
Storing dark spectrum: false
XAxis mode: Wavelengths
Number of Pixels in Spectrum: 1024
>>>>>Begin Spectral Data<<<<<
801.071	2929
801.214	2948
801.356	2857
801.499	2857
801.641	2864
801.783	2937
801.926	3047
802.068	2979
802.211	3024
802.353	3051
802.496	2929
802.638	3020
802.78	3039
802.923	3077
803.065	2994
803.208	2861
803.35	2922
803.492	2944
803.635	2899
803.777	2754
803.919	2864
804.061	3184
804.204	2933
804.346	2887
804.488	2861
804.63	2971
804.773	2857
804.915	2929
805.057	3108
805.199	2963
805.341	2960
805.483	3051
805.626	2998
805.768	2960
805.91	3085
806.052	3123
806.194	3036
806.336	3226
806.478	3020
806.62	2925
806.762	2971
806.904	3055
807.046	3165
807.188	2990
807.33	2902
807.472	2986
807.614	2906
807.756	2975
807.898	2929
808.04	2918
808.182	2986
808.324	2914
808.465	2914
808.607	2853
808.749	2830
808.891	2838
809.033	2982
809.174	2979
809.316	2922
809.458	2861
809.6	2769
809.741	2746
809.883	2788
810.025	2868
810.166	2857
810.308	2868
810.45	2861
810.591	2754
810.733	2785
810.875	2781
811.016	2773
811.158	2743
811.299	2807
811.441	2891
811.582	2887
811.724	2819
811.865	2861
812.007	2922
812.148	2872
812.29	2838
812.431	2887
812.573	2948
812.714	2952
812.855	3036
812.997	3032
813.138	3077
813.279	3005
813.421	2944
813.562	2971
813.703	2857
813.845	2853
813.986	2769
814.127	2743
814.268	2823
814.41	2838
814.551	2796
814.692	2891
814.833	2800
814.974	2891
815.115	2941
815.256	2845
815.397	2807
815.539	2849
815.68	2781
815.821	2800
815.962	2937
816.103	2941
816.244	2906
816.385	2845
816.526	2925
816.666	2918
816.807	2739
816.948	2880
817.089	2910
817.23	2868
817.371	2785
817.512	2800
817.653	2811
817.793	2781
817.934	2868
818.075	3009
818.216	2986
818.356	3032
818.497	2868
818.638	2773
818.778	2781
818.919	2769
819.06	2750
819.2	2849
819.341	2781
819.481	2815
819.622	2914
819.762	3131
819.903	3009
820.043	2880
820.184	2925
820.324	2895
820.465	2986
820.605	3017
820.746	3005
820.886	2929
821.026	3104
821.167	3207
821.307	3226
821.447	3253
821.588	3264
821.728	3199
821.868	3211
822.008	3085
822.149	3169
822.289	3230
822.429	3097
822.569	3062
822.709	3176
822.849	3020
822.99	3047
823.13	3127
823.27	3169
823.41	3116
823.55	3161
823.69	3135
823.83	3203
823.97	3116
824.11	3001
824.25	2986
824.389	3028
824.529	3116
824.669	3085
824.809	3211
824.949	3237
825.089	3173
825.228	3161
825.368	2994
825.508	2979
825.648	2982
825.787	3036
825.927	2986
826.067	2971
826.206	2922
826.346	3055
826.485	3093
826.625	3081
826.765	3260
826.904	3207
827.044	2960
827.183	2952
827.323	2853
827.462	2937
827.601	2918
827.741	2902
827.88	2948
828.02	2853
828.159	2971
828.298	3047
828.437	3150
828.577	3055
828.716	3249
828.855	3062
828.994	2910
829.134	2880
829.273	2918
829.412	2861
829.551	2811
829.69	2918
829.829	2963
829.968	3116
830.107	2982
830.246	2986
830.385	2914
830.524	2880
830.663	2834
830.802	2727
830.941	2648
831.08	2617
831.219	2720
831.357	2750
831.496	2986
831.635	2727
831.774	2644
831.913	2659
832.051	2556
832.19	2537
832.329	2670
832.467	2541
832.606	2461
832.744	2598
832.883	2568
833.022	2575
833.16	2629
833.299	2670
833.437	2701
833.576	2682
833.714	2754
833.852	2731
833.991	2762
834.129	2800
834.267	2826
834.406	2785
834.544	2876
834.682	2868
834.821	2811
834.959	3047
835.097	2914
835.235	3062
835.373	2994
835.511	3032
835.65	2956
835.788	3001
835.926	2864
836.064	2804
836.202	2826
836.34	3108
836.478	3116
836.615	3051
836.753	3116
836.891	3203
837.029	3154
837.167	3093
837.305	3047
837.443	3009
837.58	2982
837.718	3093
837.856	3024
837.993	3047
838.131	3116
838.269	3081
838.406	3089
838.544	3032
838.681	2918
838.819	2902
838.956	2785
839.094	2834
839.231	2906
839.369	2982
839.506	3382
839.643	3211
839.781	3024
839.918	2971
840.055	3066
840.193	3009
840.33	3039
840.467	3081
840.604	3154
840.742	3420
840.879	3039
841.016	3051
841.153	3108
841.29	3325
841.427	3260
841.564	3279
841.701	3302
841.838	3218
841.975	3188
842.112	3173
842.249	3070
842.385	3051
842.522	3260
842.659	3028
842.796	3055
842.933	3085
843.069	3058
843.206	3013
843.343	3199
843.479	3058
843.616	3135
843.752	2891
843.889	2864
844.025	3077
844.162	2853
844.298	3058
844.435	2918
844.571	2891
844.708	3089
844.844	3195
844.98	3230
845.117	3199
845.253	3047
845.389	2982
845.525	3077
845.661	3108
845.798	3017
845.934	3154
846.07	3032
846.206	3195
846.342	3291
846.478	3207
846.614	3085
846.75	3043
846.886	3017
847.022	3233
847.158	3150
847.294	3199
847.429	3226
847.565	3214
847.701	3485
847.837	2998
847.972	2971
848.108	3165
848.244	3154
848.379	3017
848.515	2941
848.65	2914
848.786	2967
848.921	3017
849.057	3085
849.192	3138
849.328	3058
849.463	3104
849.598	3062
849.734	3032
849.869	2967
850.004	2918
850.14	2994
850.275	2895
850.41	2849
850.545	2849
850.68	2933
850.815	2941
850.95	2960
851.085	3161
851.22	3097
851.355	3024
851.49	2998
851.625	3024
851.76	2986
851.895	2956
852.03	2929
852.165	3005
852.299	3093
852.434	3142
852.569	3135
852.703	3138
852.838	3214
852.973	3317
853.107	3317
853.242	3150
853.376	3051
853.511	2963
853.645	3039
853.78	3230
853.914	3112
854.048	3104
854.183	3108
854.317	3157
854.451	3275
854.585	3131
854.72	3104
854.854	3233
854.988	3077
855.122	3108
855.256	2982
855.39	3070
855.524	3207
855.658	3146
855.792	3154
855.926	3180
856.06	3207
856.194	3275
856.327	3169
856.461	3081
856.595	3062
856.729	3100
856.862	3222
856.996	3161
857.13	3146
857.263	3214
857.397	3302
857.53	3089
857.664	3195
857.797	3222
857.931	3272
858.064	3123
858.197	3203
858.331	3119
858.464	3051
858.597	3001
858.731	3100
858.864	3089
858.997	3089
859.13	3154
859.263	3161
859.396	3222
859.529	3077
859.662	3043
859.795	3039
859.928	3108
860.061	3287
860.194	3321
860.327	3108
860.46	3070
860.592	3233
860.725	3237
860.858	3230
860.99	3058
861.123	3066
861.256	3081
861.388	3119
861.521	3945
861.653	3020
861.786	2982
861.918	2998
862.05	3062
862.183	3104
862.315	3173
862.447	3192
862.58	3100
862.712	2910
862.844	2880
862.976	3043
863.108	3013
863.24	3329
863.372	2887
863.504	2994
863.636	2944
863.768	3005
863.9	2956
864.032	2910
864.164	2929
864.296	2998
864.428	3089
864.559	3093
864.691	3066
864.823	3062
864.954	2986
865.086	3051
865.217	2982
865.349	2967
865.48	2979
865.612	3009
865.743	3176
865.875	2986
866.006	2925
866.137	2948
866.269	2922
866.4	2952
866.531	2956
866.662	2891
866.793	2902
866.924	2902
867.055	2956
867.186	2922
867.317	2880
867.448	2830
867.579	2876
867.71	2842
867.841	2830
867.972	2922
868.103	2887
868.233	2864
868.364	2853
868.495	2902
868.625	3097
868.756	3150
868.886	2979
869.017	3013
869.147	3203
869.278	3173
869.408	3047
869.539	3017
869.669	3093
869.799	3020
869.929	3100
870.06	3108
870.19	3298
870.32	3287
870.45	3268
870.58	3359
870.71	3450
870.84	3481
870.97	3272
871.1	3249
871.23	3538
871.36	3447
871.489	3367
871.619	3340
871.749	3409
871.879	3424
872.008	3447
872.138	3329
872.267	3260
872.397	3165
872.526	3085
872.656	2979
872.785	3146
872.915	3207
873.044	3283
873.173	3199
873.303	3245
873.432	3233
873.561	3211
873.69	3195
873.819	3150
873.948	3157
874.077	3100
874.206	3047
874.335	3123
874.464	3199
874.593	3340
874.722	3256
874.851	3382
874.979	3355
875.108	3332
875.237	3184
875.365	3138
875.494	3169
875.623	3214
875.751	3062
875.88	3116
876.008	3150
876.136	3253
876.265	3355
876.393	3492
876.521	3412
876.65	3405
876.778	3310
876.906	3245
877.034	3211
877.162	3256
877.29	3192
877.418	3245
877.546	3253
877.674	3230
877.802	3245
877.93	3245
878.058	3100
878.185	3119
878.313	3214
878.441	3222
878.568	3089
878.696	3123
878.824	3268
878.951	3279
879.079	3447
879.206	3599
879.333	3443
879.461	3321
879.588	3359
879.715	3477
879.842	3561
879.97	3344
880.097	3188
880.224	3119
880.351	3184
880.478	3218
880.605	3222
880.732	3180
880.859	3496
880.986	3294
881.112	3332
881.239	3203
881.366	3135
881.493	3066
881.619	2998
881.746	3062
881.872	3081
881.999	3089
882.125	3154
882.252	3260
882.378	3275
882.505	3443
882.631	3283
882.757	3142
882.883	3226
883.01	3253
883.136	3165
883.262	3100
883.388	3119
883.514	3325
883.64	3386
883.766	3359
883.892	3165
884.018	3214
884.143	3393
884.269	3511
884.395	3214
884.52	3184
884.646	3169
884.772	3119
884.897	3097
885.023	3195
885.148	3310
885.274	3397
885.399	3386
885.524	3268
885.65	3256
885.775	3336
885.9	3264
886.025	3428
886.15	3359
886.275	3279
886.4	3207
886.525	3298
886.65	3245
886.775	3287
886.9	3450
887.025	3561
887.149	3363
887.274	3241
887.399	3180
887.523	3226
887.648	3188
887.773	3249
887.897	3321
888.021	3428
888.146	3272
888.27	3447
888.395	3561
888.519	3401
888.643	3431
888.767	3462
888.891	3344
889.015	3237
889.139	3313
889.263	3256
889.387	3431
889.511	3515
889.635	3462
889.759	3275
889.883	3313
890.006	3389
890.13	3523
890.254	3275
890.377	3332
890.501	3169
890.624	3192
890.748	3245
890.871	3173
890.995	3066
891.118	3024
891.241	3176
891.364	3230
891.488	3367
891.611	3138
891.734	3237
891.857	3287
891.98	3222
892.103	3344
892.226	3260
892.349	3230
892.471	3104
892.594	3211
892.717	3298
892.839	3298
892.962	3302
893.085	3340
893.207	3310
893.33	3157
893.452	3203
893.575	3340
893.697	3241
893.819	3435
893.941	3488
894.064	3443
894.186	3279
894.308	3268
894.43	3428
894.552	3523
894.674	3424
894.796	3287
894.918	3291
895.04	3272
895.161	3428
895.283	3370
895.405	3325
895.526	3355
895.648	3424
895.769	3405
895.891	3450
896.012	3507
896.134	3450
896.255	3363
896.376	3389
896.498	3336
896.619	3424
896.74	3351
896.861	3401
896.982	3633
897.103	3827
897.224	3587
897.345	3511
897.466	3435
897.587	3496
897.708	3614
897.828	3530
897.949	3439
898.07	3313
898.19	3439
898.311	3603
898.431	3420
898.552	3500
898.672	3542
898.792	3557
898.913	3485
899.033	3405
899.153	3275
899.273	3226
899.393	3233
899.513	3313
899.633	3378
899.753	3329
899.873	3287
899.993	3389
900.113	3291
900.232	3397
900.352	3355
900.472	3306
900.591	3192
900.711	3332
900.83	3233
900.95	3412
901.069	3500
901.189	3367
901.308	3180
901.427	3112
901.546	3195
901.665	3306
901.784	3310
901.904	3237
902.023	3146
902.141	3017
902.26	3020
902.379	3108
902.498	3070
902.617	3100
902.735	3214
902.854	3283
902.973	3169
903.091	3039
903.21	3085
903.328	3150
903.446	3112
903.565	3100
903.683	3214
903.801	3154
903.919	3253
904.038	3268
904.156	3176
904.274	3302
904.392	3268
904.51	3287
904.627	3329
904.745	3466
904.863	3462
904.981	3253
905.098	3173
905.216	3256
905.334	3329
905.451	3325
905.569	3298
905.686	3431
905.803	3424
905.921	3287
906.038	3401
906.155	3367
906.272	3291
906.389	3264
906.506	3245
906.623	3233
906.74	3287
906.857	3199
906.974	3260
907.091	3428
907.208	3553
907.324	3469
907.441	3386
907.557	3222
907.674	3214
907.79	3195
907.907	3264
908.023	3397
908.139	3344
908.256	3279
908.372	3401
908.488	3302
908.604	3226
908.72	3184
908.836	3272
908.952	3272
909.068	3313
909.184	3454
909.3	3355
909.415	3481
909.531	3454
909.647	3275
909.762	3279
909.878	3222
909.993	3370
910.108	3336
910.224	3321
910.339	3439
910.454	3359
910.57	3302
910.685	3211
910.8	3591
910.915	3542
911.03	3393
911.145	3253
911.259	3230
911.374	3283
911.489	3245
911.604	3245
911.718	3146
911.833	3100
911.947	3051
912.062	2948
912.176	3176
912.291	3188
912.405	3237
912.519	3397
912.633	3466
912.748	3348
912.862	3260
912.976	3150
913.09	3081
913.204	3146
913.318	3203
913.431	3340
913.545	3374
913.659	3386
913.772	3302
913.886	3241
914	3199
914.113	3374
914.226	3401
914.34	3374
914.453	3226
914.566	3447
914.68	3260
914.793	3317
914.906	3108
915.019	3093
915.132	3047
915.245	3161
915.358	3199
915.47	3226
915.583	3283
915.696	3294
915.809	3409
915.921	3412
916.034	3279
916.146	3218
916.259	3218
916.371	3355
916.483	3393
916.595	3253
916.708	3325
916.82	3348
916.932	3313
917.044	3344
917.156	3370
917.268	3283
917.38	3310
917.491	3313
917.603	3363
917.715	3428
917.826	3447
917.938	3374
918.049	3260
918.161	3454
918.272	3549
918.384	3553
918.495	3538
918.606	3325
918.717	3275
918.828	3370
918.939	3378
919.05	3279
919.161	3378
919.272	3165
919.383	3256
919.494	3553
919.604	3667
919.715	3523
919.826	3363
919.936	3401
920.047	3587
920.157	3526
920.267	3755
920.378	3564
920.488	3572
920.598	3778
920.708	3934
920.818	3804
920.928	3865
921.038	3998
921.148	3953
921.258	3701
921.368	3637
921.477	3549
921.587	3545
921.697	3454
921.806	3622
921.916	3523
922.025	3351
922.134	3374
922.244	3310
922.353	3420
922.462	3245
922.571	3256
922.68	3100
922.789	3085
922.898	3131
923.007	3131
923.116	3230
923.224	3154
923.333	3150
923.442	3085
923.55	3085
923.659	3150
923.767	3218
923.876	3097
923.984	3233
924.092	3097
924.201	3188
924.309	3192
924.417	3287
924.525	3173
924.633	3237
924.741	4211
924.849	3047
924.956	3264
925.064	3089
925.172	2994
925.279	3116
925.387	3192
925.494	3199
925.602	3332
925.709	3325
925.816	3214
925.924	3310
926.031	3382
926.138	3294
926.245	3359
926.352	3233
926.459	3428
926.566	3435
926.673	3321
926.779	3249
926.886	3230
926.993	3146
927.099	3131
927.206	3176
927.312	3119
927.419	3218
927.525	3199
927.631	3245
927.737	3104
927.843	3150
927.95	3020
928.056	3169
928.162	3157
928.267	3283
928.373	3861
928.479	3310
928.585	3043
928.69	3233
928.796	3260
928.901	3165
929.007	3032
929.112	3199
929.218	3180
929.323	3131
929.428	3157
929.533	3317
929.638	3100
929.743	3169
929.848	3272
929.953	3142
930.058	3127
930.163	3005
930.267	3055
930.372	3199
930.477	3013
930.581	3329
930.685	3169
930.79	3058
930.894	3138
930.998	3100
931.103	3264
931.207	2963
931.311	2925
931.415	2922
931.519	2781
931.623	2830
