Data from test_V78500241_536.txt Node
Date: Fri Mar 25 16:18:55 CST 2022
User: usil
Spectrometer: V785-0024
Trigger mode: 0
Integration Time (sec): 4.000000E-1
Scans to average: 1
Nonlinearity correction enabled: false
Boxcar width: 0
Storing dark spectrum: false
XAxis mode: Wavelengths
Number of Pixels in Spectrum: 1024
>>>>>Begin Spectral Data<<<<<
801.071	2899
801.214	2952
801.356	2891
801.499	2922
801.641	2872
801.783	2937
801.926	3070
802.068	2952
802.211	2960
802.353	3039
802.496	2944
802.638	2975
802.78	3001
802.923	3070
803.065	2971
803.208	2887
803.35	2914
803.492	2929
803.635	2895
803.777	2754
803.919	2864
804.061	3157
804.204	2948
804.346	2906
804.488	2861
804.63	3013
804.773	2857
804.915	2922
805.057	3070
805.199	2922
805.341	2967
805.483	3051
805.626	3001
805.768	3005
805.91	3081
806.052	3116
806.194	3032
806.336	3192
806.478	3005
806.62	2986
806.762	2979
806.904	3005
807.046	3169
807.188	3005
807.33	2922
807.472	2971
807.614	2922
807.756	2982
807.898	2937
808.04	2887
808.182	2952
808.324	2956
808.465	2868
808.607	2880
808.749	2804
808.891	2864
809.033	2960
809.174	2963
809.316	2864
809.458	2872
809.6	2762
809.741	2762
809.883	2743
810.025	2857
810.166	2880
810.308	2876
810.45	2853
810.591	2788
810.733	2777
810.875	2880
811.016	2758
811.158	2750
811.299	2777
811.441	2887
811.582	2868
811.724	2826
811.865	2823
812.007	2910
812.148	2891
812.29	2823
812.431	2842
812.573	2956
812.714	2971
812.855	3036
812.997	3085
813.138	3112
813.279	2986
813.421	3001
813.562	2937
813.703	2880
813.845	2883
813.986	2834
814.127	2701
814.268	2830
814.41	2823
814.551	2849
814.692	2876
814.833	2842
814.974	2887
815.115	2922
815.256	2823
815.397	2830
815.539	2887
815.68	2807
815.821	2788
815.962	2925
816.103	2952
816.244	2815
816.385	2868
816.526	2952
816.666	2937
816.807	2762
816.948	2891
817.089	2918
817.23	2838
817.371	2788
817.512	2796
817.653	2830
817.793	2811
817.934	2895
818.075	2967
818.216	2967
818.356	3005
818.497	2914
818.638	2750
818.778	2769
818.919	2807
819.06	2788
819.2	2887
819.341	2792
819.481	2777
819.622	2933
819.762	3097
819.903	3020
820.043	2899
820.184	2933
820.324	2937
820.465	2982
820.605	2982
820.746	3028
820.886	2952
821.026	3074
821.167	3150
821.307	3222
821.447	3268
821.588	3211
821.728	3192
821.868	3173
822.008	3089
822.149	3207
822.289	3218
822.429	3093
822.569	3058
822.709	3154
822.849	3043
822.99	3039
823.13	3165
823.27	3192
823.41	3077
823.55	3108
823.69	3157
823.83	3176
823.97	3116
824.11	3005
824.25	2982
824.389	3077
824.529	3085
824.669	3100
824.809	3195
824.949	3245
825.089	3222
825.228	3165
825.368	3039
825.508	2933
825.648	2941
825.787	2994
825.927	3001
826.067	2937
826.206	2952
826.346	3058
826.485	3066
826.625	3108
826.765	3253
826.904	3176
827.044	3009
827.183	2971
827.323	2861
827.462	3020
827.601	2918
827.741	2906
827.88	2906
828.02	2849
828.159	2971
828.298	3051
828.437	3085
828.577	3013
828.716	3218
828.855	3058
828.994	2895
829.134	2880
829.273	2914
829.412	2861
829.551	2872
829.69	2887
829.829	2975
829.968	3135
830.107	2998
830.246	3001
830.385	2899
830.524	2849
830.663	2823
830.802	2724
830.941	2648
831.08	2644
831.219	2769
831.357	2743
831.496	2971
831.635	2708
831.774	2613
831.913	2625
832.051	2526
832.19	2617
832.329	2659
832.467	2526
832.606	2473
832.744	2545
832.883	2552
833.022	2625
833.16	2655
833.299	2659
833.437	2701
833.576	2727
833.714	2716
833.852	2689
833.991	2743
834.129	2826
834.267	2815
834.406	2762
834.544	2872
834.682	2876
834.821	2861
834.959	3047
835.097	2914
835.235	3055
835.373	3001
835.511	3009
835.65	2922
835.788	2937
835.926	2811
836.064	2788
836.202	2815
836.34	3062
836.478	3131
836.615	3013
836.753	3123
836.891	3184
837.029	3176
837.167	3070
837.305	3066
837.443	3009
837.58	2925
837.718	3104
837.856	3066
837.993	3032
838.131	3097
838.269	3112
838.406	3097
838.544	3074
838.681	2899
838.819	2929
838.956	2800
839.094	2800
839.231	2922
839.369	3032
839.506	3355
839.643	3192
839.781	2986
839.918	2963
840.055	3039
840.193	2998
840.33	3024
840.467	3093
840.604	3123
840.742	3401
840.879	2979
841.016	3017
841.153	3116
841.29	3317
841.427	3310
841.564	3245
841.701	3302
841.838	3214
841.975	3173
842.112	3199
842.249	3077
842.385	3024
842.522	3283
842.659	3051
842.796	3051
842.933	3077
843.069	3032
843.206	3043
843.343	3169
843.479	3100
843.616	3127
843.752	2849
843.889	2910
844.025	3085
844.162	2861
844.298	3051
844.435	2941
844.571	2902
844.708	3074
844.844	3173
844.98	3214
845.117	3146
845.253	3062
845.389	3020
845.525	3112
845.661	3100
845.798	2998
845.934	3070
846.07	3024
846.206	3184
846.342	3321
846.478	3199
846.614	3051
846.75	3074
846.886	2963
847.022	3237
847.158	3150
847.294	3184
847.429	3226
847.565	3203
847.701	3523
847.837	3055
847.972	3001
848.108	3146
848.244	3173
848.379	2922
848.515	2906
848.65	2944
848.786	2967
848.921	2986
849.057	3104
849.192	3123
849.328	3055
849.463	3108
849.598	3055
849.734	3039
849.869	2937
850.004	2895
850.14	2998
850.275	2891
850.41	2853
850.545	2872
850.68	2887
850.815	2956
850.95	2975
851.085	3165
851.22	3104
851.355	3001
851.49	2971
851.625	2960
851.76	3001
851.895	2922
852.03	2944
852.165	3036
852.299	3135
852.434	3184
852.569	3131
852.703	3161
852.838	3264
852.973	3317
853.107	3306
853.242	3157
853.376	3043
853.511	2975
853.645	3070
853.78	3207
853.914	3119
854.048	3093
854.183	3112
854.317	3131
854.451	3279
854.585	3138
854.72	3066
854.854	3226
854.988	3005
855.122	3077
855.256	2956
855.39	3119
855.524	3233
855.658	3165
855.792	3116
855.926	3157
856.06	3226
856.194	3233
856.327	3161
856.461	3028
856.595	3074
856.729	3062
856.862	3192
856.996	3157
857.13	3222
857.263	3230
857.397	3256
857.53	3112
857.664	3169
857.797	3222
857.931	3260
858.064	3180
858.197	3249
858.331	3138
858.464	3066
858.597	2960
858.731	3135
858.864	3108
858.997	3020
859.13	3165
859.263	3192
859.396	3169
859.529	3089
859.662	3062
859.795	3043
859.928	3123
860.061	3283
860.194	3279
860.327	3104
860.46	3085
860.592	3222
860.725	3214
860.858	3218
860.99	3058
861.123	3058
861.256	3089
861.388	3135
861.521	3907
861.653	3047
861.786	3009
861.918	2979
862.05	3062
862.183	3070
862.315	3108
862.447	3199
862.58	3077
862.712	2941
862.844	2819
862.976	2963
863.108	2975
863.24	3401
863.372	2868
863.504	2929
863.636	2933
863.768	3039
863.9	2990
864.032	2899
864.164	2914
864.296	3024
864.428	3100
864.559	3093
864.691	3089
864.823	3039
864.954	2994
865.086	3043
865.217	2994
865.349	2944
865.48	2998
865.612	2998
865.743	3135
865.875	2979
866.006	2925
866.137	2941
866.269	2941
866.4	2922
866.531	2899
866.662	2872
866.793	2887
866.924	2891
867.055	2967
867.186	2937
867.317	2819
867.448	2838
867.579	2830
867.71	2826
867.841	2826
867.972	2887
868.103	2906
868.233	2883
868.364	2880
868.495	2872
868.625	3047
868.756	3161
868.886	2941
869.017	3032
869.147	3142
869.278	3108
869.408	3047
869.539	3001
869.669	3070
869.799	3032
869.929	3146
870.06	3074
870.19	3310
870.32	3268
870.45	3256
870.58	3351
870.71	3416
870.84	3481
870.97	3317
871.1	3226
871.23	3481
871.36	3439
871.489	3378
871.619	3424
871.749	3378
871.879	3443
872.008	3496
872.138	3363
872.267	3268
872.397	3119
872.526	3119
872.656	3017
872.785	3089
872.915	3264
873.044	3298
873.173	3253
873.303	3245
873.432	3226
873.561	3226
873.69	3207
873.819	3119
873.948	3176
874.077	3077
874.206	3043
874.335	3104
874.464	3241
874.593	3374
874.722	3237
874.851	3409
874.979	3321
875.108	3317
875.237	3203
875.365	3169
875.494	3146
875.623	3237
875.751	3089
875.88	3108
876.008	3188
876.136	3214
876.265	3389
876.393	3500
876.521	3443
876.65	3389
876.778	3336
876.906	3233
877.034	3207
877.162	3283
877.29	3199
877.418	3287
877.546	3222
877.674	3245
877.802	3253
877.93	3211
878.058	3142
878.185	3077
878.313	3211
878.441	3233
878.568	3089
878.696	3161
878.824	3233
878.951	3291
879.079	3420
879.206	3599
879.333	3431
879.461	3332
879.588	3336
879.715	3447
879.842	3557
879.97	3409
880.097	3157
880.224	3123
880.351	3184
880.478	3226
880.605	3157
880.732	3154
880.859	3473
880.986	3302
881.112	3325
881.239	3245
881.366	3100
881.493	3032
881.619	3005
881.746	3089
881.872	3077
881.999	3100
882.125	3119
882.252	3241
882.378	3283
882.505	3443
882.631	3325
882.757	3180
882.883	3188
883.01	3226
883.136	3157
883.262	3066
883.388	3093
883.514	3317
883.64	3344
883.766	3294
883.892	3184
884.018	3256
884.143	3424
884.269	3515
884.395	3207
884.52	3169
884.646	3161
884.772	3142
884.897	3131
885.023	3233
885.148	3302
885.274	3405
885.399	3370
885.524	3283
885.65	3264
885.775	3325
885.9	3264
886.025	3416
886.15	3420
886.275	3287
886.4	3214
886.525	3298
886.65	3291
886.775	3283
886.9	3469
887.025	3660
887.149	3431
887.274	3237
887.399	3165
887.523	3226
887.648	3176
887.773	3203
887.897	3367
888.021	3405
888.146	3279
888.27	3435
888.395	3534
888.519	3454
888.643	3439
888.767	3466
888.891	3317
889.015	3226
889.139	3260
889.263	3211
889.387	3412
889.511	3511
889.635	3447
889.759	3298
889.883	3283
890.006	3348
890.13	3519
890.254	3260
890.377	3291
890.501	3203
890.624	3192
890.748	3310
890.871	3188
890.995	3108
891.118	3081
891.241	3169
891.364	3192
891.488	3310
891.611	3157
891.734	3214
891.857	3256
891.98	3207
892.103	3348
892.226	3237
892.349	3192
892.471	3123
892.594	3237
892.717	3291
892.839	3264
892.962	3279
893.085	3340
893.207	3298
893.33	3169
893.452	3203
893.575	3321
893.697	3241
893.819	3447
893.941	3515
894.064	3473
894.186	3253
894.308	3272
894.43	3466
894.552	3553
894.674	3454
894.796	3218
894.918	3264
895.04	3283
895.161	3393
895.283	3382
895.405	3291
895.526	3424
895.648	3389
895.769	3428
895.891	3469
896.012	3500
896.134	3469
896.255	3412
896.376	3382
896.498	3302
896.619	3412
896.74	3340
896.861	3386
896.982	3648
897.103	3850
897.224	3595
897.345	3469
897.466	3409
897.587	3500
897.708	3580
897.828	3572
897.949	3412
898.07	3321
898.19	3405
898.311	3595
898.431	3431
898.552	3492
898.672	3637
898.792	3618
898.913	3507
899.033	3409
899.153	3291
899.273	3222
899.393	3272
899.513	3325
899.633	3302
899.753	3294
899.873	3298
899.993	3393
900.113	3306
900.232	3389
900.352	3351
900.472	3241
900.591	3214
900.711	3283
900.83	3241
900.95	3374
901.069	3500
901.189	3359
901.308	3169
901.427	3112
901.546	3188
901.665	3302
901.784	3325
901.904	3184
902.023	3150
902.141	3017
902.26	2956
902.379	3135
902.498	3104
902.617	3013
902.735	3203
902.854	3214
902.973	3165
903.091	3055
903.21	3077
903.328	3142
903.446	3104
903.565	3123
903.683	3195
903.801	3142
903.919	3260
904.038	3272
904.156	3150
904.274	3291
904.392	3237
904.51	3272
904.627	3313
904.745	3454
904.863	3515
904.981	3310
905.098	3180
905.216	3203
905.334	3283
905.451	3272
905.569	3283
905.686	3424
905.803	3416
905.921	3260
906.038	3435
906.155	3355
906.272	3222
906.389	3310
906.506	3214
906.623	3230
906.74	3260
906.857	3218
906.974	3279
907.091	3435
907.208	3564
907.324	3481
907.441	3405
907.557	3176
907.674	3203
907.79	3195
907.907	3245
908.023	3389
908.139	3367
908.256	3344
908.372	3393
908.488	3344
908.604	3249
908.72	3230
908.836	3291
908.952	3249
909.068	3332
909.184	3458
909.3	3397
909.415	3534
909.531	3431
909.647	3313
909.762	3302
909.878	3226
909.993	3344
910.108	3332
910.224	3329
910.339	3393
910.454	3321
910.57	3272
910.685	3226
910.8	3614
910.915	3500
911.03	3428
911.145	3275
911.259	3268
911.374	3348
911.489	3222
911.604	3268
911.718	3097
911.833	3142
911.947	3028
912.062	3020
912.176	3161
912.291	3203
912.405	3211
912.519	3401
912.633	3450
912.748	3329
912.862	3302
912.976	3173
913.09	3024
913.204	3135
913.318	3222
913.431	3367
913.545	3348
913.659	3431
913.772	3351
913.886	3199
914	3173
914.113	3355
914.226	3428
914.34	3355
914.453	3203
914.566	3389
914.68	3279
914.793	3302
914.906	3142
915.019	3093
915.132	3081
915.245	3184
915.358	3203
915.47	3230
915.583	3256
915.696	3294
915.809	3393
915.921	3447
916.034	3268
916.146	3226
916.259	3241
916.371	3370
916.483	3351
916.595	3256
916.708	3344
916.82	3336
916.932	3340
917.044	3329
917.156	3382
917.268	3226
917.38	3272
917.491	3287
917.603	3370
917.715	3450
917.826	3466
917.938	3351
918.049	3272
918.161	3454
918.272	3557
918.384	3587
918.495	3477
918.606	3317
918.717	3283
918.828	3363
918.939	3420
919.05	3272
919.161	3367
919.272	3127
919.383	3298
919.494	3488
919.604	3701
919.715	3466
919.826	3378
919.936	3443
920.047	3561
920.157	3561
920.267	3762
920.378	3599
920.488	3523
920.598	3717
920.708	3918
920.818	3827
920.928	3884
921.038	4029
921.148	3960
921.258	3720
921.368	3644
921.477	3561
921.587	3492
921.697	3496
921.806	3614
921.916	3534
922.025	3370
922.134	3340
922.244	3313
922.353	3443
922.462	3272
922.571	3249
922.68	3070
922.789	3051
922.898	3127
923.007	3097
923.116	3207
923.224	3199
923.333	3192
923.442	3093
923.55	3097
923.659	3135
923.767	3184
923.876	3138
923.984	3272
924.092	3108
924.201	3226
924.309	3249
924.417	3287
924.525	3161
924.633	3226
924.741	4181
924.849	3062
924.956	3268
925.064	3097
925.172	3055
925.279	3135
925.387	3184
925.494	3176
925.602	3313
925.709	3294
925.816	3192
925.924	3264
926.031	3367
926.138	3321
926.245	3344
926.352	3211
926.459	3386
926.566	3462
926.673	3340
926.779	3268
926.886	3233
926.993	3123
927.099	3104
927.206	3123
927.312	3123
927.419	3268
927.525	3146
927.631	3291
927.737	3127
927.843	3161
927.95	3043
928.056	3135
928.162	3195
928.267	3264
928.373	3804
928.479	3298
928.585	3055
928.69	3207
928.796	3283
928.901	3138
929.007	3047
929.112	3184
929.218	3233
929.323	3146
929.428	3097
929.533	3321
929.638	3112
929.743	3184
929.848	3272
929.953	3214
930.058	3135
930.163	3051
930.267	3047
930.372	3176
930.477	3032
930.581	3298
930.685	3180
930.79	3032
930.894	3104
930.998	3055
931.103	3298
931.207	2948
931.311	2918
931.415	2895
931.519	2762
931.623	2781
