Data from test_V78500241_439.txt Node
Date: Fri Mar 25 16:18:14 CST 2022
User: usil
Spectrometer: V785-0024
Trigger mode: 0
Integration Time (sec): 4.000000E-1
Scans to average: 1
Nonlinearity correction enabled: false
Boxcar width: 0
Storing dark spectrum: false
XAxis mode: Wavelengths
Number of Pixels in Spectrum: 1024
>>>>>Begin Spectral Data<<<<<
801.071	2918
801.214	2971
801.356	2929
801.499	2918
801.641	2891
801.783	2948
801.926	3085
802.068	2948
802.211	3020
802.353	3051
802.496	2960
802.638	3039
802.78	3009
802.923	3089
803.065	2998
803.208	2906
803.35	2910
803.492	2944
803.635	2895
803.777	2804
803.919	2826
804.061	3180
804.204	2971
804.346	2963
804.488	2883
804.63	2990
804.773	2918
804.915	2910
805.057	3097
805.199	2937
805.341	2979
805.483	3039
805.626	2971
805.768	2956
805.91	3131
806.052	3127
806.194	3020
806.336	3245
806.478	3066
806.62	2956
806.762	2990
806.904	3066
807.046	3173
807.188	2979
807.33	2948
807.472	2994
807.614	2937
807.756	3009
807.898	2899
808.04	2895
808.182	3001
808.324	2960
808.465	2899
808.607	2883
808.749	2815
808.891	2883
809.033	3001
809.174	2990
809.316	2899
809.458	2906
809.6	2804
809.741	2781
809.883	2766
810.025	2838
810.166	2861
810.308	2880
810.45	2861
810.591	2777
810.733	2769
810.875	2845
811.016	2792
811.158	2769
811.299	2815
811.441	2918
811.582	2918
811.724	2826
811.865	2834
812.007	2933
812.148	2864
812.29	2838
812.431	2891
812.573	2933
812.714	3001
812.855	3043
812.997	3039
813.138	3127
813.279	3051
813.421	2998
813.562	2960
813.703	2876
813.845	2902
813.986	2773
814.127	2758
814.268	2819
814.41	2868
814.551	2819
814.692	2887
814.833	2845
814.974	2906
815.115	2971
815.256	2849
815.397	2819
815.539	2857
815.68	2773
815.821	2804
815.962	2925
816.103	2933
816.244	2876
816.385	2887
816.526	2960
816.666	2925
816.807	2735
816.948	2876
817.089	2895
817.23	2864
817.371	2746
817.512	2819
817.653	2861
817.793	2826
817.934	2876
818.075	2952
818.216	2971
818.356	3028
818.497	2883
818.638	2777
818.778	2811
818.919	2811
819.06	2743
819.2	2880
819.341	2830
819.481	2777
819.622	2925
819.762	3066
819.903	3043
820.043	2918
820.184	2918
820.324	2922
820.465	3036
820.605	3009
820.746	3028
820.886	2933
821.026	3100
821.167	3161
821.307	3298
821.447	3294
821.588	3275
821.728	3226
821.868	3222
822.008	3100
822.149	3192
822.289	3237
822.429	3097
822.569	3146
822.709	3199
822.849	3077
822.99	3066
823.13	3150
823.27	3214
823.41	3173
823.55	3192
823.69	3173
823.83	3249
823.97	3119
824.11	3032
824.25	3005
824.389	3066
824.529	3169
824.669	3097
824.809	3233
824.949	3306
825.089	3275
825.228	3154
825.368	3032
825.508	2998
825.648	2979
825.787	3017
825.927	3024
826.067	3013
826.206	2986
826.346	3074
826.485	3085
826.625	3138
826.765	3264
826.904	3230
827.044	3013
827.183	2986
827.323	2918
827.462	3005
827.601	2979
827.741	2982
827.88	3005
828.02	2887
828.159	2994
828.298	3108
828.437	3146
828.577	3112
828.716	3313
828.855	3104
828.994	2952
829.134	2937
829.273	2937
829.412	2922
829.551	2906
829.69	2944
829.829	3097
829.968	3165
830.107	3055
830.246	3081
830.385	2979
830.524	2899
830.663	2845
830.802	2785
830.941	2682
831.08	2663
831.219	2777
831.357	2792
831.496	3005
831.635	2754
831.774	2693
831.913	2720
832.051	2583
832.19	2590
832.329	2731
832.467	2590
832.606	2514
832.744	2617
832.883	2648
833.022	2667
833.16	2701
833.299	2708
833.437	2735
833.576	2716
833.714	2788
833.852	2754
833.991	2796
834.129	2902
834.267	2849
834.406	2819
834.544	2914
834.682	2876
834.821	2868
834.959	3108
835.097	2933
835.235	3104
835.373	3047
835.511	3058
835.65	3001
835.788	3009
835.926	2887
836.064	2849
836.202	2861
836.34	3142
836.478	3154
836.615	3093
836.753	3169
836.891	3245
837.029	3184
837.167	3131
837.305	3093
837.443	3070
837.58	3032
837.718	3131
837.856	3100
837.993	3062
838.131	3192
838.269	3138
838.406	3154
838.544	3119
838.681	3001
838.819	2967
838.956	2861
839.094	2883
839.231	2948
839.369	3036
839.506	3397
839.643	3249
839.781	3039
839.918	3009
840.055	3089
840.193	3085
840.33	3142
840.467	3150
840.604	3150
840.742	3424
840.879	3085
841.016	3085
841.153	3150
841.29	3344
841.427	3310
841.564	3291
841.701	3332
841.838	3245
841.975	3173
842.112	3241
842.249	3173
842.385	3013
842.522	3298
842.659	3116
842.796	3066
842.933	3135
843.069	3055
843.206	3066
843.343	3211
843.479	3146
843.616	3157
843.752	2944
843.889	2910
844.025	3089
844.162	2906
844.298	3104
844.435	2975
844.571	2922
844.708	3081
844.844	3245
844.98	3321
845.117	3230
845.253	3074
845.389	3055
845.525	3127
845.661	3135
845.798	3036
845.934	3165
846.07	3066
846.206	3249
846.342	3336
846.478	3253
846.614	3089
846.75	3066
846.886	3077
847.022	3245
847.158	3157
847.294	3226
847.429	3260
847.565	3253
847.701	3538
847.837	3020
847.972	2994
848.108	3169
848.244	3154
848.379	3032
848.515	2979
848.65	2975
848.786	2975
848.921	3024
849.057	3116
849.192	3176
849.328	3104
849.463	3104
849.598	3074
849.734	3066
849.869	3013
850.004	2956
850.14	2971
850.275	2982
850.41	2880
850.545	2941
850.68	2956
850.815	2967
850.95	2971
851.085	3211
851.22	3116
851.355	3077
851.49	2994
851.625	3047
851.76	3020
851.895	2986
852.03	2925
852.165	3047
852.299	3142
852.434	3150
852.569	3169
852.703	3203
852.838	3298
852.973	3340
853.107	3344
853.242	3176
853.376	3119
853.511	3024
853.645	3062
853.78	3264
853.914	3161
854.048	3093
854.183	3135
854.317	3180
854.451	3294
854.585	3119
854.72	3138
854.854	3230
854.988	3097
855.122	3123
855.256	3032
855.39	3161
855.524	3283
855.658	3207
855.792	3138
855.926	3180
856.06	3226
856.194	3291
856.327	3127
856.461	3097
856.595	3108
856.729	3146
856.862	3226
856.996	3165
857.13	3256
857.263	3256
857.397	3298
857.53	3161
857.664	3233
857.797	3241
857.931	3241
858.064	3176
858.197	3230
858.331	3150
858.464	3131
858.597	3032
858.731	3123
858.864	3173
858.997	3119
859.13	3180
859.263	3211
859.396	3207
859.529	3100
859.662	3123
859.795	3055
859.928	3154
860.061	3283
860.194	3325
860.327	3146
860.46	3093
860.592	3268
860.725	3287
860.858	3260
860.99	3131
861.123	3085
861.256	3066
861.388	3203
861.521	3983
861.653	2998
861.786	3017
861.918	3032
862.05	3066
862.183	3074
862.315	3173
862.447	3199
862.58	3104
862.712	2982
862.844	2906
862.976	3077
863.108	3024
863.24	3420
863.372	2925
863.504	2982
863.636	3039
863.768	3024
863.9	3009
864.032	2902
864.164	2963
864.296	3009
864.428	3093
864.559	3131
864.691	3112
864.823	3077
864.954	3058
865.086	3058
865.217	3009
865.349	2967
865.48	3036
865.612	3028
865.743	3146
865.875	2998
866.006	2948
866.137	3017
866.269	2944
866.4	2975
866.531	2937
866.662	2887
866.793	2937
866.924	2899
867.055	3017
867.186	2944
867.317	2922
867.448	2864
867.579	2895
867.71	2861
867.841	2815
867.972	2937
868.103	2922
868.233	2929
868.364	2922
868.495	2922
868.625	3123
868.756	3199
868.886	2998
869.017	3058
869.147	3188
869.278	3188
869.408	3036
869.539	3047
869.669	3097
869.799	3070
869.929	3161
870.06	3150
870.19	3370
870.32	3279
870.45	3287
870.58	3409
870.71	3473
870.84	3485
870.97	3272
871.1	3230
871.23	3481
871.36	3492
871.489	3348
871.619	3420
871.749	3424
871.879	3428
872.008	3523
872.138	3374
872.267	3294
872.397	3180
872.526	3085
872.656	3070
872.785	3135
872.915	3291
873.044	3359
873.173	3256
873.303	3253
873.432	3241
873.561	3279
873.69	3188
873.819	3165
873.948	3230
874.077	3119
874.206	3013
874.335	3112
874.464	3237
874.593	3348
874.722	3249
874.851	3428
874.979	3420
875.108	3317
875.237	3192
875.365	3169
875.494	3188
875.623	3291
875.751	3085
875.88	3165
876.008	3222
876.136	3249
876.265	3340
876.393	3545
876.521	3458
876.65	3374
876.778	3344
876.906	3275
877.034	3226
877.162	3253
877.29	3195
877.418	3310
877.546	3310
877.674	3279
877.802	3260
877.93	3249
878.058	3165
878.185	3119
878.313	3249
878.441	3256
878.568	3062
878.696	3192
878.824	3260
878.951	3340
879.079	3439
879.206	3663
879.333	3447
879.461	3302
879.588	3363
879.715	3492
879.842	3595
879.97	3389
880.097	3222
880.224	3169
880.351	3218
880.478	3241
880.605	3203
880.732	3207
880.859	3530
880.986	3298
881.112	3359
881.239	3264
881.366	3108
881.493	3039
881.619	3028
881.746	3100
881.872	3108
881.999	3116
882.125	3157
882.252	3275
882.378	3291
882.505	3454
882.631	3302
882.757	3176
882.883	3199
883.01	3218
883.136	3195
883.262	3097
883.388	3104
883.514	3367
883.64	3393
883.766	3351
883.892	3211
884.018	3249
884.143	3431
884.269	3572
884.395	3241
884.52	3165
884.646	3184
884.772	3123
884.897	3138
885.023	3214
885.148	3336
885.274	3462
885.399	3351
885.524	3317
885.65	3287
885.775	3321
885.9	3310
886.025	3435
886.15	3382
886.275	3264
886.4	3233
886.525	3287
886.65	3306
886.775	3291
886.9	3496
887.025	3637
887.149	3435
887.274	3306
887.399	3176
887.523	3226
887.648	3188
887.773	3245
887.897	3386
888.021	3428
888.146	3275
888.27	3428
888.395	3564
888.519	3454
888.643	3492
888.767	3488
888.891	3329
889.015	3275
889.139	3268
889.263	3294
889.387	3439
889.511	3504
889.635	3454
889.759	3298
889.883	3317
890.006	3401
890.13	3545
890.254	3272
890.377	3332
890.501	3214
890.624	3222
890.748	3344
890.871	3222
890.995	3116
891.118	3062
891.241	3207
891.364	3249
891.488	3325
891.611	3188
891.734	3218
891.857	3329
891.98	3237
892.103	3359
892.226	3253
892.349	3245
892.471	3108
892.594	3264
892.717	3310
892.839	3283
892.962	3313
893.085	3359
893.207	3325
893.33	3154
893.452	3230
893.575	3363
893.697	3279
893.819	3473
893.941	3504
894.064	3469
894.186	3279
894.308	3260
894.43	3424
894.552	3534
894.674	3526
894.796	3298
894.918	3313
895.04	3294
895.161	3439
895.283	3374
895.405	3321
895.526	3370
895.648	3473
895.769	3405
895.891	3469
896.012	3496
896.134	3439
896.255	3435
896.376	3393
896.498	3351
896.619	3397
896.74	3389
896.861	3439
896.982	3652
897.103	3880
897.224	3610
897.345	3534
897.466	3431
897.587	3481
897.708	3610
897.828	3530
897.949	3462
898.07	3344
898.19	3435
898.311	3591
898.431	3424
898.552	3519
898.672	3599
898.792	3584
898.913	3545
899.033	3462
899.153	3256
899.273	3233
899.393	3321
899.513	3317
899.633	3340
899.753	3310
899.873	3306
899.993	3367
900.113	3332
900.232	3389
900.352	3344
900.472	3325
900.591	3214
900.711	3287
900.83	3245
900.95	3416
901.069	3492
901.189	3367
901.308	3161
901.427	3112
901.546	3188
901.665	3370
901.784	3340
901.904	3249
902.023	3146
902.141	3047
902.26	3017
902.379	3112
902.498	3112
902.617	3077
902.735	3245
902.854	3226
902.973	3214
903.091	3085
903.21	3055
903.328	3161
903.446	3093
903.565	3123
903.683	3207
903.801	3123
903.919	3272
904.038	3310
904.156	3176
904.274	3268
904.392	3260
904.51	3313
904.627	3348
904.745	3435
904.863	3511
904.981	3268
905.098	3226
905.216	3249
905.334	3310
905.451	3325
905.569	3306
905.686	3409
905.803	3477
905.921	3287
906.038	3450
906.155	3374
906.272	3283
906.389	3321
906.506	3199
906.623	3253
906.74	3291
906.857	3226
906.974	3260
907.091	3424
907.208	3542
907.324	3504
907.441	3401
907.557	3245
907.674	3264
907.79	3264
907.907	3256
908.023	3340
908.139	3389
908.256	3313
908.372	3370
908.488	3325
908.604	3294
908.72	3275
908.836	3233
908.952	3268
909.068	3374
909.184	3466
909.3	3393
909.415	3534
909.531	3507
909.647	3272
909.762	3283
909.878	3291
909.993	3386
910.108	3325
910.224	3359
910.339	3469
910.454	3291
910.57	3317
910.685	3245
910.8	3561
910.915	3538
911.03	3405
911.145	3241
911.259	3306
911.374	3298
911.489	3268
911.604	3245
911.718	3142
911.833	3161
911.947	3017
912.062	2986
912.176	3211
912.291	3207
912.405	3199
912.519	3435
912.633	3466
912.748	3344
912.862	3291
912.976	3176
913.09	3070
913.204	3123
913.318	3226
913.431	3367
913.545	3336
913.659	3393
913.772	3317
913.886	3233
914	3180
914.113	3340
914.226	3424
914.34	3378
914.453	3237
914.566	3450
914.68	3325
914.793	3336
914.906	3157
915.019	3142
915.132	3097
915.245	3203
915.358	3207
915.47	3203
915.583	3275
915.696	3287
915.809	3439
915.921	3420
916.034	3241
916.146	3294
916.259	3230
916.371	3386
916.483	3344
916.595	3291
916.708	3351
916.82	3370
916.932	3340
917.044	3340
917.156	3329
917.268	3275
917.38	3317
917.491	3268
917.603	3351
917.715	3481
917.826	3500
917.938	3401
918.049	3253
918.161	3405
918.272	3584
918.384	3580
918.495	3477
918.606	3355
918.717	3214
918.828	3389
918.939	3424
919.05	3317
919.161	3386
919.272	3218
919.383	3283
919.494	3515
919.604	3663
919.715	3439
919.826	3420
919.936	3462
920.047	3576
920.157	3561
920.267	3759
920.378	3622
920.488	3576
920.598	3789
920.708	3937
920.818	3804
920.928	3865
921.038	4002
921.148	4040
921.258	3690
921.368	3591
921.477	3591
921.587	3572
921.697	3485
921.806	3603
921.916	3549
922.025	3355
922.134	3382
922.244	3321
922.353	3447
922.462	3260
922.571	3218
922.68	3100
922.789	3077
922.898	3154
923.007	3093
923.116	3218
923.224	3165
923.333	3188
923.442	3123
923.55	3146
923.659	3108
923.767	3211
923.876	3123
923.984	3249
924.092	3135
924.201	3211
924.309	3214
924.417	3256
924.525	3192
924.633	3207
924.741	4192
924.849	3093
924.956	3268
925.064	3116
925.172	3047
925.279	3089
925.387	3173
925.494	3176
925.602	3340
925.709	3348
925.816	3222
925.924	3264
926.031	3329
926.138	3325
926.245	3363
926.352	3218
926.459	3378
926.566	3447
926.673	3340
926.779	3260
926.886	3226
926.993	3154
927.099	3104
927.206	3108
927.312	3070
927.419	3245
927.525	3211
927.631	3313
927.737	3142
927.843	3104
927.95	3024
928.056	3150
928.162	3165
928.267	3237
928.373	3804
928.479	3313
928.585	3100
928.69	3211
928.796	3291
928.901	3127
929.007	3066
929.112	3214
929.218	3207
929.323	3154
929.428	3165
929.533	3329
929.638	3119
929.743	3199
929.848	3287
929.953	3165
930.058	3116
930.163	2998
930.267	3043
930.372	3241
930.477	3017
930.581	3313
930.685	3180
930.79	3081
930.894	3127
930.998	3062
931.103	3268
931.207	2925
931.311	2902
931.415	2922
931.519	2781
931.623	2830
