Data from test_V78500241_1057.txt Node
Date: Fri Mar 25 16:22:31 CST 2022
User: usil
Spectrometer: V785-0024
Trigger mode: 0
Integration Time (sec): 4.000000E-1
Scans to average: 1
Nonlinearity correction enabled: false
Boxcar width: 0
Storing dark spectrum: false
XAxis mode: Wavelengths
Number of Pixels in Spectrum: 1024
>>>>>Begin Spectral Data<<<<<
801.071	2910
801.214	2960
801.356	2842
801.499	2937
801.641	2838
801.783	2906
801.926	3036
802.068	2956
802.211	3036
802.353	3047
802.496	2948
802.638	3009
802.78	3017
802.923	3051
803.065	3001
803.208	2887
803.35	2872
803.492	2944
803.635	2918
803.777	2769
803.919	2876
804.061	3192
804.204	2956
804.346	2918
804.488	2826
804.63	2967
804.773	2876
804.915	2918
805.057	3055
805.199	2922
805.341	2960
805.483	3047
805.626	2967
805.768	2960
805.91	3089
806.052	3104
806.194	3001
806.336	3214
806.478	3039
806.62	2910
806.762	2918
806.904	3077
807.046	3119
807.188	2933
807.33	2899
807.472	2941
807.614	2872
807.756	2952
807.898	2902
808.04	2872
808.182	2971
808.324	2963
808.465	2895
808.607	2902
808.749	2796
808.891	2861
809.033	2975
809.174	2994
809.316	2883
809.458	2864
809.6	2762
809.741	2792
809.883	2743
810.025	2861
810.166	2834
810.308	2845
810.45	2853
810.591	2788
810.733	2792
810.875	2819
811.016	2800
811.158	2754
811.299	2788
811.441	2906
811.582	2868
811.724	2811
811.865	2819
812.007	2887
812.148	2891
812.29	2823
812.431	2872
812.573	2963
812.714	2910
812.855	3005
812.997	3077
813.138	3116
813.279	3017
813.421	3028
813.562	2941
813.703	2853
813.845	2872
813.986	2758
814.127	2727
814.268	2807
814.41	2842
814.551	2796
814.692	2838
814.833	2811
814.974	2902
815.115	2929
815.256	2819
815.397	2811
815.539	2838
815.68	2777
815.821	2796
815.962	2967
816.103	2925
816.244	2876
816.385	2849
816.526	2982
816.666	2910
816.807	2735
816.948	2861
817.089	2883
817.23	2880
817.371	2796
817.512	2834
817.653	2807
817.793	2781
817.934	2845
818.075	2925
818.216	3001
818.356	3017
818.497	2868
818.638	2800
818.778	2849
818.919	2788
819.06	2766
819.2	2914
819.341	2807
819.481	2811
819.622	2899
819.762	3081
819.903	3039
820.043	2948
820.184	2914
820.324	2895
820.465	2982
820.605	3024
820.746	2960
820.886	2914
821.026	3100
821.167	3161
821.307	3268
821.447	3268
821.588	3264
821.728	3233
821.868	3195
822.008	3081
822.149	3138
822.289	3230
822.429	3055
822.569	3081
822.709	3169
822.849	3020
822.99	3043
823.13	3157
823.27	3226
823.41	3074
823.55	3146
823.69	3131
823.83	3180
823.97	3093
824.11	2994
824.25	3028
824.389	3055
824.529	3100
824.669	3051
824.809	3173
824.949	3226
825.089	3214
825.228	3161
825.368	2979
825.508	2944
825.648	2971
825.787	3020
825.927	3036
826.067	2982
826.206	2948
826.346	3051
826.485	3077
826.625	3112
826.765	3214
826.904	3207
827.044	2986
827.183	2925
827.323	2872
827.462	2967
827.601	2887
827.741	2925
827.88	2979
828.02	2868
828.159	2937
828.298	2975
828.437	3123
828.577	3024
828.716	3226
828.855	3066
828.994	2922
829.134	2883
829.273	2914
829.412	2834
829.551	2849
829.69	2883
829.829	2990
829.968	3138
830.107	3028
830.246	3020
830.385	2925
830.524	2880
830.663	2788
830.802	2720
830.941	2663
831.08	2659
831.219	2750
831.357	2750
831.496	2937
831.635	2720
831.774	2625
831.913	2640
832.051	2518
832.19	2575
832.329	2689
832.467	2533
832.606	2511
832.744	2568
832.883	2590
833.022	2598
833.16	2629
833.299	2674
833.437	2701
833.576	2670
833.714	2682
833.852	2731
833.991	2735
834.129	2804
834.267	2830
834.406	2807
834.544	2845
834.682	2868
834.821	2864
834.959	3032
835.097	2876
835.235	3047
835.373	3013
835.511	3032
835.65	2963
835.788	2918
835.926	2830
836.064	2788
836.202	2823
836.34	3131
836.478	3150
836.615	3070
836.753	3104
836.891	3199
837.029	3131
837.167	3093
837.305	3062
837.443	3032
837.58	2979
837.718	3116
837.856	3085
837.993	3055
838.131	3131
838.269	3089
838.406	3104
838.544	3070
838.681	2929
838.819	2933
838.956	2773
839.094	2804
839.231	2902
839.369	2960
839.506	3370
839.643	3218
839.781	2982
839.918	2967
840.055	3020
840.193	3005
840.33	3051
840.467	3066
840.604	3154
840.742	3405
840.879	3047
841.016	3066
841.153	3100
841.29	3351
841.427	3310
841.564	3272
841.701	3351
841.838	3218
841.975	3150
842.112	3214
842.249	3077
842.385	3043
842.522	3253
842.659	3055
842.796	3032
842.933	3116
843.069	3028
843.206	3001
843.343	3214
843.479	3077
843.616	3150
843.752	2891
843.889	2861
844.025	3074
844.162	2902
844.298	3009
844.435	2963
844.571	2902
844.708	3032
844.844	3108
844.98	3176
845.117	3180
845.253	3066
845.389	2986
845.525	3097
845.661	3024
845.798	2963
845.934	3100
846.07	3047
846.206	3237
846.342	3302
846.478	3233
846.614	3116
846.75	3043
846.886	3020
847.022	3218
847.158	3131
847.294	3195
847.429	3226
847.565	3154
847.701	3469
847.837	3032
847.972	2998
848.108	3161
848.244	3150
848.379	2952
848.515	2948
848.65	2906
848.786	2925
848.921	3001
849.057	3131
849.192	3169
849.328	3070
849.463	3097
849.598	3100
849.734	3043
849.869	2960
850.004	2899
850.14	2933
850.275	2922
850.41	2815
850.545	2868
850.68	2887
850.815	2967
850.95	2990
851.085	3180
851.22	3112
851.355	3028
851.49	2960
851.625	3013
851.76	2998
851.895	2918
852.03	2876
852.165	3024
852.299	3138
852.434	3188
852.569	3161
852.703	3188
852.838	3195
852.973	3332
853.107	3325
853.242	3138
853.376	3100
853.511	2952
853.645	3009
853.78	3211
853.914	3097
854.048	3116
854.183	3089
854.317	3169
854.451	3260
854.585	3112
854.72	3093
854.854	3214
854.988	3043
855.122	3089
855.256	2979
855.39	3112
855.524	3233
855.658	3180
855.792	3150
855.926	3131
856.06	3192
856.194	3279
856.327	3127
856.461	3024
856.595	3089
856.729	3051
856.862	3218
856.996	3176
857.13	3176
857.263	3207
857.397	3275
857.53	3135
857.664	3188
857.797	3241
857.931	3230
858.064	3176
858.197	3211
858.331	3146
858.464	3116
858.597	3062
858.731	3066
858.864	3119
858.997	3070
859.13	3135
859.263	3165
859.396	3188
859.529	3104
859.662	3077
859.795	2998
859.928	3146
860.061	3245
860.194	3275
860.327	3123
860.46	3058
860.592	3176
860.725	3222
860.858	3275
860.99	3097
861.123	3024
861.256	3070
861.388	3161
861.521	3804
861.653	2990
861.786	2963
861.918	2998
862.05	3051
862.183	3081
862.315	3112
862.447	3207
862.58	3116
862.712	2941
862.844	2906
862.976	3028
863.108	2979
863.24	3416
863.372	2880
863.504	2929
863.636	2960
863.768	3020
863.9	2975
864.032	2948
864.164	2937
864.296	3020
864.428	3062
864.559	3119
864.691	3100
864.823	3100
864.954	3047
865.086	3043
865.217	2979
865.349	2960
865.48	2967
865.612	3028
865.743	3116
865.875	2982
866.006	2941
866.137	2994
866.269	2944
866.4	2929
866.531	2937
866.662	2891
866.793	2933
866.924	2880
867.055	2982
867.186	2910
867.317	2861
867.448	2849
867.579	2838
867.71	2845
867.841	2811
867.972	2883
868.103	2914
868.233	2910
868.364	2876
868.495	2887
868.625	3081
868.756	3108
868.886	2982
869.017	2994
869.147	3169
869.278	3154
869.408	3077
869.539	3055
869.669	3093
869.799	3028
869.929	3135
870.06	3089
870.19	3298
870.32	3268
870.45	3291
870.58	3412
870.71	3420
870.84	3447
870.97	3310
871.1	3283
871.23	3485
871.36	3447
871.489	3370
871.619	3386
871.749	3386
871.879	3473
872.008	3439
872.138	3355
872.267	3268
872.397	3154
872.526	3097
872.656	3009
872.785	3119
872.915	3241
873.044	3321
873.173	3230
873.303	3237
873.432	3226
873.561	3230
873.69	3180
873.819	3131
873.948	3165
874.077	3093
874.206	3039
874.335	3081
874.464	3199
874.593	3321
874.722	3199
874.851	3416
874.979	3374
875.108	3298
875.237	3218
875.365	3138
875.494	3157
875.623	3256
875.751	3051
875.88	3112
876.008	3173
876.136	3226
876.265	3336
876.393	3523
876.521	3447
876.65	3412
876.778	3332
876.906	3241
877.034	3207
877.162	3226
877.29	3161
877.418	3241
877.546	3253
877.674	3241
877.802	3226
877.93	3180
878.058	3169
878.185	3116
878.313	3241
878.441	3214
878.568	3062
878.696	3142
878.824	3253
878.951	3256
879.079	3416
879.206	3603
879.333	3405
879.461	3378
879.588	3321
879.715	3469
879.842	3549
879.97	3378
880.097	3135
880.224	3100
880.351	3180
880.478	3188
880.605	3203
880.732	3192
880.859	3488
880.986	3302
881.112	3355
881.239	3195
881.366	3104
881.493	2990
881.619	3001
881.746	3043
881.872	3119
881.999	3119
882.125	3146
882.252	3211
882.378	3275
882.505	3450
882.631	3287
882.757	3093
882.883	3222
883.01	3237
883.136	3138
883.262	3077
883.388	3089
883.514	3332
883.64	3378
883.766	3317
883.892	3173
884.018	3211
884.143	3386
884.269	3538
884.395	3180
884.52	3146
884.646	3157
884.772	3161
884.897	3123
885.023	3195
885.148	3321
885.274	3443
885.399	3348
885.524	3279
885.65	3256
885.775	3279
885.9	3306
886.025	3355
886.15	3340
886.275	3317
886.4	3233
886.525	3256
886.65	3294
886.775	3245
886.9	3477
887.025	3652
887.149	3378
887.274	3233
887.399	3176
887.523	3188
887.648	3161
887.773	3214
887.897	3332
888.021	3370
888.146	3287
888.27	3454
888.395	3542
888.519	3428
888.643	3447
888.767	3454
888.891	3340
889.015	3226
889.139	3291
889.263	3283
889.387	3405
889.511	3515
889.635	3454
889.759	3298
889.883	3287
890.006	3420
890.13	3504
890.254	3249
890.377	3367
890.501	3180
890.624	3188
890.748	3310
890.871	3207
890.995	3112
891.118	3051
891.241	3184
891.364	3241
891.488	3291
891.611	3173
891.734	3253
891.857	3268
891.98	3222
892.103	3332
892.226	3272
892.349	3203
892.471	3108
892.594	3222
892.717	3260
892.839	3245
892.962	3275
893.085	3363
893.207	3306
893.33	3146
893.452	3226
893.575	3313
893.697	3237
893.819	3481
893.941	3496
894.064	3443
894.186	3253
894.308	3272
894.43	3443
894.552	3526
894.674	3477
894.796	3272
894.918	3294
895.04	3310
895.161	3416
895.283	3405
895.405	3260
895.526	3389
895.648	3416
895.769	3416
895.891	3439
896.012	3481
896.134	3462
896.255	3439
896.376	3397
896.498	3351
896.619	3374
896.74	3367
896.861	3382
896.982	3686
897.103	3812
897.224	3652
897.345	3485
897.466	3420
897.587	3504
897.708	3576
897.828	3545
897.949	3435
898.07	3332
898.19	3386
898.311	3549
898.431	3450
898.552	3519
898.672	3564
898.792	3564
898.913	3485
899.033	3420
899.153	3313
899.273	3211
899.393	3283
899.513	3317
899.633	3310
899.753	3329
899.873	3287
899.993	3340
900.113	3321
900.232	3393
900.352	3351
900.472	3287
900.591	3195
900.711	3340
900.83	3173
900.95	3397
901.069	3458
901.189	3306
901.308	3184
901.427	3097
901.546	3154
901.665	3287
901.784	3313
901.904	3199
902.023	3131
902.141	2982
902.26	3036
902.379	3104
902.498	3100
902.617	3058
902.735	3211
902.854	3241
902.973	3180
903.091	3062
903.21	3066
903.328	3127
903.446	3062
903.565	3104
903.683	3173
903.801	3112
903.919	3264
904.038	3287
904.156	3116
904.274	3279
904.392	3226
904.51	3272
904.627	3272
904.745	3416
904.863	3481
904.981	3253
905.098	3203
905.216	3222
905.334	3245
905.451	3275
905.569	3294
905.686	3382
905.803	3447
905.921	3275
906.038	3382
906.155	3332
906.272	3222
906.389	3329
906.506	3222
906.623	3245
906.74	3268
906.857	3195
906.974	3218
907.091	3450
907.208	3572
907.324	3443
907.441	3389
907.557	3241
907.674	3195
907.79	3203
907.907	3287
908.023	3374
908.139	3370
908.256	3317
908.372	3363
908.488	3351
908.604	3253
908.72	3260
908.836	3294
908.952	3310
909.068	3298
909.184	3477
909.3	3416
909.415	3496
909.531	3447
909.647	3291
909.762	3275
909.878	3245
909.993	3340
910.108	3313
910.224	3329
910.339	3412
910.454	3306
910.57	3287
910.685	3260
910.8	3584
910.915	3538
911.03	3424
911.145	3253
911.259	3272
911.374	3294
911.489	3222
911.604	3249
911.718	3074
911.833	3138
911.947	3020
912.062	2967
912.176	3142
912.291	3169
912.405	3184
912.519	3428
912.633	3462
912.748	3302
912.862	3268
912.976	3127
913.09	3062
913.204	3116
913.318	3230
913.431	3317
913.545	3340
913.659	3382
913.772	3283
913.886	3214
914	3199
914.113	3321
914.226	3435
914.34	3370
914.453	3207
914.566	3397
914.68	3268
914.793	3253
914.906	3138
915.019	3123
915.132	3055
915.245	3154
915.358	3237
915.47	3214
915.583	3241
915.696	3287
915.809	3435
915.921	3393
916.034	3256
916.146	3226
916.259	3188
916.371	3378
916.483	3374
916.595	3272
916.708	3313
916.82	3317
916.932	3302
917.044	3363
917.156	3302
917.268	3283
917.38	3310
917.491	3287
917.603	3378
917.715	3431
917.826	3435
917.938	3382
918.049	3279
918.161	3443
918.272	3599
918.384	3538
918.495	3488
918.606	3355
918.717	3272
918.828	3393
918.939	3386
919.05	3272
919.161	3405
919.272	3161
919.383	3287
919.494	3511
919.604	3713
919.715	3485
919.826	3416
919.936	3466
920.047	3591
920.157	3561
920.267	3789
920.378	3641
920.488	3587
920.598	3804
920.708	3934
920.818	3857
920.928	3865
921.038	4044
921.148	4010
921.258	3778
921.368	3656
921.477	3622
921.587	3580
921.697	3496
921.806	3671
921.916	3576
922.025	3367
922.134	3412
922.244	3363
922.353	3454
922.462	3291
922.571	3253
922.68	3173
922.789	3123
922.898	3192
923.007	3123
923.116	3294
923.224	3192
923.333	3222
923.442	3146
923.55	3097
923.659	3203
923.767	3283
923.876	3188
923.984	3291
924.092	3123
924.201	3272
924.309	3268
924.417	3256
924.525	3249
924.633	3321
924.741	4238
924.849	3119
924.956	3283
925.064	3154
925.172	3043
925.279	3165
925.387	3237
925.494	3207
925.602	3367
925.709	3405
925.816	3272
925.924	3321
926.031	3393
926.138	3393
926.245	3477
926.352	3317
926.459	3492
926.566	3523
926.673	3348
926.779	3294
926.886	3291
926.993	3188
927.099	3184
927.206	3135
927.312	3135
927.419	3287
927.525	3253
927.631	3302
927.737	3180
927.843	3157
927.95	3036
928.056	3203
928.162	3222
928.267	3294
928.373	3934
928.479	3348
928.585	3081
928.69	3256
928.796	3329
928.901	3199
929.007	3085
929.112	3233
929.218	3154
929.323	3211
929.428	3157
929.533	3355
929.638	3146
929.743	3165
929.848	3264
929.953	3207
930.058	3207
930.163	3028
930.267	3081
930.372	3230
930.477	3039
930.581	3370
930.685	3173
930.79	3077
930.894	3142
930.998	3142
931.103	3291
931.207	2967
931.311	2952
931.415	2929
931.519	2800
931.623	2880
