Data from test_V78500241_1106.txt Node
Date: Fri Mar 25 16:22:51 CST 2022
User: usil
Spectrometer: V785-0024
Trigger mode: 0
Integration Time (sec): 4.000000E-1
Scans to average: 1
Nonlinearity correction enabled: false
Boxcar width: 0
Storing dark spectrum: false
XAxis mode: Wavelengths
Number of Pixels in Spectrum: 1024
>>>>>Begin Spectral Data<<<<<
801.071	2929
801.214	2963
801.356	2910
801.499	2895
801.641	2891
801.783	2918
801.926	3081
802.068	3024
802.211	3001
802.353	3085
802.496	3005
802.638	3032
802.78	3028
802.923	3100
803.065	3032
803.208	2914
803.35	2918
803.492	2960
803.635	2933
803.777	2773
803.919	2887
804.061	3184
804.204	2922
804.346	2922
804.488	2861
804.63	3039
804.773	2902
804.915	2910
805.057	3066
805.199	2906
805.341	3001
805.483	3058
805.626	3013
805.768	2986
805.91	3062
806.052	3138
806.194	3070
806.336	3253
806.478	3039
806.62	2982
806.762	3005
806.904	3024
807.046	3146
807.188	2963
807.33	2895
807.472	3001
807.614	2914
807.756	2979
807.898	2902
808.04	2899
808.182	2975
808.324	2948
808.465	2902
808.607	2918
808.749	2826
808.891	2857
809.033	2994
809.174	2986
809.316	2876
809.458	2902
809.6	2815
809.741	2773
809.883	2762
810.025	2830
810.166	2849
810.308	2857
810.45	2849
810.591	2796
810.733	2781
810.875	2838
811.016	2769
811.158	2769
811.299	2807
811.441	2944
811.582	2895
811.724	2826
811.865	2826
812.007	2933
812.148	2864
812.29	2849
812.431	2910
812.573	2982
812.714	2982
812.855	3036
812.997	3066
813.138	3135
813.279	3020
813.421	2975
813.562	2941
813.703	2834
813.845	2891
813.986	2769
814.127	2720
814.268	2842
814.41	2826
814.551	2819
814.692	2880
814.833	2777
814.974	2868
815.115	2933
815.256	2819
815.397	2838
815.539	2868
815.68	2727
815.821	2792
815.962	2941
816.103	2944
816.244	2887
816.385	2868
816.526	2956
816.666	2906
816.807	2743
816.948	2857
817.089	2887
817.23	2853
817.371	2796
817.512	2800
817.653	2857
817.793	2819
817.934	2895
818.075	2971
818.216	2975
818.356	3039
818.497	2902
818.638	2804
818.778	2845
818.919	2781
819.06	2754
819.2	2902
819.341	2785
819.481	2800
819.622	2876
819.762	3119
819.903	3055
820.043	2914
820.184	2891
820.324	2880
820.465	3009
820.605	3039
820.746	3036
820.886	2922
821.026	3058
821.167	3165
821.307	3230
821.447	3272
821.588	3237
821.728	3207
821.868	3169
822.008	3077
822.149	3207
822.289	3218
822.429	3089
822.569	3077
822.709	3100
822.849	3020
822.99	3070
823.13	3180
823.27	3176
823.41	3108
823.55	3119
823.69	3123
823.83	3203
823.97	3097
824.11	2979
824.25	2971
824.389	3032
824.529	3097
824.669	3032
824.809	3214
824.949	3211
825.089	3218
825.228	3150
825.368	3020
825.508	2971
825.648	2967
825.787	3024
825.927	3017
826.067	2975
826.206	2994
826.346	3051
826.485	3077
826.625	3165
826.765	3291
826.904	3226
827.044	2998
827.183	2956
827.323	2906
827.462	3032
827.601	2937
827.741	2952
827.88	2971
828.02	2880
828.159	2982
828.298	3085
828.437	3154
828.577	3055
828.716	3245
828.855	3112
828.994	2929
829.134	2918
829.273	2941
829.412	2929
829.551	2937
829.69	2925
829.829	3032
829.968	3165
830.107	3036
830.246	3097
830.385	2963
830.524	2948
830.663	2861
830.802	2792
830.941	2689
831.08	2659
831.219	2823
831.357	2796
831.496	2971
831.635	2758
831.774	2682
831.913	2689
832.051	2594
832.19	2617
832.329	2724
832.467	2552
832.606	2533
832.744	2625
832.883	2617
833.022	2613
833.16	2686
833.299	2724
833.437	2724
833.576	2735
833.714	2773
833.852	2735
833.991	2777
834.129	2853
834.267	2861
834.406	2819
834.544	2902
834.682	2902
834.821	2922
834.959	3104
835.097	2948
835.235	3108
835.373	3051
835.511	3028
835.65	2979
835.788	2967
835.926	2868
836.064	2857
836.202	2914
836.34	3157
836.478	3199
836.615	3074
836.753	3146
836.891	3260
837.029	3207
837.167	3142
837.305	3089
837.443	3074
837.58	2998
837.718	3161
837.856	3104
837.993	3055
838.131	3146
838.269	3127
838.406	3142
838.544	3119
838.681	2990
838.819	2956
838.956	2861
839.094	2872
839.231	2948
839.369	3043
839.506	3393
839.643	3218
839.781	3070
839.918	2960
840.055	3085
840.193	3081
840.33	3093
840.467	3150
840.604	3199
840.742	3447
840.879	3093
841.016	3085
841.153	3146
841.29	3351
841.427	3325
841.564	3287
841.701	3310
841.838	3233
841.975	3173
842.112	3272
842.249	3097
842.385	3058
842.522	3268
842.659	3116
842.796	3066
842.933	3146
843.069	3051
843.206	3070
843.343	3222
843.479	3119
843.616	3176
843.752	2941
843.889	2853
844.025	3116
844.162	2918
844.298	3119
844.435	2963
844.571	2960
844.708	3108
844.844	3195
844.98	3260
845.117	3195
845.253	3097
845.389	3043
845.525	3119
845.661	3138
845.798	3058
845.934	3142
846.07	3093
846.206	3275
846.342	3355
846.478	3272
846.614	3104
846.75	3081
846.886	3051
847.022	3317
847.158	3150
847.294	3230
847.429	3317
847.565	3226
847.701	3492
847.837	3028
847.972	3058
848.108	3176
848.244	3176
848.379	3047
848.515	2948
848.65	2967
848.786	3020
848.921	3028
849.057	3097
849.192	3207
849.328	3039
849.463	3135
849.598	3112
849.734	3089
849.869	3013
850.004	2960
850.14	2990
850.275	2941
850.41	2902
850.545	2914
850.68	2948
850.815	2982
850.95	3009
851.085	3245
851.22	3100
851.355	3100
851.49	3017
851.625	3028
851.76	3024
851.895	2975
852.03	2963
852.165	3055
852.299	3142
852.434	3237
852.569	3184
852.703	3203
852.838	3283
852.973	3332
853.107	3359
853.242	3157
853.376	3104
853.511	2982
853.645	3066
853.78	3275
853.914	3169
854.048	3142
854.183	3100
854.317	3195
854.451	3325
854.585	3131
854.72	3085
854.854	3211
854.988	3081
855.122	3131
855.256	2990
855.39	3146
855.524	3272
855.658	3195
855.792	3188
855.926	3230
856.06	3245
856.194	3287
856.327	3176
856.461	3089
856.595	3112
856.729	3112
856.862	3306
856.996	3214
857.13	3211
857.263	3253
857.397	3302
857.53	3131
857.664	3222
857.797	3279
857.931	3313
858.064	3207
858.197	3214
858.331	3173
858.464	3154
858.597	3036
858.731	3131
858.864	3169
858.997	3146
859.13	3207
859.263	3195
859.396	3264
859.529	3116
859.662	3100
859.795	3097
859.928	3157
860.061	3272
860.194	3298
860.327	3100
860.46	3150
860.592	3249
860.725	3287
860.858	3245
860.99	3097
861.123	3066
861.256	3104
861.388	3157
861.521	3747
861.653	3051
861.786	3020
861.918	3001
862.05	3074
862.183	3119
862.315	3169
862.447	3211
862.58	3112
862.712	2956
862.844	2941
862.976	3047
863.108	2990
863.24	3454
863.372	2895
863.504	2986
863.636	2986
863.768	3043
863.9	3043
864.032	2933
864.164	2994
864.296	3043
864.428	3127
864.559	3116
864.691	3112
864.823	3085
864.954	3028
865.086	3017
865.217	2998
865.349	2937
865.48	2982
865.612	3066
865.743	3214
865.875	3032
866.006	2948
866.137	2979
866.269	2956
866.4	2967
866.531	2952
866.662	2925
866.793	2941
866.924	2941
867.055	2994
867.186	2967
867.317	2906
867.448	2868
867.579	2887
867.71	2910
867.841	2849
867.972	2910
868.103	2918
868.233	2918
868.364	2880
868.495	2944
868.625	3085
868.756	3184
868.886	3001
869.017	3036
869.147	3173
869.278	3176
869.408	3089
869.539	3070
869.669	3119
869.799	3070
869.929	3135
870.06	3150
870.19	3355
870.32	3279
870.45	3306
870.58	3367
870.71	3443
870.84	3450
870.97	3313
871.1	3272
871.23	3511
871.36	3545
871.489	3405
871.619	3397
871.749	3405
871.879	3454
872.008	3511
872.138	3351
872.267	3294
872.397	3169
872.526	3104
872.656	3005
872.785	3119
872.915	3245
873.044	3310
873.173	3233
873.303	3264
873.432	3268
873.561	3275
873.69	3188
873.819	3169
873.948	3230
874.077	3138
874.206	3043
874.335	3093
874.464	3249
874.593	3409
874.722	3249
874.851	3397
874.979	3359
875.108	3340
875.237	3233
875.365	3169
875.494	3222
875.623	3264
875.751	3100
875.88	3150
876.008	3176
876.136	3230
876.265	3378
876.393	3580
876.521	3401
876.65	3389
876.778	3344
876.906	3275
877.034	3184
877.162	3245
877.29	3184
877.418	3275
877.546	3287
877.674	3287
877.802	3279
877.93	3256
878.058	3180
878.185	3135
878.313	3188
878.441	3203
878.568	3085
878.696	3176
878.824	3272
878.951	3317
879.079	3450
879.206	3641
879.333	3469
879.461	3351
879.588	3363
879.715	3469
879.842	3599
879.97	3359
880.097	3195
880.224	3127
880.351	3207
880.478	3230
880.605	3237
880.732	3207
880.859	3504
880.986	3367
881.112	3344
881.239	3249
881.366	3112
881.493	3085
881.619	3028
881.746	3127
881.872	3131
881.999	3131
882.125	3146
882.252	3256
882.378	3287
882.505	3450
882.631	3256
882.757	3169
882.883	3253
883.01	3222
883.136	3180
883.262	3123
883.388	3077
883.514	3359
883.64	3386
883.766	3294
883.892	3173
884.018	3260
884.143	3450
884.269	3538
884.395	3218
884.52	3192
884.646	3214
884.772	3142
884.897	3131
885.023	3237
885.148	3332
885.274	3488
885.399	3401
885.524	3287
885.65	3279
885.775	3344
885.9	3268
886.025	3462
886.15	3405
886.275	3302
886.4	3256
886.525	3310
886.65	3310
886.775	3321
886.9	3549
887.025	3686
887.149	3416
887.274	3260
887.399	3180
887.523	3165
887.648	3169
887.773	3214
887.897	3382
888.021	3443
888.146	3287
888.27	3477
888.395	3568
888.519	3428
888.643	3439
888.767	3435
888.891	3336
889.015	3264
889.139	3294
889.263	3279
889.387	3428
889.511	3538
889.635	3466
889.759	3332
889.883	3302
890.006	3378
890.13	3515
890.254	3283
890.377	3355
890.501	3237
890.624	3192
890.748	3321
890.871	3169
890.995	3131
891.118	3074
891.241	3214
891.364	3233
891.488	3344
891.611	3218
891.734	3272
891.857	3310
891.98	3218
892.103	3416
892.226	3272
892.349	3230
892.471	3169
892.594	3268
892.717	3325
892.839	3268
892.962	3294
893.085	3367
893.207	3325
893.33	3199
893.452	3233
893.575	3355
893.697	3256
893.819	3469
893.941	3542
894.064	3412
894.186	3287
894.308	3283
894.43	3473
894.552	3595
894.674	3439
894.796	3253
894.918	3336
895.04	3283
895.161	3435
895.283	3405
895.405	3329
895.526	3370
895.648	3439
895.769	3454
895.891	3450
896.012	3477
896.134	3488
896.255	3424
896.376	3374
896.498	3359
896.619	3412
896.74	3424
896.861	3424
896.982	3713
897.103	3838
897.224	3610
897.345	3526
897.466	3439
897.587	3504
897.708	3610
897.828	3530
897.949	3473
898.07	3378
898.19	3431
898.311	3614
898.431	3466
898.552	3515
898.672	3610
898.792	3595
898.913	3523
899.033	3424
899.153	3310
899.273	3226
899.393	3329
899.513	3321
899.633	3344
899.753	3359
899.873	3348
899.993	3405
900.113	3348
900.232	3389
900.352	3355
900.472	3294
900.591	3199
900.711	3329
900.83	3294
900.95	3397
901.069	3481
901.189	3351
901.308	3211
901.427	3161
901.546	3161
901.665	3260
901.784	3348
901.904	3230
902.023	3146
902.141	3013
902.26	3020
902.379	3150
902.498	3051
902.617	3097
902.735	3230
902.854	3233
902.973	3195
903.091	3066
903.21	3108
903.328	3146
903.446	3108
903.565	3108
903.683	3211
903.801	3135
903.919	3264
904.038	3272
904.156	3176
904.274	3283
904.392	3287
904.51	3313
904.627	3389
904.745	3450
904.863	3481
904.981	3275
905.098	3180
905.216	3241
905.334	3291
905.451	3340
905.569	3310
905.686	3443
905.803	3443
905.921	3306
906.038	3431
906.155	3397
906.272	3287
906.389	3374
906.506	3272
906.623	3291
906.74	3294
906.857	3218
906.974	3279
907.091	3393
907.208	3572
907.324	3481
907.441	3412
907.557	3245
907.674	3272
907.79	3230
907.907	3256
908.023	3370
908.139	3382
908.256	3306
908.372	3401
908.488	3351
908.604	3272
908.72	3272
908.836	3310
908.952	3275
909.068	3374
909.184	3500
909.3	3393
909.415	3523
909.531	3443
909.647	3325
909.762	3325
909.878	3253
909.993	3359
910.108	3275
910.224	3344
910.339	3351
910.454	3325
910.57	3306
910.685	3279
910.8	3576
910.915	3549
911.03	3435
911.145	3287
911.259	3203
911.374	3325
911.489	3264
911.604	3218
911.718	3116
911.833	3131
911.947	3017
912.062	3017
912.176	3195
912.291	3211
912.405	3192
912.519	3454
912.633	3462
912.748	3321
912.862	3264
912.976	3169
913.09	3081
913.204	3157
913.318	3211
913.431	3348
913.545	3359
913.659	3424
913.772	3340
913.886	3249
914	3188
914.113	3329
914.226	3389
914.34	3412
914.453	3195
914.566	3443
914.68	3260
914.793	3313
914.906	3135
915.019	3135
915.132	3089
915.245	3173
915.358	3245
915.47	3256
915.583	3256
915.696	3325
915.809	3409
915.921	3389
916.034	3268
916.146	3256
916.259	3245
916.371	3363
916.483	3382
916.595	3310
916.708	3344
916.82	3348
916.932	3344
917.044	3348
917.156	3355
917.268	3253
917.38	3298
917.491	3302
917.603	3386
917.715	3439
917.826	3466
917.938	3378
918.049	3272
918.161	3462
918.272	3625
918.384	3580
918.495	3507
918.606	3321
918.717	3294
918.828	3435
918.939	3409
919.05	3272
919.161	3359
919.272	3214
919.383	3275
919.494	3469
919.604	3717
919.715	3485
919.826	3439
919.936	3443
920.047	3629
920.157	3580
920.267	3804
920.378	3629
920.488	3580
920.598	3812
920.708	3949
920.818	3838
920.928	3838
921.038	4013
921.148	4013
921.258	3690
921.368	3652
921.477	3587
921.587	3584
921.697	3435
921.806	3644
921.916	3496
922.025	3359
922.134	3329
922.244	3272
922.353	3466
922.462	3283
922.571	3291
922.68	3131
922.789	3081
922.898	3176
923.007	3135
923.116	3199
923.224	3203
923.333	3142
923.442	3131
923.55	3100
923.659	3161
923.767	3241
923.876	3089
923.984	3218
924.092	3097
924.201	3214
924.309	3211
924.417	3226
924.525	3207
924.633	3226
924.741	4017
924.849	3051
924.956	3287
925.064	3116
925.172	3051
925.279	3131
925.387	3199
925.494	3230
925.602	3367
925.709	3340
925.816	3214
925.924	3279
926.031	3382
926.138	3348
926.245	3367
926.352	3237
926.459	3401
926.566	3481
926.673	3321
926.779	3291
926.886	3253
926.993	3165
927.099	3100
927.206	3154
927.312	3127
927.419	3256
927.525	3222
927.631	3275
927.737	3116
927.843	3131
927.95	3017
928.056	3131
928.162	3169
928.267	3230
928.373	3915
928.479	3283
928.585	3074
928.69	3184
928.796	3279
928.901	3188
929.007	3047
929.112	3214
929.218	3195
929.323	3142
929.428	3169
929.533	3287
929.638	3085
929.743	3176
929.848	3310
929.953	3192
930.058	3188
930.163	3036
930.267	3043
930.372	3199
930.477	3028
930.581	3302
930.685	3199
930.79	3062
930.894	3108
930.998	3119
931.103	3317
931.207	2960
931.311	2914
931.415	2914
931.519	2769
931.623	2811
