Data from test_V78500241_1267.txt Node
Date: Fri Mar 25 16:23:58 CST 2022
User: usil
Spectrometer: V785-0024
Trigger mode: 0
Integration Time (sec): 4.000000E-1
Scans to average: 1
Nonlinearity correction enabled: false
Boxcar width: 0
Storing dark spectrum: false
XAxis mode: Wavelengths
Number of Pixels in Spectrum: 1024
>>>>>Begin Spectral Data<<<<<
801.071	2914
801.214	2922
801.356	2864
801.499	2891
801.641	2861
801.783	2929
801.926	3032
802.068	2971
802.211	2994
802.353	3020
802.496	2979
802.638	3009
802.78	3032
802.923	3036
803.065	3009
803.208	2857
803.35	2899
803.492	2918
803.635	2925
803.777	2777
803.919	2830
804.061	3161
804.204	3005
804.346	2914
804.488	2842
804.63	2998
804.773	2880
804.915	2914
805.057	3081
805.199	2910
805.341	2941
805.483	3020
805.626	3013
805.768	2960
805.91	3058
806.052	3119
806.194	3024
806.336	3207
806.478	3043
806.62	2929
806.762	2952
806.904	3062
807.046	3135
807.188	3009
807.33	2922
807.472	2982
807.614	2899
807.756	2967
807.898	2918
808.04	2861
808.182	2918
808.324	2979
808.465	2906
808.607	2857
808.749	2830
808.891	2800
809.033	2979
809.174	2941
809.316	2895
809.458	2853
809.6	2773
809.741	2766
809.883	2796
810.025	2876
810.166	2838
810.308	2830
810.45	2849
810.591	2758
810.733	2731
810.875	2857
811.016	2769
811.158	2686
811.299	2845
811.441	2910
811.582	2891
811.724	2796
811.865	2842
812.007	2880
812.148	2872
812.29	2849
812.431	2872
812.573	2914
812.714	2967
812.855	3062
812.997	3017
813.138	3100
813.279	2963
813.421	2960
813.562	2963
813.703	2876
813.845	2883
813.986	2758
814.127	2720
814.268	2842
814.41	2826
814.551	2830
814.692	2876
814.833	2792
814.974	2826
815.115	2948
815.256	2834
815.397	2807
815.539	2819
815.68	2743
815.821	2766
815.962	2925
816.103	2925
816.244	2876
816.385	2842
816.526	2998
816.666	2941
816.807	2754
816.948	2872
817.089	2910
817.23	2849
817.371	2792
817.512	2807
817.653	2849
817.793	2842
817.934	2872
818.075	2948
818.216	2986
818.356	3017
818.497	2864
818.638	2724
818.778	2811
818.919	2769
819.06	2769
819.2	2914
819.341	2815
819.481	2811
819.622	2918
819.762	3100
819.903	3009
820.043	2922
820.184	2902
820.324	2880
820.465	2975
820.605	2982
820.746	3028
820.886	2925
821.026	3055
821.167	3108
821.307	3253
821.447	3294
821.588	3241
821.728	3211
821.868	3176
822.008	3085
822.149	3169
822.289	3233
822.429	3093
822.569	3055
822.709	3180
822.849	3024
822.99	3081
823.13	3169
823.27	3207
823.41	3116
823.55	3138
823.69	3097
823.83	3192
823.97	3104
824.11	3024
824.25	2982
824.389	3066
824.529	3127
824.669	3074
824.809	3192
824.949	3283
825.089	3253
825.228	3146
825.368	2979
825.508	2956
825.648	2918
825.787	3001
825.927	3005
826.067	2982
826.206	2948
826.346	3051
826.485	3039
826.625	3097
826.765	3222
826.904	3173
827.044	2979
827.183	2899
827.323	2872
827.462	2960
827.601	2918
827.741	2944
827.88	2956
828.02	2838
828.159	2956
828.298	3051
828.437	3108
828.577	3009
828.716	3260
828.855	3028
828.994	2895
829.134	2876
829.273	2914
829.412	2880
829.551	2857
829.69	2880
829.829	2998
829.968	3104
830.107	3017
830.246	2994
830.385	2902
830.524	2872
830.663	2777
830.802	2682
830.941	2632
831.08	2644
831.219	2754
831.357	2705
831.496	2941
831.635	2724
831.774	2663
831.913	2667
832.051	2579
832.19	2560
832.329	2640
832.467	2526
832.606	2480
832.744	2556
832.883	2583
833.022	2564
833.16	2621
833.299	2697
833.437	2663
833.576	2682
833.714	2712
833.852	2735
833.991	2735
834.129	2811
834.267	2804
834.406	2766
834.544	2819
834.682	2826
834.821	2826
834.959	3066
835.097	2914
835.235	3066
835.373	2979
835.511	3017
835.65	2941
835.788	2925
835.926	2823
836.064	2807
836.202	2853
836.34	3093
836.478	3135
836.615	3013
836.753	3104
836.891	3230
837.029	3180
837.167	3116
837.305	3085
837.443	3043
837.58	2963
837.718	3138
837.856	3112
837.993	3028
838.131	3100
838.269	3085
838.406	3062
838.544	3058
838.681	2937
838.819	2937
838.956	2830
839.094	2811
839.231	2891
839.369	3013
839.506	3325
839.643	3230
839.781	2998
839.918	2960
840.055	3013
840.193	3036
840.33	3051
840.467	3081
840.604	3165
840.742	3428
840.879	3028
841.016	3043
841.153	3108
841.29	3306
841.427	3306
841.564	3245
841.701	3272
841.838	3192
841.975	3176
842.112	3180
842.249	3081
842.385	3020
842.522	3207
842.659	3119
842.796	3047
842.933	3100
843.069	3039
843.206	2998
843.343	3195
843.479	3077
843.616	3173
843.752	2895
843.889	2861
844.025	3051
844.162	2868
844.298	3066
844.435	2952
844.571	2891
844.708	3047
844.844	3188
844.98	3176
845.117	3169
845.253	3055
845.389	2986
845.525	3093
845.661	3058
845.798	3039
845.934	3108
846.07	3066
846.206	3195
846.342	3306
846.478	3260
846.614	3051
846.75	3043
846.886	2998
847.022	3214
847.158	3108
847.294	3230
847.429	3260
847.565	3207
847.701	3447
847.837	3005
847.972	2960
848.108	3157
848.244	3123
848.379	2967
848.515	2929
848.65	2914
848.786	2948
848.921	3013
849.057	3100
849.192	3131
849.328	3051
849.463	3108
849.598	3047
849.734	3017
849.869	2979
850.004	2906
850.14	2960
850.275	2914
850.41	2845
850.545	2861
850.68	2891
850.815	2922
850.95	2971
851.085	3203
851.22	3085
851.355	3036
851.49	2948
851.625	2994
851.76	3001
851.895	2880
852.03	2910
852.165	3013
852.299	3085
852.434	3154
852.569	3127
852.703	3188
852.838	3230
852.973	3340
853.107	3317
853.242	3188
853.376	3085
853.511	2998
853.645	3028
853.78	3233
853.914	3093
854.048	3131
854.183	3085
854.317	3138
854.451	3291
854.585	3135
854.72	3032
854.854	3203
854.988	3043
855.122	3093
855.256	2948
855.39	3142
855.524	3207
855.658	3154
855.792	3157
855.926	3192
856.06	3211
856.194	3249
856.327	3146
856.461	3074
856.595	3062
856.729	3116
856.862	3199
856.996	3154
857.13	3195
857.263	3192
857.397	3264
857.53	3100
857.664	3184
857.797	3241
857.931	3272
858.064	3180
858.197	3207
858.331	3123
858.464	3089
858.597	3005
858.731	3089
858.864	3127
858.997	3089
859.13	3154
859.263	3146
859.396	3161
859.529	3097
859.662	3074
859.795	3051
859.928	3161
860.061	3291
860.194	3298
860.327	3104
860.46	3077
860.592	3226
860.725	3249
860.858	3233
860.99	3116
861.123	3047
861.256	3020
861.388	3150
861.521	3667
861.653	2960
861.786	2952
861.918	2963
862.05	3047
862.183	3074
862.315	3142
862.447	3180
862.58	3100
862.712	2929
862.844	2876
862.976	2998
863.108	2986
863.24	3306
863.372	2861
863.504	2960
863.636	2914
863.768	2994
863.9	2982
864.032	2899
864.164	2967
864.296	3005
864.428	3077
864.559	3089
864.691	3074
864.823	3055
864.954	3017
865.086	3028
865.217	2982
865.349	2929
865.48	2979
865.612	3028
865.743	3161
865.875	2971
866.006	2925
866.137	2979
866.269	2944
866.4	2899
866.531	2952
866.662	2876
866.793	2868
866.924	2876
867.055	2967
867.186	2922
867.317	2853
867.448	2819
867.579	2857
867.71	2845
867.841	2800
867.972	2899
868.103	2895
868.233	2895
868.364	2861
868.495	2872
868.625	3058
868.756	3146
868.886	2922
869.017	3032
869.147	3157
869.278	3161
869.408	3043
869.539	3085
869.669	3062
869.799	3009
869.929	3150
870.06	3093
870.19	3302
870.32	3264
870.45	3313
870.58	3344
870.71	3401
870.84	3443
870.97	3283
871.1	3233
871.23	3462
871.36	3454
871.489	3329
871.619	3401
871.749	3412
871.879	3420
872.008	3447
872.138	3344
872.267	3275
872.397	3104
872.526	3085
872.656	3013
872.785	3093
872.915	3233
873.044	3313
873.173	3233
873.303	3222
873.432	3211
873.561	3203
873.69	3161
873.819	3131
873.948	3176
874.077	3093
874.206	3039
874.335	3055
874.464	3214
874.593	3313
874.722	3245
874.851	3416
874.979	3332
875.108	3321
875.237	3180
875.365	3123
875.494	3154
875.623	3230
875.751	3081
875.88	3089
876.008	3173
876.136	3226
876.265	3370
876.393	3492
876.521	3412
876.65	3382
876.778	3329
876.906	3249
877.034	3192
877.162	3218
877.29	3165
877.418	3241
877.546	3256
877.674	3245
877.802	3211
877.93	3211
878.058	3150
878.185	3104
878.313	3188
878.441	3142
878.568	3024
878.696	3116
878.824	3256
878.951	3298
879.079	3431
879.206	3614
879.333	3416
879.461	3359
879.588	3329
879.715	3473
879.842	3568
879.97	3332
880.097	3138
880.224	3127
880.351	3142
880.478	3214
880.605	3180
880.732	3169
880.859	3507
880.986	3313
881.112	3332
881.239	3184
881.366	3070
881.493	3036
881.619	3005
881.746	3100
881.872	3051
881.999	3066
882.125	3131
882.252	3237
882.378	3317
882.505	3401
882.631	3256
882.757	3157
882.883	3203
883.01	3230
883.136	3165
883.262	3093
883.388	3119
883.514	3291
883.64	3386
883.766	3321
883.892	3169
884.018	3222
884.143	3409
884.269	3545
884.395	3188
884.52	3142
884.646	3184
884.772	3108
884.897	3127
885.023	3176
885.148	3329
885.274	3405
885.399	3340
885.524	3283
885.65	3260
885.775	3336
885.9	3264
886.025	3431
886.15	3336
886.275	3298
886.4	3226
886.525	3306
886.65	3291
886.775	3226
886.9	3473
887.025	3637
887.149	3367
887.274	3237
887.399	3169
887.523	3180
887.648	3180
887.773	3226
887.897	3344
888.021	3355
888.146	3268
888.27	3439
888.395	3492
888.519	3435
888.643	3431
888.767	3462
888.891	3317
889.015	3237
889.139	3268
889.263	3214
889.387	3409
889.511	3515
889.635	3443
889.759	3302
889.883	3256
890.006	3374
890.13	3473
890.254	3268
890.377	3321
890.501	3199
890.624	3195
890.748	3291
890.871	3154
890.995	3108
891.118	3058
891.241	3150
891.364	3226
891.488	3340
891.611	3135
891.734	3184
891.857	3272
891.98	3256
892.103	3291
892.226	3249
892.349	3199
892.471	3077
892.594	3218
892.717	3241
892.839	3279
892.962	3275
893.085	3298
893.207	3287
893.33	3131
893.452	3199
893.575	3321
893.697	3268
893.819	3447
893.941	3496
894.064	3447
894.186	3260
894.308	3253
894.43	3431
894.552	3488
894.674	3435
894.796	3264
894.918	3294
895.04	3264
895.161	3393
895.283	3397
895.405	3294
895.526	3367
895.648	3412
895.769	3401
895.891	3439
896.012	3469
896.134	3447
896.255	3412
896.376	3378
896.498	3359
896.619	3412
896.74	3329
896.861	3420
896.982	3679
897.103	3812
897.224	3591
897.345	3488
897.466	3420
897.587	3492
897.708	3599
897.828	3534
897.949	3416
898.07	3310
898.19	3420
898.311	3629
898.431	3466
898.552	3496
898.672	3568
898.792	3587
898.913	3530
899.033	3416
899.153	3310
899.273	3237
899.393	3268
899.513	3329
899.633	3355
899.753	3313
899.873	3359
899.993	3412
900.113	3283
900.232	3389
900.352	3382
900.472	3336
900.591	3230
900.711	3313
900.83	3298
900.95	3458
901.069	3553
901.189	3374
901.308	3188
901.427	3192
901.546	3241
901.665	3317
901.784	3386
901.904	3264
902.023	3165
902.141	3039
902.26	3036
902.379	3138
902.498	3058
902.617	3077
902.735	3203
902.854	3283
902.973	3233
903.091	3081
903.21	3112
903.328	3161
903.446	3150
903.565	3112
903.683	3260
903.801	3135
903.919	3256
904.038	3348
904.156	3203
904.274	3317
904.392	3283
904.51	3336
904.627	3386
904.745	3477
904.863	3515
904.981	3272
905.098	3214
905.216	3230
905.334	3313
905.451	3321
905.569	3348
905.686	3477
905.803	3469
905.921	3325
906.038	3500
906.155	3370
906.272	3291
906.389	3382
906.506	3249
906.623	3302
906.74	3272
906.857	3207
906.974	3283
907.091	3488
907.208	3599
907.324	3511
907.441	3401
907.557	3268
907.674	3241
907.79	3256
907.907	3291
908.023	3443
908.139	3428
908.256	3378
908.372	3420
908.488	3378
908.604	3291
908.72	3272
908.836	3351
908.952	3348
909.068	3374
909.184	3507
909.3	3431
909.415	3534
909.531	3473
909.647	3287
909.762	3310
909.878	3283
909.993	3378
910.108	3386
910.224	3355
910.339	3450
910.454	3355
910.57	3275
910.685	3298
910.8	3599
910.915	3587
911.03	3447
911.145	3287
911.259	3279
911.374	3336
911.489	3298
911.604	3256
911.718	3142
911.833	3176
911.947	3093
912.062	3028
912.176	3188
912.291	3218
912.405	3226
912.519	3473
912.633	3504
912.748	3355
912.862	3268
912.976	3173
913.09	3077
913.204	3173
913.318	3230
913.431	3359
913.545	3378
913.659	3428
913.772	3313
913.886	3233
914	3195
914.113	3393
914.226	3481
914.34	3389
914.453	3279
914.566	3424
914.68	3313
914.793	3348
914.906	3188
915.019	3150
915.132	3070
915.245	3203
915.358	3211
915.47	3264
915.583	3260
915.696	3298
915.809	3424
915.921	3443
916.034	3329
916.146	3268
916.259	3245
916.371	3424
916.483	3397
916.595	3302
916.708	3310
916.82	3363
916.932	3374
917.044	3397
917.156	3382
917.268	3268
917.38	3306
917.491	3325
917.603	3374
917.715	3492
917.826	3530
917.938	3443
918.049	3332
918.161	3469
918.272	3633
918.384	3606
918.495	3530
918.606	3393
918.717	3291
918.828	3393
918.939	3389
919.05	3332
919.161	3382
919.272	3218
919.383	3340
919.494	3545
919.604	3694
919.715	3473
919.826	3447
919.936	3488
920.047	3568
920.157	3610
920.267	3789
920.378	3648
920.488	3595
920.598	3793
920.708	3953
920.818	3869
920.928	3816
921.038	4044
921.148	4021
921.258	3698
921.368	3690
921.477	3637
921.587	3542
921.697	3450
921.806	3660
921.916	3526
922.025	3355
922.134	3393
922.244	3325
922.353	3469
922.462	3264
922.571	3249
922.68	3119
922.789	3131
922.898	3131
923.007	3135
923.116	3199
923.224	3195
923.333	3207
923.442	3119
923.55	3123
923.659	3150
923.767	3253
923.876	3123
923.984	3260
924.092	3131
924.201	3237
924.309	3214
924.417	3287
924.525	3218
924.633	3310
924.741	4063
924.849	3089
924.956	3302
925.064	3123
925.172	3097
925.279	3119
925.387	3199
925.494	3264
925.602	3374
925.709	3336
925.816	3218
925.924	3321
926.031	3409
926.138	3374
926.245	3428
926.352	3268
926.459	3424
926.566	3500
926.673	3355
926.779	3268
926.886	3256
926.993	3176
927.099	3138
927.206	3157
927.312	3154
927.419	3287
927.525	3237
927.631	3294
927.737	3176
927.843	3127
927.95	3085
928.056	3161
928.162	3176
928.267	3310
928.373	3880
928.479	3332
928.585	3081
928.69	3260
928.796	3310
928.901	3176
929.007	3093
929.112	3245
929.218	3233
929.323	3203
929.428	3192
929.533	3294
929.638	3138
929.743	3150
929.848	3275
929.953	3203
930.058	3184
930.163	2990
930.267	3047
930.372	3184
930.477	3066
930.581	3416
930.685	3176
930.79	3085
930.894	3146
930.998	3116
931.103	3306
931.207	3009
931.311	2998
931.415	2956
931.519	2777
931.623	2826
