Data from test_V78500241_1479.txt Node
Date: Fri Mar 25 16:25:26 CST 2022
User: usil
Spectrometer: V785-0024
Trigger mode: 0
Integration Time (sec): 4.000000E-1
Scans to average: 1
Nonlinearity correction enabled: false
Boxcar width: 0
Storing dark spectrum: false
XAxis mode: Wavelengths
Number of Pixels in Spectrum: 1024
>>>>>Begin Spectral Data<<<<<
801.071	2895
801.214	2933
801.356	2857
801.499	2880
801.641	2857
801.783	2956
801.926	3005
802.068	2963
802.211	3013
802.353	3013
802.496	2948
802.638	2990
802.78	3039
802.923	3081
803.065	2990
803.208	2887
803.35	2925
803.492	2925
803.635	2948
803.777	2769
803.919	2880
804.061	3211
804.204	2948
804.346	2891
804.488	2811
804.63	3005
804.773	2868
804.915	2960
805.057	3066
805.199	2918
805.341	3009
805.483	3055
805.626	3017
805.768	2982
805.91	3047
806.052	3112
806.194	3047
806.336	3237
806.478	3020
806.62	2918
806.762	2971
806.904	3047
807.046	3180
807.188	2933
807.33	2910
807.472	2963
807.614	2906
807.756	2979
807.898	2929
808.04	2872
808.182	2956
808.324	2937
808.465	2872
808.607	2891
808.749	2811
808.891	2864
809.033	3001
809.174	2979
809.316	2845
809.458	2887
809.6	2746
809.741	2777
809.883	2758
810.025	2834
810.166	2880
810.308	2868
810.45	2880
810.591	2769
810.733	2792
810.875	2861
811.016	2762
811.158	2739
811.299	2807
811.441	2918
811.582	2902
811.724	2815
811.865	2868
812.007	2906
812.148	2853
812.29	2868
812.431	2880
812.573	2944
812.714	2975
812.855	3051
812.997	3017
813.138	3173
813.279	2971
813.421	2971
813.562	2918
813.703	2876
813.845	2883
813.986	2766
814.127	2701
814.268	2849
814.41	2834
814.551	2804
814.692	2834
814.833	2834
814.974	2937
815.115	2929
815.256	2807
815.397	2823
815.539	2849
815.68	2788
815.821	2792
815.962	2948
816.103	2918
816.244	2883
816.385	2823
816.526	2963
816.666	2883
816.807	2781
816.948	2872
817.089	2906
817.23	2826
817.371	2796
817.512	2792
817.653	2838
817.793	2826
817.934	2899
818.075	3001
818.216	2971
818.356	3013
818.497	2845
818.638	2762
818.778	2796
818.919	2796
819.06	2743
819.2	2845
819.341	2785
819.481	2785
819.622	2941
819.762	3081
819.903	3036
820.043	2933
820.184	2902
820.324	2887
820.465	3024
820.605	3001
820.746	3024
820.886	2922
821.026	3116
821.167	3146
821.307	3275
821.447	3222
821.588	3233
821.728	3233
821.868	3173
822.008	3085
822.149	3233
822.289	3245
822.429	3108
822.569	3089
822.709	3199
822.849	3020
822.99	3055
823.13	3127
823.27	3199
823.41	3093
823.55	3123
823.69	3127
823.83	3188
823.97	3116
824.11	2998
824.25	2986
824.389	3039
824.529	3131
824.669	3036
824.809	3188
824.949	3279
825.089	3233
825.228	3154
825.368	2979
825.508	2963
825.648	2986
825.787	2948
825.927	3039
826.067	2998
826.206	2952
826.346	3058
826.485	3062
826.625	3066
826.765	3256
826.904	3199
827.044	2982
827.183	2929
827.323	2838
827.462	2990
827.601	2933
827.741	2944
827.88	2937
828.02	2849
828.159	2956
828.298	3051
828.437	3112
828.577	3047
828.716	3237
828.855	3047
828.994	2910
829.134	2857
829.273	2899
829.412	2880
829.551	2842
829.69	2895
829.829	2986
829.968	3131
830.107	2994
830.246	3013
830.385	2918
830.524	2868
830.663	2861
830.802	2743
830.941	2663
831.08	2644
831.219	2785
831.357	2720
831.496	2933
831.635	2735
831.774	2598
831.913	2625
832.051	2560
832.19	2552
832.329	2678
832.467	2537
832.606	2480
832.744	2552
832.883	2583
833.022	2575
833.16	2629
833.299	2682
833.437	2651
833.576	2678
833.714	2689
833.852	2705
833.991	2758
834.129	2819
834.267	2823
834.406	2788
834.544	2883
834.682	2891
834.821	2857
834.959	3070
835.097	2891
835.235	3047
835.373	2982
835.511	3028
835.65	2933
835.788	2910
835.926	2819
836.064	2773
836.202	2838
836.34	3116
836.478	3169
836.615	3032
836.753	3112
836.891	3207
837.029	3176
837.167	3135
837.305	3047
837.443	3009
837.58	2963
837.718	3119
837.856	3058
837.993	3005
838.131	3089
838.269	3123
838.406	3100
838.544	3123
838.681	2925
838.819	2906
838.956	2796
839.094	2842
839.231	2922
839.369	2982
839.506	3367
839.643	3241
839.781	3013
839.918	2963
840.055	3032
840.193	3043
840.33	3051
840.467	3097
840.604	3157
840.742	3340
840.879	3066
841.016	3020
841.153	3119
841.29	3332
841.427	3302
841.564	3264
841.701	3310
841.838	3188
841.975	3199
842.112	3203
842.249	3093
842.385	3001
842.522	3226
842.659	3112
842.796	3028
842.933	3085
843.069	3047
843.206	3058
843.343	3180
843.479	3123
843.616	3169
843.752	2883
843.889	2872
844.025	3081
844.162	2899
844.298	3055
844.435	2922
844.571	2948
844.708	3039
844.844	3165
844.98	3199
845.117	3176
845.253	3017
845.389	3001
845.525	3097
845.661	3116
845.798	2982
845.934	3119
846.07	3009
846.206	3211
846.342	3283
846.478	3203
846.614	3081
846.75	3062
846.886	3047
847.022	3260
847.158	3077
847.294	3176
847.429	3226
847.565	3169
847.701	3450
847.837	2986
847.972	2986
848.108	3165
848.244	3184
848.379	2975
848.515	2963
848.65	2922
848.786	2929
848.921	3028
849.057	3089
849.192	3123
849.328	3070
849.463	3097
849.598	3062
849.734	3066
849.869	2956
850.004	2922
850.14	2967
850.275	2887
850.41	2845
850.545	2914
850.68	2933
850.815	2948
850.95	2986
851.085	3157
851.22	3131
851.355	3020
851.49	2956
851.625	2963
851.76	3039
851.895	2914
852.03	2910
852.165	3032
852.299	3123
852.434	3176
852.569	3131
852.703	3150
852.838	3218
852.973	3351
853.107	3332
853.242	3146
853.376	3066
853.511	2979
853.645	3028
853.78	3230
853.914	3108
854.048	3081
854.183	3104
854.317	3176
854.451	3241
854.585	3135
854.72	3085
854.854	3184
854.988	3047
855.122	3055
855.256	2979
855.39	3142
855.524	3230
855.658	3173
855.792	3112
855.926	3195
856.06	3207
856.194	3233
856.327	3135
856.461	3089
856.595	3104
856.729	3089
856.862	3203
856.996	3184
857.13	3203
857.263	3176
857.397	3264
857.53	3142
857.664	3161
857.797	3230
857.931	3214
858.064	3146
858.197	3192
858.331	3138
858.464	3104
858.597	2990
858.731	3131
858.864	3112
858.997	3097
859.13	3165
859.263	3138
859.396	3211
859.529	3081
859.662	3058
859.795	3024
859.928	3180
860.061	3264
860.194	3302
860.327	3108
860.46	3070
860.592	3207
860.725	3226
860.858	3241
860.99	3097
861.123	3058
861.256	3047
861.388	3142
861.521	3827
861.653	3020
861.786	3013
861.918	2994
862.05	3085
862.183	3108
862.315	3116
862.447	3195
862.58	3081
862.712	2925
862.844	2872
862.976	3043
863.108	3017
863.24	3268
863.372	2857
863.504	2979
863.636	2975
863.768	3032
863.9	2998
864.032	2918
864.164	2925
864.296	2998
864.428	3058
864.559	3093
864.691	3074
864.823	3112
864.954	3009
865.086	3036
865.217	2982
865.349	2937
865.48	3013
865.612	3001
865.743	3157
865.875	2979
866.006	2956
866.137	2982
866.269	2944
866.4	2944
866.531	2922
866.662	2895
866.793	2872
866.924	2899
867.055	2948
867.186	2868
867.317	2853
867.448	2823
867.579	2853
867.71	2861
867.841	2830
867.972	2925
868.103	2891
868.233	2876
868.364	2872
868.495	2883
868.625	3081
868.756	3176
868.886	2944
869.017	3001
869.147	3188
869.278	3157
869.408	3051
869.539	3028
869.669	3119
869.799	3024
869.929	3100
870.06	3058
870.19	3287
870.32	3340
870.45	3245
870.58	3378
870.71	3447
870.84	3450
870.97	3283
871.1	3272
871.23	3466
871.36	3473
871.489	3317
871.619	3351
871.749	3397
871.879	3443
872.008	3447
872.138	3329
872.267	3260
872.397	3135
872.526	3135
872.656	3020
872.785	3081
872.915	3256
873.044	3272
873.173	3230
873.303	3241
873.432	3268
873.561	3241
873.69	3157
873.819	3146
873.948	3192
874.077	3138
874.206	3032
874.335	3074
874.464	3226
874.593	3374
874.722	3256
874.851	3439
874.979	3351
875.108	3268
875.237	3161
875.365	3165
875.494	3146
875.623	3264
875.751	3070
875.88	3097
876.008	3146
876.136	3237
876.265	3332
876.393	3549
876.521	3355
876.65	3370
876.778	3332
876.906	3233
877.034	3176
877.162	3222
877.29	3192
877.418	3264
877.546	3249
877.674	3279
877.802	3237
877.93	3249
878.058	3138
878.185	3055
878.313	3192
878.441	3184
878.568	3097
878.696	3138
878.824	3218
878.951	3256
879.079	3462
879.206	3625
879.333	3416
879.461	3374
879.588	3336
879.715	3481
879.842	3599
879.97	3374
880.097	3180
880.224	3127
880.351	3218
880.478	3249
880.605	3188
880.732	3192
880.859	3473
880.986	3310
881.112	3332
881.239	3226
881.366	3089
881.493	3043
881.619	3009
881.746	3085
881.872	3093
881.999	3093
882.125	3169
882.252	3241
882.378	3279
882.505	3447
882.631	3298
882.757	3146
882.883	3211
883.01	3253
883.136	3150
883.262	3077
883.388	3119
883.514	3275
883.64	3367
883.766	3306
883.892	3150
884.018	3230
884.143	3397
884.269	3515
884.395	3199
884.52	3161
884.646	3142
884.772	3138
884.897	3135
885.023	3195
885.148	3317
885.274	3428
885.399	3306
885.524	3294
885.65	3241
885.775	3283
885.9	3317
886.025	3401
886.15	3317
886.275	3275
886.4	3180
886.525	3336
886.65	3291
886.775	3321
886.9	3504
887.025	3625
887.149	3359
887.274	3237
887.399	3142
887.523	3199
887.648	3180
887.773	3184
887.897	3374
888.021	3374
888.146	3294
888.27	3462
888.395	3511
888.519	3428
888.643	3481
888.767	3420
888.891	3302
889.015	3298
889.139	3275
889.263	3218
889.387	3424
889.511	3515
889.635	3439
889.759	3268
889.883	3249
890.006	3393
890.13	3496
890.254	3268
890.377	3344
890.501	3157
890.624	3165
890.748	3329
890.871	3165
890.995	3074
891.118	3036
891.241	3184
891.364	3233
891.488	3321
891.611	3195
891.734	3188
891.857	3260
891.98	3222
892.103	3348
892.226	3279
892.349	3203
892.471	3135
892.594	3195
892.717	3291
892.839	3306
892.962	3294
893.085	3389
893.207	3306
893.33	3154
893.452	3203
893.575	3321
893.697	3226
893.819	3428
893.941	3519
894.064	3447
894.186	3272
894.308	3294
894.43	3450
894.552	3523
894.674	3443
894.796	3298
894.918	3329
895.04	3222
895.161	3393
895.283	3405
895.405	3348
895.526	3359
895.648	3397
895.769	3389
895.891	3454
896.012	3454
896.134	3462
896.255	3412
896.376	3359
896.498	3367
896.619	3431
896.74	3359
896.861	3401
896.982	3675
897.103	3838
897.224	3622
897.345	3530
897.466	3481
897.587	3488
897.708	3629
897.828	3519
897.949	3416
898.07	3340
898.19	3389
898.311	3603
898.431	3447
898.552	3473
898.672	3603
898.792	3542
898.913	3542
899.033	3416
899.153	3298
899.273	3211
899.393	3302
899.513	3279
899.633	3302
899.753	3329
899.873	3275
899.993	3405
900.113	3340
900.232	3389
900.352	3325
900.472	3302
900.591	3207
900.711	3272
900.83	3211
900.95	3393
901.069	3481
901.189	3348
901.308	3150
901.427	3154
901.546	3203
901.665	3321
901.784	3287
901.904	3199
902.023	3135
902.141	2998
902.26	2990
902.379	3131
902.498	3051
902.617	3055
902.735	3192
902.854	3203
902.973	3173
903.091	3039
903.21	3070
903.328	3135
903.446	3100
903.565	3062
903.683	3192
903.801	3135
903.919	3222
904.038	3275
904.156	3161
904.274	3275
904.392	3241
904.51	3272
904.627	3279
904.745	3386
904.863	3454
904.981	3264
905.098	3173
905.216	3226
905.334	3291
905.451	3310
905.569	3310
905.686	3428
905.803	3488
905.921	3279
906.038	3428
906.155	3359
906.272	3287
906.389	3298
906.506	3218
906.623	3245
906.74	3272
906.857	3226
906.974	3268
907.091	3462
907.208	3587
907.324	3488
907.441	3382
907.557	3188
907.674	3233
907.79	3195
907.907	3298
908.023	3367
908.139	3344
908.256	3325
908.372	3340
908.488	3317
908.604	3272
908.72	3222
908.836	3264
908.952	3279
909.068	3321
909.184	3447
909.3	3416
909.415	3507
909.531	3469
909.647	3268
909.762	3264
909.878	3287
909.993	3378
910.108	3359
910.224	3329
910.339	3420
910.454	3359
910.57	3253
910.685	3218
910.8	3580
910.915	3549
911.03	3458
911.145	3275
911.259	3253
911.374	3317
911.489	3241
911.604	3199
911.718	3119
911.833	3173
911.947	2990
912.062	3020
912.176	3154
912.291	3176
912.405	3218
912.519	3382
912.633	3439
912.748	3344
912.862	3241
912.976	3165
913.09	3077
913.204	3146
913.318	3260
913.431	3325
913.545	3329
913.659	3435
913.772	3310
913.886	3203
914	3264
914.113	3351
914.226	3397
914.34	3393
914.453	3207
914.566	3397
914.68	3283
914.793	3302
914.906	3138
915.019	3081
915.132	3085
915.245	3131
915.358	3222
915.47	3218
915.583	3230
915.696	3291
915.809	3370
915.921	3435
916.034	3253
916.146	3253
916.259	3230
916.371	3409
916.483	3336
916.595	3264
916.708	3291
916.82	3317
916.932	3348
917.044	3351
917.156	3325
917.268	3207
917.38	3298
917.491	3272
917.603	3332
917.715	3447
917.826	3488
917.938	3378
918.049	3294
918.161	3401
918.272	3542
918.384	3584
918.495	3450
918.606	3367
918.717	3260
918.828	3397
918.939	3405
919.05	3287
919.161	3378
919.272	3184
919.383	3241
919.494	3519
919.604	3717
919.715	3462
919.826	3401
919.936	3435
920.047	3549
920.157	3584
920.267	3736
920.378	3587
920.488	3564
920.598	3770
920.708	3960
920.818	3808
920.928	3831
921.038	4029
921.148	3968
921.258	3709
921.368	3644
921.477	3568
921.587	3538
921.697	3431
921.806	3641
921.916	3519
922.025	3313
922.134	3359
922.244	3332
922.353	3393
922.462	3302
922.571	3264
922.68	3100
922.789	3089
922.898	3150
923.007	3085
923.116	3188
923.224	3211
923.333	3203
923.442	3062
923.55	3112
923.659	3123
923.767	3237
923.876	3142
923.984	3275
924.092	3108
924.201	3184
924.309	3214
924.417	3279
924.525	3161
924.633	3241
924.741	4192
924.849	3032
924.956	3294
925.064	3104
925.172	3039
925.279	3089
925.387	3188
925.494	3184
925.602	3344
925.709	3317
925.816	3169
925.924	3283
926.031	3382
926.138	3329
926.245	3355
926.352	3233
926.459	3386
926.566	3443
926.673	3291
926.779	3253
926.886	3214
926.993	3116
927.099	3131
927.206	3119
927.312	3135
927.419	3253
927.525	3188
927.631	3256
927.737	3165
927.843	3093
927.95	3013
928.056	3116
928.162	3169
928.267	3241
928.373	3800
928.479	3317
928.585	3032
928.69	3253
928.796	3245
928.901	3176
929.007	3024
929.112	3233
929.218	3195
929.323	3184
929.428	3119
929.533	3275
929.638	3146
929.743	3165
929.848	3226
929.953	3211
930.058	3119
930.163	3009
930.267	3081
930.372	3211
930.477	3024
930.581	3329
930.685	3184
930.79	3036
930.894	3119
930.998	3108
931.103	3283
931.207	2944
931.311	2948
931.415	2937
931.519	2773
931.623	2769
