Data from test_V78500241_1222.txt Node
Date: Fri Mar 25 16:23:40 CST 2022
User: usil
Spectrometer: V785-0024
Trigger mode: 0
Integration Time (sec): 4.000000E-1
Scans to average: 1
Nonlinearity correction enabled: false
Boxcar width: 0
Storing dark spectrum: false
XAxis mode: Wavelengths
Number of Pixels in Spectrum: 1024
>>>>>Begin Spectral Data<<<<<
801.071	2887
801.214	2967
801.356	2842
801.499	2910
801.641	2872
801.783	2902
801.926	3013
802.068	2963
802.211	2971
802.353	3001
802.496	2941
802.638	3047
802.78	3058
802.923	3058
803.065	2971
803.208	2880
803.35	2906
803.492	2948
803.635	2960
803.777	2750
803.919	2880
804.061	3207
804.204	2941
804.346	2887
804.488	2834
804.63	2948
804.773	2864
804.915	2933
805.057	3085
805.199	2941
805.341	2956
805.483	3028
805.626	3001
805.768	2982
805.91	3077
806.052	3047
806.194	3024
806.336	3214
806.478	2990
806.62	2963
806.762	2982
806.904	3036
807.046	3169
807.188	2994
807.33	2895
807.472	2948
807.614	2929
807.756	2967
807.898	2891
808.04	2910
808.182	2971
808.324	2956
808.465	2883
808.607	2845
808.749	2754
808.891	2861
809.033	2982
809.174	2933
809.316	2887
809.458	2891
809.6	2800
809.741	2785
809.883	2746
810.025	2823
810.166	2872
810.308	2849
810.45	2849
810.591	2762
810.733	2762
810.875	2826
811.016	2766
811.158	2754
811.299	2796
811.441	2937
811.582	2872
811.724	2849
811.865	2834
812.007	2933
812.148	2872
812.29	2849
812.431	2861
812.573	2941
812.714	2956
812.855	3039
812.997	3047
813.138	3150
813.279	2998
813.421	2967
813.562	2948
813.703	2891
813.845	2914
813.986	2758
814.127	2750
814.268	2811
814.41	2857
814.551	2815
814.692	2880
814.833	2823
814.974	2868
815.115	2971
815.256	2838
815.397	2838
815.539	2842
815.68	2785
815.821	2769
815.962	2937
816.103	2925
816.244	2876
816.385	2891
816.526	2960
816.666	2956
816.807	2777
816.948	2857
817.089	2891
817.23	2899
817.371	2804
817.512	2811
817.653	2815
817.793	2800
817.934	2883
818.075	3013
818.216	2960
818.356	3036
818.497	2849
818.638	2796
818.778	2777
818.919	2792
819.06	2762
819.2	2880
819.341	2785
819.481	2826
819.622	2910
819.762	3077
819.903	3028
820.043	2933
820.184	2891
820.324	2891
820.465	2994
820.605	2948
820.746	3055
820.886	2925
821.026	3104
821.167	3142
821.307	3264
821.447	3268
821.588	3237
821.728	3211
821.868	3188
822.008	3085
822.149	3169
822.289	3195
822.429	3104
822.569	3058
822.709	3203
822.849	3036
822.99	3074
823.13	3135
823.27	3161
823.41	3100
823.55	3108
823.69	3135
823.83	3161
823.97	3089
824.11	2986
824.25	2998
824.389	3089
824.529	3089
824.669	3055
824.809	3192
824.949	3237
825.089	3169
825.228	3157
825.368	2982
825.508	2986
825.648	3001
825.787	3001
825.927	2986
826.067	2952
826.206	2956
826.346	3032
826.485	3051
826.625	3112
826.765	3268
826.904	3169
827.044	2979
827.183	2944
827.323	2826
827.462	2975
827.601	2910
827.741	2929
827.88	2944
828.02	2842
828.159	2994
828.298	3020
828.437	3074
828.577	3028
828.716	3222
828.855	3077
828.994	2891
829.134	2853
829.273	2952
829.412	2899
829.551	2883
829.69	2864
829.829	2963
829.968	3089
830.107	2986
830.246	3028
830.385	2941
830.524	2849
830.663	2792
830.802	2724
830.941	2655
831.08	2629
831.219	2758
831.357	2743
831.496	2944
831.635	2708
831.774	2667
831.913	2655
832.051	2522
832.19	2568
832.329	2667
832.467	2575
832.606	2507
832.744	2545
832.883	2545
833.022	2590
833.16	2625
833.299	2670
833.437	2682
833.576	2693
833.714	2716
833.852	2727
833.991	2758
834.129	2834
834.267	2811
834.406	2804
834.544	2891
834.682	2883
834.821	2853
834.959	3062
835.097	2910
835.235	3055
835.373	2982
835.511	3013
835.65	2929
835.788	2937
835.926	2800
836.064	2804
836.202	2842
836.34	3058
836.478	3119
836.615	3058
836.753	3119
836.891	3199
837.029	3169
837.167	3055
837.305	3028
837.443	3043
837.58	2929
837.718	3116
837.856	3051
837.993	3013
838.131	3100
838.269	3077
838.406	3104
838.544	3062
838.681	2918
838.819	2891
838.956	2826
839.094	2815
839.231	2933
839.369	3005
839.506	3363
839.643	3226
839.781	3001
839.918	2944
840.055	3077
840.193	3017
840.33	3028
840.467	3119
840.604	3142
840.742	3367
840.879	3013
841.016	3032
841.153	3119
841.29	3344
841.427	3275
841.564	3245
841.701	3313
841.838	3199
841.975	3165
842.112	3218
842.249	3043
842.385	3036
842.522	3260
842.659	3093
842.796	3020
842.933	3089
843.069	2986
843.206	3028
843.343	3108
843.479	3077
843.616	3138
843.752	2891
843.889	2849
844.025	3077
844.162	2857
844.298	3081
844.435	2922
844.571	2899
844.708	3032
844.844	3146
844.98	3211
845.117	3195
845.253	3028
845.389	2986
845.525	3100
845.661	3077
845.798	3001
845.934	3100
846.07	3066
846.206	3226
846.342	3321
846.478	3214
846.614	3085
846.75	3070
846.886	3017
847.022	3279
847.158	3119
847.294	3195
847.429	3233
847.565	3230
847.701	3507
847.837	3043
847.972	2982
848.108	3165
848.244	3123
848.379	2952
848.515	2944
848.65	2952
848.786	2982
848.921	3005
849.057	3089
849.192	3127
849.328	3043
849.463	3070
849.598	3047
849.734	3017
849.869	2990
850.004	2918
850.14	2960
850.275	2914
850.41	2830
850.545	2906
850.68	2929
850.815	2933
850.95	2944
851.085	3203
851.22	3108
851.355	2998
851.49	2960
851.625	3013
851.76	3036
851.895	2914
852.03	2933
852.165	2990
852.299	3108
852.434	3180
852.569	3112
852.703	3195
852.838	3199
852.973	3336
853.107	3298
853.242	3165
853.376	3077
853.511	2986
853.645	3009
853.78	3233
853.914	3131
854.048	3116
854.183	3104
854.317	3108
854.451	3291
854.585	3116
854.72	3077
854.854	3165
854.988	3017
855.122	3089
855.256	2975
855.39	3112
855.524	3226
855.658	3173
855.792	3131
855.926	3214
856.06	3192
856.194	3245
856.327	3127
856.461	3077
856.595	3089
856.729	3089
856.862	3195
856.996	3165
857.13	3138
857.263	3203
857.397	3279
857.53	3097
857.664	3150
857.797	3180
857.931	3211
858.064	3138
858.197	3237
858.331	3154
858.464	3077
858.597	2979
858.731	3108
858.864	3108
858.997	3066
859.13	3131
859.263	3192
859.396	3211
859.529	3089
859.662	3085
859.795	3047
859.928	3100
860.061	3302
860.194	3260
860.327	3104
860.46	3154
860.592	3218
860.725	3207
860.858	3195
860.99	3100
861.123	3020
861.256	3017
861.388	3135
861.521	3701
861.653	2971
861.786	2979
861.918	2994
862.05	3047
862.183	3081
862.315	3135
862.447	3192
862.58	3066
862.712	2933
862.844	2906
862.976	3013
863.108	3020
863.24	3443
863.372	2857
863.504	2975
863.636	2948
863.768	2994
863.9	2986
864.032	2910
864.164	2948
864.296	3028
864.428	3051
864.559	3089
864.691	3028
864.823	3070
864.954	3013
865.086	3043
865.217	2982
865.349	2941
865.48	2994
865.612	3013
865.743	3085
865.875	2967
866.006	2944
866.137	2975
866.269	2922
866.4	2918
866.531	2910
866.662	2883
866.793	2887
866.924	2902
867.055	2967
867.186	2937
867.317	2864
867.448	2807
867.579	2838
867.71	2842
867.841	2845
867.972	2895
868.103	2872
868.233	2872
868.364	2853
868.495	2880
868.625	3058
868.756	3169
868.886	2929
869.017	3017
869.147	3161
869.278	3176
869.408	3009
869.539	3013
869.669	3070
869.799	3036
869.929	3135
870.06	3062
870.19	3325
870.32	3272
870.45	3260
870.58	3359
870.71	3450
870.84	3458
870.97	3302
871.1	3264
871.23	3466
871.36	3401
871.489	3348
871.619	3370
871.749	3424
871.879	3435
872.008	3545
872.138	3351
872.267	3256
872.397	3176
872.526	3100
872.656	3013
872.785	3085
872.915	3207
873.044	3287
873.173	3222
873.303	3199
873.432	3245
873.561	3226
873.69	3176
873.819	3176
873.948	3192
874.077	3070
874.206	3051
874.335	3081
874.464	3211
874.593	3363
874.722	3226
874.851	3405
874.979	3367
875.108	3359
875.237	3218
875.365	3138
875.494	3146
875.623	3256
875.751	3104
875.88	3097
876.008	3211
876.136	3211
876.265	3401
876.393	3526
876.521	3424
876.65	3393
876.778	3291
876.906	3218
877.034	3169
877.162	3256
877.29	3165
877.418	3233
877.546	3233
877.674	3233
877.802	3260
877.93	3192
878.058	3142
878.185	3104
878.313	3180
878.441	3188
878.568	3047
878.696	3165
878.824	3230
878.951	3283
879.079	3454
879.206	3587
879.333	3386
879.461	3336
879.588	3336
879.715	3428
879.842	3568
879.97	3409
880.097	3161
880.224	3142
880.351	3192
880.478	3207
880.605	3203
880.732	3180
880.859	3477
880.986	3275
881.112	3351
881.239	3150
881.366	3058
881.493	3039
881.619	3043
881.746	3074
881.872	3089
881.999	3085
882.125	3131
882.252	3253
882.378	3268
882.505	3439
882.631	3275
882.757	3195
882.883	3218
883.01	3233
883.136	3173
883.262	3074
883.388	3112
883.514	3344
883.64	3351
883.766	3256
883.892	3169
884.018	3218
884.143	3389
884.269	3561
884.395	3203
884.52	3161
884.646	3169
884.772	3161
884.897	3085
885.023	3184
885.148	3325
885.274	3378
885.399	3359
885.524	3306
885.65	3241
885.775	3306
885.9	3264
886.025	3431
886.15	3340
886.275	3245
886.4	3260
886.525	3302
886.65	3260
886.775	3294
886.9	3511
887.025	3656
887.149	3435
887.274	3264
887.399	3173
887.523	3222
887.648	3180
887.773	3188
887.897	3397
888.021	3378
888.146	3283
888.27	3439
888.395	3526
888.519	3439
888.643	3458
888.767	3454
888.891	3313
889.015	3203
889.139	3310
889.263	3241
889.387	3378
889.511	3523
889.635	3428
889.759	3283
889.883	3275
890.006	3397
890.13	3454
890.254	3294
890.377	3329
890.501	3165
890.624	3176
890.748	3291
890.871	3188
890.995	3100
891.118	3066
891.241	3188
891.364	3211
891.488	3279
891.611	3150
891.734	3203
891.857	3268
891.98	3222
892.103	3355
892.226	3241
892.349	3146
892.471	3127
892.594	3249
892.717	3275
892.839	3233
892.962	3313
893.085	3348
893.207	3287
893.33	3119
893.452	3207
893.575	3321
893.697	3241
893.819	3439
893.941	3477
894.064	3458
894.186	3268
894.308	3230
894.43	3431
894.552	3564
894.674	3450
894.796	3291
894.918	3283
895.04	3317
895.161	3420
895.283	3378
895.405	3287
895.526	3351
895.648	3401
895.769	3378
895.891	3447
896.012	3466
896.134	3488
896.255	3428
896.376	3351
896.498	3310
896.619	3397
896.74	3351
896.861	3405
896.982	3663
897.103	3842
897.224	3576
897.345	3500
897.466	3420
897.587	3443
897.708	3606
897.828	3526
897.949	3416
898.07	3298
898.19	3389
898.311	3561
898.431	3443
898.552	3466
898.672	3603
898.792	3584
898.913	3534
899.033	3416
899.153	3256
899.273	3192
899.393	3275
899.513	3306
899.633	3283
899.753	3291
899.873	3298
899.993	3336
900.113	3325
900.232	3435
900.352	3340
900.472	3279
900.591	3192
900.711	3272
900.83	3188
900.95	3378
901.069	3485
901.189	3329
901.308	3135
901.427	3138
901.546	3188
901.665	3264
901.784	3325
901.904	3222
902.023	3157
902.141	2975
902.26	2982
902.379	3119
902.498	3074
902.617	3039
902.735	3207
902.854	3207
902.973	3180
903.091	3017
903.21	3032
903.328	3127
903.446	3077
903.565	3089
903.683	3207
903.801	3154
903.919	3233
904.038	3287
904.156	3150
904.274	3233
904.392	3275
904.51	3313
904.627	3313
904.745	3454
904.863	3462
904.981	3260
905.098	3142
905.216	3245
905.334	3298
905.451	3279
905.569	3302
905.686	3401
905.803	3447
905.921	3264
906.038	3401
906.155	3370
906.272	3260
906.389	3355
906.506	3253
906.623	3275
906.74	3249
906.857	3135
906.974	3245
907.091	3420
907.208	3564
907.324	3393
907.441	3393
907.557	3192
907.674	3245
907.79	3180
907.907	3283
908.023	3378
908.139	3367
908.256	3325
908.372	3348
908.488	3344
908.604	3264
908.72	3230
908.836	3279
908.952	3249
909.068	3336
909.184	3469
909.3	3420
909.415	3481
909.531	3466
909.647	3275
909.762	3291
909.878	3211
909.993	3348
910.108	3306
910.224	3306
910.339	3443
910.454	3313
910.57	3279
910.685	3214
910.8	3568
910.915	3488
911.03	3401
911.145	3272
911.259	3264
911.374	3310
911.489	3214
911.604	3264
911.718	3135
911.833	3138
911.947	3020
912.062	2952
912.176	3161
912.291	3207
912.405	3180
912.519	3416
912.633	3435
912.748	3329
912.862	3253
912.976	3192
913.09	3062
913.204	3157
913.318	3230
913.431	3321
913.545	3336
913.659	3374
913.772	3313
913.886	3203
914	3154
914.113	3359
914.226	3424
914.34	3378
914.453	3249
914.566	3370
914.68	3283
914.793	3321
914.906	3131
915.019	3093
915.132	3066
915.245	3203
915.358	3245
915.47	3192
915.583	3253
915.696	3249
915.809	3397
915.921	3401
916.034	3218
916.146	3279
916.259	3237
916.371	3428
916.483	3355
916.595	3253
916.708	3329
916.82	3393
916.932	3351
917.044	3355
917.156	3329
917.268	3241
917.38	3294
917.491	3317
917.603	3348
917.715	3447
917.826	3481
917.938	3355
918.049	3287
918.161	3450
918.272	3580
918.384	3526
918.495	3466
918.606	3287
918.717	3287
918.828	3405
918.939	3420
919.05	3306
919.161	3386
919.272	3176
919.383	3268
919.494	3507
919.604	3663
919.715	3485
919.826	3405
919.936	3473
920.047	3591
920.157	3568
920.267	3740
920.378	3591
920.488	3576
920.598	3743
920.708	3949
920.818	3812
920.928	3774
921.038	4010
921.148	4010
921.258	3724
921.368	3641
921.477	3603
921.587	3530
921.697	3454
921.806	3614
921.916	3507
922.025	3382
922.134	3336
922.244	3306
922.353	3420
922.462	3291
922.571	3222
922.68	3081
922.789	3074
922.898	3146
923.007	3119
923.116	3211
923.224	3173
923.333	3154
923.442	3108
923.55	3100
923.659	3135
923.767	3249
923.876	3116
923.984	3283
924.092	3074
924.201	3184
924.309	3249
924.417	3264
924.525	3188
924.633	3237
924.741	4029
924.849	3009
924.956	3313
925.064	3142
925.172	3013
925.279	3089
925.387	3161
925.494	3176
925.602	3332
925.709	3363
925.816	3180
925.924	3283
926.031	3370
926.138	3336
926.245	3370
926.352	3230
926.459	3386
926.566	3397
926.673	3332
926.779	3253
926.886	3249
926.993	3135
927.099	3157
927.206	3089
927.312	3131
927.419	3241
927.525	3199
927.631	3283
927.737	3150
927.843	3135
927.95	3009
928.056	3104
928.162	3161
928.267	3233
928.373	3850
928.479	3287
928.585	3077
928.69	3233
928.796	3291
928.901	3146
929.007	3043
929.112	3222
929.218	3108
929.323	3157
929.428	3165
929.533	3310
929.638	3138
929.743	3184
929.848	3275
929.953	3230
930.058	3119
930.163	2971
930.267	3036
930.372	3195
930.477	3020
930.581	3291
930.685	3188
930.79	3055
930.894	3173
930.998	3104
931.103	3283
931.207	2948
931.311	2960
931.415	2937
931.519	2750
931.623	2781
