Data from test_V78500241_377.txt Node
Date: Fri Mar 25 16:17:48 CST 2022
User: usil
Spectrometer: V785-0024
Trigger mode: 0
Integration Time (sec): 4.000000E-1
Scans to average: 1
Nonlinearity correction enabled: false
Boxcar width: 0
Storing dark spectrum: false
XAxis mode: Wavelengths
Number of Pixels in Spectrum: 1024
>>>>>Begin Spectral Data<<<<<
801.071	2963
801.214	2952
801.356	2891
801.499	2891
801.641	2887
801.783	2975
801.926	3058
802.068	2998
802.211	3017
802.353	3074
802.496	2986
802.638	3024
802.78	3039
802.923	3081
803.065	3028
803.208	2895
803.35	2944
803.492	2960
803.635	2933
803.777	2773
803.919	2876
804.061	3195
804.204	2944
804.346	2883
804.488	2842
804.63	2971
804.773	2868
804.915	2910
805.057	3081
805.199	2941
805.341	2971
805.483	3028
805.626	3009
805.768	2948
805.91	3058
806.052	3093
806.194	3039
806.336	3222
806.478	2998
806.62	2990
806.762	2963
806.904	3047
807.046	3192
807.188	2948
807.33	2902
807.472	3028
807.614	2895
807.756	2982
807.898	2925
808.04	2944
808.182	3001
808.324	2971
808.465	2914
808.607	2914
808.749	2769
808.891	2876
809.033	2994
809.174	2986
809.316	2891
809.458	2845
809.6	2762
809.741	2769
809.883	2785
810.025	2861
810.166	2880
810.308	2876
810.45	2857
810.591	2785
810.733	2781
810.875	2834
811.016	2800
811.158	2766
811.299	2804
811.441	2906
811.582	2876
811.724	2842
811.865	2842
812.007	2929
812.148	2902
812.29	2861
812.431	2891
812.573	2925
812.714	2975
812.855	3051
812.997	3074
813.138	3131
813.279	3032
813.421	2975
813.562	2948
813.703	2887
813.845	2868
813.986	2746
814.127	2727
814.268	2868
814.41	2834
814.551	2800
814.692	2857
814.833	2796
814.974	2902
815.115	2925
815.256	2807
815.397	2811
815.539	2872
815.68	2735
815.821	2769
815.962	2948
816.103	2925
816.244	2834
816.385	2883
816.526	2986
816.666	2944
816.807	2743
816.948	2861
817.089	2891
817.23	2826
817.371	2792
817.512	2781
817.653	2830
817.793	2842
817.934	2868
818.075	2967
818.216	2986
818.356	3055
818.497	2880
818.638	2773
818.778	2800
818.919	2838
819.06	2781
819.2	2864
819.341	2807
819.481	2807
819.622	2910
819.762	3089
819.903	3028
820.043	2960
820.184	2880
820.324	2895
820.465	3028
820.605	3036
820.746	3001
820.886	2918
821.026	3108
821.167	3146
821.307	3264
821.447	3283
821.588	3222
821.728	3176
821.868	3161
822.008	3043
822.149	3207
822.289	3237
822.429	3104
822.569	3047
822.709	3161
822.849	3009
822.99	3104
823.13	3165
823.27	3218
823.41	3112
823.55	3150
823.69	3154
823.83	3222
823.97	3100
824.11	3013
824.25	3013
824.389	3062
824.529	3116
824.669	3058
824.809	3226
824.949	3260
825.089	3218
825.228	3146
825.368	3020
825.508	2967
825.648	3009
825.787	3032
825.927	3047
826.067	2990
826.206	3009
826.346	3081
826.485	3104
826.625	3161
826.765	3302
826.904	3264
827.044	3062
827.183	2906
827.323	2872
827.462	2998
827.601	2925
827.741	2998
827.88	2998
828.02	2918
828.159	3001
828.298	3024
828.437	3150
828.577	3089
828.716	3249
828.855	3108
828.994	2971
829.134	2937
829.273	2948
829.412	2876
829.551	2887
829.69	2925
829.829	3028
829.968	3173
830.107	3058
830.246	2994
830.385	2982
830.524	2933
830.663	2876
830.802	2777
830.941	2716
831.08	2705
831.219	2758
831.357	2796
831.496	2971
831.635	2773
831.774	2689
831.913	2727
832.051	2587
832.19	2606
832.329	2739
832.467	2556
832.606	2522
832.744	2613
832.883	2610
833.022	2610
833.16	2674
833.299	2716
833.437	2701
833.576	2739
833.714	2773
833.852	2785
833.991	2792
834.129	2868
834.267	2887
834.406	2826
834.544	2922
834.682	2941
834.821	2906
834.959	3093
835.097	2956
835.235	3100
835.373	3032
835.511	3097
835.65	2975
835.788	2998
835.926	2868
836.064	2845
836.202	2880
836.34	3112
836.478	3165
836.615	3097
836.753	3184
836.891	3264
837.029	3195
837.167	3150
837.305	3131
837.443	3081
837.58	3017
837.718	3138
837.856	3074
837.993	3070
838.131	3154
838.269	3131
838.406	3127
838.544	3116
838.681	2979
838.819	2971
838.956	2823
839.094	2857
839.231	2918
839.369	3085
839.506	3454
839.643	3256
839.781	3066
839.918	2986
840.055	3085
840.193	3058
840.33	3104
840.467	3112
840.604	3199
840.742	3401
840.879	3112
841.016	3074
841.153	3123
841.29	3367
841.427	3325
841.564	3325
841.701	3294
841.838	3291
841.975	3199
842.112	3256
842.249	3127
842.385	3077
842.522	3283
842.659	3116
842.796	3039
842.933	3154
843.069	3081
843.206	3055
843.343	3203
843.479	3131
843.616	3180
843.752	2933
843.889	2925
844.025	3089
844.162	2902
844.298	3093
844.435	2986
844.571	2929
844.708	3104
844.844	3245
844.98	3306
845.117	3226
845.253	3062
845.389	3039
845.525	3169
845.661	3146
845.798	3028
845.934	3161
846.07	3097
846.206	3214
846.342	3336
846.478	3260
846.614	3146
846.75	3108
846.886	3024
847.022	3264
847.158	3161
847.294	3230
847.429	3310
847.565	3253
847.701	3481
847.837	3062
847.972	3028
848.108	3169
848.244	3176
848.379	3051
848.515	3001
848.65	2952
848.786	2998
848.921	3058
849.057	3146
849.192	3176
849.328	3146
849.463	3127
849.598	3135
849.734	3093
849.869	3036
850.004	2956
850.14	3005
850.275	2952
850.41	2891
850.545	2941
850.68	2933
850.815	2971
850.95	3051
851.085	3211
851.22	3119
851.355	3089
851.49	3024
851.625	3028
851.76	3058
851.895	2967
852.03	2948
852.165	3051
852.299	3119
852.434	3241
852.569	3173
852.703	3211
852.838	3275
852.973	3386
853.107	3363
853.242	3180
853.376	3070
853.511	2948
853.645	3062
853.78	3218
853.914	3176
854.048	3157
854.183	3055
854.317	3180
854.451	3321
854.585	3154
854.72	3123
854.854	3249
854.988	3097
855.122	3112
855.256	3009
855.39	3127
855.524	3260
855.658	3199
855.792	3192
855.926	3180
856.06	3237
856.194	3306
856.327	3146
856.461	3100
856.595	3055
856.729	3104
856.862	3226
856.996	3176
857.13	3253
857.263	3275
857.397	3336
857.53	3146
857.664	3241
857.797	3249
857.931	3275
858.064	3222
858.197	3233
858.331	3157
858.464	3100
858.597	3005
858.731	3142
858.864	3116
858.997	3123
859.13	3199
859.263	3157
859.396	3230
859.529	3131
859.662	3085
859.795	3081
859.928	3154
860.061	3302
860.194	3264
860.327	3169
860.46	3116
860.592	3260
860.725	3294
860.858	3279
860.99	3119
861.123	3047
861.256	3081
861.388	3199
861.521	3888
861.653	3028
861.786	2979
861.918	3005
862.05	3081
862.183	3135
862.315	3169
862.447	3233
862.58	3081
862.712	2982
862.844	2899
862.976	3070
863.108	3055
863.24	3386
863.372	2902
863.504	3005
863.636	2990
863.768	3032
863.9	2975
864.032	2941
864.164	2971
864.296	3047
864.428	3104
864.559	3100
864.691	3119
864.823	3093
864.954	3036
865.086	3055
865.217	2986
865.349	2975
865.48	2994
865.612	3051
865.743	3173
865.875	3009
866.006	2952
866.137	3020
866.269	2952
866.4	2967
866.531	2952
866.662	2872
866.793	2857
866.924	2925
867.055	2982
867.186	2967
867.317	2922
867.448	2868
867.579	2891
867.71	2876
867.841	2872
867.972	2925
868.103	2941
868.233	2948
868.364	2895
868.495	2937
868.625	3066
868.756	3199
868.886	3017
869.017	3043
869.147	3173
869.278	3199
869.408	3104
869.539	3032
869.669	3135
869.799	3032
869.929	3157
870.06	3142
870.19	3355
870.32	3298
870.45	3355
870.58	3401
870.71	3439
870.84	3492
870.97	3317
871.1	3291
871.23	3492
871.36	3488
871.489	3367
871.619	3420
871.749	3435
871.879	3462
872.008	3488
872.138	3412
872.267	3287
872.397	3157
872.526	3154
872.656	3047
872.785	3146
872.915	3253
873.044	3340
873.173	3264
873.303	3268
873.432	3302
873.561	3279
873.69	3169
873.819	3150
873.948	3245
874.077	3146
874.206	3093
874.335	3104
874.464	3214
874.593	3351
874.722	3260
874.851	3409
874.979	3412
875.108	3321
875.237	3184
875.365	3161
875.494	3203
875.623	3245
875.751	3097
875.88	3104
876.008	3199
876.136	3264
876.265	3382
876.393	3523
876.521	3424
876.65	3405
876.778	3397
876.906	3275
877.034	3222
877.162	3233
877.29	3195
877.418	3275
877.546	3264
877.674	3268
877.802	3230
877.93	3207
878.058	3180
878.185	3116
878.313	3211
878.441	3203
878.568	3055
878.696	3173
878.824	3279
878.951	3310
879.079	3447
879.206	3641
879.333	3466
879.461	3340
879.588	3344
879.715	3477
879.842	3610
879.97	3416
880.097	3184
880.224	3138
880.351	3192
880.478	3237
880.605	3214
880.732	3195
880.859	3519
880.986	3336
881.112	3344
881.239	3226
881.366	3081
881.493	3062
881.619	3051
881.746	3074
881.872	3089
881.999	3123
882.125	3150
882.252	3287
882.378	3332
882.505	3469
882.631	3298
882.757	3146
882.883	3237
883.01	3233
883.136	3184
883.262	3119
883.388	3150
883.514	3340
883.64	3386
883.766	3359
883.892	3180
884.018	3275
884.143	3447
884.269	3584
884.395	3218
884.52	3176
884.646	3195
884.772	3142
884.897	3146
885.023	3192
885.148	3367
885.274	3439
885.399	3363
885.524	3302
885.65	3249
885.775	3317
885.9	3268
886.025	3450
886.15	3393
886.275	3325
886.4	3214
886.525	3348
886.65	3294
886.775	3268
886.9	3477
887.025	3637
887.149	3428
887.274	3268
887.399	3195
887.523	3195
887.648	3184
887.773	3180
887.897	3416
888.021	3420
888.146	3287
888.27	3439
888.395	3557
888.519	3450
888.643	3477
888.767	3488
888.891	3355
889.015	3245
889.139	3317
889.263	3241
889.387	3420
889.511	3481
889.635	3485
889.759	3306
889.883	3287
890.006	3382
890.13	3473
890.254	3256
890.377	3313
890.501	3192
890.624	3169
890.748	3321
890.871	3188
890.995	3131
891.118	3100
891.241	3214
891.364	3222
891.488	3325
891.611	3169
891.734	3256
891.857	3310
891.98	3275
892.103	3332
892.226	3256
892.349	3184
892.471	3108
892.594	3279
892.717	3291
892.839	3230
892.962	3306
893.085	3378
893.207	3302
893.33	3199
893.452	3211
893.575	3363
893.697	3291
893.819	3488
893.941	3511
894.064	3477
894.186	3283
894.308	3237
894.43	3469
894.552	3523
894.674	3519
894.796	3275
894.918	3325
895.04	3287
895.161	3450
895.283	3351
895.405	3310
895.526	3389
895.648	3420
895.769	3405
895.891	3477
896.012	3488
896.134	3492
896.255	3428
896.376	3382
896.498	3401
896.619	3431
896.74	3397
896.861	3409
896.982	3709
897.103	3838
897.224	3618
897.345	3534
897.466	3428
897.587	3507
897.708	3629
897.828	3564
897.949	3424
898.07	3344
898.19	3397
898.311	3614
898.431	3420
898.552	3534
898.672	3564
898.792	3629
898.913	3511
899.033	3424
899.153	3321
899.273	3218
899.393	3249
899.513	3374
899.633	3344
899.753	3325
899.873	3302
899.993	3348
900.113	3302
900.232	3351
900.352	3351
900.472	3302
900.591	3256
900.711	3298
900.83	3264
900.95	3431
901.069	3496
901.189	3355
901.308	3192
901.427	3157
901.546	3249
901.665	3291
901.784	3389
901.904	3230
902.023	3146
902.141	3017
902.26	3024
902.379	3146
902.498	3104
902.617	3085
902.735	3233
902.854	3245
902.973	3214
903.091	3081
903.21	3058
903.328	3161
903.446	3146
903.565	3138
903.683	3195
903.801	3123
903.919	3272
904.038	3306
904.156	3203
904.274	3279
904.392	3245
904.51	3294
904.627	3325
904.745	3458
904.863	3488
904.981	3264
905.098	3169
905.216	3283
905.334	3321
905.451	3348
905.569	3310
905.686	3409
905.803	3443
905.921	3275
906.038	3443
906.155	3370
906.272	3268
906.389	3340
906.506	3199
906.623	3272
906.74	3272
906.857	3260
906.974	3310
907.091	3443
907.208	3599
907.324	3485
907.441	3382
907.557	3226
907.674	3256
907.79	3275
907.907	3260
908.023	3397
908.139	3412
908.256	3363
908.372	3367
908.488	3325
908.604	3279
908.72	3260
908.836	3298
908.952	3310
909.068	3336
909.184	3492
909.3	3389
909.415	3439
909.531	3492
909.647	3279
909.762	3287
909.878	3298
909.993	3363
910.108	3332
910.224	3336
910.339	3416
910.454	3363
910.57	3298
910.685	3222
910.8	3595
910.915	3595
911.03	3462
911.145	3222
911.259	3260
911.374	3325
911.489	3287
911.604	3218
911.718	3150
911.833	3157
911.947	3089
912.062	3024
912.176	3169
912.291	3173
912.405	3245
912.519	3447
912.633	3473
912.748	3332
912.862	3260
912.976	3165
913.09	3032
913.204	3146
913.318	3222
913.431	3306
913.545	3336
913.659	3401
913.772	3367
913.886	3264
914	3157
914.113	3397
914.226	3412
914.34	3409
914.453	3203
914.566	3447
914.68	3287
914.793	3306
914.906	3154
915.019	3108
915.132	3058
915.245	3184
915.358	3245
915.47	3230
915.583	3298
915.696	3317
915.809	3389
915.921	3450
916.034	3245
916.146	3222
916.259	3207
916.371	3401
916.483	3332
916.595	3272
916.708	3359
916.82	3329
916.932	3367
917.044	3359
917.156	3340
917.268	3283
917.38	3351
917.491	3283
917.603	3332
917.715	3477
917.826	3469
917.938	3389
918.049	3313
918.161	3431
918.272	3568
918.384	3591
918.495	3469
918.606	3329
918.717	3233
918.828	3397
918.939	3405
919.05	3325
919.161	3401
919.272	3180
919.383	3241
919.494	3477
919.604	3698
919.715	3454
919.826	3401
919.936	3454
920.047	3618
920.157	3561
920.267	3774
920.378	3614
920.488	3553
920.598	3800
920.708	3953
920.818	3823
920.928	3823
921.038	4040
921.148	3998
921.258	3709
921.368	3637
921.477	3557
921.587	3485
921.697	3458
921.806	3641
921.916	3507
922.025	3332
922.134	3348
922.244	3344
922.353	3428
922.462	3302
922.571	3222
922.68	3085
922.789	3093
922.898	3161
923.007	3104
923.116	3180
923.224	3176
923.333	3157
923.442	3127
923.55	3097
923.659	3138
923.767	3176
923.876	3131
923.984	3233
924.092	3119
924.201	3222
924.309	3245
924.417	3241
924.525	3199
924.633	3253
924.741	4207
924.849	3066
924.956	3264
925.064	3154
925.172	3017
925.279	3127
925.387	3188
925.494	3192
925.602	3355
925.709	3336
925.816	3207
925.924	3272
926.031	3382
926.138	3336
926.245	3336
926.352	3283
926.459	3405
926.566	3462
926.673	3374
926.779	3245
926.886	3245
926.993	3131
927.099	3157
927.206	3119
927.312	3157
927.419	3192
927.525	3199
927.631	3272
927.737	3192
927.843	3100
927.95	3051
928.056	3154
928.162	3195
928.267	3275
928.373	3838
928.479	3336
928.585	3055
928.69	3237
928.796	3241
928.901	3165
929.007	3043
929.112	3230
929.218	3214
929.323	3135
929.428	3142
929.533	3336
929.638	3135
929.743	3165
929.848	3283
929.953	3214
930.058	3165
930.163	2994
930.267	3058
930.372	3226
930.477	3074
930.581	3325
930.685	3176
930.79	3043
930.894	3138
930.998	3074
931.103	3306
931.207	2933
931.311	2963
931.415	2933
931.519	2796
931.623	2826
