Data from test_V78500241_353.txt Node
Date: Fri Mar 25 16:17:38 CST 2022
User: usil
Spectrometer: V785-0024
Trigger mode: 0
Integration Time (sec): 4.000000E-1
Scans to average: 1
Nonlinearity correction enabled: false
Boxcar width: 0
Storing dark spectrum: false
XAxis mode: Wavelengths
Number of Pixels in Spectrum: 1024
>>>>>Begin Spectral Data<<<<<
801.071	2891
801.214	2948
801.356	2876
801.499	2895
801.641	2891
801.783	2925
801.926	3039
802.068	2990
802.211	2994
802.353	3039
802.496	2941
802.638	2998
802.78	3009
802.923	3070
803.065	3009
803.208	2910
803.35	2948
803.492	2906
803.635	2872
803.777	2762
803.919	2834
804.061	3180
804.204	2933
804.346	2922
804.488	2872
804.63	2948
804.773	2868
804.915	2880
805.057	3085
805.199	2933
805.341	2990
805.483	3051
805.626	2990
805.768	2963
805.91	3108
806.052	3097
806.194	3028
806.336	3230
806.478	3013
806.62	2967
806.762	2952
806.904	3028
807.046	3127
807.188	3009
807.33	2876
807.472	2994
807.614	2937
807.756	2963
807.898	2960
808.04	2899
808.182	2975
808.324	2960
808.465	2910
808.607	2891
808.749	2807
808.891	2842
809.033	2960
809.174	2990
809.316	2880
809.458	2918
809.6	2811
809.741	2769
809.883	2769
810.025	2838
810.166	2861
810.308	2830
810.45	2853
810.591	2754
810.733	2739
810.875	2823
811.016	2777
811.158	2758
811.299	2788
811.441	2929
811.582	2910
811.724	2804
811.865	2811
812.007	2891
812.148	2891
812.29	2842
812.431	2872
812.573	2941
812.714	2971
812.855	3047
812.997	3036
813.138	3127
813.279	2979
813.421	3013
813.562	2956
813.703	2845
813.845	2838
813.986	2746
814.127	2781
814.268	2823
814.41	2845
814.551	2819
814.692	2883
814.833	2838
814.974	2880
815.115	2982
815.256	2868
815.397	2853
815.539	2876
815.68	2769
815.821	2781
815.962	2948
816.103	2925
816.244	2861
816.385	2823
816.526	2979
816.666	2914
816.807	2739
816.948	2906
817.089	2899
817.23	2876
817.371	2746
817.512	2807
817.653	2830
817.793	2804
817.934	2861
818.075	2952
818.216	2975
818.356	3028
818.497	2845
818.638	2792
818.778	2876
818.919	2785
819.06	2777
819.2	2872
819.341	2804
819.481	2819
819.622	2944
819.762	3112
819.903	3032
820.043	2941
820.184	2906
820.324	2880
820.465	3017
820.605	2998
820.746	3024
820.886	2941
821.026	3089
821.167	3157
821.307	3260
821.447	3279
821.588	3245
821.728	3188
821.868	3169
822.008	3104
822.149	3150
822.289	3203
822.429	3108
822.569	3089
822.709	3165
822.849	3058
822.99	3043
823.13	3173
823.27	3203
823.41	3097
823.55	3112
823.69	3176
823.83	3192
823.97	3097
824.11	2982
824.25	2979
824.389	3074
824.529	3112
824.669	3085
824.809	3214
824.949	3249
825.089	3211
825.228	3180
825.368	3009
825.508	2982
825.648	2960
825.787	3043
825.927	3043
826.067	2948
826.206	2952
826.346	3017
826.485	3077
826.625	3108
826.765	3279
826.904	3161
827.044	3043
827.183	2960
827.323	2872
827.462	2956
827.601	2899
827.741	2925
827.88	2986
828.02	2857
828.159	2971
828.298	3032
828.437	3119
828.577	3047
828.716	3241
828.855	3036
828.994	2933
829.134	2899
829.273	2910
829.412	2861
829.551	2902
829.69	2891
829.829	2982
829.968	3104
830.107	2979
830.246	3028
830.385	2960
830.524	2918
830.663	2773
830.802	2693
830.941	2632
831.08	2640
831.219	2781
831.357	2743
831.496	2933
831.635	2735
831.774	2644
831.913	2629
832.051	2545
832.19	2575
832.329	2701
832.467	2518
832.606	2473
832.744	2590
832.883	2602
833.022	2564
833.16	2636
833.299	2670
833.437	2708
833.576	2686
833.714	2758
833.852	2754
833.991	2758
834.129	2811
834.267	2838
834.406	2785
834.544	2868
834.682	2864
834.821	2857
834.959	3043
835.097	2929
835.235	3055
835.373	3032
835.511	2994
835.65	2929
835.788	2910
835.926	2834
836.064	2777
836.202	2845
836.34	3077
836.478	3154
836.615	3036
836.753	3108
836.891	3184
837.029	3161
837.167	3112
837.305	3097
837.443	3070
837.58	2975
837.718	3116
837.856	3077
837.993	3036
838.131	3142
838.269	3089
838.406	3089
838.544	3066
838.681	2941
838.819	2922
838.956	2826
839.094	2830
839.231	2902
839.369	3017
839.506	3348
839.643	3214
839.781	3024
839.918	2956
840.055	3032
840.193	3013
840.33	3116
840.467	3119
840.604	3173
840.742	3378
840.879	3024
841.016	3024
841.153	3085
841.29	3317
841.427	3264
841.564	3226
841.701	3351
841.838	3195
841.975	3169
842.112	3233
842.249	3097
842.385	3097
842.522	3260
842.659	3066
842.796	3066
842.933	3081
843.069	3036
843.206	3055
843.343	3176
843.479	3085
843.616	3097
843.752	2864
843.889	2861
844.025	3074
844.162	2849
844.298	3066
844.435	2948
844.571	2914
844.708	3074
844.844	3169
844.98	3226
845.117	3203
845.253	3043
845.389	3001
845.525	3097
845.661	3116
845.798	3009
845.934	3108
846.07	3051
846.206	3176
846.342	3291
846.478	3256
846.614	3047
846.75	3013
846.886	3036
847.022	3207
847.158	3138
847.294	3188
847.429	3253
847.565	3218
847.701	3526
847.837	3013
847.972	2990
848.108	3138
848.244	3138
848.379	2971
848.515	2933
848.65	2910
848.786	2929
848.921	3005
849.057	3070
849.192	3131
849.328	3077
849.463	3081
849.598	3043
849.734	3062
849.869	2986
850.004	2929
850.14	2937
850.275	2925
850.41	2819
850.545	2872
850.68	2937
850.815	2967
850.95	2963
851.085	3176
851.22	3119
851.355	3024
851.49	2963
851.625	2948
851.76	2994
851.895	2922
852.03	2960
852.165	3028
852.299	3100
852.434	3188
852.569	3138
852.703	3176
852.838	3283
852.973	3321
853.107	3317
853.242	3131
853.376	3085
853.511	2941
853.645	3028
853.78	3226
853.914	3093
854.048	3074
854.183	3085
854.317	3093
854.451	3294
854.585	3138
854.72	3062
854.854	3222
854.988	3024
855.122	3051
855.256	2979
855.39	3146
855.524	3233
855.658	3207
855.792	3135
855.926	3195
856.06	3180
856.194	3230
856.327	3146
856.461	3093
856.595	3116
856.729	3108
856.862	3195
856.996	3154
857.13	3203
857.263	3218
857.397	3279
857.53	3116
857.664	3214
857.797	3230
857.931	3249
858.064	3119
858.197	3188
858.331	3131
858.464	3100
858.597	3017
858.731	3081
858.864	3123
858.997	3058
859.13	3131
859.263	3127
859.396	3192
859.529	3055
859.662	3055
859.795	3036
859.928	3097
860.061	3283
860.194	3298
860.327	3138
860.46	3039
860.592	3211
860.725	3241
860.858	3226
860.99	3100
861.123	3085
861.256	3017
861.388	3142
861.521	3747
861.653	3005
861.786	2975
861.918	3028
862.05	3055
862.183	3093
862.315	3135
862.447	3211
862.58	3066
862.712	2944
862.844	2838
862.976	3017
863.108	2971
863.24	3370
863.372	2880
863.504	2967
863.636	2929
863.768	3051
863.9	3009
864.032	2883
864.164	2918
864.296	3032
864.428	3055
864.559	3081
864.691	3104
864.823	3055
864.954	3017
865.086	3024
865.217	2994
865.349	2952
865.48	3009
865.612	2986
865.743	3123
865.875	2948
866.006	2899
866.137	2994
866.269	2933
866.4	2914
866.531	2914
866.662	2899
866.793	2929
866.924	2899
867.055	2979
867.186	2906
867.317	2864
867.448	2838
867.579	2823
867.71	2887
867.841	2838
867.972	2880
868.103	2941
868.233	2857
868.364	2883
868.495	2883
868.625	3066
868.756	3135
868.886	2956
869.017	3020
869.147	3154
869.278	3173
869.408	3005
869.539	3009
869.669	3062
869.799	3039
869.929	3154
870.06	3116
870.19	3294
870.32	3237
870.45	3294
870.58	3351
870.71	3431
870.84	3420
870.97	3283
871.1	3237
871.23	3488
871.36	3443
871.489	3359
871.619	3386
871.749	3412
871.879	3416
872.008	3454
872.138	3340
872.267	3226
872.397	3104
872.526	3100
872.656	2963
872.785	3093
872.915	3237
873.044	3287
873.173	3214
873.303	3226
873.432	3237
873.561	3253
873.69	3199
873.819	3127
873.948	3195
874.077	3097
874.206	3043
874.335	3055
874.464	3230
874.593	3325
874.722	3245
874.851	3393
874.979	3351
875.108	3351
875.237	3173
875.365	3165
875.494	3150
875.623	3226
875.751	3089
875.88	3108
876.008	3176
876.136	3203
876.265	3378
876.393	3481
876.521	3420
876.65	3344
876.778	3332
876.906	3256
877.034	3211
877.162	3188
877.29	3165
877.418	3260
877.546	3218
877.674	3214
877.802	3207
877.93	3249
878.058	3131
878.185	3100
878.313	3211
878.441	3184
878.568	3089
878.696	3176
878.824	3249
878.951	3287
879.079	3409
879.206	3603
879.333	3424
879.461	3325
879.588	3313
879.715	3469
879.842	3587
879.97	3393
880.097	3192
880.224	3135
880.351	3169
880.478	3195
880.605	3195
880.732	3169
880.859	3507
880.986	3291
881.112	3329
881.239	3176
881.366	3093
881.493	3043
881.619	3017
881.746	3070
881.872	3066
881.999	3100
882.125	3154
882.252	3253
882.378	3249
882.505	3439
882.631	3272
882.757	3127
882.883	3233
883.01	3184
883.136	3135
883.262	3062
883.388	3157
883.514	3340
883.64	3359
883.766	3329
883.892	3199
884.018	3218
884.143	3393
884.269	3568
884.395	3222
884.52	3142
884.646	3188
884.772	3093
884.897	3074
885.023	3195
885.148	3302
885.274	3435
885.399	3355
885.524	3287
885.65	3241
885.775	3332
885.9	3264
886.025	3420
886.15	3332
886.275	3287
886.4	3241
886.525	3310
886.65	3233
886.775	3268
886.9	3496
887.025	3663
887.149	3386
887.274	3226
887.399	3214
887.523	3161
887.648	3157
887.773	3157
887.897	3359
888.021	3397
888.146	3298
888.27	3439
888.395	3519
888.519	3405
888.643	3439
888.767	3481
888.891	3287
889.015	3203
889.139	3279
889.263	3245
889.387	3370
889.511	3466
889.635	3481
889.759	3260
889.883	3317
890.006	3393
890.13	3469
890.254	3272
890.377	3298
890.501	3180
890.624	3135
890.748	3306
890.871	3180
890.995	3108
891.118	3066
891.241	3207
891.364	3199
891.488	3329
891.611	3173
891.734	3214
891.857	3279
891.98	3226
892.103	3279
892.226	3264
892.349	3169
892.471	3085
892.594	3214
892.717	3256
892.839	3272
892.962	3245
893.085	3355
893.207	3321
893.33	3142
893.452	3218
893.575	3332
893.697	3253
893.819	3473
893.941	3454
894.064	3424
894.186	3241
894.308	3264
894.43	3439
894.552	3534
894.674	3473
894.796	3237
894.918	3298
895.04	3222
895.161	3416
895.283	3363
895.405	3317
895.526	3378
895.648	3351
895.769	3393
895.891	3443
896.012	3485
896.134	3420
896.255	3393
896.376	3370
896.498	3370
896.619	3412
896.74	3367
896.861	3393
896.982	3671
897.103	3835
897.224	3584
897.345	3507
897.466	3389
897.587	3466
897.708	3584
897.828	3534
897.949	3428
898.07	3321
898.19	3378
898.311	3561
898.431	3458
898.552	3511
898.672	3557
898.792	3557
898.913	3500
899.033	3420
899.153	3264
899.273	3211
899.393	3313
899.513	3294
899.633	3306
899.753	3332
899.873	3302
899.993	3340
900.113	3359
900.232	3370
900.352	3359
900.472	3294
900.591	3199
900.711	3291
900.83	3218
900.95	3424
901.069	3515
901.189	3344
901.308	3214
901.427	3097
901.546	3199
901.665	3298
901.784	3325
901.904	3226
902.023	3123
902.141	3005
902.26	3005
902.379	3157
902.498	3131
902.617	3074
902.735	3222
902.854	3241
902.973	3195
903.091	3043
903.21	3081
903.328	3142
903.446	3146
903.565	3138
903.683	3245
903.801	3157
903.919	3256
904.038	3321
904.156	3195
904.274	3325
904.392	3275
904.51	3348
904.627	3405
904.745	3466
904.863	3545
904.981	3268
905.098	3207
905.216	3249
905.334	3313
905.451	3355
905.569	3397
905.686	3450
905.803	3450
905.921	3348
906.038	3481
906.155	3393
906.272	3283
906.389	3397
906.506	3283
906.623	3298
906.74	3313
906.857	3241
906.974	3272
907.091	3473
907.208	3641
907.324	3485
907.441	3443
907.557	3294
907.674	3291
907.79	3245
907.907	3306
908.023	3462
908.139	3405
908.256	3355
908.372	3416
908.488	3351
908.604	3275
908.72	3291
908.836	3355
908.952	3355
909.068	3401
909.184	3530
909.3	3466
909.415	3507
909.531	3538
909.647	3310
909.762	3302
909.878	3298
909.993	3340
910.108	3389
910.224	3355
910.339	3469
910.454	3378
910.57	3306
910.685	3264
910.8	3660
910.915	3587
911.03	3473
911.145	3310
911.259	3310
911.374	3359
911.489	3275
911.604	3245
911.718	3199
911.833	3150
911.947	3036
912.062	3013
912.176	3192
912.291	3230
912.405	3287
912.519	3473
912.633	3492
912.748	3367
912.862	3291
912.976	3195
913.09	3104
913.204	3150
913.318	3233
913.431	3412
913.545	3340
913.659	3477
913.772	3313
913.886	3237
914	3207
914.113	3389
914.226	3428
914.34	3420
914.453	3226
914.566	3401
914.68	3340
914.793	3336
914.906	3211
915.019	3165
915.132	3135
915.245	3222
915.358	3207
915.47	3241
915.583	3336
915.696	3351
915.809	3481
915.921	3492
916.034	3272
916.146	3306
916.259	3275
916.371	3409
916.483	3409
916.595	3302
916.708	3355
916.82	3363
916.932	3374
917.044	3351
917.156	3367
917.268	3291
917.38	3310
917.491	3351
917.603	3393
917.715	3454
917.826	3458
917.938	3428
918.049	3321
918.161	3454
918.272	3614
918.384	3580
918.495	3523
918.606	3397
918.717	3325
918.828	3428
918.939	3466
919.05	3329
919.161	3386
919.272	3188
919.383	3321
919.494	3515
919.604	3698
919.715	3507
919.826	3431
919.936	3511
920.047	3637
920.157	3648
920.267	3819
920.378	3648
920.488	3584
920.598	3785
920.708	3987
920.818	3899
920.928	3850
921.038	4086
921.148	4006
921.258	3759
921.368	3633
921.477	3587
921.587	3557
921.697	3496
921.806	3686
921.916	3523
922.025	3424
922.134	3363
922.244	3359
922.353	3431
922.462	3272
922.571	3275
922.68	3135
922.789	3123
922.898	3184
923.007	3157
923.116	3199
923.224	3214
923.333	3218
923.442	3119
923.55	3119
923.659	3146
923.767	3233
923.876	3154
923.984	3287
924.092	3108
924.201	3233
924.309	3230
924.417	3298
924.525	3226
924.633	3310
924.741	4219
924.849	3085
924.956	3279
925.064	3157
925.172	3097
925.279	3146
925.387	3241
925.494	3214
925.602	3340
925.709	3332
925.816	3264
925.924	3306
926.031	3443
926.138	3351
926.245	3363
926.352	3313
926.459	3424
926.566	3507
926.673	3359
926.779	3241
926.886	3237
926.993	3184
927.099	3195
927.206	3138
927.312	3142
927.419	3260
927.525	3245
927.631	3283
927.737	3169
927.843	3146
927.95	3077
928.056	3146
928.162	3233
928.267	3249
928.373	3888
928.479	3340
928.585	3104
928.69	3279
928.796	3302
928.901	3180
929.007	3043
929.112	3233
929.218	3245
929.323	3127
929.428	3241
929.533	3329
929.638	3142
929.743	3188
929.848	3272
929.953	3253
930.058	3184
930.163	3077
930.267	3077
930.372	3226
930.477	3070
930.581	3389
930.685	3192
930.79	3112
930.894	3127
930.998	3138
931.103	3291
931.207	2994
931.311	2956
931.415	2967
931.519	2800
931.623	2872
