Data from test_V78500241_1502.txt Node
Date: Fri Mar 25 16:25:36 CST 2022
User: usil
Spectrometer: V785-0024
Trigger mode: 0
Integration Time (sec): 4.000000E-1
Scans to average: 1
Nonlinearity correction enabled: false
Boxcar width: 0
Storing dark spectrum: false
XAxis mode: Wavelengths
Number of Pixels in Spectrum: 1024
>>>>>Begin Spectral Data<<<<<
801.071	2887
801.214	2944
801.356	2861
801.499	2899
801.641	2872
801.783	2891
801.926	3028
802.068	2979
802.211	2975
802.353	2990
802.496	2922
802.638	2963
802.78	3058
802.923	3070
803.065	3020
803.208	2872
803.35	2891
803.492	2967
803.635	2948
803.777	2754
803.919	2864
804.061	3173
804.204	2933
804.346	2933
804.488	2845
804.63	2982
804.773	2853
804.915	2891
805.057	3051
805.199	2952
805.341	2975
805.483	3055
805.626	3013
805.768	2944
805.91	3066
806.052	3119
806.194	3066
806.336	3233
806.478	2982
806.62	2922
806.762	2990
806.904	3058
807.046	3146
807.188	2990
807.33	2944
807.472	2975
807.614	2933
807.756	2975
807.898	2944
808.04	2872
808.182	2967
808.324	2960
808.465	2868
808.607	2891
808.749	2773
808.891	2845
809.033	2979
809.174	2956
809.316	2838
809.458	2876
809.6	2754
809.741	2792
809.883	2781
810.025	2842
810.166	2849
810.308	2826
810.45	2834
810.591	2766
810.733	2766
810.875	2845
811.016	2773
811.158	2743
811.299	2823
811.441	2914
811.582	2899
811.724	2838
811.865	2849
812.007	2880
812.148	2872
812.29	2811
812.431	2906
812.573	2933
812.714	2982
812.855	3024
812.997	3051
813.138	3131
813.279	3005
813.421	2941
813.562	2918
813.703	2845
813.845	2853
813.986	2788
814.127	2750
814.268	2815
814.41	2804
814.551	2781
814.692	2910
814.833	2861
814.974	2864
815.115	2944
815.256	2872
815.397	2830
815.539	2853
815.68	2804
815.821	2796
815.962	2933
816.103	2914
816.244	2887
816.385	2883
816.526	2975
816.666	2872
816.807	2731
816.948	2902
817.089	2887
817.23	2845
817.371	2773
817.512	2804
817.653	2823
817.793	2807
817.934	2872
818.075	2963
818.216	2986
818.356	2990
818.497	2906
818.638	2804
818.778	2853
818.919	2804
819.06	2777
819.2	2872
819.341	2788
819.481	2823
819.622	2929
819.762	3112
819.903	3020
820.043	2922
820.184	2864
820.324	2880
820.465	3001
820.605	2967
820.746	3062
820.886	2941
821.026	3123
821.167	3169
821.307	3256
821.447	3275
821.588	3237
821.728	3245
821.868	3199
822.008	3070
822.149	3195
822.289	3230
822.429	3062
822.569	3112
822.709	3131
822.849	3028
822.99	3058
823.13	3199
823.27	3180
823.41	3123
823.55	3146
823.69	3146
823.83	3192
823.97	3112
824.11	2990
824.25	2975
824.389	3055
824.529	3135
824.669	3070
824.809	3207
824.949	3279
825.089	3214
825.228	3116
825.368	2971
825.508	2933
825.648	2979
825.787	3001
825.927	3013
826.067	2982
826.206	2944
826.346	3058
826.485	3036
826.625	3081
826.765	3249
826.904	3211
827.044	2975
827.183	2922
827.323	2876
827.462	2975
827.601	2929
827.741	2956
827.88	2937
828.02	2826
828.159	2979
828.298	3013
828.437	3062
828.577	3036
828.716	3218
828.855	3066
828.994	2918
829.134	2895
829.273	2880
829.412	2880
829.551	2868
829.69	2914
829.829	2982
829.968	3085
830.107	3009
830.246	3043
830.385	2933
830.524	2849
830.663	2811
830.802	2735
830.941	2644
831.08	2651
831.219	2727
831.357	2739
831.496	2937
831.635	2686
831.774	2621
831.913	2659
832.051	2522
832.19	2545
832.329	2655
832.467	2514
832.606	2465
832.744	2617
832.883	2625
833.022	2530
833.16	2632
833.299	2651
833.437	2674
833.576	2727
833.714	2720
833.852	2712
833.991	2731
834.129	2857
834.267	2815
834.406	2815
834.544	2876
834.682	2906
834.821	2842
834.959	3058
835.097	2891
835.235	3051
835.373	2971
835.511	3039
835.65	2960
835.788	2918
835.926	2826
836.064	2766
836.202	2834
836.34	3097
836.478	3192
836.615	3036
836.753	3119
836.891	3199
837.029	3195
837.167	3043
837.305	3074
837.443	3051
837.58	2971
837.718	3154
837.856	3066
837.993	3043
838.131	3066
838.269	3112
838.406	3100
838.544	3039
838.681	2944
838.819	2902
838.956	2807
839.094	2838
839.231	2929
839.369	3005
839.506	3386
839.643	3211
839.781	2998
839.918	2963
840.055	3074
840.193	3066
840.33	3055
840.467	3081
840.604	3146
840.742	3405
840.879	3024
841.016	3024
841.153	3123
841.29	3325
841.427	3310
841.564	3226
841.701	3325
841.838	3237
841.975	3195
842.112	3237
842.249	3104
842.385	3043
842.522	3245
842.659	3089
842.796	3055
842.933	3116
843.069	3032
843.206	3024
843.343	3176
843.479	3131
843.616	3142
843.752	2906
843.889	2868
844.025	3097
844.162	2883
844.298	3085
844.435	2963
844.571	2937
844.708	3055
844.844	3146
844.98	3245
845.117	3199
845.253	3058
845.389	3005
845.525	3112
845.661	3119
845.798	2967
845.934	3131
846.07	3047
846.206	3253
846.342	3253
846.478	3245
846.614	3074
846.75	3043
846.886	3028
847.022	3241
847.158	3119
847.294	3207
847.429	3214
847.565	3222
847.701	3431
847.837	3058
847.972	2994
848.108	3131
848.244	3104
848.379	2971
848.515	2910
848.65	2948
848.786	2929
848.921	2986
849.057	3119
849.192	3100
849.328	3085
849.463	3119
849.598	3074
849.734	3028
849.869	2975
850.004	2922
850.14	2967
850.275	2887
850.41	2826
850.545	2906
850.68	2910
850.815	2956
850.95	2937
851.085	3165
851.22	3108
851.355	3039
851.49	2937
851.625	2971
851.76	2986
851.895	2914
852.03	2895
852.165	2998
852.299	3123
852.434	3207
852.569	3116
852.703	3119
852.838	3275
852.973	3325
853.107	3313
853.242	3157
853.376	3089
853.511	2956
853.645	3017
853.78	3264
853.914	3119
854.048	3116
854.183	3070
854.317	3138
854.451	3287
854.585	3165
854.72	3058
854.854	3218
854.988	3009
855.122	3074
855.256	2990
855.39	3157
855.524	3226
855.658	3131
855.792	3142
855.926	3176
856.06	3203
856.194	3237
856.327	3176
856.461	3085
856.595	3062
856.729	3089
856.862	3230
856.996	3157
857.13	3176
857.263	3199
857.397	3272
857.53	3112
857.664	3226
857.797	3230
857.931	3241
858.064	3176
858.197	3161
858.331	3089
858.464	3100
858.597	2967
858.731	3089
858.864	3138
858.997	3081
859.13	3169
859.263	3154
859.396	3176
859.529	3104
859.662	3089
859.795	3036
859.928	3123
860.061	3233
860.194	3279
860.327	3157
860.46	3100
860.592	3245
860.725	3264
860.858	3272
860.99	3097
861.123	3017
861.256	3062
861.388	3138
861.521	3865
861.653	2967
861.786	2979
861.918	3001
862.05	3081
862.183	3104
862.315	3104
862.447	3211
862.58	3100
862.712	2910
862.844	2868
862.976	3001
863.108	2998
863.24	3340
863.372	2849
863.504	2982
863.636	2937
863.768	3047
863.9	2956
864.032	2887
864.164	2979
864.296	3009
864.428	3097
864.559	3100
864.691	3058
864.823	3055
864.954	3051
865.086	3032
865.217	2952
865.349	2918
865.48	2948
865.612	3009
865.743	3135
865.875	2982
866.006	2925
866.137	2956
866.269	2960
866.4	2914
866.531	2902
866.662	2880
866.793	2902
866.924	2868
867.055	2979
867.186	2906
867.317	2910
867.448	2849
867.579	2830
867.71	2826
867.841	2830
867.972	2887
868.103	2929
868.233	2914
868.364	2838
868.495	2864
868.625	3055
868.756	3165
868.886	2929
869.017	3036
869.147	3146
869.278	3165
869.408	3043
869.539	3024
869.669	3116
869.799	3024
869.929	3116
870.06	3135
870.19	3348
870.32	3294
870.45	3272
870.58	3359
870.71	3424
870.84	3450
870.97	3298
871.1	3203
871.23	3450
871.36	3458
871.489	3370
871.619	3431
871.749	3416
871.879	3443
872.008	3477
872.138	3351
872.267	3275
872.397	3142
872.526	3108
872.656	3028
872.785	3131
872.915	3192
873.044	3302
873.173	3214
873.303	3222
873.432	3218
873.561	3275
873.69	3146
873.819	3142
873.948	3188
874.077	3051
874.206	3013
874.335	3077
874.464	3188
874.593	3363
874.722	3253
874.851	3405
874.979	3370
875.108	3306
875.237	3203
875.365	3169
875.494	3161
875.623	3241
875.751	3100
875.88	3112
876.008	3211
876.136	3226
876.265	3344
876.393	3507
876.521	3378
876.65	3401
876.778	3332
876.906	3291
877.034	3211
877.162	3188
877.29	3157
877.418	3272
877.546	3272
877.674	3249
877.802	3241
877.93	3218
878.058	3150
878.185	3131
878.313	3199
878.441	3203
878.568	3051
878.696	3138
878.824	3260
878.951	3283
879.079	3420
879.206	3625
879.333	3458
879.461	3344
879.588	3389
879.715	3526
879.842	3553
879.97	3355
880.097	3131
880.224	3146
880.351	3180
880.478	3218
880.605	3199
880.732	3173
880.859	3519
880.986	3306
881.112	3340
881.239	3199
881.366	3074
881.493	3013
881.619	3047
881.746	3062
881.872	3112
881.999	3089
882.125	3127
882.252	3256
882.378	3287
882.505	3428
882.631	3287
882.757	3135
882.883	3218
883.01	3230
883.136	3127
883.262	3077
883.388	3127
883.514	3321
883.64	3344
883.766	3302
883.892	3184
884.018	3184
884.143	3397
884.269	3515
884.395	3218
884.52	3154
884.646	3161
884.772	3138
884.897	3070
885.023	3207
885.148	3329
885.274	3409
885.399	3389
885.524	3260
885.65	3272
885.775	3363
885.9	3256
886.025	3431
886.15	3386
886.275	3264
886.4	3199
886.525	3294
886.65	3268
886.775	3249
886.9	3500
887.025	3641
887.149	3412
887.274	3241
887.399	3161
887.523	3222
887.648	3195
887.773	3188
887.897	3348
888.021	3386
888.146	3317
888.27	3412
888.395	3526
888.519	3420
888.643	3450
888.767	3439
888.891	3348
889.015	3249
889.139	3287
889.263	3207
889.387	3393
889.511	3458
889.635	3428
889.759	3302
889.883	3291
890.006	3363
890.13	3473
890.254	3226
890.377	3344
890.501	3203
890.624	3184
890.748	3306
890.871	3157
890.995	3081
891.118	3070
891.241	3207
891.364	3199
891.488	3283
891.611	3173
891.734	3245
891.857	3275
891.98	3230
892.103	3336
892.226	3279
892.349	3173
892.471	3119
892.594	3256
892.717	3310
892.839	3249
892.962	3302
893.085	3363
893.207	3283
893.33	3173
893.452	3222
893.575	3325
893.697	3226
893.819	3447
893.941	3466
894.064	3466
894.186	3264
894.308	3264
894.43	3469
894.552	3519
894.674	3473
894.796	3245
894.918	3298
895.04	3279
895.161	3416
895.283	3412
895.405	3317
895.526	3359
895.648	3405
895.769	3420
895.891	3496
896.012	3428
896.134	3435
896.255	3424
896.376	3367
896.498	3355
896.619	3405
896.74	3367
896.861	3374
896.982	3671
897.103	3812
897.224	3580
897.345	3504
897.466	3443
897.587	3526
897.708	3610
897.828	3584
897.949	3393
898.07	3317
898.19	3386
898.311	3622
898.431	3488
898.552	3545
898.672	3591
898.792	3599
898.913	3545
899.033	3386
899.153	3253
899.273	3218
899.393	3279
899.513	3291
899.633	3306
899.753	3336
899.873	3298
899.993	3359
900.113	3348
900.232	3348
900.352	3329
900.472	3279
900.591	3207
900.711	3272
900.83	3268
900.95	3393
901.069	3481
901.189	3344
901.308	3161
901.427	3116
901.546	3203
901.665	3275
901.784	3355
901.904	3211
902.023	3138
902.141	3062
902.26	2986
902.379	3116
902.498	3043
902.617	3089
902.735	3241
902.854	3207
902.973	3188
903.091	3005
903.21	3043
903.328	3161
903.446	3081
903.565	3119
903.683	3199
903.801	3146
903.919	3230
904.038	3245
904.156	3150
904.274	3313
904.392	3279
904.51	3325
904.627	3317
904.745	3439
904.863	3485
904.981	3275
905.098	3142
905.216	3192
905.334	3317
905.451	3306
905.569	3325
905.686	3416
905.803	3409
905.921	3291
906.038	3431
906.155	3359
906.272	3264
906.389	3374
906.506	3264
906.623	3260
906.74	3245
906.857	3176
906.974	3283
907.091	3443
907.208	3553
907.324	3481
907.441	3405
907.557	3245
907.674	3195
907.79	3161
907.907	3233
908.023	3382
908.139	3336
908.256	3336
908.372	3401
908.488	3340
908.604	3256
908.72	3176
908.836	3260
908.952	3260
909.068	3359
909.184	3462
909.3	3378
909.415	3443
909.531	3496
909.647	3310
909.762	3298
909.878	3241
909.993	3397
910.108	3306
910.224	3374
910.339	3428
910.454	3329
910.57	3313
910.685	3230
910.8	3584
910.915	3477
911.03	3428
911.145	3294
911.259	3226
911.374	3348
911.489	3211
911.604	3184
911.718	3146
911.833	3154
911.947	3032
912.062	2986
912.176	3146
912.291	3207
912.405	3211
912.519	3397
912.633	3481
912.748	3317
912.862	3249
912.976	3173
913.09	3116
913.204	3119
913.318	3222
913.431	3336
913.545	3336
913.659	3378
913.772	3329
913.886	3222
914	3207
914.113	3336
914.226	3435
914.34	3359
914.453	3226
914.566	3386
914.68	3275
914.793	3279
914.906	3169
915.019	3112
915.132	3051
915.245	3180
915.358	3176
915.47	3233
915.583	3264
915.696	3310
915.809	3416
915.921	3458
916.034	3245
916.146	3233
916.259	3272
916.371	3389
916.483	3348
916.595	3241
916.708	3340
916.82	3340
916.932	3348
917.044	3344
917.156	3355
917.268	3279
917.38	3298
917.491	3310
917.603	3386
917.715	3416
917.826	3458
917.938	3313
918.049	3283
918.161	3428
918.272	3587
918.384	3564
918.495	3473
918.606	3321
918.717	3291
918.828	3393
918.939	3393
919.05	3291
919.161	3348
919.272	3161
919.383	3291
919.494	3469
919.604	3690
919.715	3477
919.826	3416
919.936	3488
920.047	3545
920.157	3553
920.267	3747
920.378	3595
920.488	3545
920.598	3835
920.708	3937
920.818	3835
920.928	3812
921.038	4051
921.148	4044
921.258	3705
921.368	3652
921.477	3564
921.587	3519
921.697	3466
921.806	3618
921.916	3557
922.025	3367
922.134	3409
922.244	3329
922.353	3424
922.462	3264
922.571	3237
922.68	3131
922.789	3093
922.898	3123
923.007	3104
923.116	3214
923.224	3169
923.333	3184
923.442	3138
923.55	3077
923.659	3138
923.767	3195
923.876	3116
923.984	3237
924.092	3112
924.201	3211
924.309	3218
924.417	3264
924.525	3157
924.633	3230
924.741	4021
924.849	3039
924.956	3249
925.064	3074
925.172	3017
925.279	3070
925.387	3207
925.494	3199
925.602	3359
925.709	3332
925.816	3226
925.924	3283
926.031	3370
926.138	3306
926.245	3416
926.352	3218
926.459	3424
926.566	3500
926.673	3336
926.779	3233
926.886	3256
926.993	3104
927.099	3161
927.206	3108
927.312	3112
927.419	3195
927.525	3195
927.631	3272
927.737	3123
927.843	3093
927.95	3009
928.056	3150
928.162	3180
928.267	3253
928.373	3766
928.479	3310
928.585	3047
928.69	3233
928.796	3245
928.901	3169
929.007	3043
929.112	3176
929.218	3169
929.323	3100
929.428	3127
929.533	3279
929.638	3150
929.743	3218
929.848	3241
929.953	3195
930.058	3119
930.163	2986
930.267	3058
930.372	3211
930.477	3028
930.581	3298
930.685	3176
930.79	3062
930.894	3108
930.998	3089
931.103	3245
931.207	2963
931.311	2952
931.415	2910
931.519	2792
931.623	2826
