Data from test_V78500241_591.txt Node
Date: Fri Mar 25 16:19:17 CST 2022
User: usil
Spectrometer: V785-0024
Trigger mode: 0
Integration Time (sec): 4.000000E-1
Scans to average: 1
Nonlinearity correction enabled: false
Boxcar width: 0
Storing dark spectrum: false
XAxis mode: Wavelengths
Number of Pixels in Spectrum: 1024
>>>>>Begin Spectral Data<<<<<
801.071	2918
801.214	2922
801.356	2849
801.499	2883
801.641	2838
801.783	2895
801.926	3013
802.068	3001
802.211	2963
802.353	2998
802.496	2948
802.638	2982
802.78	3017
802.923	3081
803.065	3017
803.208	2895
803.35	2906
803.492	2883
803.635	2922
803.777	2750
803.919	2876
804.061	3176
804.204	2963
804.346	2918
804.488	2826
804.63	2975
804.773	2880
804.915	2902
805.057	3104
805.199	2914
805.341	2967
805.483	2986
805.626	3001
805.768	2967
805.91	3066
806.052	3070
806.194	3032
806.336	3230
806.478	2998
806.62	2914
806.762	2914
806.904	3017
807.046	3157
807.188	3001
807.33	2910
807.472	2979
807.614	2922
807.756	3036
807.898	2929
808.04	2895
808.182	2952
808.324	2956
808.465	2845
808.607	2864
808.749	2796
808.891	2826
809.033	2998
809.174	2929
809.316	2845
809.458	2910
809.6	2754
809.741	2735
809.883	2766
810.025	2861
810.166	2853
810.308	2811
810.45	2823
810.591	2769
810.733	2731
810.875	2792
811.016	2796
811.158	2727
811.299	2785
811.441	2906
811.582	2902
811.724	2815
811.865	2804
812.007	2883
812.148	2853
812.29	2796
812.431	2887
812.573	2918
812.714	2960
812.855	3055
812.997	3085
813.138	3085
813.279	2998
813.421	2990
813.562	2933
813.703	2864
813.845	2864
813.986	2785
814.127	2720
814.268	2807
814.41	2845
814.551	2842
814.692	2880
814.833	2807
814.974	2872
815.115	2975
815.256	2811
815.397	2815
815.539	2834
815.68	2743
815.821	2773
815.962	2952
816.103	2929
816.244	2872
816.385	2830
816.526	2956
816.666	2902
816.807	2754
816.948	2891
817.089	2922
817.23	2876
817.371	2800
817.512	2785
817.653	2849
817.793	2811
817.934	2868
818.075	2948
818.216	2971
818.356	3020
818.497	2876
818.638	2792
818.778	2819
818.919	2826
819.06	2773
819.2	2880
819.341	2823
819.481	2819
819.622	2937
819.762	3123
819.903	3058
820.043	2941
820.184	2883
820.324	2891
820.465	3028
820.605	3005
820.746	3013
820.886	2956
821.026	3074
821.167	3157
821.307	3272
821.447	3256
821.588	3237
821.728	3192
821.868	3176
822.008	3058
822.149	3150
822.289	3218
822.429	3097
822.569	3074
822.709	3157
822.849	3017
822.99	3062
823.13	3157
823.27	3195
823.41	3135
823.55	3150
823.69	3127
823.83	3195
823.97	3093
824.11	3001
824.25	2998
824.389	3047
824.529	3116
824.669	3062
824.809	3157
824.949	3249
825.089	3222
825.228	3146
825.368	2990
825.508	2941
825.648	2967
825.787	2990
825.927	3020
826.067	2963
826.206	2948
826.346	3047
826.485	3062
826.625	3100
826.765	3272
826.904	3203
827.044	3013
827.183	2948
827.323	2883
827.462	2963
827.601	2887
827.741	2910
827.88	2937
828.02	2853
828.159	2994
828.298	2986
828.437	3127
828.577	3051
828.716	3218
828.855	3039
828.994	2902
829.134	2849
829.273	2925
829.412	2857
829.551	2891
829.69	2891
829.829	2975
829.968	3119
830.107	3001
830.246	3001
830.385	2914
830.524	2883
830.663	2830
830.802	2720
830.941	2629
831.08	2621
831.219	2720
831.357	2750
831.496	2937
831.635	2708
831.774	2640
831.913	2659
832.051	2545
832.19	2571
832.329	2693
832.467	2518
832.606	2476
832.744	2549
832.883	2549
833.022	2590
833.16	2659
833.299	2655
833.437	2678
833.576	2670
833.714	2701
833.852	2750
833.991	2777
834.129	2834
834.267	2830
834.406	2777
834.544	2857
834.682	2842
834.821	2891
834.959	3028
835.097	2883
835.235	3036
835.373	3005
835.511	2990
835.65	2918
835.788	2944
835.926	2842
836.064	2826
836.202	2842
836.34	3108
836.478	3138
836.615	3005
836.753	3081
836.891	3188
837.029	3112
837.167	3089
837.305	3047
837.443	3043
837.58	2967
837.718	3085
837.856	3043
837.993	3028
838.131	3104
838.269	3074
838.406	3116
838.544	3108
838.681	2895
838.819	2891
838.956	2796
839.094	2826
839.231	2914
839.369	2963
839.506	3363
839.643	3211
839.781	2998
839.918	2944
840.055	3020
840.193	3036
840.33	3039
840.467	3127
840.604	3119
840.742	3412
840.879	3055
841.016	3028
841.153	3108
841.29	3336
841.427	3287
841.564	3199
841.701	3367
841.838	3214
841.975	3169
842.112	3233
842.249	3055
842.385	3039
842.522	3233
842.659	3138
842.796	3058
842.933	3081
843.069	3036
843.206	3005
843.343	3176
843.479	3081
843.616	3119
843.752	2910
843.889	2906
844.025	3116
844.162	2861
844.298	3070
844.435	2979
844.571	2887
844.708	3066
844.844	3176
844.98	3214
845.117	3188
845.253	3039
845.389	3036
845.525	3077
845.661	3108
845.798	2998
845.934	3093
846.07	3058
846.206	3207
846.342	3287
846.478	3237
846.614	3085
846.75	3058
846.886	3013
847.022	3237
847.158	3142
847.294	3165
847.429	3249
847.565	3184
847.701	3481
847.837	3043
847.972	2979
848.108	3142
848.244	3150
848.379	2979
848.515	2918
848.65	2914
848.786	2944
848.921	3001
849.057	3066
849.192	3150
849.328	3085
849.463	3112
849.598	3036
849.734	3005
849.869	3009
850.004	2899
850.14	2948
850.275	2891
850.41	2826
850.545	2895
850.68	2899
850.815	2948
850.95	2979
851.085	3184
851.22	3074
851.355	3043
851.49	2986
851.625	2990
851.76	2979
851.895	2960
852.03	2891
852.165	3036
852.299	3108
852.434	3157
852.569	3165
852.703	3157
852.838	3241
852.973	3294
853.107	3359
853.242	3104
853.376	3043
853.511	2952
853.645	3032
853.78	3195
853.914	3123
854.048	3108
854.183	3135
854.317	3157
854.451	3310
854.585	3104
854.72	3104
854.854	3180
854.988	3036
855.122	3116
855.256	2986
855.39	3100
855.524	3264
855.658	3199
855.792	3169
855.926	3195
856.06	3211
856.194	3249
856.327	3146
856.461	3085
856.595	3066
856.729	3097
856.862	3226
856.996	3173
857.13	3154
857.263	3218
857.397	3264
857.53	3119
857.664	3207
857.797	3195
857.931	3245
858.064	3173
858.197	3241
858.331	3131
858.464	3077
858.597	2986
858.731	3131
858.864	3146
858.997	3066
859.13	3165
859.263	3135
859.396	3176
859.529	3089
859.662	3104
859.795	3039
859.928	3131
860.061	3279
860.194	3226
860.327	3127
860.46	3093
860.592	3211
860.725	3256
860.858	3241
860.99	3081
861.123	3043
861.256	3043
861.388	3127
861.521	3682
861.653	3024
861.786	2979
861.918	2979
862.05	3062
862.183	3112
862.315	3146
862.447	3169
862.58	3070
862.712	2960
862.844	2845
862.976	2971
863.108	2982
863.24	3443
863.372	2845
863.504	2941
863.636	2937
863.768	3051
863.9	2967
864.032	2906
864.164	2933
864.296	2990
864.428	3074
864.559	3135
864.691	3089
864.823	3062
864.954	3036
865.086	3017
865.217	3005
865.349	2929
865.48	3009
865.612	2998
865.743	3142
865.875	2967
866.006	2922
866.137	2994
866.269	2902
866.4	2944
866.531	2925
866.662	2872
866.793	2887
866.924	2883
867.055	2971
867.186	2922
867.317	2883
867.448	2819
867.579	2838
867.71	2830
867.841	2815
867.972	2910
868.103	2918
868.233	2861
868.364	2880
868.495	2895
868.625	3077
868.756	3188
868.886	2948
869.017	3017
869.147	3131
869.278	3154
869.408	3024
869.539	2994
869.669	3085
869.799	3013
869.929	3146
870.06	3100
870.19	3298
870.32	3283
870.45	3294
870.58	3359
870.71	3469
870.84	3431
870.97	3302
871.1	3214
871.23	3450
871.36	3431
871.489	3363
871.619	3348
871.749	3416
871.879	3439
872.008	3466
872.138	3359
872.267	3325
872.397	3161
872.526	3089
872.656	2975
872.785	3081
872.915	3245
873.044	3291
873.173	3192
873.303	3218
873.432	3188
873.561	3245
873.69	3116
873.819	3119
873.948	3169
874.077	3085
874.206	3005
874.335	3108
874.464	3184
874.593	3336
874.722	3230
874.851	3355
874.979	3325
875.108	3272
875.237	3157
875.365	3211
875.494	3157
875.623	3241
875.751	3036
875.88	3123
876.008	3146
876.136	3203
876.265	3386
876.393	3488
876.521	3439
876.65	3443
876.778	3313
876.906	3226
877.034	3195
877.162	3237
877.29	3184
877.418	3249
877.546	3203
877.674	3230
877.802	3222
877.93	3203
878.058	3154
878.185	3135
878.313	3199
878.441	3192
878.568	3058
878.696	3150
878.824	3237
878.951	3268
879.079	3454
879.206	3606
879.333	3382
879.461	3298
879.588	3370
879.715	3492
879.842	3580
879.97	3401
880.097	3150
880.224	3093
880.351	3157
880.478	3222
880.605	3211
880.732	3150
880.859	3492
880.986	3298
881.112	3294
881.239	3188
881.366	3081
881.493	3036
881.619	3005
881.746	3070
881.872	3074
881.999	3077
882.125	3089
882.252	3233
882.378	3275
882.505	3424
882.631	3302
882.757	3146
882.883	3165
883.01	3203
883.136	3100
883.262	3051
883.388	3077
883.514	3298
883.64	3359
883.766	3264
883.892	3157
884.018	3218
884.143	3378
884.269	3485
884.395	3173
884.52	3104
884.646	3180
884.772	3089
884.897	3119
885.023	3222
885.148	3298
885.274	3393
885.399	3367
885.524	3279
885.65	3230
885.775	3306
885.9	3249
886.025	3393
886.15	3389
886.275	3310
886.4	3218
886.525	3283
886.65	3275
886.775	3256
886.9	3504
887.025	3625
887.149	3386
887.274	3211
887.399	3169
887.523	3195
887.648	3157
887.773	3192
887.897	3370
888.021	3389
888.146	3279
888.27	3409
888.395	3515
888.519	3412
888.643	3409
888.767	3496
888.891	3332
889.015	3233
889.139	3272
889.263	3203
889.387	3359
889.511	3485
889.635	3428
889.759	3302
889.883	3237
890.006	3416
890.13	3477
890.254	3245
890.377	3325
890.501	3188
890.624	3184
890.748	3321
890.871	3230
890.995	3097
891.118	3066
891.241	3188
891.364	3184
891.488	3298
891.611	3173
891.734	3203
891.857	3310
891.98	3214
892.103	3306
892.226	3287
892.349	3214
892.471	3047
892.594	3241
892.717	3317
892.839	3268
892.962	3291
893.085	3359
893.207	3291
893.33	3138
893.452	3192
893.575	3294
893.697	3199
893.819	3481
893.941	3462
894.064	3420
894.186	3253
894.308	3253
894.43	3450
894.552	3526
894.674	3469
894.796	3237
894.918	3340
895.04	3245
895.161	3439
895.283	3367
895.405	3268
895.526	3329
895.648	3450
895.769	3405
895.891	3462
896.012	3450
896.134	3439
896.255	3397
896.376	3374
896.498	3363
896.619	3435
896.74	3382
896.861	3416
896.982	3675
897.103	3854
897.224	3553
897.345	3496
897.466	3439
897.587	3485
897.708	3610
897.828	3496
897.949	3435
898.07	3302
898.19	3363
898.311	3584
898.431	3439
898.552	3473
898.672	3557
898.792	3549
898.913	3526
899.033	3416
899.153	3264
899.273	3173
899.393	3291
899.513	3294
899.633	3306
899.753	3329
899.873	3264
899.993	3412
900.113	3287
900.232	3336
900.352	3332
900.472	3287
900.591	3230
900.711	3272
900.83	3249
900.95	3389
901.069	3504
901.189	3359
901.308	3157
901.427	3127
901.546	3146
901.665	3260
901.784	3272
901.904	3218
902.023	3142
902.141	3032
902.26	3017
902.379	3123
902.498	3104
902.617	3024
902.735	3165
902.854	3222
902.973	3207
903.091	3055
903.21	3070
903.328	3131
903.446	3097
903.565	3161
903.683	3176
903.801	3142
903.919	3283
904.038	3294
904.156	3154
904.274	3306
904.392	3264
904.51	3325
904.627	3355
904.745	3447
904.863	3526
904.981	3230
905.098	3211
905.216	3275
905.334	3344
905.451	3294
905.569	3348
905.686	3447
905.803	3447
905.921	3302
906.038	3500
906.155	3386
906.272	3325
906.389	3351
906.506	3233
906.623	3294
906.74	3291
906.857	3249
906.974	3287
907.091	3492
907.208	3606
907.324	3496
907.441	3393
907.557	3256
907.674	3283
907.79	3245
907.907	3298
908.023	3405
908.139	3416
908.256	3355
908.372	3416
908.488	3389
908.604	3291
908.72	3298
908.836	3325
908.952	3302
909.068	3374
909.184	3545
909.3	3420
909.415	3523
909.531	3504
909.647	3325
909.762	3340
909.878	3283
909.993	3367
910.108	3382
910.224	3389
910.339	3428
910.454	3329
910.57	3321
910.685	3283
910.8	3633
910.915	3542
911.03	3485
911.145	3272
911.259	3294
911.374	3367
911.489	3268
911.604	3298
911.718	3180
911.833	3180
911.947	3081
912.062	3013
912.176	3195
912.291	3230
912.405	3222
912.519	3496
912.633	3496
912.748	3382
912.862	3298
912.976	3222
913.09	3135
913.204	3165
913.318	3237
913.431	3382
913.545	3351
913.659	3450
913.772	3389
913.886	3287
914	3253
914.113	3397
914.226	3454
914.34	3405
914.453	3253
914.566	3462
914.68	3340
914.793	3291
914.906	3161
915.019	3165
915.132	3066
915.245	3211
915.358	3173
915.47	3233
915.583	3294
915.696	3325
915.809	3431
915.921	3447
916.034	3321
916.146	3275
916.259	3256
916.371	3431
916.483	3412
916.595	3306
916.708	3363
916.82	3370
916.932	3348
917.044	3382
917.156	3348
917.268	3256
917.38	3321
917.491	3317
917.603	3389
917.715	3485
917.826	3458
917.938	3447
918.049	3294
918.161	3405
918.272	3610
918.384	3591
918.495	3515
918.606	3329
918.717	3291
918.828	3386
918.939	3481
919.05	3344
919.161	3374
919.272	3188
919.383	3313
919.494	3542
919.604	3663
919.715	3538
919.826	3458
919.936	3492
920.047	3637
920.157	3561
920.267	3800
920.378	3637
920.488	3637
920.598	3797
920.708	3926
920.818	3854
920.928	3857
921.038	4036
921.148	4010
921.258	3740
921.368	3656
921.477	3618
921.587	3587
921.697	3458
921.806	3675
921.916	3545
922.025	3359
922.134	3431
922.244	3386
922.353	3473
922.462	3325
922.571	3245
922.68	3116
922.789	3119
922.898	3192
923.007	3138
923.116	3237
923.224	3218
923.333	3249
923.442	3100
923.55	3089
923.659	3169
923.767	3226
923.876	3138
923.984	3253
924.092	3157
924.201	3230
924.309	3249
924.417	3279
924.525	3237
924.633	3264
924.741	4029
924.849	3062
924.956	3298
925.064	3116
925.172	3062
925.279	3157
925.387	3211
925.494	3218
925.602	3389
925.709	3367
925.816	3237
925.924	3306
926.031	3450
926.138	3344
926.245	3428
926.352	3313
926.459	3466
926.566	3500
926.673	3321
926.779	3256
926.886	3233
926.993	3199
927.099	3157
927.206	3131
927.312	3150
927.419	3226
927.525	3241
927.631	3302
927.737	3157
927.843	3192
927.95	3066
928.056	3157
928.162	3192
928.267	3294
928.373	3819
928.479	3321
928.585	3085
928.69	3294
928.796	3332
928.901	3195
929.007	3077
929.112	3230
929.218	3173
929.323	3150
929.428	3199
929.533	3321
929.638	3123
929.743	3184
929.848	3272
929.953	3249
930.058	3188
930.163	3013
930.267	3028
930.372	3237
930.477	3058
930.581	3351
930.685	3203
930.79	3070
930.894	3150
930.998	3123
931.103	3298
931.207	2998
931.311	3009
931.415	2990
931.519	2788
931.623	2842
