Data from test_V78500241_1512.txt Node
Date: Fri Mar 25 16:25:40 CST 2022
User: usil
Spectrometer: V785-0024
Trigger mode: 0
Integration Time (sec): 4.000000E-1
Scans to average: 1
Nonlinearity correction enabled: false
Boxcar width: 0
Storing dark spectrum: false
XAxis mode: Wavelengths
Number of Pixels in Spectrum: 1024
>>>>>Begin Spectral Data<<<<<
801.071	2933
801.214	3005
801.356	2925
801.499	2902
801.641	2887
801.783	2899
801.926	3077
802.068	3013
802.211	2998
802.353	3047
802.496	3024
802.638	3020
802.78	3036
802.923	3070
803.065	3036
803.208	2918
803.35	2960
803.492	2975
803.635	2948
803.777	2766
803.919	2868
804.061	3203
804.204	2971
804.346	2899
804.488	2853
804.63	3024
804.773	2925
804.915	2895
805.057	3085
805.199	2967
805.341	2956
805.483	3047
805.626	3017
805.768	2967
805.91	3051
806.052	3135
806.194	3051
806.336	3249
806.478	3047
806.62	2944
806.762	2948
806.904	3055
807.046	3253
807.188	2998
807.33	2906
807.472	3009
807.614	2922
807.756	2982
807.898	2895
808.04	2891
808.182	2963
808.324	2956
808.465	2887
808.607	2880
808.749	2807
808.891	2826
809.033	2975
809.174	2941
809.316	2880
809.458	2880
809.6	2769
809.741	2773
809.883	2754
810.025	2891
810.166	2906
810.308	2857
810.45	2819
810.591	2785
810.733	2785
810.875	2861
811.016	2800
811.158	2773
811.299	2811
811.441	2902
811.582	2887
811.724	2849
811.865	2838
812.007	2922
812.148	2887
812.29	2876
812.431	2849
812.573	2933
812.714	2975
812.855	3062
812.997	3047
813.138	3116
813.279	3009
813.421	2994
813.562	2960
813.703	2864
813.845	2902
813.986	2807
814.127	2746
814.268	2830
814.41	2842
814.551	2807
814.692	2864
814.833	2811
814.974	2937
815.115	2956
815.256	2823
815.397	2811
815.539	2872
815.68	2781
815.821	2815
815.962	2963
816.103	2933
816.244	2929
816.385	2883
816.526	2960
816.666	2910
816.807	2762
816.948	2933
817.089	2895
817.23	2895
817.371	2804
817.512	2811
817.653	2823
817.793	2834
817.934	2876
818.075	2952
818.216	2990
818.356	3009
818.497	2910
818.638	2746
818.778	2804
818.919	2800
819.06	2781
819.2	2895
819.341	2804
819.481	2811
819.622	2929
819.762	3116
819.903	3024
820.043	2937
820.184	2891
820.324	2922
820.465	3013
820.605	3047
820.746	3024
820.886	2918
821.026	3108
821.167	3203
821.307	3249
821.447	3291
821.588	3275
821.728	3207
821.868	3207
822.008	3062
822.149	3199
822.289	3249
822.429	3100
822.569	3093
822.709	3218
822.849	3051
822.99	3093
823.13	3180
823.27	3203
823.41	3085
823.55	3123
823.69	3157
823.83	3199
823.97	3108
824.11	3005
824.25	2994
824.389	3093
824.529	3146
824.669	3131
824.809	3192
824.949	3272
825.089	3230
825.228	3180
825.368	3013
825.508	2944
825.648	3005
825.787	2994
825.927	3039
826.067	2998
826.206	2979
826.346	3009
826.485	3119
826.625	3123
826.765	3294
826.904	3249
827.044	2979
827.183	2895
827.323	2891
827.462	2986
827.601	2933
827.741	2925
827.88	2933
828.02	2845
828.159	2952
828.298	3055
828.437	3116
828.577	3028
828.716	3226
828.855	3081
828.994	2899
829.134	2883
829.273	2925
829.412	2880
829.551	2902
829.69	2861
829.829	2986
829.968	3131
830.107	3017
830.246	3032
830.385	2918
830.524	2876
830.663	2826
830.802	2762
830.941	2663
831.08	2663
831.219	2762
831.357	2781
831.496	2956
831.635	2727
831.774	2644
831.913	2651
832.051	2556
832.19	2594
832.329	2667
832.467	2571
832.606	2476
832.744	2583
832.883	2610
833.022	2587
833.16	2682
833.299	2678
833.437	2674
833.576	2716
833.714	2727
833.852	2743
833.991	2766
834.129	2815
834.267	2838
834.406	2800
834.544	2861
834.682	2918
834.821	2902
834.959	3097
835.097	2899
835.235	3097
835.373	2990
835.511	3047
835.65	2971
835.788	2963
835.926	2815
836.064	2807
836.202	2834
836.34	3100
836.478	3112
836.615	3051
836.753	3150
836.891	3192
837.029	3192
837.167	3127
837.305	3085
837.443	3093
837.58	2990
837.718	3131
837.856	3066
837.993	3013
838.131	3116
838.269	3119
838.406	3135
838.544	3066
838.681	2960
838.819	2899
838.956	2807
839.094	2834
839.231	2933
839.369	3024
839.506	3351
839.643	3237
839.781	3051
839.918	2960
840.055	3043
840.193	3024
840.33	3119
840.467	3074
840.604	3142
840.742	3416
840.879	2998
841.016	3028
841.153	3104
841.29	3336
841.427	3310
841.564	3264
841.701	3329
841.838	3222
841.975	3165
842.112	3233
842.249	3161
842.385	3051
842.522	3245
842.659	3100
842.796	3055
842.933	3066
843.069	3062
843.206	3017
843.343	3165
843.479	3108
843.616	3119
843.752	2906
843.889	2864
844.025	3077
844.162	2868
844.298	3081
844.435	2895
844.571	2914
844.708	3097
844.844	3169
844.98	3233
845.117	3226
845.253	3051
845.389	3024
845.525	3112
845.661	3104
845.798	3039
845.934	3138
846.07	3043
846.206	3203
846.342	3329
846.478	3199
846.614	3074
846.75	3043
846.886	3043
847.022	3222
847.158	3157
847.294	3203
847.429	3222
847.565	3214
847.701	3454
847.837	3032
847.972	2982
848.108	3138
848.244	3112
848.379	2960
848.515	2960
848.65	2902
848.786	3013
848.921	3036
849.057	3108
849.192	3116
849.328	3085
849.463	3100
849.598	3081
849.734	3017
849.869	2998
850.004	2895
850.14	2960
850.275	2937
850.41	2823
850.545	2880
850.68	2922
850.815	2994
850.95	2967
851.085	3176
851.22	3070
851.355	3066
851.49	2990
851.625	2986
851.76	2982
851.895	2948
852.03	2895
852.165	3024
852.299	3070
852.434	3173
852.569	3119
852.703	3150
852.838	3264
852.973	3325
853.107	3344
853.242	3123
853.376	3089
853.511	2941
853.645	3009
853.78	3237
853.914	3112
854.048	3108
854.183	3074
854.317	3138
854.451	3275
854.585	3112
854.72	3123
854.854	3226
854.988	3036
855.122	3077
855.256	2956
855.39	3119
855.524	3233
855.658	3138
855.792	3142
855.926	3222
856.06	3199
856.194	3302
856.327	3127
856.461	3093
856.595	3062
856.729	3055
856.862	3218
856.996	3176
857.13	3192
857.263	3245
857.397	3275
857.53	3116
857.664	3233
857.797	3226
857.931	3241
858.064	3154
858.197	3184
858.331	3142
858.464	3093
858.597	3051
858.731	3119
858.864	3142
858.997	3104
859.13	3127
859.263	3180
859.396	3195
859.529	3119
859.662	3093
859.795	3055
859.928	3142
860.061	3264
860.194	3313
860.327	3131
860.46	3062
860.592	3218
860.725	3253
860.858	3218
860.99	3093
861.123	3043
861.256	3055
861.388	3131
861.521	3876
861.653	3009
861.786	2982
861.918	3009
862.05	3055
862.183	3112
862.315	3169
862.447	3165
862.58	3100
862.712	2906
862.844	2849
862.976	3043
863.108	3009
863.24	3329
863.372	2849
863.504	2937
863.636	2922
863.768	3020
863.9	2937
864.032	2883
864.164	2960
864.296	3043
864.428	3097
864.559	3112
864.691	3081
864.823	3104
864.954	3058
865.086	3036
865.217	2975
865.349	2960
865.48	3009
865.612	3020
865.743	3131
865.875	2956
866.006	2952
866.137	2994
866.269	2925
866.4	2887
866.531	2902
866.662	2891
866.793	2876
866.924	2918
867.055	2975
867.186	2922
867.317	2864
867.448	2834
867.579	2830
867.71	2864
867.841	2838
867.972	2902
868.103	2883
868.233	2876
868.364	2861
868.495	2876
868.625	3070
868.756	3169
868.886	2933
869.017	3043
869.147	3142
869.278	3119
869.408	3024
869.539	3005
869.669	3077
869.799	3047
869.929	3119
870.06	3081
870.19	3306
870.32	3275
870.45	3283
870.58	3386
870.71	3439
870.84	3462
870.97	3310
871.1	3241
871.23	3473
871.36	3458
871.489	3325
871.619	3389
871.749	3382
871.879	3431
872.008	3462
872.138	3359
872.267	3275
872.397	3119
872.526	3093
872.656	3020
872.785	3077
872.915	3195
873.044	3306
873.173	3199
873.303	3230
873.432	3241
873.561	3233
873.69	3154
873.819	3154
873.948	3207
874.077	3116
874.206	3024
874.335	3062
874.464	3241
874.593	3359
874.722	3230
874.851	3367
874.979	3363
875.108	3325
875.237	3199
875.365	3161
875.494	3165
875.623	3253
875.751	3089
875.88	3142
876.008	3169
876.136	3230
876.265	3389
876.393	3504
876.521	3409
876.65	3397
876.778	3294
876.906	3237
877.034	3199
877.162	3195
877.29	3184
877.418	3226
877.546	3211
877.674	3260
877.802	3264
877.93	3245
878.058	3138
878.185	3093
878.313	3226
878.441	3199
878.568	3051
878.696	3119
878.824	3279
878.951	3298
879.079	3382
879.206	3622
879.333	3450
879.461	3321
879.588	3321
879.715	3469
879.842	3603
879.97	3348
880.097	3138
880.224	3112
880.351	3180
880.478	3226
880.605	3184
880.732	3203
880.859	3496
880.986	3279
881.112	3340
881.239	3165
881.366	3066
881.493	3051
881.619	3051
881.746	3074
881.872	3085
881.999	3077
882.125	3138
882.252	3222
882.378	3325
882.505	3454
882.631	3291
882.757	3104
882.883	3188
883.01	3214
883.136	3173
883.262	3074
883.388	3100
883.514	3313
883.64	3386
883.766	3291
883.892	3188
884.018	3203
884.143	3420
884.269	3507
884.395	3218
884.52	3192
884.646	3161
884.772	3089
884.897	3081
885.023	3218
885.148	3325
885.274	3431
885.399	3382
885.524	3275
885.65	3245
885.775	3348
885.9	3253
886.025	3443
886.15	3355
886.275	3306
886.4	3233
886.525	3279
886.65	3233
886.775	3302
886.9	3500
887.025	3614
887.149	3386
887.274	3233
887.399	3169
887.523	3173
887.648	3199
887.773	3188
887.897	3363
888.021	3405
888.146	3302
888.27	3401
888.395	3530
888.519	3439
888.643	3447
888.767	3412
888.891	3332
889.015	3233
889.139	3291
889.263	3226
889.387	3435
889.511	3462
889.635	3443
889.759	3260
889.883	3310
890.006	3348
890.13	3481
890.254	3260
890.377	3317
890.501	3188
890.624	3188
890.748	3306
890.871	3150
890.995	3127
891.118	3070
891.241	3192
891.364	3268
891.488	3321
891.611	3199
891.734	3195
891.857	3283
891.98	3268
892.103	3325
892.226	3283
892.349	3222
892.471	3085
892.594	3214
892.717	3321
892.839	3245
892.962	3283
893.085	3367
893.207	3283
893.33	3138
893.452	3176
893.575	3367
893.697	3245
893.819	3443
893.941	3496
894.064	3458
894.186	3264
894.308	3298
894.43	3420
894.552	3587
894.674	3439
894.796	3256
894.918	3272
895.04	3310
895.161	3439
895.283	3428
895.405	3329
895.526	3355
895.648	3458
895.769	3450
895.891	3412
896.012	3466
896.134	3435
896.255	3401
896.376	3370
896.498	3378
896.619	3420
896.74	3389
896.861	3389
896.982	3667
897.103	3857
897.224	3580
897.345	3549
897.466	3431
897.587	3481
897.708	3633
897.828	3538
897.949	3450
898.07	3291
898.19	3416
898.311	3618
898.431	3431
898.552	3507
898.672	3629
898.792	3564
898.913	3549
899.033	3424
899.153	3310
899.273	3245
899.393	3256
899.513	3310
899.633	3306
899.753	3340
899.873	3302
899.993	3321
900.113	3279
900.232	3386
900.352	3370
900.472	3294
900.591	3218
900.711	3294
900.83	3268
900.95	3389
901.069	3504
901.189	3363
901.308	3188
901.427	3154
901.546	3184
901.665	3279
901.784	3302
901.904	3203
902.023	3154
902.141	3013
902.26	2998
902.379	3142
902.498	3062
902.617	3074
902.735	3214
902.854	3211
902.973	3176
903.091	3028
903.21	3066
903.328	3138
903.446	3085
903.565	3123
903.683	3180
903.801	3138
903.919	3268
904.038	3287
904.156	3157
904.274	3294
904.392	3253
904.51	3268
904.627	3291
904.745	3424
904.863	3534
904.981	3260
905.098	3138
905.216	3222
905.334	3313
905.451	3291
905.569	3279
905.686	3435
905.803	3450
905.921	3291
906.038	3416
906.155	3344
906.272	3272
906.389	3317
906.506	3222
906.623	3233
906.74	3264
906.857	3176
906.974	3260
907.091	3458
907.208	3553
907.324	3504
907.441	3367
907.557	3192
907.674	3184
907.79	3195
907.907	3268
908.023	3370
908.139	3386
908.256	3325
908.372	3340
908.488	3378
908.604	3260
908.72	3222
908.836	3253
908.952	3348
909.068	3329
909.184	3462
909.3	3370
909.415	3496
909.531	3477
909.647	3294
909.762	3260
909.878	3260
909.993	3370
910.108	3348
910.224	3325
910.339	3409
910.454	3325
910.57	3325
910.685	3203
910.8	3587
910.915	3538
911.03	3416
911.145	3214
911.259	3291
911.374	3332
911.489	3218
911.604	3222
911.718	3123
911.833	3157
911.947	3005
912.062	2990
912.176	3138
912.291	3192
912.405	3207
912.519	3454
912.633	3466
912.748	3325
912.862	3241
912.976	3112
913.09	3058
913.204	3150
913.318	3199
913.431	3351
913.545	3344
913.659	3393
913.772	3329
913.886	3226
914	3180
914.113	3348
914.226	3424
914.34	3382
914.453	3222
914.566	3382
914.68	3272
914.793	3344
914.906	3100
915.019	3131
915.132	3077
915.245	3169
915.358	3195
915.47	3199
915.583	3249
915.696	3310
915.809	3370
915.921	3412
916.034	3260
916.146	3256
916.259	3180
916.371	3386
916.483	3382
916.595	3256
916.708	3329
916.82	3336
916.932	3340
917.044	3344
917.156	3367
917.268	3249
917.38	3268
917.491	3260
917.603	3348
917.715	3439
917.826	3466
917.938	3359
918.049	3283
918.161	3439
918.272	3576
918.384	3564
918.495	3458
918.606	3344
918.717	3298
918.828	3370
918.939	3416
919.05	3298
919.161	3378
919.272	3207
919.383	3264
919.494	3523
919.604	3648
919.715	3439
919.826	3401
919.936	3477
920.047	3584
920.157	3534
920.267	3766
920.378	3603
920.488	3553
920.598	3770
920.708	3983
920.818	3800
920.928	3854
921.038	4029
921.148	3994
921.258	3671
921.368	3652
921.477	3614
921.587	3519
921.697	3473
921.806	3637
921.916	3545
922.025	3351
922.134	3340
922.244	3340
922.353	3412
922.462	3279
922.571	3214
922.68	3112
922.789	3081
922.898	3112
923.007	3097
923.116	3241
923.224	3214
923.333	3203
923.442	3077
923.55	3089
923.659	3157
923.767	3199
923.876	3131
923.984	3226
924.092	3112
924.201	3199
924.309	3256
924.417	3256
924.525	3169
924.633	3249
924.741	4227
924.849	3028
924.956	3241
925.064	3047
925.172	3089
925.279	3100
925.387	3192
925.494	3207
925.602	3348
925.709	3336
925.816	3176
925.924	3279
926.031	3382
926.138	3321
926.245	3340
926.352	3249
926.459	3389
926.566	3428
926.673	3298
926.779	3230
926.886	3230
926.993	3142
927.099	3100
927.206	3097
927.312	3116
927.419	3226
927.525	3203
927.631	3245
927.737	3123
927.843	3127
927.95	3020
928.056	3123
928.162	3176
928.267	3241
928.373	3770
928.479	3310
928.585	3058
928.69	3260
928.796	3272
928.901	3135
929.007	3043
929.112	3207
929.218	3180
929.323	3138
929.428	3211
929.533	3298
929.638	3100
929.743	3161
929.848	3241
929.953	3199
930.058	3165
930.163	3013
930.267	3036
930.372	3211
930.477	3009
930.581	3321
930.685	3173
930.79	3051
930.894	3123
930.998	3070
931.103	3264
931.207	2986
931.311	2937
931.415	2906
931.519	2766
931.623	2811
