Data from test_V78500241_1151.txt Node
Date: Fri Mar 25 16:23:10 CST 2022
User: usil
Spectrometer: V785-0024
Trigger mode: 0
Integration Time (sec): 4.000000E-1
Scans to average: 1
Nonlinearity correction enabled: false
Boxcar width: 0
Storing dark spectrum: false
XAxis mode: Wavelengths
Number of Pixels in Spectrum: 1024
>>>>>Begin Spectral Data<<<<<
801.071	2872
801.214	2960
801.356	2880
801.499	2861
801.641	2864
801.783	2910
801.926	3097
802.068	2944
802.211	2994
802.353	3020
802.496	2925
802.638	2967
802.78	3028
802.923	3081
803.065	2986
803.208	2910
803.35	2902
803.492	2899
803.635	2925
803.777	2724
803.919	2857
804.061	3154
804.204	2952
804.346	2937
804.488	2826
804.63	2990
804.773	2880
804.915	2887
805.057	3077
805.199	2880
805.341	2982
805.483	3020
805.626	2990
805.768	2956
805.91	3077
806.052	3074
806.194	3047
806.336	3230
806.478	2971
806.62	2952
806.762	2986
806.904	3028
807.046	3169
807.188	2975
807.33	2876
807.472	2971
807.614	2910
807.756	2960
807.898	2891
808.04	2895
808.182	2963
808.324	2967
808.465	2838
808.607	2925
808.749	2796
808.891	2796
809.033	2971
809.174	2944
809.316	2891
809.458	2845
809.6	2781
809.741	2758
809.883	2754
810.025	2834
810.166	2849
810.308	2830
810.45	2781
810.591	2735
810.733	2739
810.875	2830
811.016	2785
811.158	2758
811.299	2785
811.441	2906
811.582	2902
811.724	2815
811.865	2834
812.007	2883
812.148	2891
812.29	2845
812.431	2845
812.573	2933
812.714	2910
812.855	3009
812.997	3058
813.138	3089
813.279	3017
813.421	2963
813.562	2895
813.703	2857
813.845	2887
813.986	2792
814.127	2727
814.268	2773
814.41	2838
814.551	2815
814.692	2868
814.833	2804
814.974	2899
815.115	2956
815.256	2830
815.397	2766
815.539	2880
815.68	2769
815.821	2785
815.962	2967
816.103	2941
816.244	2868
816.385	2872
816.526	2998
816.666	2883
816.807	2731
816.948	2842
817.089	2918
817.23	2826
817.371	2777
817.512	2777
817.653	2804
817.793	2819
817.934	2868
818.075	2963
818.216	3036
818.356	3024
818.497	2819
818.638	2773
818.778	2788
818.919	2796
819.06	2708
819.2	2861
819.341	2800
819.481	2785
819.622	2906
819.762	3051
819.903	3055
820.043	2902
820.184	2902
820.324	2925
820.465	3001
820.605	2963
820.746	3013
820.886	2925
821.026	3085
821.167	3161
821.307	3291
821.447	3241
821.588	3214
821.728	3195
821.868	3154
822.008	3043
822.149	3157
822.289	3207
822.429	3070
822.569	3077
822.709	3176
822.849	2990
822.99	3047
823.13	3135
823.27	3192
823.41	3093
823.55	3097
823.69	3119
823.83	3207
823.97	3055
824.11	2963
824.25	2990
824.389	3051
824.529	3089
824.669	3085
824.809	3146
824.949	3253
825.089	3199
825.228	3131
825.368	2975
825.508	2960
825.648	2960
825.787	2990
825.927	2994
826.067	2922
826.206	2952
826.346	3051
826.485	3070
826.625	3112
826.765	3256
826.904	3207
827.044	2990
827.183	2944
827.323	2864
827.462	2994
827.601	2948
827.741	2944
827.88	2982
828.02	2883
828.159	3001
828.298	3017
828.437	3119
828.577	3028
828.716	3211
828.855	3093
828.994	2929
829.134	2891
829.273	2891
829.412	2872
829.551	2864
829.69	2914
829.829	2994
829.968	3142
830.107	3028
830.246	3043
830.385	2956
830.524	2899
830.663	2861
830.802	2743
830.941	2667
831.08	2716
831.219	2823
831.357	2773
831.496	2986
831.635	2743
831.774	2678
831.913	2697
832.051	2575
832.19	2625
832.329	2743
832.467	2564
832.606	2537
832.744	2587
832.883	2602
833.022	2625
833.16	2674
833.299	2705
833.437	2727
833.576	2739
833.714	2773
833.852	2781
833.991	2807
834.129	2838
834.267	2895
834.406	2792
834.544	2868
834.682	2918
834.821	2899
834.959	3112
835.097	2922
835.235	3119
835.373	3039
835.511	3013
835.65	3020
835.788	3047
835.926	2838
836.064	2864
836.202	2868
836.34	3100
836.478	3211
836.615	3085
836.753	3157
836.891	3241
837.029	3199
837.167	3173
837.305	3074
837.443	3093
837.58	3039
837.718	3138
837.856	3089
837.993	3047
838.131	3127
838.269	3138
838.406	3150
838.544	3119
838.681	3001
838.819	2944
838.956	2842
839.094	2899
839.231	2944
839.369	3001
839.506	3401
839.643	3233
839.781	3051
839.918	3005
840.055	3100
840.193	3093
840.33	3108
840.467	3138
840.604	3173
840.742	3431
840.879	3108
841.016	3051
841.153	3138
841.29	3348
841.427	3348
841.564	3256
841.701	3344
841.838	3294
841.975	3211
842.112	3245
842.249	3081
842.385	3051
842.522	3283
842.659	3108
842.796	3085
842.933	3089
843.069	3070
843.206	3032
843.343	3211
843.479	3142
843.616	3161
843.752	2925
843.889	2891
844.025	3119
844.162	2910
844.298	3119
844.435	2963
844.571	2929
844.708	3085
844.844	3195
844.98	3283
845.117	3245
845.253	3097
845.389	2994
845.525	3116
845.661	3112
845.798	3043
845.934	3150
846.07	3070
846.206	3272
846.342	3336
846.478	3245
846.614	3108
846.75	3051
846.886	3055
847.022	3230
847.158	3150
847.294	3226
847.429	3237
847.565	3241
847.701	3526
847.837	3077
847.972	3032
848.108	3165
848.244	3203
848.379	3009
848.515	2960
848.65	2952
848.786	2990
848.921	3020
849.057	3119
849.192	3161
849.328	3104
849.463	3112
849.598	3104
849.734	3070
849.869	3020
850.004	2960
850.14	2994
850.275	2906
850.41	2857
850.545	2948
850.68	2952
850.815	2963
850.95	2994
851.085	3230
851.22	3142
851.355	3062
851.49	3020
851.625	3036
851.76	3013
851.895	2952
852.03	2948
852.165	3055
852.299	3165
852.434	3203
852.569	3169
852.703	3176
852.838	3279
852.973	3340
853.107	3291
853.242	3195
853.376	3119
853.511	3001
853.645	3077
853.78	3249
853.914	3112
854.048	3127
854.183	3127
854.317	3165
854.451	3310
854.585	3146
854.72	3138
854.854	3260
854.988	3047
855.122	3097
855.256	3005
855.39	3131
855.524	3245
855.658	3233
855.792	3180
855.926	3180
856.06	3245
856.194	3306
856.327	3203
856.461	3077
856.595	3100
856.729	3116
856.862	3245
856.996	3199
857.13	3253
857.263	3268
857.397	3325
857.53	3116
857.664	3203
857.797	3306
857.931	3302
858.064	3199
858.197	3245
858.331	3161
858.464	3104
858.597	3036
858.731	3169
858.864	3127
858.997	3116
859.13	3211
859.263	3241
859.396	3237
859.529	3104
859.662	3100
859.795	3081
859.928	3176
860.061	3310
860.194	3313
860.327	3150
860.46	3108
860.592	3264
860.725	3310
860.858	3279
860.99	3138
861.123	3055
861.256	3058
861.388	3154
861.521	3740
861.653	3028
861.786	3020
861.918	3013
862.05	3085
862.183	3135
862.315	3207
862.447	3218
862.58	3146
862.712	2967
862.844	2883
862.976	3043
863.108	3043
863.24	3359
863.372	2887
863.504	2963
863.636	2975
863.768	3055
863.9	2990
864.032	2937
864.164	2990
864.296	3070
864.428	3089
864.559	3142
864.691	3104
864.823	3104
864.954	3051
865.086	3066
865.217	3001
865.349	2975
865.48	3013
865.612	3047
865.743	3131
865.875	2979
866.006	2975
866.137	2982
866.269	2956
866.4	2929
866.531	2956
866.662	2899
866.793	2910
866.924	2891
867.055	2998
867.186	2929
867.317	2891
867.448	2838
867.579	2861
867.71	2849
867.841	2842
867.972	2948
868.103	2906
868.233	2895
868.364	2910
868.495	2975
868.625	3089
868.756	3165
868.886	3005
869.017	3055
869.147	3184
869.278	3176
869.408	3058
869.539	3081
869.669	3138
869.799	3024
869.929	3161
870.06	3127
870.19	3359
870.32	3310
870.45	3321
870.58	3359
870.71	3488
870.84	3481
870.97	3302
871.1	3287
871.23	3515
871.36	3530
871.489	3374
871.619	3424
871.749	3420
871.879	3447
872.008	3523
872.138	3340
872.267	3272
872.397	3176
872.526	3119
872.656	3062
872.785	3085
872.915	3272
873.044	3336
873.173	3211
873.303	3313
873.432	3256
873.561	3283
873.69	3127
873.819	3169
873.948	3199
874.077	3138
874.206	3074
874.335	3116
874.464	3214
874.593	3374
874.722	3279
874.851	3409
874.979	3348
875.108	3306
875.237	3195
875.365	3211
875.494	3207
875.623	3272
875.751	3108
875.88	3154
876.008	3180
876.136	3230
876.265	3416
876.393	3542
876.521	3420
876.65	3409
876.778	3313
876.906	3249
877.034	3268
877.162	3249
877.29	3188
877.418	3268
877.546	3264
877.674	3230
877.802	3264
877.93	3253
878.058	3142
878.185	3138
878.313	3241
878.441	3230
878.568	3077
878.696	3169
878.824	3283
878.951	3306
879.079	3458
879.206	3622
879.333	3469
879.461	3378
879.588	3389
879.715	3496
879.842	3618
879.97	3420
880.097	3192
880.224	3119
880.351	3233
880.478	3245
880.605	3169
880.732	3241
880.859	3504
880.986	3332
881.112	3355
881.239	3211
881.366	3116
881.493	3017
881.619	3036
881.746	3085
881.872	3108
881.999	3104
882.125	3104
882.252	3275
882.378	3317
882.505	3431
882.631	3298
882.757	3146
882.883	3184
883.01	3211
883.136	3165
883.262	3085
883.388	3142
883.514	3355
883.64	3359
883.766	3325
883.892	3203
884.018	3253
884.143	3420
884.269	3542
884.395	3245
884.52	3180
884.646	3207
884.772	3146
884.897	3146
885.023	3260
885.148	3382
885.274	3393
885.399	3389
885.524	3325
885.65	3272
885.775	3340
885.9	3325
886.025	3412
886.15	3370
886.275	3310
886.4	3256
886.525	3313
886.65	3279
886.775	3272
886.9	3538
887.025	3675
887.149	3370
887.274	3302
887.399	3203
887.523	3222
887.648	3203
887.773	3237
887.897	3344
888.021	3439
888.146	3306
888.27	3447
888.395	3572
888.519	3428
888.643	3439
888.767	3450
888.891	3279
889.015	3275
889.139	3287
889.263	3230
889.387	3397
889.511	3496
889.635	3504
889.759	3310
889.883	3241
890.006	3409
890.13	3504
890.254	3310
890.377	3348
890.501	3256
890.624	3245
890.748	3302
890.871	3146
890.995	3104
891.118	3066
891.241	3169
891.364	3222
891.488	3321
891.611	3142
891.734	3233
891.857	3272
891.98	3253
892.103	3374
892.226	3313
892.349	3226
892.471	3123
892.594	3275
892.717	3321
892.839	3291
892.962	3310
893.085	3401
893.207	3310
893.33	3169
893.452	3264
893.575	3355
893.697	3283
893.819	3481
893.941	3469
894.064	3481
894.186	3249
894.308	3279
894.43	3466
894.552	3542
894.674	3523
894.796	3260
894.918	3325
895.04	3310
895.161	3420
895.283	3370
895.405	3348
895.526	3389
895.648	3401
895.769	3458
895.891	3462
896.012	3454
896.134	3485
896.255	3424
896.376	3374
896.498	3397
896.619	3431
896.74	3367
896.861	3420
896.982	3675
897.103	3842
897.224	3629
897.345	3515
897.466	3454
897.587	3519
897.708	3656
897.828	3603
897.949	3443
898.07	3336
898.19	3473
898.311	3618
898.431	3439
898.552	3576
898.672	3606
898.792	3564
898.913	3553
899.033	3393
899.153	3325
899.273	3214
899.393	3283
899.513	3340
899.633	3340
899.753	3317
899.873	3325
899.993	3443
900.113	3298
900.232	3424
900.352	3340
900.472	3302
900.591	3256
900.711	3321
900.83	3283
900.95	3393
901.069	3500
901.189	3351
901.308	3211
901.427	3180
901.546	3207
901.665	3287
901.784	3359
901.904	3226
902.023	3123
902.141	3005
902.26	2998
902.379	3154
902.498	3085
902.617	3085
902.735	3214
902.854	3230
902.973	3230
903.091	3108
903.21	3089
903.328	3138
903.446	3123
903.565	3104
903.683	3211
903.801	3131
903.919	3279
904.038	3313
904.156	3176
904.274	3275
904.392	3294
904.51	3329
904.627	3325
904.745	3431
904.863	3519
904.981	3275
905.098	3199
905.216	3253
905.334	3294
905.451	3287
905.569	3283
905.686	3431
905.803	3443
905.921	3283
906.038	3439
906.155	3374
906.272	3294
906.389	3348
906.506	3218
906.623	3233
906.74	3264
906.857	3195
906.974	3268
907.091	3477
907.208	3561
907.324	3485
907.441	3378
907.557	3230
907.674	3264
907.79	3253
907.907	3291
908.023	3401
908.139	3378
908.256	3336
908.372	3355
908.488	3359
908.604	3264
908.72	3268
908.836	3287
908.952	3291
909.068	3351
909.184	3488
909.3	3416
909.415	3488
909.531	3409
909.647	3287
909.762	3325
909.878	3260
909.993	3332
910.108	3367
910.224	3348
910.339	3405
910.454	3310
910.57	3310
910.685	3256
910.8	3599
910.915	3507
911.03	3458
911.145	3294
911.259	3268
911.374	3332
911.489	3298
911.604	3233
911.718	3119
911.833	3150
911.947	3039
912.062	2994
912.176	3165
912.291	3192
912.405	3203
912.519	3397
912.633	3488
912.748	3317
912.862	3268
912.976	3157
913.09	2994
913.204	3123
913.318	3241
913.431	3302
913.545	3298
913.659	3431
913.772	3325
913.886	3218
914	3226
914.113	3367
914.226	3420
914.34	3355
914.453	3249
914.566	3447
914.68	3291
914.793	3294
914.906	3154
915.019	3116
915.132	3085
915.245	3157
915.358	3192
915.47	3260
915.583	3287
915.696	3256
915.809	3386
915.921	3409
916.034	3249
916.146	3260
916.259	3188
916.371	3401
916.483	3351
916.595	3264
916.708	3374
916.82	3348
916.932	3329
917.044	3340
917.156	3348
917.268	3253
917.38	3310
917.491	3283
917.603	3370
917.715	3485
917.826	3488
917.938	3329
918.049	3260
918.161	3409
918.272	3606
918.384	3587
918.495	3515
918.606	3317
918.717	3310
918.828	3363
918.939	3424
919.05	3348
919.161	3355
919.272	3199
919.383	3245
919.494	3481
919.604	3637
919.715	3492
919.826	3397
919.936	3466
920.047	3584
920.157	3523
920.267	3755
920.378	3595
920.488	3580
920.598	3800
920.708	3934
920.818	3842
920.928	3812
921.038	4029
921.148	3994
921.258	3720
921.368	3625
921.477	3564
921.587	3530
921.697	3488
921.806	3629
921.916	3553
922.025	3348
922.134	3370
922.244	3298
922.353	3454
922.462	3294
922.571	3245
922.68	3104
922.789	3074
922.898	3123
923.007	3085
923.116	3176
923.224	3195
923.333	3165
923.442	3097
923.55	3112
923.659	3146
923.767	3199
923.876	3123
923.984	3184
924.092	3085
924.201	3222
924.309	3237
924.417	3283
924.525	3203
924.633	3260
924.741	4036
924.849	3024
924.956	3256
925.064	3077
925.172	3013
925.279	3108
925.387	3173
925.494	3199
925.602	3359
925.709	3317
925.816	3180
925.924	3272
926.031	3389
926.138	3363
926.245	3340
926.352	3245
926.459	3397
926.566	3466
926.673	3329
926.779	3268
926.886	3260
926.993	3131
927.099	3138
927.206	3127
927.312	3173
927.419	3241
927.525	3199
927.631	3272
927.737	3119
927.843	3138
927.95	3043
928.056	3138
928.162	3154
928.267	3260
928.373	3880
928.479	3340
928.585	3043
928.69	3264
928.796	3249
928.901	3180
929.007	3039
929.112	3195
929.218	3173
929.323	3089
929.428	3135
929.533	3332
929.638	3131
929.743	3180
929.848	3249
929.953	3169
930.058	3142
930.163	2960
930.267	3051
930.372	3222
930.477	3047
930.581	3325
930.685	3192
930.79	3043
930.894	3154
930.998	3104
931.103	3272
931.207	2967
931.311	2914
931.415	2914
931.519	2815
931.623	2792
