Data from test_V78500241_1908.txt Node
Date: Fri Mar 25 16:28:25 CST 2022
User: usil
Spectrometer: V785-0024
Trigger mode: 0
Integration Time (sec): 4.000000E-1
Scans to average: 1
Nonlinearity correction enabled: false
Boxcar width: 0
Storing dark spectrum: false
XAxis mode: Wavelengths
Number of Pixels in Spectrum: 1024
>>>>>Begin Spectral Data<<<<<
801.071	2925
801.214	2956
801.356	2880
801.499	2845
801.641	2868
801.783	2925
801.926	3017
802.068	2967
802.211	3047
802.353	3036
802.496	2967
802.638	3017
802.78	3051
802.923	3089
803.065	2982
803.208	2864
803.35	2899
803.492	2952
803.635	2891
803.777	2785
803.919	2830
804.061	3188
804.204	2986
804.346	2933
804.488	2815
804.63	3028
804.773	2845
804.915	2902
805.057	3074
805.199	2952
805.341	2971
805.483	3032
805.626	2967
805.768	2990
805.91	3032
806.052	3108
806.194	3032
806.336	3211
806.478	3039
806.62	2937
806.762	2963
806.904	3043
807.046	3192
807.188	3017
807.33	2902
807.472	2967
807.614	2906
807.756	2956
807.898	2914
808.04	2891
808.182	2986
808.324	2944
808.465	2895
808.607	2895
808.749	2788
808.891	2864
809.033	2979
809.174	2956
809.316	2857
809.458	2918
809.6	2769
809.741	2815
809.883	2754
810.025	2826
810.166	2811
810.308	2830
810.45	2853
810.591	2777
810.733	2762
810.875	2853
811.016	2766
811.158	2762
811.299	2826
811.441	2910
811.582	2906
811.724	2845
811.865	2815
812.007	2899
812.148	2880
812.29	2876
812.431	2872
812.573	2899
812.714	2960
812.855	3043
812.997	3066
813.138	3138
813.279	3001
813.421	2982
813.562	2929
813.703	2861
813.845	2918
813.986	2777
814.127	2769
814.268	2830
814.41	2834
814.551	2800
814.692	2876
814.833	2861
814.974	2910
815.115	2944
815.256	2842
815.397	2800
815.539	2864
815.68	2796
815.821	2788
815.962	2937
816.103	2937
816.244	2842
816.385	2861
816.526	2944
816.666	2883
816.807	2739
816.948	2853
817.089	2922
817.23	2853
817.371	2766
817.512	2788
817.653	2823
817.793	2792
817.934	2876
818.075	2929
818.216	2960
818.356	2998
818.497	2899
818.638	2773
818.778	2853
818.919	2804
819.06	2739
819.2	2861
819.341	2823
819.481	2830
819.622	2933
819.762	3104
819.903	3051
820.043	2944
820.184	2872
820.324	2883
820.465	2994
820.605	3009
820.746	3020
820.886	2906
821.026	3116
821.167	3108
821.307	3230
821.447	3256
821.588	3218
821.728	3233
821.868	3165
822.008	3058
822.149	3188
822.289	3253
822.429	3047
822.569	3077
822.709	3188
822.849	3051
822.99	3039
823.13	3154
823.27	3188
823.41	3100
823.55	3127
823.69	3146
823.83	3195
823.97	3066
824.11	2998
824.25	3001
824.389	3028
824.529	3127
824.669	3066
824.809	3230
824.949	3268
825.089	3214
825.228	3173
825.368	3013
825.508	2948
825.648	2952
825.787	3020
825.927	3017
826.067	2975
826.206	2948
826.346	3036
826.485	3047
826.625	3104
826.765	3260
826.904	3230
827.044	2952
827.183	2956
827.323	2834
827.462	2994
827.601	2883
827.741	2910
827.88	2918
828.02	2861
828.159	2960
828.298	3047
828.437	3100
828.577	3043
828.716	3245
828.855	3100
828.994	2891
829.134	2925
829.273	2941
829.412	2861
829.551	2834
829.69	2906
829.829	2990
829.968	3116
830.107	3001
830.246	3032
830.385	2933
830.524	2872
830.663	2807
830.802	2735
830.941	2640
831.08	2659
831.219	2754
831.357	2777
831.496	2963
831.635	2701
831.774	2636
831.913	2651
832.051	2541
832.19	2568
832.329	2686
832.467	2533
832.606	2461
832.744	2583
832.883	2575
833.022	2583
833.16	2613
833.299	2648
833.437	2678
833.576	2670
833.714	2693
833.852	2735
833.991	2724
834.129	2815
834.267	2807
834.406	2777
834.544	2891
834.682	2842
834.821	2845
834.959	3058
835.097	2918
835.235	3055
835.373	2990
835.511	3039
835.65	2933
835.788	2952
835.926	2849
836.064	2773
836.202	2804
836.34	3051
836.478	3135
836.615	3074
836.753	3116
836.891	3195
837.029	3150
837.167	3100
837.305	3043
837.443	3043
837.58	2967
837.718	3165
837.856	3089
837.993	3043
838.131	3112
838.269	3131
838.406	3032
838.544	3062
838.681	2941
838.819	2891
838.956	2811
839.094	2845
839.231	2899
839.369	3005
839.506	3370
839.643	3241
839.781	3017
839.918	2929
840.055	3032
840.193	3077
840.33	3043
840.467	3097
840.604	3108
840.742	3389
840.879	3039
841.016	3051
841.153	3093
841.29	3351
841.427	3298
841.564	3249
841.701	3302
841.838	3207
841.975	3192
842.112	3199
842.249	3116
842.385	3017
842.522	3287
842.659	3062
842.796	3036
842.933	3119
843.069	3058
843.206	3032
843.343	3199
843.479	3100
843.616	3146
843.752	2899
843.889	2891
844.025	3081
844.162	2906
844.298	3093
844.435	2902
844.571	2872
844.708	3066
844.844	3173
844.98	3233
845.117	3161
845.253	3032
845.389	2998
845.525	3081
845.661	3097
845.798	3001
845.934	3108
846.07	3062
846.206	3233
846.342	3298
846.478	3214
846.614	3062
846.75	3017
846.886	3058
847.022	3226
847.158	3119
847.294	3173
847.429	3226
847.565	3188
847.701	3469
847.837	2986
847.972	2982
848.108	3123
848.244	3165
848.379	2967
848.515	2929
848.65	2918
848.786	2986
848.921	3009
849.057	3116
849.192	3154
849.328	3051
849.463	3093
849.598	3074
849.734	3013
849.869	2982
850.004	2899
850.14	2956
850.275	2887
850.41	2857
850.545	2853
850.68	2952
850.815	2948
850.95	2941
851.085	3199
851.22	3104
851.355	2994
851.49	2941
851.625	2967
851.76	3017
851.895	2895
852.03	2883
852.165	3043
852.299	3062
852.434	3173
852.569	3108
852.703	3180
852.838	3298
852.973	3332
853.107	3344
853.242	3131
853.376	3089
853.511	2948
853.645	3043
853.78	3192
853.914	3108
854.048	3089
854.183	3043
854.317	3150
854.451	3264
854.585	3085
854.72	3074
854.854	3169
854.988	3051
855.122	3085
855.256	2971
855.39	3093
855.524	3256
855.658	3173
855.792	3131
855.926	3184
856.06	3195
856.194	3237
856.327	3097
856.461	3036
856.595	3066
856.729	3085
856.862	3188
856.996	3180
857.13	3203
857.263	3233
857.397	3253
857.53	3089
857.664	3150
857.797	3222
857.931	3249
858.064	3169
858.197	3218
858.331	3112
858.464	3070
858.597	3005
858.731	3127
858.864	3119
858.997	3070
859.13	3131
859.263	3150
859.396	3188
859.529	3097
859.662	3104
859.795	3081
859.928	3131
860.061	3321
860.194	3279
860.327	3085
860.46	3127
860.592	3233
860.725	3192
860.858	3249
860.99	3077
861.123	3043
861.256	3051
861.388	3135
861.521	3800
861.653	3032
861.786	2986
861.918	3001
862.05	3036
862.183	3081
862.315	3173
862.447	3165
862.58	3093
862.712	2975
862.844	2853
862.976	3005
863.108	2979
863.24	3310
863.372	2864
863.504	2979
863.636	2922
863.768	3013
863.9	2990
864.032	2918
864.164	2933
864.296	3051
864.428	3077
864.559	3085
864.691	3085
864.823	3036
864.954	3039
865.086	3017
865.217	2998
865.349	2956
865.48	2971
865.612	3013
865.743	3165
865.875	2952
866.006	2963
866.137	2982
866.269	2952
866.4	2948
866.531	2922
866.662	2895
866.793	2918
866.924	2868
867.055	2937
867.186	2895
867.317	2887
867.448	2834
867.579	2823
867.71	2804
867.841	2823
867.972	2876
868.103	2895
868.233	2895
868.364	2887
868.495	2876
868.625	3081
868.756	3157
868.886	2952
869.017	2994
869.147	3173
869.278	3135
869.408	3001
869.539	2971
869.669	3055
869.799	3020
869.929	3123
870.06	3097
870.19	3279
870.32	3272
870.45	3241
870.58	3363
870.71	3431
870.84	3420
870.97	3275
871.1	3226
871.23	3469
871.36	3454
871.489	3298
871.619	3416
871.749	3424
871.879	3416
872.008	3458
872.138	3348
872.267	3287
872.397	3180
872.526	3062
872.656	3017
872.785	3070
872.915	3249
873.044	3302
873.173	3203
873.303	3230
873.432	3260
873.561	3214
873.69	3138
873.819	3157
873.948	3192
874.077	3093
874.206	3036
874.335	3062
874.464	3188
874.593	3329
874.722	3241
874.851	3416
874.979	3363
875.108	3325
875.237	3161
875.365	3131
875.494	3154
875.623	3222
875.751	3043
875.88	3085
876.008	3203
876.136	3256
876.265	3355
876.393	3473
876.521	3424
876.65	3382
876.778	3332
876.906	3264
877.034	3203
877.162	3203
877.29	3127
877.418	3237
877.546	3226
877.674	3253
877.802	3173
877.93	3195
878.058	3138
878.185	3085
878.313	3157
878.441	3188
878.568	3039
878.696	3237
878.824	3218
878.951	3253
879.079	3431
879.206	3614
879.333	3450
879.461	3317
879.588	3351
879.715	3469
879.842	3564
879.97	3363
880.097	3169
880.224	3127
880.351	3157
880.478	3173
880.605	3230
880.732	3165
880.859	3469
880.986	3275
881.112	3321
881.239	3230
881.366	3070
881.493	2971
881.619	3005
881.746	3062
881.872	3104
881.999	3104
882.125	3131
882.252	3211
882.378	3264
882.505	3439
882.631	3294
882.757	3138
882.883	3195
883.01	3188
883.136	3127
883.262	3062
883.388	3135
883.514	3313
883.64	3359
883.766	3302
883.892	3180
884.018	3279
884.143	3424
884.269	3542
884.395	3222
884.52	3176
884.646	3173
884.772	3112
884.897	3116
885.023	3207
885.148	3329
885.274	3401
885.399	3363
885.524	3253
885.65	3279
885.775	3310
885.9	3283
886.025	3435
886.15	3359
886.275	3275
886.4	3241
886.525	3321
886.65	3237
886.775	3302
886.9	3500
887.025	3610
887.149	3424
887.274	3218
887.399	3138
887.523	3203
887.648	3211
887.773	3199
887.897	3374
888.021	3378
888.146	3313
888.27	3412
888.395	3519
888.519	3397
888.643	3439
888.767	3447
888.891	3291
889.015	3253
889.139	3279
889.263	3222
889.387	3454
889.511	3519
889.635	3469
889.759	3268
889.883	3298
890.006	3389
890.13	3488
890.254	3249
890.377	3313
890.501	3165
890.624	3169
890.748	3287
890.871	3150
890.995	3077
891.118	3039
891.241	3188
891.364	3203
891.488	3325
891.611	3161
891.734	3222
891.857	3218
891.98	3188
892.103	3363
892.226	3249
892.349	3222
892.471	3077
892.594	3211
892.717	3279
892.839	3287
892.962	3268
893.085	3302
893.207	3253
893.33	3116
893.452	3188
893.575	3313
893.697	3230
893.819	3462
893.941	3500
894.064	3439
894.186	3283
894.308	3268
894.43	3386
894.552	3504
894.674	3458
894.796	3230
894.918	3313
895.04	3230
895.161	3435
895.283	3374
895.405	3272
895.526	3332
895.648	3435
895.769	3405
895.891	3443
896.012	3401
896.134	3458
896.255	3397
896.376	3431
896.498	3348
896.619	3439
896.74	3336
896.861	3378
896.982	3675
897.103	3797
897.224	3614
897.345	3504
897.466	3420
897.587	3534
897.708	3622
897.828	3633
897.949	3511
898.07	3325
898.19	3416
898.311	3587
898.431	3435
898.552	3492
898.672	3614
898.792	3606
898.913	3542
899.033	3458
899.153	3329
899.273	3207
899.393	3253
899.513	3291
899.633	3310
899.753	3393
899.873	3321
899.993	3420
900.113	3363
900.232	3431
900.352	3359
900.472	3321
900.591	3195
900.711	3348
900.83	3291
900.95	3374
901.069	3530
901.189	3389
901.308	3211
901.427	3199
901.546	3237
901.665	3336
901.784	3386
901.904	3287
902.023	3199
902.141	3043
902.26	3032
902.379	3180
902.498	3119
902.617	3077
902.735	3264
902.854	3256
902.973	3245
903.091	3104
903.21	3093
903.328	3218
903.446	3127
903.565	3123
903.683	3279
903.801	3157
903.919	3302
904.038	3325
904.156	3184
904.274	3310
904.392	3298
904.51	3283
904.627	3389
904.745	3477
904.863	3542
904.981	3283
905.098	3195
905.216	3291
905.334	3321
905.451	3351
905.569	3359
905.686	3477
905.803	3450
905.921	3310
906.038	3519
906.155	3386
906.272	3279
906.389	3348
906.506	3283
906.623	3275
906.74	3287
906.857	3214
906.974	3310
907.091	3492
907.208	3599
907.324	3473
907.441	3443
907.557	3279
907.674	3306
907.79	3214
907.907	3325
908.023	3428
908.139	3401
908.256	3363
908.372	3412
908.488	3397
908.604	3287
908.72	3279
908.836	3325
908.952	3329
909.068	3378
909.184	3561
909.3	3412
909.415	3549
909.531	3515
909.647	3287
909.762	3344
909.878	3272
909.993	3420
910.108	3355
910.224	3336
910.339	3401
910.454	3370
910.57	3325
910.685	3279
910.8	3614
910.915	3561
911.03	3469
911.145	3321
911.259	3310
911.374	3321
911.489	3272
911.604	3222
911.718	3169
911.833	3184
911.947	3077
912.062	3047
912.176	3184
912.291	3207
912.405	3207
912.519	3447
912.633	3469
912.748	3370
912.862	3306
912.976	3218
913.09	3085
913.204	3184
913.318	3260
913.431	3378
913.545	3370
913.659	3488
913.772	3348
913.886	3249
914	3211
914.113	3435
914.226	3454
914.34	3393
914.453	3268
914.566	3447
914.68	3332
914.793	3359
914.906	3195
915.019	3146
915.132	3070
915.245	3207
915.358	3249
915.47	3233
915.583	3264
915.696	3310
915.809	3420
915.921	3416
916.034	3291
916.146	3268
916.259	3272
916.371	3412
916.483	3389
916.595	3298
916.708	3321
916.82	3370
916.932	3374
917.044	3439
917.156	3378
917.268	3294
917.38	3313
917.491	3332
917.603	3397
917.715	3477
917.826	3515
917.938	3431
918.049	3283
918.161	3473
918.272	3599
918.384	3603
918.495	3519
918.606	3363
918.717	3321
918.828	3428
918.939	3431
919.05	3298
919.161	3363
919.272	3211
919.383	3317
919.494	3545
919.604	3705
919.715	3534
919.826	3447
919.936	3519
920.047	3622
920.157	3530
920.267	3812
920.378	3629
920.488	3564
920.598	3793
920.708	3953
920.818	3869
920.928	3869
921.038	4044
921.148	4048
921.258	3755
921.368	3656
921.477	3603
921.587	3568
921.697	3515
921.806	3641
921.916	3542
922.025	3401
922.134	3374
922.244	3313
922.353	3454
922.462	3306
922.571	3272
922.68	3116
922.789	3077
922.898	3173
923.007	3138
923.116	3272
923.224	3207
923.333	3203
923.442	3112
923.55	3169
923.659	3192
923.767	3260
923.876	3138
923.984	3298
924.092	3116
924.201	3245
924.309	3222
924.417	3237
924.525	3230
924.633	3272
924.741	4036
924.849	3062
924.956	3306
925.064	3146
925.172	3081
925.279	3100
925.387	3230
925.494	3245
925.602	3405
925.709	3374
925.816	3199
925.924	3332
926.031	3405
926.138	3355
926.245	3405
926.352	3287
926.459	3424
926.566	3454
926.673	3325
926.779	3302
926.886	3260
926.993	3176
927.099	3157
927.206	3112
927.312	3161
927.419	3256
927.525	3260
927.631	3310
927.737	3131
927.843	3188
927.95	3036
928.056	3142
928.162	3176
928.267	3294
928.373	3930
928.479	3317
928.585	3058
928.69	3268
928.796	3298
928.901	3188
929.007	3074
929.112	3222
929.218	3207
929.323	3214
929.428	3195
929.533	3310
929.638	3116
929.743	3184
929.848	3294
929.953	3222
930.058	3180
930.163	3028
930.267	3047
930.372	3176
930.477	3043
930.581	3359
930.685	3203
930.79	3112
930.894	3169
930.998	3108
931.103	3310
931.207	2986
931.311	2975
931.415	2960
931.519	2785
931.623	2834
