Data from test_V78500241_1886.txt Node
Date: Fri Mar 25 16:28:16 CST 2022
User: usil
Spectrometer: V785-0024
Trigger mode: 0
Integration Time (sec): 4.000000E-1
Scans to average: 1
Nonlinearity correction enabled: false
Boxcar width: 0
Storing dark spectrum: false
XAxis mode: Wavelengths
Number of Pixels in Spectrum: 1024
>>>>>Begin Spectral Data<<<<<
801.071	2883
801.214	2929
801.356	2868
801.499	2872
801.641	2872
801.783	2906
801.926	3039
802.068	2948
802.211	2998
802.353	3020
802.496	2933
802.638	3055
802.78	3070
802.923	3097
803.065	3024
803.208	2868
803.35	2902
803.492	2929
803.635	2910
803.777	2773
803.919	2849
804.061	3176
804.204	2937
804.346	2883
804.488	2861
804.63	2952
804.773	2853
804.915	2899
805.057	3066
805.199	2925
805.341	2975
805.483	3005
805.626	2998
805.768	2948
805.91	3085
806.052	3131
806.194	3039
806.336	3211
806.478	3024
806.62	2922
806.762	2986
806.904	3047
807.046	3142
807.188	2952
807.33	2914
807.472	3001
807.614	2887
807.756	2967
807.898	2906
808.04	2925
808.182	2971
808.324	2967
808.465	2842
808.607	2891
808.749	2781
808.891	2861
809.033	2960
809.174	2986
809.316	2891
809.458	2914
809.6	2792
809.741	2766
809.883	2781
810.025	2868
810.166	2823
810.308	2857
810.45	2902
810.591	2773
810.733	2758
810.875	2796
811.016	2746
811.158	2743
811.299	2800
811.441	2925
811.582	2895
811.724	2830
811.865	2815
812.007	2937
812.148	2853
812.29	2849
812.431	2883
812.573	2914
812.714	2971
812.855	3017
812.997	3055
813.138	3100
813.279	3043
813.421	2971
813.562	2982
813.703	2861
813.845	2887
813.986	2766
814.127	2762
814.268	2842
814.41	2811
814.551	2792
814.692	2857
814.833	2853
814.974	2895
815.115	2948
815.256	2826
815.397	2826
815.539	2815
815.68	2773
815.821	2838
815.962	2944
816.103	2952
816.244	2899
816.385	2883
816.526	2975
816.666	2902
816.807	2739
816.948	2899
817.089	2899
817.23	2849
817.371	2758
817.512	2785
817.653	2849
817.793	2826
817.934	2857
818.075	2971
818.216	2990
818.356	3028
818.497	2883
818.638	2800
818.778	2800
818.919	2800
819.06	2754
819.2	2899
819.341	2823
819.481	2777
819.622	2918
819.762	3131
819.903	3028
820.043	2922
820.184	2902
820.324	2872
820.465	3009
820.605	3009
820.746	2994
820.886	2956
821.026	3127
821.167	3119
821.307	3253
821.447	3264
821.588	3264
821.728	3195
821.868	3218
822.008	3047
822.149	3146
822.289	3237
822.429	3089
822.569	3070
822.709	3173
822.849	3028
822.99	3058
823.13	3138
823.27	3199
823.41	3081
823.55	3127
823.69	3123
823.83	3184
823.97	3093
824.11	3013
824.25	3013
824.389	3032
824.529	3127
824.669	3070
824.809	3184
824.949	3230
825.089	3260
825.228	3195
825.368	2979
825.508	2937
825.648	3001
825.787	3024
825.927	3058
826.067	2944
826.206	2944
826.346	3032
826.485	3062
826.625	3081
826.765	3260
826.904	3169
827.044	2990
827.183	2937
827.323	2849
827.462	2952
827.601	2956
827.741	2925
827.88	2941
828.02	2872
828.159	2990
828.298	3032
828.437	3112
828.577	3028
828.716	3249
828.855	3066
828.994	2918
829.134	2883
829.273	2895
829.412	2868
829.551	2880
829.69	2883
829.829	2971
829.968	3100
830.107	3043
830.246	2998
830.385	2853
830.524	2834
830.663	2800
830.802	2746
830.941	2663
831.08	2629
831.219	2781
831.357	2750
831.496	2933
831.635	2739
831.774	2632
831.913	2663
832.051	2549
832.19	2556
832.329	2670
832.467	2511
832.606	2492
832.744	2590
832.883	2560
833.022	2587
833.16	2636
833.299	2644
833.437	2674
833.576	2716
833.714	2705
833.852	2712
833.991	2716
834.129	2811
834.267	2823
834.406	2762
834.544	2906
834.682	2883
834.821	2918
834.959	3077
835.097	2864
835.235	3074
835.373	3013
835.511	3020
835.65	2941
835.788	2963
835.926	2842
836.064	2769
836.202	2845
836.34	3119
836.478	3138
836.615	3062
836.753	3135
836.891	3169
837.029	3176
837.167	3100
837.305	3047
837.443	3032
837.58	2982
837.718	3127
837.856	3047
837.993	3013
838.131	3085
838.269	3093
838.406	3116
838.544	3066
838.681	2960
838.819	2899
838.956	2777
839.094	2804
839.231	2918
839.369	3001
839.506	3355
839.643	3157
839.781	3013
839.918	2937
840.055	3039
840.193	3047
840.33	3047
840.467	3127
840.604	3176
840.742	3363
840.879	2998
841.016	3020
841.153	3123
841.29	3336
841.427	3279
841.564	3268
841.701	3321
841.838	3154
841.975	3150
842.112	3211
842.249	3039
842.385	3005
842.522	3207
842.659	3070
842.796	3108
842.933	3100
843.069	3009
843.206	3028
843.343	3138
843.479	3104
843.616	3116
843.752	2880
843.889	2857
844.025	3051
844.162	2857
844.298	3058
844.435	2952
844.571	2906
844.708	3066
844.844	3176
844.98	3222
845.117	3180
845.253	3051
845.389	3009
845.525	3100
845.661	3093
845.798	3005
845.934	3131
846.07	3043
846.206	3207
846.342	3313
846.478	3218
846.614	3051
846.75	3020
846.886	3032
847.022	3237
847.158	3127
847.294	3195
847.429	3195
847.565	3245
847.701	3477
847.837	2994
847.972	2986
848.108	3142
848.244	3131
848.379	2994
848.515	2910
848.65	2922
848.786	2944
848.921	3017
849.057	3089
849.192	3116
849.328	3036
849.463	3112
849.598	3047
849.734	3051
849.869	2975
850.004	2937
850.14	2956
850.275	2918
850.41	2807
850.545	2861
850.68	2948
850.815	2979
850.95	2956
851.085	3169
851.22	3119
851.355	3047
851.49	2979
851.625	3013
851.76	3017
851.895	2880
852.03	2948
852.165	3020
852.299	3100
852.434	3180
852.569	3146
852.703	3150
852.838	3230
852.973	3336
853.107	3344
853.242	3135
853.376	3081
853.511	3001
853.645	3039
853.78	3203
853.914	3127
854.048	3142
854.183	3104
854.317	3169
854.451	3272
854.585	3089
854.72	3066
854.854	3188
854.988	3051
855.122	3070
855.256	2967
855.39	3066
855.524	3233
855.658	3184
855.792	3154
855.926	3173
856.06	3184
856.194	3272
856.327	3157
856.461	3093
856.595	3108
856.729	3093
856.862	3230
856.996	3123
857.13	3173
857.263	3241
857.397	3287
857.53	3123
857.664	3184
857.797	3226
857.931	3268
858.064	3157
858.197	3207
858.331	3142
858.464	3047
858.597	2994
858.731	3097
858.864	3150
858.997	3108
859.13	3161
859.263	3157
859.396	3199
859.529	3062
859.662	3062
859.795	3028
859.928	3142
860.061	3268
860.194	3245
860.327	3112
860.46	3055
860.592	3192
860.725	3245
860.858	3237
860.99	3108
861.123	3039
861.256	3043
861.388	3131
861.521	3800
861.653	3009
861.786	2960
861.918	3032
862.05	3055
862.183	3058
862.315	3150
862.447	3184
862.58	3116
862.712	2971
862.844	2845
862.976	3028
863.108	2986
863.24	3310
863.372	2876
863.504	2944
863.636	2956
863.768	3005
863.9	2975
864.032	2922
864.164	2922
864.296	3024
864.428	3100
864.559	3112
864.691	3055
864.823	3070
864.954	3017
865.086	3024
865.217	2986
865.349	2971
865.48	2971
865.612	3005
865.743	3154
865.875	2967
866.006	2941
866.137	2948
866.269	2933
866.4	2918
866.531	2910
866.662	2880
866.793	2880
866.924	2914
867.055	2967
867.186	2925
867.317	2902
867.448	2830
867.579	2830
867.71	2849
867.841	2815
867.972	2868
868.103	2925
868.233	2861
868.364	2823
868.495	2895
868.625	3077
868.756	3154
868.886	2914
869.017	3032
869.147	3146
869.278	3104
869.408	3062
869.539	2975
869.669	3119
869.799	3058
869.929	3131
870.06	3093
870.19	3294
870.32	3298
870.45	3317
870.58	3374
870.71	3458
870.84	3435
870.97	3306
871.1	3241
871.23	3488
871.36	3447
871.489	3378
871.619	3382
871.749	3382
871.879	3424
872.008	3431
872.138	3367
872.267	3268
872.397	3157
872.526	3081
872.656	2994
872.785	3077
872.915	3233
873.044	3287
873.173	3199
873.303	3249
873.432	3264
873.561	3199
873.69	3127
873.819	3100
873.948	3146
874.077	3036
874.206	3043
874.335	3123
874.464	3222
874.593	3325
874.722	3211
874.851	3431
874.979	3325
875.108	3283
875.237	3161
875.365	3169
875.494	3138
875.623	3207
875.751	3108
875.88	3097
876.008	3184
876.136	3207
876.265	3378
876.393	3504
876.521	3397
876.65	3393
876.778	3340
876.906	3279
877.034	3199
877.162	3184
877.29	3192
877.418	3241
877.546	3214
877.674	3253
877.802	3203
877.93	3241
878.058	3108
878.185	3077
878.313	3176
878.441	3237
878.568	3077
878.696	3211
878.824	3237
878.951	3298
879.079	3454
879.206	3652
879.333	3435
879.461	3325
879.588	3370
879.715	3488
879.842	3587
879.97	3416
880.097	3180
880.224	3116
880.351	3188
880.478	3233
880.605	3180
880.732	3161
880.859	3473
880.986	3275
881.112	3336
881.239	3188
881.366	3119
881.493	3028
881.619	3005
881.746	3077
881.872	3097
881.999	3097
882.125	3180
882.252	3256
882.378	3279
882.505	3405
882.631	3275
882.757	3108
882.883	3203
883.01	3188
883.136	3146
883.262	3093
883.388	3119
883.514	3317
883.64	3363
883.766	3275
883.892	3165
884.018	3207
884.143	3405
884.269	3534
884.395	3203
884.52	3169
884.646	3146
884.772	3108
884.897	3081
885.023	3192
885.148	3340
885.274	3431
885.399	3359
885.524	3310
885.65	3264
885.775	3310
885.9	3291
886.025	3428
886.15	3329
886.275	3294
886.4	3222
886.525	3275
886.65	3214
886.775	3264
886.9	3496
887.025	3625
887.149	3428
887.274	3230
887.399	3195
887.523	3226
887.648	3222
887.773	3135
887.897	3397
888.021	3344
888.146	3313
888.27	3416
888.395	3485
888.519	3435
888.643	3454
888.767	3447
888.891	3287
889.015	3256
889.139	3272
889.263	3203
889.387	3431
889.511	3504
889.635	3431
889.759	3291
889.883	3329
890.006	3409
890.13	3469
890.254	3272
890.377	3306
890.501	3138
890.624	3176
890.748	3302
890.871	3192
890.995	3131
891.118	3066
891.241	3199
891.364	3226
891.488	3294
891.611	3131
891.734	3249
891.857	3283
891.98	3233
892.103	3291
892.226	3294
892.349	3218
892.471	3081
892.594	3256
892.717	3287
892.839	3264
892.962	3325
893.085	3340
893.207	3287
893.33	3146
893.452	3203
893.575	3344
893.697	3275
893.819	3469
893.941	3492
894.064	3420
894.186	3211
894.308	3298
894.43	3431
894.552	3485
894.674	3481
894.796	3241
894.918	3336
895.04	3310
895.161	3447
895.283	3382
895.405	3317
895.526	3329
895.648	3401
895.769	3409
895.891	3431
896.012	3466
896.134	3454
896.255	3401
896.376	3351
896.498	3363
896.619	3424
896.74	3374
896.861	3412
896.982	3698
897.103	3808
897.224	3580
897.345	3473
897.466	3454
897.587	3473
897.708	3614
897.828	3519
897.949	3416
898.07	3325
898.19	3397
898.311	3591
898.431	3435
898.552	3511
898.672	3610
898.792	3591
898.913	3500
899.033	3424
899.153	3298
899.273	3222
899.393	3264
899.513	3283
899.633	3306
899.753	3294
899.873	3317
899.993	3401
900.113	3351
900.232	3374
900.352	3287
900.472	3294
900.591	3180
900.711	3310
900.83	3207
900.95	3435
901.069	3481
901.189	3359
901.308	3207
901.427	3116
901.546	3184
901.665	3253
901.784	3344
901.904	3203
902.023	3131
902.141	3017
902.26	2975
902.379	3138
902.498	3051
902.617	3070
902.735	3211
902.854	3218
902.973	3195
903.091	3055
903.21	3047
903.328	3127
903.446	3089
903.565	3081
903.683	3169
903.801	3150
903.919	3222
904.038	3230
904.156	3184
904.274	3317
904.392	3245
904.51	3260
904.627	3317
904.745	3405
904.863	3485
904.981	3279
905.098	3161
905.216	3226
905.334	3294
905.451	3302
905.569	3279
905.686	3443
905.803	3412
905.921	3291
906.038	3428
906.155	3348
906.272	3253
906.389	3329
906.506	3218
906.623	3275
906.74	3287
906.857	3184
906.974	3256
907.091	3481
907.208	3515
907.324	3443
907.441	3359
907.557	3222
907.674	3226
907.79	3180
907.907	3291
908.023	3363
908.139	3382
908.256	3325
908.372	3416
908.488	3325
908.604	3203
908.72	3203
908.836	3302
908.952	3268
909.068	3310
909.184	3458
909.3	3374
909.415	3515
909.531	3462
909.647	3230
909.762	3275
909.878	3256
909.993	3348
910.108	3325
910.224	3340
910.339	3397
910.454	3325
910.57	3283
910.685	3211
910.8	3591
910.915	3561
911.03	3412
911.145	3245
911.259	3275
911.374	3306
911.489	3241
911.604	3237
911.718	3097
911.833	3119
911.947	3036
912.062	2979
912.176	3138
912.291	3237
912.405	3222
912.519	3397
912.633	3473
912.748	3355
912.862	3268
912.976	3188
913.09	3047
913.204	3131
913.318	3230
913.431	3332
913.545	3359
913.659	3424
913.772	3294
913.886	3203
914	3176
914.113	3348
914.226	3435
914.34	3370
914.453	3233
914.566	3412
914.68	3294
914.793	3317
914.906	3116
915.019	3116
915.132	3093
915.245	3142
915.358	3188
915.47	3233
915.583	3264
915.696	3287
915.809	3374
915.921	3424
916.034	3268
916.146	3283
916.259	3214
916.371	3344
916.483	3389
916.595	3272
916.708	3348
916.82	3367
916.932	3344
917.044	3325
917.156	3340
917.268	3256
917.38	3317
917.491	3275
917.603	3367
917.715	3523
917.826	3409
917.938	3370
918.049	3275
918.161	3428
918.272	3576
918.384	3568
918.495	3477
918.606	3332
918.717	3294
918.828	3355
918.939	3424
919.05	3287
919.161	3313
919.272	3176
919.383	3294
919.494	3481
919.604	3698
919.715	3488
919.826	3428
919.936	3473
920.047	3530
920.157	3511
920.267	3781
920.378	3580
920.488	3553
920.598	3793
920.708	3941
920.818	3804
920.928	3800
921.038	3994
921.148	3968
921.258	3717
921.368	3644
921.477	3564
921.587	3568
921.697	3469
921.806	3641
921.916	3538
922.025	3313
922.134	3363
922.244	3359
922.353	3401
922.462	3268
922.571	3230
922.68	3104
922.789	3085
922.898	3104
923.007	3100
923.116	3226
923.224	3161
923.333	3146
923.442	3123
923.55	3074
923.659	3150
923.767	3218
923.876	3085
923.984	3226
924.092	3100
924.201	3161
924.309	3230
924.417	3211
924.525	3176
924.633	3226
924.741	3998
924.849	3051
924.956	3279
925.064	3085
925.172	3047
925.279	3089
925.387	3203
925.494	3192
925.602	3351
925.709	3294
925.816	3169
925.924	3294
926.031	3348
926.138	3351
926.245	3382
926.352	3264
926.459	3389
926.566	3466
926.673	3306
926.779	3222
926.886	3264
926.993	3157
927.099	3104
927.206	3123
927.312	3108
927.419	3214
927.525	3199
927.631	3245
927.737	3100
927.843	3097
927.95	3001
928.056	3112
928.162	3188
928.267	3275
928.373	3842
928.479	3294
928.585	3051
928.69	3214
928.796	3226
928.901	3138
929.007	3058
929.112	3233
929.218	3150
929.323	3119
929.428	3176
929.533	3313
929.638	3058
929.743	3157
929.848	3264
929.953	3150
930.058	3093
930.163	2960
930.267	3020
930.372	3169
930.477	3051
930.581	3298
930.685	3199
930.79	3062
930.894	3112
930.998	3074
931.103	3287
931.207	2956
931.311	2910
931.415	2918
931.519	2762
931.623	2807
