Data from test_V78500241_222.txt Node
Date: Fri Mar 25 16:16:44 CST 2022
User: usil
Spectrometer: V785-0024
Trigger mode: 0
Integration Time (sec): 4.000000E-1
Scans to average: 1
Nonlinearity correction enabled: false
Boxcar width: 0
Storing dark spectrum: false
XAxis mode: Wavelengths
Number of Pixels in Spectrum: 1024
>>>>>Begin Spectral Data<<<<<
801.071	2952
801.214	2952
801.356	2918
801.499	2925
801.641	2975
801.783	2975
801.926	3100
802.068	3001
802.211	3028
802.353	3077
802.496	2998
802.638	3024
802.78	3097
802.923	3097
803.065	3020
803.208	2914
803.35	2986
803.492	2971
803.635	2963
803.777	2758
803.919	2914
804.061	3211
804.204	2960
804.346	2922
804.488	2857
804.63	3032
804.773	2880
804.915	2929
805.057	3104
805.199	2933
805.341	3009
805.483	3058
805.626	3017
805.768	2998
805.91	3112
806.052	3100
806.194	3036
806.336	3241
806.478	3039
806.62	2956
806.762	2960
806.904	3074
807.046	3135
807.188	2960
807.33	2906
807.472	3024
807.614	2937
807.756	3039
807.898	2933
808.04	2922
808.182	2986
808.324	2967
808.465	2918
808.607	2902
808.749	2849
808.891	2853
809.033	2952
809.174	2990
809.316	2910
809.458	2918
809.6	2823
809.741	2766
809.883	2819
810.025	2899
810.166	2880
810.308	2853
810.45	2887
810.591	2815
810.733	2769
810.875	2842
811.016	2781
811.158	2800
811.299	2830
811.441	2933
811.582	2922
811.724	2842
811.865	2861
812.007	2933
812.148	2910
812.29	2876
812.431	2937
812.573	2960
812.714	3024
812.855	3051
812.997	3112
813.138	3077
813.279	2998
813.421	3066
813.562	2944
813.703	2895
813.845	2891
813.986	2834
814.127	2773
814.268	2845
814.41	2883
814.551	2834
814.692	2876
814.833	2800
814.974	2918
815.115	2975
815.256	2849
815.397	2807
815.539	2849
815.68	2785
815.821	2807
815.962	2933
816.103	2952
816.244	2902
816.385	2864
816.526	2998
816.666	2956
816.807	2739
816.948	2899
817.089	2918
817.23	2815
817.371	2769
817.512	2796
817.653	2883
817.793	2853
817.934	2918
818.075	2979
818.216	3020
818.356	3039
818.497	2895
818.638	2800
818.778	2861
818.919	2826
819.06	2788
819.2	2895
819.341	2838
819.481	2815
819.622	2986
819.762	3142
819.903	3047
820.043	2914
820.184	2956
820.324	2906
820.465	3005
820.605	3020
820.746	3001
820.886	2941
821.026	3135
821.167	3173
821.307	3287
821.447	3313
821.588	3256
821.728	3203
821.868	3211
822.008	3066
822.149	3207
822.289	3245
822.429	3108
822.569	3081
822.709	3188
822.849	3024
822.99	3119
823.13	3169
823.27	3180
823.41	3154
823.55	3138
823.69	3188
823.83	3218
823.97	3108
824.11	3009
824.25	3028
824.389	3062
824.529	3135
824.669	3108
824.809	3237
824.949	3256
825.089	3256
825.228	3161
825.368	3028
825.508	2963
825.648	2979
825.787	3028
825.927	3066
826.067	2990
826.206	2967
826.346	3081
826.485	3097
826.625	3150
826.765	3275
826.904	3249
827.044	2979
827.183	2986
827.323	2914
827.462	3005
827.601	2967
827.741	2967
827.88	3001
828.02	2876
828.159	2986
828.298	3058
828.437	3135
828.577	3051
828.716	3287
828.855	3093
828.994	2937
829.134	2914
829.273	2933
829.412	2914
829.551	2910
829.69	2902
829.829	2982
829.968	3123
830.107	3005
830.246	3043
830.385	2929
830.524	2895
830.663	2853
830.802	2769
830.941	2640
831.08	2655
831.219	2800
831.357	2743
831.496	2986
831.635	2758
831.774	2670
831.913	2670
832.051	2590
832.19	2610
832.329	2663
832.467	2549
832.606	2499
832.744	2617
832.883	2579
833.022	2552
833.16	2693
833.299	2670
833.437	2716
833.576	2689
833.714	2746
833.852	2739
833.991	2773
834.129	2811
834.267	2811
834.406	2807
834.544	2868
834.682	2887
834.821	2857
834.959	3066
835.097	2906
835.235	3077
835.373	3013
835.511	3009
835.65	2998
835.788	3005
835.926	2838
836.064	2769
836.202	2845
836.34	3150
836.478	3123
836.615	3047
836.753	3154
836.891	3214
837.029	3173
837.167	3116
837.305	3058
837.443	3058
837.58	2986
837.718	3169
837.856	3070
837.993	3024
838.131	3138
838.269	3097
838.406	3093
838.544	3085
838.681	2937
838.819	2948
838.956	2804
839.094	2838
839.231	2967
839.369	3043
839.506	3397
839.643	3211
839.781	3020
839.918	2918
840.055	3058
840.193	3081
840.33	3119
840.467	3112
840.604	3142
840.742	3389
840.879	3093
841.016	3077
841.153	3119
841.29	3329
841.427	3310
841.564	3260
841.701	3325
841.838	3199
841.975	3173
842.112	3211
842.249	3104
842.385	3028
842.522	3226
842.659	3119
842.796	3024
842.933	3093
843.069	3112
843.206	3070
843.343	3203
843.479	3123
843.616	3157
843.752	2925
843.889	2891
844.025	3097
844.162	2876
844.298	3112
844.435	2944
844.571	2918
844.708	3116
844.844	3226
844.98	3230
845.117	3203
845.253	3066
845.389	3043
845.525	3093
845.661	3112
845.798	3051
845.934	3127
846.07	3043
846.206	3253
846.342	3294
846.478	3218
846.614	3077
846.75	3081
846.886	3036
847.022	3237
847.158	3142
847.294	3218
847.429	3287
847.565	3249
847.701	3507
847.837	3036
847.972	3028
848.108	3195
848.244	3161
848.379	3017
848.515	2941
848.65	2952
848.786	2982
848.921	3017
849.057	3146
849.192	3173
849.328	3100
849.463	3112
849.598	3051
849.734	3036
849.869	2986
850.004	2925
850.14	2998
850.275	2899
850.41	2861
850.545	2899
850.68	2910
850.815	2982
850.95	2990
851.085	3188
851.22	3112
851.355	3051
851.49	3024
851.625	2986
851.76	3039
851.895	2971
852.03	2937
852.165	3013
852.299	3135
852.434	3180
852.569	3108
852.703	3184
852.838	3268
852.973	3351
853.107	3332
853.242	3157
853.376	3081
853.511	2975
853.645	3058
853.78	3195
853.914	3097
854.048	3146
854.183	3081
854.317	3146
854.451	3264
854.585	3142
854.72	3085
854.854	3184
854.988	3028
855.122	3116
855.256	2967
855.39	3157
855.524	3237
855.658	3165
855.792	3142
855.926	3214
856.06	3218
856.194	3275
856.327	3119
856.461	3066
856.595	3089
856.729	3108
856.862	3230
856.996	3131
857.13	3157
857.263	3245
857.397	3317
857.53	3116
857.664	3173
857.797	3218
857.931	3241
858.064	3154
858.197	3207
858.331	3135
858.464	3104
858.597	3055
858.731	3157
858.864	3161
858.997	3074
859.13	3199
859.263	3207
859.396	3226
859.529	3058
859.662	3070
859.795	3039
859.928	3142
860.061	3329
860.194	3268
860.327	3116
860.46	3127
860.592	3241
860.725	3268
860.858	3256
860.99	3108
861.123	3077
861.256	3070
861.388	3161
861.521	3850
861.653	3039
861.786	2990
861.918	3009
862.05	3104
862.183	3154
862.315	3135
862.447	3192
862.58	3055
862.712	2967
862.844	2880
862.976	3013
863.108	3058
863.24	3313
863.372	2902
863.504	2975
863.636	3001
863.768	3043
863.9	2975
864.032	2933
864.164	2960
864.296	3024
864.428	3089
864.559	3112
864.691	3074
864.823	3070
864.954	3062
865.086	3055
865.217	2994
865.349	2941
865.48	2967
865.612	3005
865.743	3150
865.875	2986
866.006	2956
866.137	3001
866.269	2963
866.4	2952
866.531	2910
866.662	2857
866.793	2883
866.924	2895
867.055	2952
867.186	2918
867.317	2842
867.448	2830
867.579	2853
867.71	2868
867.841	2830
867.972	2922
868.103	2914
868.233	2864
868.364	2853
868.495	2929
868.625	3093
868.756	3192
868.886	2975
869.017	3017
869.147	3184
869.278	3195
869.408	3024
869.539	2994
869.669	3089
869.799	3074
869.929	3150
870.06	3108
870.19	3313
870.32	3298
870.45	3306
870.58	3355
870.71	3382
870.84	3466
870.97	3313
871.1	3241
871.23	3492
871.36	3481
871.489	3386
871.619	3397
871.749	3412
871.879	3443
872.008	3481
872.138	3329
872.267	3268
872.397	3173
872.526	3089
872.656	2971
872.785	3112
872.915	3218
873.044	3317
873.173	3256
873.303	3245
873.432	3233
873.561	3253
873.69	3173
873.819	3150
873.948	3203
874.077	3097
874.206	3055
874.335	3127
874.464	3203
874.593	3389
874.722	3268
874.851	3382
874.979	3329
875.108	3336
875.237	3211
875.365	3135
875.494	3154
875.623	3260
875.751	3131
875.88	3157
876.008	3203
876.136	3245
876.265	3382
876.393	3538
876.521	3447
876.65	3401
876.778	3340
876.906	3249
877.034	3173
877.162	3230
877.29	3154
877.418	3283
877.546	3249
877.674	3294
877.802	3241
877.93	3233
878.058	3173
878.185	3104
878.313	3226
878.441	3192
878.568	3062
878.696	3150
878.824	3268
878.951	3306
879.079	3447
879.206	3618
879.333	3435
879.461	3378
879.588	3370
879.715	3447
879.842	3580
879.97	3355
880.097	3188
880.224	3142
880.351	3256
880.478	3222
880.605	3176
880.732	3199
880.859	3511
880.986	3310
881.112	3325
881.239	3222
881.366	3081
881.493	3047
881.619	3028
881.746	3085
881.872	3108
881.999	3123
882.125	3135
882.252	3249
882.378	3302
882.505	3492
882.631	3275
882.757	3154
882.883	3249
883.01	3233
883.136	3169
883.262	3100
883.388	3135
883.514	3336
883.64	3367
883.766	3306
883.892	3214
884.018	3214
884.143	3454
884.269	3576
884.395	3226
884.52	3150
884.646	3176
884.772	3112
884.897	3100
885.023	3207
885.148	3348
885.274	3469
885.399	3397
885.524	3313
885.65	3279
885.775	3325
885.9	3291
886.025	3435
886.15	3344
886.275	3310
886.4	3233
886.525	3313
886.65	3260
886.775	3298
886.9	3519
887.025	3637
887.149	3397
887.274	3275
887.399	3184
887.523	3195
887.648	3195
887.773	3211
887.897	3378
888.021	3405
888.146	3336
888.27	3473
888.395	3523
888.519	3443
888.643	3481
888.767	3447
888.891	3310
889.015	3226
889.139	3298
889.263	3298
889.387	3397
889.511	3469
889.635	3477
889.759	3302
889.883	3313
890.006	3397
890.13	3500
890.254	3283
890.377	3313
890.501	3203
890.624	3180
890.748	3344
890.871	3192
890.995	3135
891.118	3062
891.241	3214
891.364	3222
891.488	3291
891.611	3207
891.734	3207
891.857	3245
891.98	3249
892.103	3329
892.226	3260
892.349	3237
892.471	3108
892.594	3253
892.717	3325
892.839	3260
892.962	3268
893.085	3359
893.207	3306
893.33	3192
893.452	3211
893.575	3351
893.697	3283
893.819	3515
893.941	3515
894.064	3481
894.186	3287
894.308	3275
894.43	3409
894.552	3526
894.674	3488
894.796	3272
894.918	3340
895.04	3321
895.161	3450
895.283	3424
895.405	3344
895.526	3393
895.648	3435
895.769	3409
895.891	3485
896.012	3523
896.134	3428
896.255	3439
896.376	3412
896.498	3370
896.619	3447
896.74	3378
896.861	3420
896.982	3667
897.103	3896
897.224	3599
897.345	3523
897.466	3481
897.587	3469
897.708	3625
897.828	3572
897.949	3447
898.07	3310
898.19	3393
898.311	3587
898.431	3454
898.552	3538
898.672	3576
898.792	3603
898.913	3507
899.033	3412
899.153	3332
899.273	3226
899.393	3272
899.513	3294
899.633	3313
899.753	3325
899.873	3298
899.993	3420
900.113	3367
900.232	3393
900.352	3370
900.472	3291
900.591	3211
900.711	3302
900.83	3253
900.95	3447
901.069	3523
901.189	3374
901.308	3207
901.427	3142
901.546	3169
901.665	3302
901.784	3336
901.904	3245
902.023	3188
902.141	3001
902.26	3013
902.379	3176
902.498	3070
902.617	3062
902.735	3195
902.854	3272
902.973	3184
903.091	3081
903.21	3051
903.328	3161
903.446	3089
903.565	3112
903.683	3203
903.801	3123
903.919	3241
904.038	3253
904.156	3146
904.274	3268
904.392	3268
904.51	3321
904.627	3344
904.745	3409
904.863	3523
904.981	3321
905.098	3169
905.216	3287
905.334	3253
905.451	3275
905.569	3294
905.686	3469
905.803	3458
905.921	3317
906.038	3428
906.155	3359
906.272	3294
906.389	3332
906.506	3272
906.623	3260
906.74	3275
906.857	3226
906.974	3237
907.091	3462
907.208	3584
907.324	3500
907.441	3397
907.557	3237
907.674	3237
907.79	3233
907.907	3275
908.023	3355
908.139	3367
908.256	3351
908.372	3420
908.488	3351
908.604	3264
908.72	3214
908.836	3287
908.952	3283
909.068	3363
909.184	3496
909.3	3431
909.415	3553
909.531	3443
909.647	3272
909.762	3310
909.878	3283
909.993	3332
910.108	3386
910.224	3313
910.339	3416
910.454	3348
910.57	3313
910.685	3237
910.8	3591
910.915	3511
911.03	3473
911.145	3264
911.259	3237
911.374	3336
911.489	3260
911.604	3260
911.718	3116
911.833	3180
911.947	3047
912.062	2998
912.176	3169
912.291	3214
912.405	3203
912.519	3454
912.633	3450
912.748	3321
912.862	3256
912.976	3165
913.09	3066
913.204	3135
913.318	3180
913.431	3374
913.545	3332
913.659	3374
913.772	3386
913.886	3260
914	3230
914.113	3351
914.226	3454
914.34	3363
914.453	3214
914.566	3424
914.68	3291
914.793	3332
914.906	3150
915.019	3093
915.132	3077
915.245	3161
915.358	3211
915.47	3241
915.583	3283
915.696	3264
915.809	3378
915.921	3435
916.034	3237
916.146	3245
916.259	3173
916.371	3382
916.483	3363
916.595	3264
916.708	3325
916.82	3367
916.932	3359
917.044	3351
917.156	3336
917.268	3268
917.38	3272
917.491	3321
917.603	3389
917.715	3454
917.826	3439
917.938	3397
918.049	3298
918.161	3431
918.272	3625
918.384	3580
918.495	3500
918.606	3355
918.717	3294
918.828	3378
918.939	3401
919.05	3336
919.161	3389
919.272	3188
919.383	3310
919.494	3526
919.604	3671
919.715	3496
919.826	3389
919.936	3485
920.047	3648
920.157	3557
920.267	3778
920.378	3625
920.488	3549
920.598	3804
920.708	3960
920.818	3842
920.928	3804
921.038	4059
921.148	4013
921.258	3717
921.368	3682
921.477	3542
921.587	3553
921.697	3450
921.806	3648
921.916	3507
922.025	3355
922.134	3363
922.244	3351
922.353	3450
922.462	3302
922.571	3233
922.68	3150
922.789	3116
922.898	3161
923.007	3100
923.116	3176
923.224	3199
923.333	3176
923.442	3097
923.55	3081
923.659	3150
923.767	3233
923.876	3146
923.984	3264
924.092	3108
924.201	3195
924.309	3199
924.417	3260
924.525	3249
924.633	3264
924.741	4196
924.849	3043
924.956	3291
925.064	3108
925.172	3039
925.279	3123
925.387	3226
925.494	3211
925.602	3401
925.709	3332
925.816	3192
925.924	3283
926.031	3386
926.138	3321
926.245	3374
926.352	3275
926.459	3405
926.566	3519
926.673	3294
926.779	3218
926.886	3298
926.993	3157
927.099	3138
927.206	3165
927.312	3157
927.419	3199
927.525	3222
927.631	3279
927.737	3135
927.843	3150
927.95	3020
928.056	3154
928.162	3203
928.267	3245
928.373	3846
928.479	3359
928.585	3093
928.69	3214
928.796	3291
928.901	3150
929.007	3066
929.112	3207
929.218	3180
929.323	3135
929.428	3165
929.533	3306
929.638	3169
929.743	3142
929.848	3264
929.953	3226
930.058	3199
930.163	3017
930.267	3066
930.372	3199
930.477	3058
930.581	3310
930.685	3226
930.79	3058
930.894	3150
930.998	3112
931.103	3298
931.207	2960
931.311	2982
931.415	2944
931.519	2819
931.623	2838
