Data from test_V78500241_370.txt Node
Date: Fri Mar 25 16:17:46 CST 2022
User: usil
Spectrometer: V785-0024
Trigger mode: 0
Integration Time (sec): 4.000000E-1
Scans to average: 1
Nonlinearity correction enabled: false
Boxcar width: 0
Storing dark spectrum: false
XAxis mode: Wavelengths
Number of Pixels in Spectrum: 1024
>>>>>Begin Spectral Data<<<<<
801.071	2899
801.214	2986
801.356	2876
801.499	2918
801.641	2895
801.783	2914
801.926	3032
802.068	2990
802.211	3036
802.353	3051
802.496	2979
802.638	3017
802.78	3032
802.923	3097
803.065	2998
803.208	2902
803.35	2971
803.492	2967
803.635	2933
803.777	2796
803.919	2895
804.061	3207
804.204	2986
804.346	2933
804.488	2891
804.63	2986
804.773	2902
804.915	2979
805.057	3089
805.199	2933
805.341	2967
805.483	3074
805.626	3017
805.768	2998
805.91	3097
806.052	3131
806.194	3028
806.336	3264
806.478	3024
806.62	3005
806.762	3005
806.904	3070
807.046	3180
807.188	3001
807.33	2971
807.472	3020
807.614	2952
807.756	2975
807.898	2925
808.04	2933
808.182	2967
808.324	2982
808.465	2868
808.607	2902
808.749	2819
808.891	2857
809.033	2979
809.174	2948
809.316	2887
809.458	2914
809.6	2807
809.741	2819
809.883	2785
810.025	2861
810.166	2883
810.308	2864
810.45	2876
810.591	2792
810.733	2788
810.875	2872
811.016	2811
811.158	2769
811.299	2830
811.441	2910
811.582	2922
811.724	2819
811.865	2861
812.007	2899
812.148	2910
812.29	2853
812.431	2925
812.573	2933
812.714	2963
812.855	3036
812.997	3058
813.138	3169
813.279	3039
813.421	2963
813.562	3005
813.703	2899
813.845	2906
813.986	2788
814.127	2777
814.268	2834
814.41	2849
814.551	2842
814.692	2887
814.833	2834
814.974	2910
815.115	2967
815.256	2834
815.397	2826
815.539	2849
815.68	2815
815.821	2826
815.962	2941
816.103	2982
816.244	2864
816.385	2868
816.526	2963
816.666	2952
816.807	2769
816.948	2902
817.089	2906
817.23	2891
817.371	2807
817.512	2785
817.653	2842
817.793	2845
817.934	2883
818.075	2967
818.216	3005
818.356	3036
818.497	2910
818.638	2804
818.778	2823
818.919	2781
819.06	2792
819.2	2902
819.341	2796
819.481	2834
819.622	2899
819.762	3100
819.903	3070
820.043	2922
820.184	2895
820.324	2876
820.465	3009
820.605	3058
820.746	3028
820.886	2933
821.026	3112
821.167	3154
821.307	3241
821.447	3256
821.588	3249
821.728	3237
821.868	3192
822.008	3047
822.149	3233
822.289	3222
822.429	3097
822.569	3127
822.709	3184
822.849	3039
822.99	3097
823.13	3188
823.27	3207
823.41	3085
823.55	3146
823.69	3146
823.83	3199
823.97	3085
824.11	3001
824.25	3032
824.389	3074
824.529	3097
824.669	3043
824.809	3203
824.949	3253
825.089	3222
825.228	3146
825.368	3024
825.508	2986
825.648	3017
825.787	3020
825.927	3074
826.067	3009
826.206	2963
826.346	3074
826.485	3070
826.625	3119
826.765	3249
826.904	3241
827.044	3047
827.183	2956
827.323	2883
827.462	2986
827.601	2952
827.741	2952
827.88	2944
828.02	2853
828.159	2979
828.298	3036
828.437	3119
828.577	3055
828.716	3275
828.855	3081
828.994	2944
829.134	2880
829.273	2914
829.412	2880
829.551	2853
829.69	2922
829.829	3005
829.968	3119
830.107	3032
830.246	3009
830.385	2925
830.524	2883
830.663	2830
830.802	2731
830.941	2655
831.08	2667
831.219	2777
831.357	2766
831.496	2994
831.635	2731
831.774	2693
831.913	2697
832.051	2560
832.19	2568
832.329	2682
832.467	2579
832.606	2503
832.744	2606
832.883	2606
833.022	2564
833.16	2708
833.299	2689
833.437	2693
833.576	2731
833.714	2739
833.852	2769
833.991	2762
834.129	2853
834.267	2811
834.406	2823
834.544	2842
834.682	2891
834.821	2883
834.959	3070
835.097	2910
835.235	3077
835.373	3005
835.511	3074
835.65	2971
835.788	2963
835.926	2891
836.064	2853
836.202	2838
836.34	3116
836.478	3157
836.615	3070
836.753	3154
836.891	3222
837.029	3169
837.167	3097
837.305	3062
837.443	3028
837.58	2994
837.718	3154
837.856	3077
837.993	3036
838.131	3173
838.269	3097
838.406	3123
838.544	3058
838.681	2933
838.819	2944
838.956	2845
839.094	2830
839.231	2902
839.369	3074
839.506	3435
839.643	3241
839.781	3013
839.918	2979
840.055	3039
840.193	3055
840.33	3081
840.467	3097
840.604	3142
840.742	3397
840.879	3066
841.016	3081
841.153	3123
841.29	3374
841.427	3310
841.564	3283
841.701	3336
841.838	3150
841.975	3142
842.112	3268
842.249	3097
842.385	3085
842.522	3237
842.659	3089
842.796	3066
842.933	3123
843.069	3047
843.206	3070
843.343	3176
843.479	3119
843.616	3131
843.752	2891
843.889	2914
844.025	3112
844.162	2876
844.298	3100
844.435	2922
844.571	2933
844.708	3089
844.844	3199
844.98	3218
845.117	3195
845.253	3070
845.389	3032
845.525	3135
845.661	3077
845.798	3013
845.934	3138
846.07	3104
846.206	3207
846.342	3329
846.478	3256
846.614	3100
846.75	3036
846.886	3055
847.022	3245
847.158	3146
847.294	3207
847.429	3249
847.565	3233
847.701	3511
847.837	2975
847.972	2998
848.108	3154
848.244	3142
848.379	2979
848.515	2941
848.65	2914
848.786	2956
848.921	3024
849.057	3131
849.192	3165
849.328	3081
849.463	3104
849.598	3070
849.734	3055
849.869	2979
850.004	2891
850.14	2982
850.275	2925
850.41	2842
850.545	2853
850.68	2967
850.815	2937
850.95	2956
851.085	3188
851.22	3081
851.355	3043
851.49	2986
851.625	2990
851.76	3032
851.895	2948
852.03	2895
852.165	3074
852.299	3146
852.434	3241
852.569	3188
852.703	3180
852.838	3256
852.973	3291
853.107	3336
853.242	3146
853.376	3074
853.511	2979
853.645	3047
853.78	3188
853.914	3112
854.048	3089
854.183	3077
854.317	3135
854.451	3294
854.585	3154
854.72	3089
854.854	3230
854.988	3089
855.122	3081
855.256	2986
855.39	3104
855.524	3211
855.658	3226
855.792	3150
855.926	3173
856.06	3222
856.194	3302
856.327	3150
856.461	3089
856.595	3089
856.729	3123
856.862	3249
856.996	3123
857.13	3142
857.263	3222
857.397	3268
857.53	3116
857.664	3203
857.797	3241
857.931	3275
858.064	3192
858.197	3188
858.331	3131
858.464	3108
858.597	3013
858.731	3131
858.864	3173
858.997	3100
859.13	3165
859.263	3199
859.396	3203
859.529	3108
859.662	3043
859.795	3081
859.928	3135
860.061	3279
860.194	3313
860.327	3169
860.46	3093
860.592	3230
860.725	3226
860.858	3245
860.99	3093
861.123	3055
861.256	3077
861.388	3131
861.521	3838
861.653	3020
861.786	2963
861.918	3013
862.05	3036
862.183	3085
862.315	3116
862.447	3199
862.58	3123
862.712	2967
862.844	2853
862.976	3009
863.108	2998
863.24	3374
863.372	2918
863.504	2948
863.636	2986
863.768	3055
863.9	2979
864.032	2922
864.164	2986
864.296	3043
864.428	3070
864.559	3097
864.691	3074
864.823	3097
864.954	3062
865.086	3051
865.217	2994
865.349	2952
865.48	2986
865.612	3009
865.743	3157
865.875	2994
866.006	2914
866.137	3013
866.269	2960
866.4	2929
866.531	2899
866.662	2941
866.793	2914
866.924	2922
867.055	2975
867.186	2887
867.317	2849
867.448	2838
867.579	2842
867.71	2830
867.841	2838
867.972	2914
868.103	2914
868.233	2883
868.364	2906
868.495	2857
868.625	3081
868.756	3173
868.886	2971
869.017	3017
869.147	3165
869.278	3142
869.408	3020
869.539	3017
869.669	3085
869.799	3055
869.929	3146
870.06	3062
870.19	3317
870.32	3272
870.45	3344
870.58	3397
870.71	3469
870.84	3469
870.97	3302
871.1	3226
871.23	3477
871.36	3481
871.489	3374
871.619	3428
871.749	3401
871.879	3469
872.008	3488
872.138	3374
872.267	3298
872.397	3157
872.526	3097
872.656	3032
872.785	3051
872.915	3268
873.044	3306
873.173	3207
873.303	3291
873.432	3272
873.561	3241
873.69	3169
873.819	3180
873.948	3195
874.077	3135
874.206	3036
874.335	3112
874.464	3222
874.593	3332
874.722	3199
874.851	3378
874.979	3344
875.108	3310
875.237	3230
875.365	3169
875.494	3169
875.623	3253
875.751	3112
875.88	3108
876.008	3154
876.136	3192
876.265	3416
876.393	3526
876.521	3401
876.65	3378
876.778	3344
876.906	3241
877.034	3184
877.162	3218
877.29	3195
877.418	3264
877.546	3230
877.674	3260
877.802	3264
877.93	3218
878.058	3188
878.185	3055
878.313	3233
878.441	3211
878.568	3081
878.696	3154
878.824	3253
878.951	3294
879.079	3416
879.206	3568
879.333	3477
879.461	3367
879.588	3397
879.715	3481
879.842	3614
879.97	3389
880.097	3154
880.224	3108
880.351	3165
880.478	3165
880.605	3199
880.732	3176
880.859	3500
880.986	3291
881.112	3310
881.239	3169
881.366	3112
881.493	3013
881.619	3020
881.746	3074
881.872	3077
881.999	3089
882.125	3142
882.252	3264
882.378	3306
882.505	3412
882.631	3268
882.757	3142
882.883	3233
883.01	3233
883.136	3157
883.262	3100
883.388	3093
883.514	3306
883.64	3351
883.766	3298
883.892	3184
884.018	3211
884.143	3431
884.269	3553
884.395	3230
884.52	3154
884.646	3165
884.772	3138
884.897	3077
885.023	3207
885.148	3340
885.274	3424
885.399	3325
885.524	3310
885.65	3268
885.775	3336
885.9	3310
886.025	3409
886.15	3359
886.275	3306
886.4	3253
886.525	3329
886.65	3291
886.775	3302
886.9	3515
887.025	3629
887.149	3393
887.274	3275
887.399	3184
887.523	3226
887.648	3169
887.773	3192
887.897	3359
888.021	3397
888.146	3283
888.27	3473
888.395	3549
888.519	3466
888.643	3469
888.767	3500
888.891	3317
889.015	3214
889.139	3298
889.263	3230
889.387	3409
889.511	3523
889.635	3443
889.759	3275
889.883	3260
890.006	3416
890.13	3454
890.254	3310
890.377	3317
890.501	3154
890.624	3218
890.748	3329
890.871	3195
890.995	3100
891.118	3085
891.241	3180
891.364	3211
891.488	3310
891.611	3150
891.734	3245
891.857	3291
891.98	3218
892.103	3306
892.226	3291
892.349	3203
892.471	3119
892.594	3214
892.717	3275
892.839	3256
892.962	3268
893.085	3340
893.207	3283
893.33	3150
893.452	3203
893.575	3348
893.697	3241
893.819	3492
893.941	3538
894.064	3443
894.186	3275
894.308	3298
894.43	3454
894.552	3515
894.674	3507
894.796	3226
894.918	3291
895.04	3313
895.161	3416
895.283	3389
895.405	3321
895.526	3317
895.648	3405
895.769	3428
895.891	3450
896.012	3439
896.134	3450
896.255	3439
896.376	3336
896.498	3367
896.619	3420
896.74	3367
896.861	3378
896.982	3671
897.103	3800
897.224	3576
897.345	3507
897.466	3424
897.587	3492
897.708	3629
897.828	3564
897.949	3397
898.07	3283
898.19	3393
898.311	3622
898.431	3458
898.552	3511
898.672	3584
898.792	3564
898.913	3504
899.033	3378
899.153	3264
899.273	3211
899.393	3283
899.513	3367
899.633	3310
899.753	3340
899.873	3298
899.993	3363
900.113	3336
900.232	3359
900.352	3363
900.472	3294
900.591	3207
900.711	3245
900.83	3241
900.95	3370
901.069	3500
901.189	3359
901.308	3173
901.427	3123
901.546	3188
901.665	3283
901.784	3332
901.904	3211
902.023	3104
902.141	2998
902.26	3024
902.379	3146
902.498	3097
902.617	3028
902.735	3279
902.854	3222
902.973	3207
903.091	3074
903.21	3039
903.328	3108
903.446	3135
903.565	3077
903.683	3218
903.801	3112
903.919	3256
904.038	3306
904.156	3154
904.274	3275
904.392	3264
904.51	3298
904.627	3310
904.745	3424
904.863	3477
904.981	3283
905.098	3146
905.216	3218
905.334	3302
905.451	3298
905.569	3306
905.686	3409
905.803	3431
905.921	3272
906.038	3439
906.155	3329
906.272	3302
906.389	3351
906.506	3230
906.623	3260
906.74	3245
906.857	3199
906.974	3268
907.091	3488
907.208	3561
907.324	3462
907.441	3386
907.557	3207
907.674	3222
907.79	3264
907.907	3245
908.023	3386
908.139	3389
908.256	3325
908.372	3397
908.488	3386
908.604	3245
908.72	3241
908.836	3256
908.952	3268
909.068	3348
909.184	3496
909.3	3370
909.415	3526
909.531	3466
909.647	3279
909.762	3260
909.878	3226
909.993	3340
910.108	3321
910.224	3329
910.339	3447
910.454	3348
910.57	3317
910.685	3249
910.8	3584
910.915	3519
911.03	3431
911.145	3272
911.259	3351
911.374	3340
911.489	3256
911.604	3214
911.718	3108
911.833	3169
911.947	3043
912.062	2956
912.176	3173
912.291	3192
912.405	3192
912.519	3500
912.633	3462
912.748	3340
912.862	3283
912.976	3192
913.09	3028
913.204	3135
913.318	3218
913.431	3351
913.545	3332
913.659	3378
913.772	3332
913.886	3230
914	3218
914.113	3332
914.226	3443
914.34	3363
914.453	3222
914.566	3412
914.68	3264
914.793	3325
914.906	3176
915.019	3112
915.132	3077
915.245	3112
915.358	3207
915.47	3218
915.583	3230
915.696	3313
915.809	3393
915.921	3439
916.034	3233
916.146	3222
916.259	3230
916.371	3386
916.483	3367
916.595	3279
916.708	3382
916.82	3325
916.932	3348
917.044	3325
917.156	3370
917.268	3218
917.38	3317
917.491	3268
917.603	3355
917.715	3424
917.826	3485
917.938	3401
918.049	3256
918.161	3469
918.272	3553
918.384	3572
918.495	3488
918.606	3348
918.717	3272
918.828	3378
918.939	3454
919.05	3306
919.161	3355
919.272	3203
919.383	3302
919.494	3477
919.604	3717
919.715	3462
919.826	3412
919.936	3447
920.047	3625
920.157	3538
920.267	3701
920.378	3614
920.488	3564
920.598	3778
920.708	3926
920.818	3831
920.928	3888
921.038	4029
921.148	4013
921.258	3732
921.368	3663
921.477	3545
921.587	3542
921.697	3443
921.806	3606
921.916	3519
922.025	3329
922.134	3355
922.244	3313
922.353	3450
922.462	3294
922.571	3241
922.68	3146
922.789	3123
922.898	3116
923.007	3108
923.116	3192
923.224	3150
923.333	3199
923.442	3108
923.55	3089
923.659	3176
923.767	3237
923.876	3138
923.984	3260
924.092	3116
924.201	3214
924.309	3195
924.417	3264
924.525	3192
924.633	3226
924.741	4230
924.849	3039
924.956	3253
925.064	3081
925.172	3077
925.279	3108
925.387	3203
925.494	3169
925.602	3302
925.709	3321
925.816	3165
925.924	3260
926.031	3401
926.138	3389
926.245	3340
926.352	3287
926.459	3447
926.566	3469
926.673	3321
926.779	3275
926.886	3253
926.993	3131
927.099	3131
927.206	3077
927.312	3157
927.419	3264
927.525	3218
927.631	3272
927.737	3131
927.843	3161
927.95	3028
928.056	3157
928.162	3195
928.267	3256
928.373	3903
928.479	3306
928.585	3093
928.69	3192
928.796	3268
928.901	3154
929.007	3024
929.112	3211
929.218	3150
929.323	3180
929.428	3157
929.533	3310
929.638	3146
929.743	3154
929.848	3256
929.953	3195
930.058	3127
930.163	3009
930.267	3032
930.372	3192
930.477	3043
930.581	3306
930.685	3150
930.79	3081
930.894	3104
930.998	3058
931.103	3287
931.207	2933
931.311	2918
931.415	2929
931.519	2785
931.623	2842
