Data from test_V78500241_657.txt Node
Date: Fri Mar 25 16:19:45 CST 2022
User: usil
Spectrometer: V785-0024
Trigger mode: 0
Integration Time (sec): 4.000000E-1
Scans to average: 1
Nonlinearity correction enabled: false
Boxcar width: 0
Storing dark spectrum: false
XAxis mode: Wavelengths
Number of Pixels in Spectrum: 1024
>>>>>Begin Spectral Data<<<<<
801.071	2956
801.214	2956
801.356	2891
801.499	2895
801.641	2891
801.783	2948
801.926	3104
802.068	2982
802.211	3020
802.353	3062
802.496	2994
802.638	3074
802.78	3055
802.923	3135
803.065	3024
803.208	2887
803.35	2963
803.492	2933
803.635	2929
803.777	2796
803.919	2899
804.061	3218
804.204	2967
804.346	2922
804.488	2845
804.63	3032
804.773	2845
804.915	2902
805.057	3108
805.199	2941
805.341	3013
805.483	3066
805.626	3032
805.768	2944
805.91	3097
806.052	3131
806.194	3020
806.336	3233
806.478	3017
806.62	2979
806.762	2986
806.904	3047
807.046	3195
807.188	2979
807.33	2914
807.472	2990
807.614	2929
807.756	3017
807.898	2952
808.04	2910
808.182	2994
808.324	2960
808.465	2880
808.607	2906
808.749	2800
808.891	2876
809.033	2998
809.174	2971
809.316	2914
809.458	2933
809.6	2785
809.741	2769
809.883	2777
810.025	2857
810.166	2895
810.308	2830
810.45	2895
810.591	2785
810.733	2777
810.875	2864
811.016	2807
811.158	2750
811.299	2838
811.441	2925
811.582	2899
811.724	2819
811.865	2845
812.007	2948
812.148	2918
812.29	2845
812.431	2929
812.573	2925
812.714	2975
812.855	3077
812.997	3036
813.138	3119
813.279	3024
813.421	2994
813.562	2975
813.703	2853
813.845	2891
813.986	2792
814.127	2727
814.268	2838
814.41	2853
814.551	2796
814.692	2857
814.833	2830
814.974	2902
815.115	2998
815.256	2807
815.397	2849
815.539	2868
815.68	2800
815.821	2785
815.962	2963
816.103	2933
816.244	2902
816.385	2887
816.526	2941
816.666	2937
816.807	2777
816.948	2880
817.089	2906
817.23	2849
817.371	2796
817.512	2823
817.653	2902
817.793	2823
817.934	2899
818.075	2941
818.216	3009
818.356	3005
818.497	2819
818.638	2823
818.778	2842
818.919	2811
819.06	2762
819.2	2849
819.341	2819
819.481	2830
819.622	2937
819.762	3131
819.903	3047
820.043	2948
820.184	2899
820.324	2876
820.465	3017
820.605	3020
820.746	3043
820.886	2948
821.026	3093
821.167	3188
821.307	3268
821.447	3260
821.588	3268
821.728	3199
821.868	3222
822.008	3089
822.149	3218
822.289	3275
822.429	3108
822.569	3085
822.709	3165
822.849	3062
822.99	3066
823.13	3138
823.27	3195
823.41	3100
823.55	3161
823.69	3165
823.83	3195
823.97	3089
824.11	2990
824.25	3005
824.389	3051
824.529	3112
824.669	3112
824.809	3233
824.949	3268
825.089	3245
825.228	3127
825.368	2971
825.508	2960
825.648	2952
825.787	3017
825.927	3043
826.067	2975
826.206	2967
826.346	3055
826.485	3074
826.625	3135
826.765	3313
826.904	3192
827.044	3020
827.183	2910
827.323	2872
827.462	2990
827.601	2933
827.741	2941
827.88	2986
828.02	2883
828.159	2982
828.298	3043
828.437	3089
828.577	3039
828.716	3214
828.855	3085
828.994	2895
829.134	2910
829.273	2876
829.412	2830
829.551	2876
829.69	2895
829.829	2986
829.968	3146
830.107	3009
830.246	3017
830.385	2960
830.524	2918
830.663	2857
830.802	2735
830.941	2674
831.08	2655
831.219	2716
831.357	2769
831.496	2967
831.635	2716
831.774	2648
831.913	2651
832.051	2541
832.19	2606
832.329	2720
832.467	2552
832.606	2484
832.744	2579
832.883	2613
833.022	2598
833.16	2629
833.299	2708
833.437	2678
833.576	2727
833.714	2731
833.852	2754
833.991	2777
834.129	2819
834.267	2823
834.406	2796
834.544	2842
834.682	2880
834.821	2895
834.959	3074
835.097	2910
835.235	3028
835.373	3039
835.511	3020
835.65	2929
835.788	2944
835.926	2842
836.064	2823
836.202	2819
836.34	3112
836.478	3131
836.615	3085
836.753	3131
836.891	3195
837.029	3165
837.167	3100
837.305	3051
837.443	3036
837.58	2941
837.718	3119
837.856	3104
837.993	3047
838.131	3089
838.269	3119
838.406	3085
838.544	3131
838.681	2967
838.819	2925
838.956	2842
839.094	2807
839.231	2941
839.369	3028
839.506	3370
839.643	3211
839.781	3020
839.918	2944
840.055	3089
840.193	3058
840.33	3077
840.467	3089
840.604	3131
840.742	3389
840.879	3051
841.016	3081
841.153	3081
841.29	3344
841.427	3253
841.564	3260
841.701	3306
841.838	3272
841.975	3180
842.112	3226
842.249	3081
842.385	3009
842.522	3245
842.659	3112
842.796	3047
842.933	3116
843.069	3039
843.206	3055
843.343	3199
843.479	3142
843.616	3169
843.752	2891
843.889	2868
844.025	3104
844.162	2830
844.298	3108
844.435	2960
844.571	2937
844.708	3089
844.844	3180
844.98	3218
845.117	3180
845.253	3047
845.389	3009
845.525	3119
845.661	3108
845.798	3032
845.934	3138
846.07	3055
846.206	3199
846.342	3336
846.478	3218
846.614	3070
846.75	3066
846.886	3036
847.022	3260
847.158	3142
847.294	3169
847.429	3256
847.565	3157
847.701	3534
847.837	3036
847.972	2994
848.108	3161
848.244	3108
848.379	2982
848.515	2941
848.65	2918
848.786	2998
848.921	3024
849.057	3112
849.192	3180
849.328	3074
849.463	3077
849.598	3058
849.734	3036
849.869	2986
850.004	2963
850.14	2963
850.275	2944
850.41	2845
850.545	2883
850.68	2944
850.815	2937
850.95	2971
851.085	3241
851.22	3112
851.355	3039
851.49	2979
851.625	2994
851.76	3028
851.895	2937
852.03	2895
852.165	3047
852.299	3157
852.434	3157
852.569	3131
852.703	3211
852.838	3211
852.973	3351
853.107	3351
853.242	3154
853.376	3066
853.511	3001
853.645	3047
853.78	3241
853.914	3176
854.048	3097
854.183	3097
854.317	3176
854.451	3298
854.585	3116
854.72	3116
854.854	3203
854.988	3039
855.122	3077
855.256	2967
855.39	3119
855.524	3214
855.658	3161
855.792	3161
855.926	3195
856.06	3214
856.194	3283
856.327	3169
856.461	3081
856.595	3070
856.729	3093
856.862	3211
856.996	3146
857.13	3184
857.263	3207
857.397	3294
857.53	3093
857.664	3142
857.797	3214
857.931	3264
858.064	3173
858.197	3230
858.331	3112
858.464	3066
858.597	3005
858.731	3127
858.864	3127
858.997	3097
859.13	3135
859.263	3150
859.396	3154
859.529	3070
859.662	3085
859.795	3028
859.928	3146
860.061	3298
860.194	3287
860.327	3180
860.46	3051
860.592	3222
860.725	3241
860.858	3253
860.99	3070
861.123	3070
861.256	3051
861.388	3123
861.521	3819
861.653	3032
861.786	2960
861.918	3001
862.05	3085
862.183	3081
862.315	3176
862.447	3199
862.58	3116
862.712	2941
862.844	2872
862.976	3017
863.108	3001
863.24	3428
863.372	2861
863.504	3001
863.636	2956
863.768	3039
863.9	2998
864.032	2918
864.164	2944
864.296	2990
864.428	3081
864.559	3066
864.691	3043
864.823	3062
864.954	3047
865.086	3051
865.217	2986
865.349	2941
865.48	2982
865.612	2998
865.743	3142
865.875	2960
866.006	2929
866.137	2979
866.269	2956
866.4	2952
866.531	2941
866.662	2864
866.793	2899
866.924	2902
867.055	2986
867.186	2956
867.317	2887
867.448	2861
867.579	2823
867.71	2861
867.841	2819
867.972	2929
868.103	2891
868.233	2887
868.364	2876
868.495	2910
868.625	3055
868.756	3146
868.886	2979
869.017	3001
869.147	3169
869.278	3180
869.408	3036
869.539	3047
869.669	3066
869.799	3024
869.929	3142
870.06	3123
870.19	3287
870.32	3260
870.45	3256
870.58	3351
870.71	3431
870.84	3485
870.97	3310
871.1	3207
871.23	3477
871.36	3443
871.489	3359
871.619	3420
871.749	3424
871.879	3374
872.008	3466
872.138	3409
872.267	3260
872.397	3119
872.526	3108
872.656	3005
872.785	3097
872.915	3218
873.044	3325
873.173	3245
873.303	3237
873.432	3207
873.561	3233
873.69	3176
873.819	3108
873.948	3157
874.077	3104
874.206	3062
874.335	3062
874.464	3207
874.593	3321
874.722	3222
874.851	3428
874.979	3340
875.108	3351
875.237	3192
875.365	3188
875.494	3154
875.623	3260
875.751	3112
875.88	3081
876.008	3192
876.136	3237
876.265	3336
876.393	3507
876.521	3424
876.65	3386
876.778	3310
876.906	3230
877.034	3192
877.162	3226
877.29	3180
877.418	3237
877.546	3199
877.674	3237
877.802	3230
877.93	3275
878.058	3131
878.185	3077
878.313	3184
878.441	3222
878.568	3081
878.696	3146
878.824	3233
878.951	3291
879.079	3458
879.206	3606
879.333	3435
879.461	3321
879.588	3374
879.715	3488
879.842	3587
879.97	3348
880.097	3157
880.224	3161
880.351	3226
880.478	3222
880.605	3184
880.732	3184
880.859	3466
880.986	3310
881.112	3363
881.239	3207
881.366	3100
881.493	3017
881.619	3051
881.746	3104
881.872	3062
881.999	3127
882.125	3150
882.252	3253
882.378	3313
882.505	3405
882.631	3294
882.757	3123
882.883	3192
883.01	3207
883.136	3203
883.262	3089
883.388	3116
883.514	3313
883.64	3370
883.766	3279
883.892	3157
884.018	3211
884.143	3416
884.269	3523
884.395	3237
884.52	3161
884.646	3157
884.772	3119
884.897	3097
885.023	3173
885.148	3313
885.274	3405
885.399	3363
885.524	3233
885.65	3253
885.775	3306
885.9	3233
886.025	3469
886.15	3374
886.275	3287
886.4	3237
886.525	3287
886.65	3253
886.775	3237
886.9	3507
887.025	3625
887.149	3439
887.274	3256
887.399	3188
887.523	3169
887.648	3169
887.773	3203
887.897	3363
888.021	3378
888.146	3264
888.27	3409
888.395	3519
888.519	3416
888.643	3454
888.767	3496
888.891	3272
889.015	3237
889.139	3283
889.263	3245
889.387	3401
889.511	3488
889.635	3500
889.759	3283
889.883	3287
890.006	3386
890.13	3504
890.254	3256
890.377	3344
890.501	3226
890.624	3169
890.748	3294
890.871	3188
890.995	3119
891.118	3055
891.241	3188
891.364	3226
891.488	3313
891.611	3188
891.734	3222
891.857	3298
891.98	3260
892.103	3321
892.226	3264
892.349	3218
892.471	3119
892.594	3233
892.717	3325
892.839	3268
892.962	3294
893.085	3340
893.207	3302
893.33	3123
893.452	3230
893.575	3336
893.697	3214
893.819	3443
893.941	3485
894.064	3473
894.186	3272
894.308	3245
894.43	3454
894.552	3507
894.674	3466
894.796	3279
894.918	3310
895.04	3283
895.161	3412
895.283	3378
895.405	3344
895.526	3378
895.648	3424
895.769	3412
895.891	3450
896.012	3477
896.134	3466
896.255	3401
896.376	3401
896.498	3329
896.619	3397
896.74	3378
896.861	3420
896.982	3644
897.103	3808
897.224	3599
897.345	3496
897.466	3435
897.587	3504
897.708	3610
897.828	3564
897.949	3458
898.07	3348
898.19	3428
898.311	3561
898.431	3424
898.552	3526
898.672	3610
898.792	3591
898.913	3492
899.033	3424
899.153	3302
899.273	3207
899.393	3283
899.513	3313
899.633	3321
899.753	3291
899.873	3283
899.993	3389
900.113	3348
900.232	3367
900.352	3336
900.472	3272
900.591	3169
900.711	3306
900.83	3230
900.95	3416
901.069	3511
901.189	3367
901.308	3199
901.427	3127
901.546	3188
901.665	3283
901.784	3329
901.904	3195
902.023	3180
902.141	3009
902.26	3001
902.379	3112
902.498	3097
902.617	3062
902.735	3207
902.854	3264
902.973	3203
903.091	3024
903.21	3047
903.328	3116
903.446	3104
903.565	3127
903.683	3180
903.801	3138
903.919	3249
904.038	3283
904.156	3188
904.274	3298
904.392	3249
904.51	3287
904.627	3325
904.745	3435
904.863	3481
904.981	3253
905.098	3157
905.216	3233
905.334	3306
905.451	3344
905.569	3287
905.686	3409
905.803	3431
905.921	3260
906.038	3424
906.155	3378
906.272	3260
906.389	3340
906.506	3233
906.623	3256
906.74	3253
906.857	3218
906.974	3245
907.091	3382
907.208	3561
907.324	3454
907.441	3386
907.557	3230
907.674	3253
907.79	3192
907.907	3272
908.023	3420
908.139	3332
908.256	3336
908.372	3378
908.488	3291
908.604	3233
908.72	3241
908.836	3298
908.952	3294
909.068	3336
909.184	3450
909.3	3382
909.415	3515
909.531	3473
909.647	3291
909.762	3310
909.878	3245
909.993	3367
910.108	3306
910.224	3367
910.339	3409
910.454	3313
910.57	3268
910.685	3321
910.8	3580
910.915	3538
911.03	3481
911.145	3268
911.259	3256
911.374	3306
911.489	3256
911.604	3256
911.718	3131
911.833	3192
911.947	3051
912.062	2971
912.176	3173
912.291	3195
912.405	3226
912.519	3378
912.633	3473
912.748	3340
912.862	3268
912.976	3192
913.09	3028
913.204	3123
913.318	3218
913.431	3336
913.545	3351
913.659	3416
913.772	3340
913.886	3214
914	3211
914.113	3351
914.226	3420
914.34	3344
914.453	3195
914.566	3409
914.68	3298
914.793	3313
914.906	3150
915.019	3077
915.132	3043
915.245	3180
915.358	3207
915.47	3214
915.583	3226
915.696	3287
915.809	3431
915.921	3424
916.034	3253
916.146	3245
916.259	3184
916.371	3416
916.483	3367
916.595	3249
916.708	3348
916.82	3336
916.932	3302
917.044	3306
917.156	3317
917.268	3230
917.38	3298
917.491	3230
917.603	3374
917.715	3450
917.826	3447
917.938	3359
918.049	3256
918.161	3405
918.272	3568
918.384	3606
918.495	3458
918.606	3355
918.717	3302
918.828	3321
918.939	3424
919.05	3283
919.161	3374
919.272	3169
919.383	3245
919.494	3519
919.604	3698
919.715	3473
919.826	3386
919.936	3488
920.047	3595
920.157	3584
920.267	3751
920.378	3576
920.488	3595
920.598	3793
920.708	3934
920.818	3774
920.928	3823
921.038	4010
921.148	4025
921.258	3709
921.368	3625
921.477	3576
921.587	3515
921.697	3454
921.806	3644
921.916	3504
922.025	3370
922.134	3340
922.244	3294
922.353	3397
922.462	3260
922.571	3214
922.68	3097
922.789	3043
922.898	3123
923.007	3051
923.116	3180
923.224	3169
923.333	3157
923.442	3070
923.55	3070
923.659	3138
923.767	3226
923.876	3157
923.984	3203
924.092	3085
924.201	3211
924.309	3218
924.417	3230
924.525	3230
924.633	3226
924.741	4021
924.849	3051
924.956	3287
925.064	3089
925.172	3051
925.279	3085
925.387	3237
925.494	3203
925.602	3363
925.709	3317
925.816	3184
925.924	3310
926.031	3351
926.138	3336
926.245	3367
926.352	3226
926.459	3397
926.566	3431
926.673	3332
926.779	3306
926.886	3222
926.993	3157
927.099	3104
927.206	3131
927.312	3135
927.419	3214
927.525	3241
927.631	3260
927.737	3161
927.843	3135
927.95	3024
928.056	3154
928.162	3138
928.267	3268
928.373	3797
928.479	3317
928.585	3074
928.69	3188
928.796	3256
928.901	3195
929.007	3039
929.112	3222
929.218	3195
929.323	3116
929.428	3154
929.533	3325
929.638	3127
929.743	3161
929.848	3298
929.953	3214
930.058	3104
930.163	3032
930.267	3017
930.372	3207
930.477	3066
930.581	3302
930.685	3180
930.79	3036
930.894	3119
930.998	3066
931.103	3287
931.207	2963
931.311	2982
931.415	2899
931.519	2788
931.623	2823
