Data from test_V78500241_940.txt Node
Date: Fri Mar 25 16:21:42 CST 2022
User: usil
Spectrometer: V785-0024
Trigger mode: 0
Integration Time (sec): 4.000000E-1
Scans to average: 1
Nonlinearity correction enabled: false
Boxcar width: 0
Storing dark spectrum: false
XAxis mode: Wavelengths
Number of Pixels in Spectrum: 1024
>>>>>Begin Spectral Data<<<<<
801.071	2902
801.214	2941
801.356	2857
801.499	2914
801.641	2868
801.783	2933
801.926	3036
802.068	2975
802.211	3001
802.353	3047
802.496	2971
802.638	2979
802.78	3062
802.923	3081
803.065	2971
803.208	2880
803.35	2872
803.492	2922
803.635	2895
803.777	2777
803.919	2872
804.061	3211
804.204	2937
804.346	2887
804.488	2842
804.63	2963
804.773	2925
804.915	2925
805.057	3097
805.199	2952
805.341	3013
805.483	3074
805.626	2994
805.768	2952
805.91	3085
806.052	3100
806.194	3047
806.336	3241
806.478	3005
806.62	2967
806.762	2956
806.904	3085
807.046	3173
807.188	2975
807.33	2922
807.472	2986
807.614	2891
807.756	2982
807.898	2918
808.04	2876
808.182	2963
808.324	2971
808.465	2902
808.607	2883
808.749	2830
808.891	2830
809.033	2963
809.174	2975
809.316	2868
809.458	2857
809.6	2766
809.741	2746
809.883	2781
810.025	2823
810.166	2834
810.308	2845
810.45	2823
810.591	2792
810.733	2800
810.875	2800
811.016	2746
811.158	2769
811.299	2766
811.441	2922
811.582	2902
811.724	2834
811.865	2830
812.007	2933
812.148	2883
812.29	2861
812.431	2883
812.573	2910
812.714	2960
812.855	3066
812.997	3047
813.138	3135
813.279	3017
813.421	2967
813.562	2956
813.703	2864
813.845	2906
813.986	2766
814.127	2720
814.268	2815
814.41	2838
814.551	2819
814.692	2868
814.833	2819
814.974	2895
815.115	2948
815.256	2815
815.397	2838
815.539	2845
815.68	2777
815.821	2800
815.962	2933
816.103	2941
816.244	2895
816.385	2872
816.526	2941
816.666	2902
816.807	2769
816.948	2883
817.089	2887
817.23	2861
817.371	2819
817.512	2743
817.653	2823
817.793	2807
817.934	2842
818.075	2963
818.216	3005
818.356	2990
818.497	2876
818.638	2773
818.778	2796
818.919	2766
819.06	2785
819.2	2857
819.341	2800
819.481	2777
819.622	2925
819.762	3135
819.903	3005
820.043	2876
820.184	2918
820.324	2883
820.465	2998
820.605	3001
820.746	3032
820.886	2902
821.026	3104
821.167	3154
821.307	3237
821.447	3253
821.588	3173
821.728	3195
821.868	3180
822.008	3085
822.149	3199
822.289	3233
822.429	3081
822.569	3077
822.709	3119
822.849	3051
822.99	3058
823.13	3138
823.27	3169
823.41	3108
823.55	3165
823.69	3169
823.83	3184
823.97	3097
824.11	3020
824.25	2994
824.389	3081
824.529	3108
824.669	3020
824.809	3173
824.949	3230
825.089	3214
825.228	3131
825.368	3001
825.508	2960
825.648	2967
825.787	2979
825.927	2990
826.067	2986
826.206	2937
826.346	3036
826.485	3043
826.625	3093
826.765	3241
826.904	3180
827.044	2952
827.183	2960
827.323	2895
827.462	2986
827.601	2902
827.741	2944
827.88	2952
828.02	2857
828.159	2994
828.298	3017
828.437	3089
828.577	3093
828.716	3214
828.855	3062
828.994	2876
829.134	2891
829.273	2906
829.412	2853
829.551	2819
829.69	2891
829.829	2990
829.968	3131
830.107	3017
830.246	3001
830.385	2918
830.524	2853
830.663	2807
830.802	2716
830.941	2621
831.08	2663
831.219	2731
831.357	2758
831.496	2944
831.635	2712
831.774	2640
831.913	2655
832.051	2526
832.19	2594
832.329	2663
832.467	2549
832.606	2488
832.744	2583
832.883	2568
833.022	2579
833.16	2663
833.299	2674
833.437	2674
833.576	2689
833.714	2701
833.852	2716
833.991	2731
834.129	2819
834.267	2830
834.406	2781
834.544	2849
834.682	2880
834.821	2853
834.959	3058
835.097	2918
835.235	3081
835.373	2986
835.511	2986
835.65	2880
835.788	2956
835.926	2773
836.064	2804
836.202	2849
836.34	3077
836.478	3150
836.615	3036
836.753	3097
836.891	3237
837.029	3135
837.167	3081
837.305	3066
837.443	3043
837.58	2971
837.718	3142
837.856	3055
837.993	3024
838.131	3093
838.269	3097
838.406	3077
838.544	3093
838.681	2933
838.819	2895
838.956	2834
839.094	2815
839.231	2910
839.369	3005
839.506	3329
839.643	3256
839.781	2982
839.918	2944
840.055	3066
840.193	3039
840.33	3081
840.467	3036
840.604	3112
840.742	3336
840.879	3077
841.016	3039
841.153	3108
841.29	3332
841.427	3325
841.564	3275
841.701	3256
841.838	3176
841.975	3230
842.112	3180
842.249	3074
842.385	3058
842.522	3291
842.659	3119
842.796	3081
842.933	3074
843.069	3058
843.206	3047
843.343	3154
843.479	3081
843.616	3131
843.752	2876
843.889	2849
844.025	3047
844.162	2902
844.298	3058
844.435	2956
844.571	2948
844.708	3039
844.844	3203
844.98	3233
845.117	3195
845.253	3005
845.389	3005
845.525	3089
845.661	3089
845.798	2994
845.934	3138
846.07	3043
846.206	3207
846.342	3287
846.478	3241
846.614	3070
846.75	3039
846.886	3020
847.022	3211
847.158	3116
847.294	3169
847.429	3211
847.565	3184
847.701	3492
847.837	3020
847.972	3009
848.108	3169
848.244	3127
848.379	2998
848.515	2918
848.65	2887
848.786	2963
848.921	3024
849.057	3116
849.192	3119
849.328	3055
849.463	3127
849.598	3051
849.734	3028
849.869	2960
850.004	2922
850.14	2979
850.275	2906
850.41	2876
850.545	2899
850.68	2937
850.815	2967
850.95	2975
851.085	3195
851.22	3112
851.355	3009
851.49	2948
851.625	3009
851.76	3020
851.895	2933
852.03	2933
852.165	3013
852.299	3089
852.434	3154
852.569	3119
852.703	3218
852.838	3268
852.973	3283
853.107	3355
853.242	3165
853.376	3093
853.511	2986
853.645	3020
853.78	3226
853.914	3119
854.048	3089
854.183	3081
854.317	3173
854.451	3340
854.585	3104
854.72	3062
854.854	3218
854.988	3047
855.122	3100
855.256	2990
855.39	3119
855.524	3222
855.658	3161
855.792	3138
855.926	3161
856.06	3188
856.194	3268
856.327	3142
856.461	3093
856.595	3051
856.729	3081
856.862	3203
856.996	3146
857.13	3184
857.263	3237
857.397	3313
857.53	3081
857.664	3192
857.797	3226
857.931	3226
858.064	3173
858.197	3233
858.331	3112
858.464	3112
858.597	2998
858.731	3077
858.864	3123
858.997	3066
859.13	3150
859.263	3154
859.396	3222
859.529	3070
859.662	3108
859.795	3047
859.928	3100
860.061	3211
860.194	3249
860.327	3100
860.46	3097
860.592	3211
860.725	3233
860.858	3230
860.99	3100
861.123	3062
861.256	3093
861.388	3146
861.521	3823
861.653	3058
861.786	2979
861.918	3028
862.05	3039
862.183	3131
862.315	3131
862.447	3184
862.58	3108
862.712	2925
862.844	2910
862.976	3020
863.108	2990
863.24	3412
863.372	2887
863.504	2944
863.636	2918
863.768	3058
863.9	3009
864.032	2887
864.164	2967
864.296	2998
864.428	3081
864.559	3108
864.691	3066
864.823	3077
864.954	2990
865.086	2994
865.217	2998
865.349	2941
865.48	2982
865.612	2982
865.743	3154
865.875	2975
866.006	2948
866.137	2914
866.269	2941
866.4	2944
866.531	2895
866.662	2883
866.793	2883
866.924	2929
867.055	2937
867.186	2914
867.317	2872
867.448	2823
867.579	2838
867.71	2857
867.841	2861
867.972	2899
868.103	2929
868.233	2887
868.364	2895
868.495	2880
868.625	3077
868.756	3161
868.886	2914
869.017	3001
869.147	3142
869.278	3112
869.408	3043
869.539	3013
869.669	3104
869.799	3009
869.929	3146
870.06	3116
870.19	3287
870.32	3272
870.45	3291
870.58	3363
870.71	3458
870.84	3454
870.97	3302
871.1	3245
871.23	3469
871.36	3424
871.489	3336
871.619	3416
871.749	3412
871.879	3412
872.008	3485
872.138	3386
872.267	3233
872.397	3165
872.526	3093
872.656	2967
872.785	3081
872.915	3237
873.044	3317
873.173	3180
873.303	3233
873.432	3211
873.561	3237
873.69	3157
873.819	3119
873.948	3195
874.077	3112
874.206	3051
874.335	3089
874.464	3203
874.593	3344
874.722	3287
874.851	3351
874.979	3340
875.108	3313
875.237	3173
875.365	3154
875.494	3146
875.623	3253
875.751	3062
875.88	3051
876.008	3161
876.136	3207
876.265	3382
876.393	3496
876.521	3401
876.65	3348
876.778	3325
876.906	3226
877.034	3195
877.162	3226
877.29	3180
877.418	3264
877.546	3211
877.674	3211
877.802	3249
877.93	3226
878.058	3131
878.185	3127
878.313	3195
878.441	3253
878.568	3070
878.696	3161
878.824	3233
878.951	3294
879.079	3424
879.206	3595
879.333	3458
879.461	3332
879.588	3336
879.715	3481
879.842	3595
879.97	3401
880.097	3161
880.224	3119
880.351	3222
880.478	3214
880.605	3180
880.732	3157
880.859	3496
880.986	3298
881.112	3321
881.239	3207
881.366	3100
881.493	3009
881.619	3032
881.746	3081
881.872	3055
881.999	3089
882.125	3123
882.252	3222
882.378	3275
882.505	3412
882.631	3291
882.757	3146
882.883	3207
883.01	3226
883.136	3150
883.262	3089
883.388	3119
883.514	3317
883.64	3370
883.766	3272
883.892	3169
884.018	3230
884.143	3405
884.269	3576
884.395	3226
884.52	3138
884.646	3207
884.772	3100
884.897	3062
885.023	3203
885.148	3359
885.274	3416
885.399	3340
885.524	3294
885.65	3241
885.775	3302
885.9	3264
886.025	3466
886.15	3344
886.275	3294
886.4	3222
886.525	3317
886.65	3222
886.775	3283
886.9	3492
887.025	3622
887.149	3424
887.274	3253
887.399	3176
887.523	3207
887.648	3199
887.773	3199
887.897	3355
888.021	3405
888.146	3264
888.27	3458
888.395	3504
888.519	3412
888.643	3469
888.767	3488
888.891	3294
889.015	3203
889.139	3310
889.263	3237
889.387	3382
889.511	3500
889.635	3454
889.759	3268
889.883	3275
890.006	3351
890.13	3488
890.254	3283
890.377	3329
890.501	3161
890.624	3203
890.748	3302
890.871	3199
890.995	3089
891.118	3047
891.241	3211
891.364	3264
891.488	3317
891.611	3154
891.734	3222
891.857	3317
891.98	3253
892.103	3336
892.226	3214
892.349	3195
892.471	3119
892.594	3192
892.717	3287
892.839	3256
892.962	3306
893.085	3359
893.207	3294
893.33	3116
893.452	3195
893.575	3321
893.697	3253
893.819	3416
893.941	3496
894.064	3416
894.186	3264
894.308	3310
894.43	3420
894.552	3553
894.674	3443
894.796	3249
894.918	3306
895.04	3291
895.161	3389
895.283	3462
895.405	3294
895.526	3363
895.648	3409
895.769	3409
895.891	3447
896.012	3466
896.134	3469
896.255	3389
896.376	3367
896.498	3370
896.619	3439
896.74	3378
896.861	3382
896.982	3698
897.103	3880
897.224	3549
897.345	3515
897.466	3458
897.587	3519
897.708	3625
897.828	3538
897.949	3397
898.07	3325
898.19	3405
898.311	3603
898.431	3477
898.552	3496
898.672	3625
898.792	3553
898.913	3481
899.033	3401
899.153	3313
899.273	3207
899.393	3283
899.513	3287
899.633	3294
899.753	3332
899.873	3306
899.993	3363
900.113	3298
900.232	3359
900.352	3370
900.472	3294
900.591	3184
900.711	3294
900.83	3207
900.95	3405
901.069	3492
901.189	3405
901.308	3135
901.427	3093
901.546	3207
901.665	3260
901.784	3355
901.904	3230
902.023	3146
902.141	3032
902.26	2971
902.379	3119
902.498	3097
902.617	3055
902.735	3195
902.854	3237
902.973	3161
903.091	3032
903.21	3077
903.328	3116
903.446	3131
903.565	3100
903.683	3237
903.801	3131
903.919	3256
904.038	3302
904.156	3188
904.274	3291
904.392	3241
904.51	3336
904.627	3306
904.745	3420
904.863	3469
904.981	3260
905.098	3184
905.216	3230
905.334	3294
905.451	3291
905.569	3279
905.686	3416
905.803	3401
905.921	3287
906.038	3416
906.155	3344
906.272	3275
906.389	3348
906.506	3211
906.623	3260
906.74	3302
906.857	3165
906.974	3260
907.091	3473
907.208	3538
907.324	3458
907.441	3393
907.557	3260
907.674	3218
907.79	3173
907.907	3230
908.023	3382
908.139	3367
908.256	3317
908.372	3348
908.488	3348
908.604	3241
908.72	3260
908.836	3291
908.952	3268
909.068	3344
909.184	3428
909.3	3428
909.415	3511
909.531	3492
909.647	3264
909.762	3291
909.878	3275
909.993	3378
910.108	3340
910.224	3355
910.339	3397
910.454	3329
910.57	3291
910.685	3256
910.8	3534
910.915	3587
911.03	3393
911.145	3268
911.259	3268
911.374	3355
911.489	3245
911.604	3233
911.718	3123
911.833	3154
911.947	3039
912.062	2971
912.176	3169
912.291	3176
912.405	3214
912.519	3447
912.633	3469
912.748	3359
912.862	3275
912.976	3157
913.09	3043
913.204	3127
913.318	3230
913.431	3313
913.545	3359
913.659	3409
913.772	3317
913.886	3226
914	3188
914.113	3363
914.226	3420
914.34	3355
914.453	3249
914.566	3393
914.68	3245
914.793	3291
914.906	3154
915.019	3104
915.132	3097
915.245	3169
915.358	3207
915.47	3188
915.583	3268
915.696	3291
915.809	3431
915.921	3431
916.034	3214
916.146	3264
916.259	3233
916.371	3401
916.483	3340
916.595	3253
916.708	3351
916.82	3336
916.932	3313
917.044	3332
917.156	3329
917.268	3230
917.38	3332
917.491	3283
917.603	3397
917.715	3462
917.826	3435
917.938	3393
918.049	3313
918.161	3439
918.272	3595
918.384	3553
918.495	3488
918.606	3348
918.717	3283
918.828	3367
918.939	3382
919.05	3291
919.161	3340
919.272	3184
919.383	3283
919.494	3492
919.604	3682
919.715	3450
919.826	3386
919.936	3420
920.047	3603
920.157	3564
920.267	3812
920.378	3603
920.488	3587
920.598	3740
920.708	3922
920.818	3819
920.928	3800
921.038	3983
921.148	3994
921.258	3682
921.368	3591
921.477	3576
921.587	3557
921.697	3458
921.806	3610
921.916	3515
922.025	3317
922.134	3367
922.244	3329
922.353	3435
922.462	3256
922.571	3245
922.68	3100
922.789	3093
922.898	3112
923.007	3097
923.116	3211
923.224	3161
923.333	3195
923.442	3093
923.55	3138
923.659	3100
923.767	3211
923.876	3108
923.984	3226
924.092	3097
924.201	3207
924.309	3218
924.417	3268
924.525	3192
924.633	3249
924.741	4139
924.849	3036
924.956	3230
925.064	3077
925.172	3039
925.279	3116
925.387	3161
925.494	3195
925.602	3348
925.709	3291
925.816	3184
925.924	3291
926.031	3401
926.138	3332
926.245	3332
926.352	3272
926.459	3370
926.566	3466
926.673	3317
926.779	3214
926.886	3249
926.993	3138
927.099	3108
927.206	3116
927.312	3119
927.419	3203
927.525	3226
927.631	3275
927.737	3104
927.843	3093
927.95	3017
928.056	3154
928.162	3176
928.267	3283
928.373	3857
928.479	3374
928.585	3058
928.69	3192
928.796	3249
928.901	3138
929.007	3013
929.112	3195
929.218	3184
929.323	3116
929.428	3173
929.533	3313
929.638	3108
929.743	3165
929.848	3268
929.953	3203
930.058	3138
930.163	3009
930.267	3047
930.372	3180
930.477	3020
930.581	3313
930.685	3157
930.79	3024
930.894	3081
930.998	3093
931.103	3256
931.207	2952
931.311	2948
931.415	2922
931.519	2750
931.623	2785
