Data from test_V78500241_2042.txt Node
Date: Fri Mar 25 16:29:20 CST 2022
User: usil
Spectrometer: V785-0024
Trigger mode: 0
Integration Time (sec): 4.000000E-1
Scans to average: 1
Nonlinearity correction enabled: false
Boxcar width: 0
Storing dark spectrum: false
XAxis mode: Wavelengths
Number of Pixels in Spectrum: 1024
>>>>>Begin Spectral Data<<<<<
801.071	2937
801.214	2960
801.356	2899
801.499	2891
801.641	2880
801.783	2925
801.926	3058
802.068	2990
802.211	2979
802.353	3047
802.496	2994
802.638	3017
802.78	3074
802.923	3085
803.065	2990
803.208	2906
803.35	2861
803.492	2952
803.635	2933
803.777	2777
803.919	2880
804.061	3222
804.204	2960
804.346	2944
804.488	2838
804.63	3017
804.773	2853
804.915	2929
805.057	3093
805.199	2925
805.341	2967
805.483	3013
805.626	2967
805.768	2975
805.91	3058
806.052	3089
806.194	3055
806.336	3207
806.478	3043
806.62	2941
806.762	2956
806.904	3062
807.046	3184
807.188	2963
807.33	2918
807.472	2982
807.614	2872
807.756	2963
807.898	2948
808.04	2880
808.182	2994
808.324	2944
808.465	2864
808.607	2857
808.749	2777
808.891	2826
809.033	2971
809.174	2971
809.316	2899
809.458	2883
809.6	2785
809.741	2773
809.883	2773
810.025	2838
810.166	2857
810.308	2861
810.45	2823
810.591	2796
810.733	2807
810.875	2849
811.016	2785
811.158	2739
811.299	2800
811.441	2929
811.582	2906
811.724	2830
811.865	2804
812.007	2906
812.148	2910
812.29	2853
812.431	2849
812.573	2948
812.714	2963
812.855	3001
812.997	3036
813.138	3108
813.279	2994
813.421	2990
813.562	2941
813.703	2861
813.845	2883
813.986	2743
814.127	2735
814.268	2838
814.41	2819
814.551	2777
814.692	2857
814.833	2781
814.974	2891
815.115	2963
815.256	2819
815.397	2781
815.539	2868
815.68	2746
815.821	2781
815.962	2918
816.103	2910
816.244	2853
816.385	2861
816.526	2982
816.666	2864
816.807	2724
816.948	2838
817.089	2887
817.23	2849
817.371	2769
817.512	2819
817.653	2819
817.793	2807
817.934	2876
818.075	2910
818.216	2952
818.356	3028
818.497	2891
818.638	2754
818.778	2845
818.919	2819
819.06	2746
819.2	2899
819.341	2807
819.481	2819
819.622	2922
819.762	3077
819.903	3039
820.043	2929
820.184	2868
820.324	2910
820.465	3005
820.605	3051
820.746	3047
820.886	2967
821.026	3146
821.167	3192
821.307	3245
821.447	3268
821.588	3245
821.728	3199
821.868	3203
822.008	3108
822.149	3214
822.289	3253
822.429	3100
822.569	3104
822.709	3154
822.849	3066
822.99	3119
823.13	3188
823.27	3218
823.41	3093
823.55	3176
823.69	3214
823.83	3260
823.97	3123
824.11	3020
824.25	2990
824.389	3104
824.529	3146
824.669	3093
824.809	3230
824.949	3317
825.089	3256
825.228	3211
825.368	3032
825.508	3009
825.648	2990
825.787	3039
825.927	3047
826.067	2998
826.206	3005
826.346	3085
826.485	3108
826.625	3138
826.765	3321
826.904	3233
827.044	3039
827.183	2975
827.323	2910
827.462	3036
827.601	2971
827.741	2967
827.88	2971
828.02	2899
828.159	3017
828.298	3093
828.437	3146
828.577	3066
828.716	3287
828.855	3112
828.994	2941
829.134	2925
829.273	2925
829.412	2876
829.551	2853
829.69	2925
829.829	3024
829.968	3146
830.107	3074
830.246	3024
830.385	2975
830.524	2910
830.663	2880
830.802	2769
830.941	2674
831.08	2697
831.219	2800
831.357	2773
831.496	2963
831.635	2746
831.774	2663
831.913	2678
832.051	2556
832.19	2613
832.329	2708
832.467	2598
832.606	2499
832.744	2617
832.883	2621
833.022	2594
833.16	2689
833.299	2701
833.437	2758
833.576	2705
833.714	2762
833.852	2750
833.991	2785
834.129	2876
834.267	2868
834.406	2823
834.544	2902
834.682	2899
834.821	2895
834.959	3108
835.097	2929
835.235	3085
835.373	3017
835.511	3005
835.65	2998
835.788	2944
835.926	2872
836.064	2853
836.202	2880
836.34	3104
836.478	3211
836.615	3123
836.753	3165
836.891	3253
837.029	3195
837.167	3157
837.305	3119
837.443	3097
837.58	2960
837.718	3173
837.856	3081
837.993	3081
838.131	3161
838.269	3116
838.406	3165
838.544	3112
838.681	2982
838.819	2956
838.956	2830
839.094	2864
839.231	2937
839.369	3058
839.506	3416
839.643	3268
839.781	3036
839.918	3017
840.055	3108
840.193	3070
840.33	3104
840.467	3119
840.604	3184
840.742	3450
840.879	3108
841.016	3112
841.153	3135
841.29	3336
841.427	3336
841.564	3306
841.701	3344
841.838	3245
841.975	3207
842.112	3256
842.249	3085
842.385	2998
842.522	3306
842.659	3112
842.796	3089
842.933	3150
843.069	3043
843.206	3058
843.343	3211
843.479	3135
843.616	3203
843.752	2922
843.889	2880
844.025	3100
844.162	2918
844.298	3135
844.435	2971
844.571	2929
844.708	3074
844.844	3211
844.98	3264
845.117	3233
845.253	3089
845.389	3062
845.525	3093
845.661	3119
845.798	3055
845.934	3146
846.07	3085
846.206	3275
846.342	3359
846.478	3249
846.614	3089
846.75	3032
846.886	3051
847.022	3253
847.158	3150
847.294	3207
847.429	3279
847.565	3253
847.701	3519
847.837	3024
847.972	3020
848.108	3192
848.244	3173
848.379	3020
848.515	2982
848.65	2960
848.786	2963
848.921	3047
849.057	3135
849.192	3169
849.328	3085
849.463	3146
849.598	3085
849.734	3039
849.869	3013
850.004	2899
850.14	2994
850.275	2910
850.41	2876
850.545	2876
850.68	2971
850.815	2994
850.95	2960
851.085	3218
851.22	3116
851.355	3058
851.49	2967
851.625	3020
851.76	3051
851.895	2963
852.03	2944
852.165	3047
852.299	3123
852.434	3169
852.569	3195
852.703	3245
852.838	3226
852.973	3363
853.107	3329
853.242	3161
853.376	3097
853.511	2986
853.645	3062
853.78	3241
853.914	3165
854.048	3131
854.183	3123
854.317	3135
854.451	3351
854.585	3154
854.72	3119
854.854	3222
854.988	3062
855.122	3104
855.256	2952
855.39	3135
855.524	3279
855.658	3188
855.792	3180
855.926	3192
856.06	3207
856.194	3329
856.327	3188
856.461	3119
856.595	3119
856.729	3123
856.862	3249
856.996	3154
857.13	3268
857.263	3256
857.397	3275
857.53	3180
857.664	3237
857.797	3226
857.931	3294
858.064	3142
858.197	3203
858.331	3142
858.464	3116
858.597	3024
858.731	3131
858.864	3138
858.997	3081
859.13	3176
859.263	3218
859.396	3214
859.529	3116
859.662	3055
859.795	3055
859.928	3135
860.061	3325
860.194	3287
860.327	3138
860.46	3108
860.592	3279
860.725	3256
860.858	3275
860.99	3123
861.123	3070
861.256	3058
861.388	3154
861.521	3865
861.653	3051
861.786	3001
861.918	3005
862.05	3066
862.183	3131
862.315	3207
862.447	3192
862.58	3119
862.712	2975
862.844	2899
862.976	3028
863.108	3032
863.24	3351
863.372	2891
863.504	2990
863.636	2952
863.768	3055
863.9	3005
864.032	2937
864.164	2975
864.296	3032
864.428	3104
864.559	3116
864.691	3123
864.823	3047
864.954	3051
865.086	3066
865.217	3039
865.349	2971
865.48	3020
865.612	3039
865.743	3154
865.875	3036
866.006	2963
866.137	2998
866.269	2994
866.4	2956
866.531	2937
866.662	2891
866.793	2914
866.924	2914
867.055	3005
867.186	2944
867.317	2902
867.448	2853
867.579	2880
867.71	2906
867.841	2857
867.972	2937
868.103	2937
868.233	2922
868.364	2937
868.495	2948
868.625	3108
868.756	3180
868.886	2982
869.017	3005
869.147	3154
869.278	3192
869.408	3066
869.539	2994
869.669	3100
869.799	3055
869.929	3146
870.06	3097
870.19	3363
870.32	3268
870.45	3298
870.58	3386
870.71	3454
870.84	3462
870.97	3298
871.1	3241
871.23	3488
871.36	3511
871.489	3389
871.619	3443
871.749	3466
871.879	3488
872.008	3481
872.138	3382
872.267	3302
872.397	3188
872.526	3127
872.656	2990
872.785	3100
872.915	3249
873.044	3351
873.173	3264
873.303	3275
873.432	3279
873.561	3237
873.69	3195
873.819	3154
873.948	3214
874.077	3089
874.206	3058
874.335	3108
874.464	3245
874.593	3340
874.722	3249
874.851	3435
874.979	3348
875.108	3340
875.237	3188
875.365	3150
875.494	3169
875.623	3237
875.751	3066
875.88	3131
876.008	3195
876.136	3291
876.265	3389
876.393	3542
876.521	3439
876.65	3435
876.778	3317
876.906	3245
877.034	3180
877.162	3256
877.29	3161
877.418	3253
877.546	3298
877.674	3253
877.802	3218
877.93	3233
878.058	3146
878.185	3104
878.313	3192
878.441	3211
878.568	3066
878.696	3188
878.824	3302
878.951	3298
879.079	3477
879.206	3667
879.333	3473
879.461	3382
879.588	3355
879.715	3462
879.842	3637
879.97	3386
880.097	3188
880.224	3161
880.351	3188
880.478	3241
880.605	3214
880.732	3211
880.859	3485
880.986	3321
881.112	3325
881.239	3218
881.366	3123
881.493	3051
881.619	3020
881.746	3116
881.872	3093
881.999	3112
882.125	3157
882.252	3298
882.378	3245
882.505	3447
882.631	3321
882.757	3135
882.883	3241
883.01	3260
883.136	3150
883.262	3104
883.388	3157
883.514	3321
883.64	3389
883.766	3325
883.892	3184
884.018	3264
884.143	3401
884.269	3519
884.395	3192
884.52	3146
884.646	3180
884.772	3127
884.897	3085
885.023	3214
885.148	3351
885.274	3382
885.399	3367
885.524	3256
885.65	3268
885.775	3348
885.9	3264
886.025	3409
886.15	3405
886.275	3294
886.4	3253
886.525	3306
886.65	3275
886.775	3294
886.9	3481
887.025	3648
887.149	3420
887.274	3264
887.399	3184
887.523	3195
887.648	3207
887.773	3245
887.897	3386
888.021	3405
888.146	3275
888.27	3439
888.395	3511
888.519	3466
888.643	3431
888.767	3485
888.891	3336
889.015	3230
889.139	3306
889.263	3275
889.387	3389
889.511	3534
889.635	3416
889.759	3332
889.883	3298
890.006	3378
890.13	3473
890.254	3294
890.377	3325
890.501	3214
890.624	3180
890.748	3336
890.871	3218
890.995	3100
891.118	3051
891.241	3253
891.364	3241
891.488	3340
891.611	3180
891.734	3241
891.857	3253
891.98	3272
892.103	3355
892.226	3279
892.349	3211
892.471	3085
892.594	3249
892.717	3310
892.839	3260
892.962	3275
893.085	3340
893.207	3306
893.33	3157
893.452	3249
893.575	3313
893.697	3264
893.819	3492
893.941	3511
894.064	3462
894.186	3287
894.308	3268
894.43	3431
894.552	3511
894.674	3469
894.796	3272
894.918	3298
895.04	3306
895.161	3416
895.283	3367
895.405	3306
895.526	3351
895.648	3447
895.769	3435
895.891	3450
896.012	3504
896.134	3492
896.255	3416
896.376	3336
896.498	3325
896.619	3435
896.74	3367
896.861	3424
896.982	3675
897.103	3854
897.224	3614
897.345	3538
897.466	3435
897.587	3507
897.708	3629
897.828	3561
897.949	3477
898.07	3344
898.19	3416
898.311	3625
898.431	3397
898.552	3545
898.672	3610
898.792	3564
898.913	3534
899.033	3409
899.153	3275
899.273	3218
899.393	3272
899.513	3340
899.633	3336
899.753	3329
899.873	3332
899.993	3363
900.113	3367
900.232	3416
900.352	3291
900.472	3310
900.591	3218
900.711	3298
900.83	3241
900.95	3409
901.069	3473
901.189	3363
901.308	3180
901.427	3116
901.546	3199
901.665	3310
901.784	3329
901.904	3203
902.023	3157
902.141	3005
902.26	3009
902.379	3150
902.498	3074
902.617	3097
902.735	3226
902.854	3226
902.973	3207
903.091	3043
903.21	3077
903.328	3146
903.446	3062
903.565	3085
903.683	3195
903.801	3119
903.919	3272
904.038	3310
904.156	3169
904.274	3310
904.392	3268
904.51	3260
904.627	3317
904.745	3435
904.863	3466
904.981	3256
905.098	3176
905.216	3222
905.334	3298
905.451	3298
905.569	3287
905.686	3420
905.803	3447
905.921	3275
906.038	3420
906.155	3370
906.272	3260
906.389	3332
906.506	3192
906.623	3291
906.74	3249
906.857	3157
906.974	3211
907.091	3481
907.208	3538
907.324	3473
907.441	3412
907.557	3268
907.674	3226
907.79	3226
907.907	3283
908.023	3363
908.139	3428
908.256	3348
908.372	3367
908.488	3325
908.604	3241
908.72	3230
908.836	3302
908.952	3325
909.068	3310
909.184	3466
909.3	3397
909.415	3488
909.531	3477
909.647	3256
909.762	3313
909.878	3249
909.993	3359
910.108	3329
910.224	3378
910.339	3389
910.454	3355
910.57	3302
910.685	3260
910.8	3610
910.915	3530
911.03	3367
911.145	3264
911.259	3241
911.374	3317
911.489	3218
911.604	3218
911.718	3112
911.833	3142
911.947	3055
912.062	3001
912.176	3154
912.291	3199
912.405	3222
912.519	3447
912.633	3450
912.748	3332
912.862	3253
912.976	3195
913.09	3089
913.204	3150
913.318	3192
913.431	3317
913.545	3336
913.659	3420
913.772	3321
913.886	3203
914	3188
914.113	3359
914.226	3412
914.34	3382
914.453	3218
914.566	3374
914.68	3272
914.793	3310
914.906	3173
915.019	3108
915.132	3066
915.245	3176
915.358	3188
915.47	3214
915.583	3264
915.696	3279
915.809	3412
915.921	3409
916.034	3230
916.146	3237
916.259	3249
916.371	3370
916.483	3378
916.595	3279
916.708	3336
916.82	3294
916.932	3374
917.044	3348
917.156	3310
917.268	3287
917.38	3294
917.491	3287
917.603	3370
917.715	3462
917.826	3473
917.938	3401
918.049	3283
918.161	3439
918.272	3572
918.384	3572
918.495	3496
918.606	3340
918.717	3264
918.828	3389
918.939	3389
919.05	3294
919.161	3344
919.272	3165
919.383	3279
919.494	3477
919.604	3663
919.715	3439
919.826	3439
919.936	3462
920.047	3606
920.157	3568
920.267	3755
920.378	3580
920.488	3557
920.598	3743
920.708	3934
920.818	3800
920.928	3842
921.038	4051
921.148	3949
921.258	3705
921.368	3625
921.477	3591
921.587	3526
921.697	3420
921.806	3644
921.916	3542
922.025	3370
922.134	3367
922.244	3325
922.353	3409
922.462	3253
922.571	3245
922.68	3131
922.789	3089
922.898	3142
923.007	3116
923.116	3237
923.224	3192
923.333	3188
923.442	3089
923.55	3077
923.659	3150
923.767	3188
923.876	3119
923.984	3226
924.092	3074
924.201	3207
924.309	3218
924.417	3275
924.525	3188
924.633	3230
924.741	4181
924.849	3020
924.956	3253
925.064	3104
925.172	3055
925.279	3108
925.387	3165
925.494	3192
925.602	3348
925.709	3367
925.816	3165
925.924	3245
926.031	3370
926.138	3344
926.245	3367
926.352	3253
926.459	3382
926.566	3485
926.673	3283
926.779	3233
926.886	3222
926.993	3154
927.099	3157
927.206	3081
927.312	3100
927.419	3203
927.525	3203
927.631	3302
927.737	3135
927.843	3108
927.95	3009
928.056	3154
928.162	3176
928.267	3245
928.373	3873
928.479	3321
928.585	3070
928.69	3188
928.796	3279
928.901	3135
929.007	3039
929.112	3180
929.218	3150
929.323	3173
929.428	3180
929.533	3321
929.638	3066
929.743	3165
929.848	3287
929.953	3188
930.058	3131
930.163	2922
930.267	3055
930.372	3222
930.477	3047
930.581	3294
930.685	3165
930.79	3070
930.894	3097
930.998	3085
931.103	3291
931.207	2937
931.311	2948
931.415	2922
931.519	2804
931.623	2826
