Data from test_V78500241_1764.txt Node
Date: Fri Mar 25 16:27:25 CST 2022
User: usil
Spectrometer: V785-0024
Trigger mode: 0
Integration Time (sec): 4.000000E-1
Scans to average: 1
Nonlinearity correction enabled: false
Boxcar width: 0
Storing dark spectrum: false
XAxis mode: Wavelengths
Number of Pixels in Spectrum: 1024
>>>>>Begin Spectral Data<<<<<
801.071	2910
801.214	2979
801.356	2902
801.499	2910
801.641	2864
801.783	2937
801.926	3089
802.068	2979
802.211	3005
802.353	3077
802.496	2986
802.638	3039
802.78	3055
802.923	3055
803.065	2986
803.208	2925
803.35	2918
803.492	2948
803.635	2906
803.777	2781
803.919	2849
804.061	3195
804.204	2941
804.346	2910
804.488	2826
804.63	3005
804.773	2918
804.915	2902
805.057	3081
805.199	2918
805.341	2952
805.483	3047
805.626	3005
805.768	2986
805.91	3119
806.052	3142
806.194	3017
806.336	3226
806.478	3001
806.62	2952
806.762	2986
806.904	3058
807.046	3146
807.188	2956
807.33	2918
807.472	2956
807.614	2922
807.756	2979
807.898	2933
808.04	2857
808.182	2967
808.324	2960
808.465	2845
808.607	2861
808.749	2804
808.891	2861
809.033	2960
809.174	3009
809.316	2906
809.458	2925
809.6	2781
809.741	2826
809.883	2785
810.025	2853
810.166	2826
810.308	2868
810.45	2838
810.591	2777
810.733	2762
810.875	2845
811.016	2785
811.158	2781
811.299	2838
811.441	2914
811.582	2880
811.724	2819
811.865	2838
812.007	2922
812.148	2876
812.29	2861
812.431	2895
812.573	2952
812.714	2918
812.855	3051
812.997	3043
813.138	3100
813.279	3009
813.421	2994
813.562	2986
813.703	2857
813.845	2876
813.986	2754
814.127	2739
814.268	2811
814.41	2853
814.551	2796
814.692	2864
814.833	2826
814.974	2857
815.115	2967
815.256	2838
815.397	2792
815.539	2819
815.68	2762
815.821	2792
815.962	2914
816.103	2906
816.244	2891
816.385	2845
816.526	2982
816.666	2891
816.807	2758
816.948	2868
817.089	2902
817.23	2830
817.371	2804
817.512	2815
817.653	2830
817.793	2826
817.934	2887
818.075	2975
818.216	3009
818.356	3017
818.497	2876
818.638	2785
818.778	2792
818.919	2788
819.06	2777
819.2	2887
819.341	2796
819.481	2792
819.622	2899
819.762	3077
819.903	3039
820.043	2925
820.184	2922
820.324	2887
820.465	3013
820.605	3005
820.746	3043
820.886	2914
821.026	3070
821.167	3161
821.307	3268
821.447	3279
821.588	3253
821.728	3188
821.868	3211
822.008	3062
822.149	3150
822.289	3230
822.429	3081
822.569	3081
822.709	3203
822.849	3055
822.99	3089
823.13	3173
823.27	3214
823.41	3108
823.55	3161
823.69	3157
823.83	3207
823.97	3116
824.11	3005
824.25	3047
824.389	3097
824.529	3150
824.669	3093
824.809	3226
824.949	3272
825.089	3249
825.228	3195
825.368	3024
825.508	2975
825.648	2982
825.787	3017
825.927	3070
826.067	3017
826.206	3005
826.346	3112
826.485	3161
826.625	3116
826.765	3283
826.904	3218
827.044	3028
827.183	2948
827.323	2887
827.462	3005
827.601	2952
827.741	2967
827.88	3032
828.02	2880
828.159	3017
828.298	3032
828.437	3180
828.577	3104
828.716	3268
828.855	3123
828.994	2933
829.134	2929
829.273	2975
829.412	2918
829.551	2922
829.69	2910
829.829	3036
829.968	3176
830.107	3062
830.246	3032
830.385	2990
830.524	2944
830.663	2857
830.802	2766
830.941	2712
831.08	2663
831.219	2800
831.357	2777
831.496	3001
831.635	2773
831.774	2667
831.913	2735
832.051	2571
832.19	2617
832.329	2746
832.467	2560
832.606	2530
832.744	2579
832.883	2575
833.022	2625
833.16	2682
833.299	2712
833.437	2724
833.576	2746
833.714	2750
833.852	2746
833.991	2781
834.129	2849
834.267	2861
834.406	2857
834.544	2902
834.682	2929
834.821	2887
834.959	3085
835.097	2925
835.235	3100
835.373	3013
835.511	3032
835.65	2975
835.788	2967
835.926	2838
836.064	2834
836.202	2853
836.34	3100
836.478	3161
836.615	3074
836.753	3146
836.891	3233
837.029	3165
837.167	3123
837.305	3108
837.443	3058
837.58	2990
837.718	3161
837.856	3070
837.993	3085
838.131	3161
838.269	3154
838.406	3135
838.544	3100
838.681	2922
838.819	2975
838.956	2826
839.094	2868
839.231	2952
839.369	3043
839.506	3393
839.643	3253
839.781	3070
839.918	2994
840.055	3058
840.193	3043
840.33	3119
840.467	3127
840.604	3165
840.742	3435
840.879	3108
841.016	3074
841.153	3150
841.29	3355
841.427	3321
841.564	3317
841.701	3367
841.838	3268
841.975	3207
842.112	3256
842.249	3085
842.385	3089
842.522	3272
842.659	3081
842.796	3081
842.933	3131
843.069	3074
843.206	3150
843.343	3161
843.479	3131
843.616	3195
843.752	2922
843.889	2902
844.025	3123
844.162	2899
844.298	3108
844.435	2971
844.571	2952
844.708	3070
844.844	3230
844.98	3268
845.117	3203
845.253	3100
845.389	2982
845.525	3138
845.661	3085
845.798	3051
845.934	3169
846.07	3081
846.206	3260
846.342	3317
846.478	3249
846.614	3135
846.75	3070
846.886	3051
847.022	3268
847.158	3138
847.294	3226
847.429	3260
847.565	3233
847.701	3507
847.837	3077
847.972	3051
848.108	3211
848.244	3142
848.379	3009
848.515	2982
848.65	2986
848.786	3001
848.921	3070
849.057	3150
849.192	3180
849.328	3100
849.463	3112
849.598	3058
849.734	3055
849.869	2994
850.004	2967
850.14	3005
850.275	2948
850.41	2868
850.545	2918
850.68	2937
850.815	2982
850.95	3009
851.085	3222
851.22	3112
851.355	3055
851.49	3032
851.625	3036
851.76	3043
851.895	2963
852.03	2922
852.165	3070
852.299	3146
852.434	3207
852.569	3161
852.703	3199
852.838	3256
852.973	3367
853.107	3329
853.242	3173
853.376	3104
853.511	2994
853.645	3062
853.78	3275
853.914	3135
854.048	3138
854.183	3108
854.317	3157
854.451	3302
854.585	3157
854.72	3104
854.854	3203
854.988	3032
855.122	3104
855.256	3001
855.39	3146
855.524	3230
855.658	3211
855.792	3154
855.926	3222
856.06	3211
856.194	3253
856.327	3199
856.461	3097
856.595	3070
856.729	3154
856.862	3233
856.996	3207
857.13	3203
857.263	3237
857.397	3279
857.53	3108
857.664	3214
857.797	3211
857.931	3287
858.064	3184
858.197	3176
858.331	3138
858.464	3093
858.597	3043
858.731	3142
858.864	3180
858.997	3112
859.13	3214
859.263	3195
859.396	3253
859.529	3100
859.662	3093
859.795	3039
859.928	3169
860.061	3272
860.194	3283
860.327	3146
860.46	3077
860.592	3294
860.725	3211
860.858	3279
860.99	3161
861.123	3085
861.256	3077
861.388	3211
861.521	3892
861.653	3055
861.786	2990
861.918	3017
862.05	3074
862.183	3108
862.315	3195
862.447	3222
862.58	3108
862.712	2937
862.844	2895
862.976	3020
863.108	3036
863.24	3298
863.372	2880
863.504	2986
863.636	2952
863.768	3058
863.9	2971
864.032	2918
864.164	2952
864.296	3058
864.428	3100
864.559	3127
864.691	3119
864.823	3047
864.954	3058
865.086	3051
865.217	3009
865.349	2941
865.48	2982
865.612	3051
865.743	3154
865.875	3017
866.006	2933
866.137	3013
866.269	2967
866.4	2944
866.531	2929
866.662	2864
866.793	2925
866.924	2906
867.055	2990
867.186	2941
867.317	2891
867.448	2899
867.579	2845
867.71	2864
867.841	2845
867.972	2941
868.103	2918
868.233	2902
868.364	2880
868.495	2922
868.625	3100
868.756	3188
868.886	2998
869.017	3039
869.147	3157
869.278	3184
869.408	3039
869.539	3013
869.669	3100
869.799	3028
869.929	3184
870.06	3097
870.19	3363
870.32	3275
870.45	3351
870.58	3359
870.71	3458
870.84	3447
870.97	3287
871.1	3222
871.23	3450
871.36	3496
871.489	3359
871.619	3397
871.749	3439
871.879	3450
872.008	3507
872.138	3374
872.267	3268
872.397	3154
872.526	3119
872.656	3028
872.785	3119
872.915	3253
873.044	3367
873.173	3245
873.303	3294
873.432	3272
873.561	3268
873.69	3157
873.819	3169
873.948	3173
874.077	3135
874.206	3055
874.335	3104
874.464	3207
874.593	3351
874.722	3294
874.851	3386
874.979	3382
875.108	3298
875.237	3230
875.365	3169
875.494	3207
875.623	3279
875.751	3077
875.88	3123
876.008	3176
876.136	3222
876.265	3405
876.393	3526
876.521	3447
876.65	3416
876.778	3382
876.906	3302
877.034	3180
877.162	3192
877.29	3230
877.418	3272
877.546	3230
877.674	3253
877.802	3245
877.93	3211
878.058	3154
878.185	3127
878.313	3176
878.441	3249
878.568	3108
878.696	3150
878.824	3253
878.951	3313
879.079	3469
879.206	3637
879.333	3488
879.461	3363
879.588	3382
879.715	3450
879.842	3622
879.97	3409
880.097	3176
880.224	3135
880.351	3199
880.478	3203
880.605	3230
880.732	3169
880.859	3500
880.986	3325
881.112	3325
881.239	3199
881.366	3112
881.493	3058
881.619	3032
881.746	3058
881.872	3097
881.999	3108
882.125	3192
882.252	3241
882.378	3313
882.505	3435
882.631	3237
882.757	3138
882.883	3253
883.01	3237
883.136	3157
883.262	3127
883.388	3123
883.514	3313
883.64	3351
883.766	3313
883.892	3207
884.018	3272
884.143	3435
884.269	3542
884.395	3214
884.52	3180
884.646	3150
884.772	3138
884.897	3161
885.023	3214
885.148	3348
885.274	3401
885.399	3374
885.524	3313
885.65	3291
885.775	3348
885.9	3275
886.025	3420
886.15	3374
886.275	3321
886.4	3207
886.525	3317
886.65	3310
886.775	3298
886.9	3469
887.025	3675
887.149	3397
887.274	3294
887.399	3211
887.523	3207
887.648	3176
887.773	3173
887.897	3351
888.021	3397
888.146	3275
888.27	3420
888.395	3545
888.519	3439
888.643	3420
888.767	3466
888.891	3306
889.015	3264
889.139	3268
889.263	3321
889.387	3397
889.511	3488
889.635	3435
889.759	3287
889.883	3287
890.006	3401
890.13	3492
890.254	3332
890.377	3348
890.501	3188
890.624	3230
890.748	3294
890.871	3176
890.995	3142
891.118	3066
891.241	3218
891.364	3245
891.488	3332
891.611	3173
891.734	3230
891.857	3298
891.98	3199
892.103	3378
892.226	3272
892.349	3188
892.471	3135
892.594	3222
892.717	3294
892.839	3272
892.962	3287
893.085	3370
893.207	3294
893.33	3165
893.452	3188
893.575	3332
893.697	3237
893.819	3481
893.941	3523
894.064	3466
894.186	3287
894.308	3291
894.43	3485
894.552	3492
894.674	3469
894.796	3272
894.918	3302
895.04	3241
895.161	3439
895.283	3431
895.405	3287
895.526	3355
895.648	3454
895.769	3378
895.891	3504
896.012	3469
896.134	3485
896.255	3428
896.376	3351
896.498	3401
896.619	3477
896.74	3363
896.861	3348
896.982	3747
897.103	3850
897.224	3644
897.345	3561
897.466	3428
897.587	3511
897.708	3667
897.828	3519
897.949	3435
898.07	3359
898.19	3405
898.311	3614
898.431	3435
898.552	3485
898.672	3599
898.792	3584
898.913	3549
899.033	3416
899.153	3313
899.273	3214
899.393	3249
899.513	3298
899.633	3351
899.753	3302
899.873	3302
899.993	3367
900.113	3310
900.232	3420
900.352	3382
900.472	3275
900.591	3218
900.711	3336
900.83	3237
900.95	3469
901.069	3519
901.189	3378
901.308	3180
901.427	3157
901.546	3180
901.665	3260
901.784	3317
901.904	3245
902.023	3150
902.141	3039
902.26	3005
902.379	3173
902.498	3089
902.617	3032
902.735	3207
902.854	3195
902.973	3184
903.091	3058
903.21	3047
903.328	3154
903.446	3097
903.565	3085
903.683	3192
903.801	3135
903.919	3218
904.038	3268
904.156	3165
904.274	3351
904.392	3249
904.51	3298
904.627	3329
904.745	3466
904.863	3469
904.981	3283
905.098	3169
905.216	3222
905.334	3291
905.451	3279
905.569	3332
905.686	3428
905.803	3443
905.921	3275
906.038	3431
906.155	3325
906.272	3260
906.389	3321
906.506	3256
906.623	3279
906.74	3264
906.857	3226
906.974	3245
907.091	3454
907.208	3595
907.324	3473
907.441	3386
907.557	3260
907.674	3222
907.79	3184
907.907	3294
908.023	3367
908.139	3355
908.256	3351
908.372	3332
908.488	3340
908.604	3256
908.72	3230
908.836	3332
908.952	3283
909.068	3325
909.184	3515
909.3	3382
909.415	3477
909.531	3466
909.647	3272
909.762	3272
909.878	3283
909.993	3348
910.108	3298
910.224	3359
910.339	3420
910.454	3310
910.57	3302
910.685	3253
910.8	3599
910.915	3568
911.03	3431
911.145	3279
911.259	3268
911.374	3272
911.489	3253
911.604	3199
911.718	3157
911.833	3150
911.947	3036
912.062	2990
912.176	3157
912.291	3195
912.405	3176
912.519	3428
912.633	3473
912.748	3321
912.862	3298
912.976	3211
913.09	3066
913.204	3123
913.318	3203
913.431	3313
913.545	3325
913.659	3370
913.772	3310
913.886	3192
914	3203
914.113	3344
914.226	3401
914.34	3378
914.453	3218
914.566	3397
914.68	3298
914.793	3306
914.906	3146
915.019	3108
915.132	3070
915.245	3195
915.358	3207
915.47	3195
915.583	3279
915.696	3291
915.809	3447
915.921	3428
916.034	3249
916.146	3268
916.259	3241
916.371	3424
916.483	3317
916.595	3294
916.708	3336
916.82	3344
916.932	3363
917.044	3359
917.156	3340
917.268	3226
917.38	3272
917.491	3287
917.603	3351
917.715	3439
917.826	3462
917.938	3367
918.049	3264
918.161	3405
918.272	3557
918.384	3530
918.495	3534
918.606	3344
918.717	3283
918.828	3378
918.939	3397
919.05	3302
919.161	3367
919.272	3230
919.383	3253
919.494	3507
919.604	3694
919.715	3507
919.826	3401
919.936	3412
920.047	3591
920.157	3564
920.267	3778
920.378	3599
920.488	3572
920.598	3793
920.708	3930
920.818	3812
920.928	3797
921.038	4051
921.148	3991
921.258	3728
921.368	3641
921.477	3622
921.587	3561
921.697	3473
921.806	3637
921.916	3519
922.025	3355
922.134	3351
922.244	3325
922.353	3435
922.462	3260
922.571	3214
922.68	3085
922.789	3058
922.898	3123
923.007	3108
923.116	3218
923.224	3176
923.333	3161
923.442	3104
923.55	3077
923.659	3142
923.767	3211
923.876	3100
923.984	3230
924.092	3097
924.201	3203
924.309	3218
924.417	3237
924.525	3203
924.633	3287
924.741	4025
924.849	3077
924.956	3332
925.064	3081
925.172	3043
925.279	3108
925.387	3192
925.494	3188
925.602	3306
925.709	3325
925.816	3184
925.924	3279
926.031	3370
926.138	3317
926.245	3409
926.352	3268
926.459	3374
926.566	3435
926.673	3302
926.779	3222
926.886	3218
926.993	3127
927.099	3104
927.206	3104
927.312	3081
927.419	3203
927.525	3207
927.631	3268
927.737	3123
927.843	3112
927.95	3032
928.056	3146
928.162	3188
928.267	3222
928.373	3842
928.479	3291
928.585	3070
928.69	3207
928.796	3298
928.901	3161
929.007	3047
929.112	3207
929.218	3192
929.323	3184
929.428	3112
929.533	3283
929.638	3104
929.743	3165
929.848	3264
929.953	3211
930.058	3108
930.163	3009
930.267	3039
930.372	3184
930.477	3032
930.581	3348
930.685	3195
930.79	3062
930.894	3112
930.998	3116
931.103	3272
931.207	2937
931.311	2979
931.415	2948
931.519	2781
931.623	2792
