Data from test_V78500241_1656.txt Node
Date: Fri Mar 25 16:26:40 CST 2022
User: usil
Spectrometer: V785-0024
Trigger mode: 0
Integration Time (sec): 4.000000E-1
Scans to average: 1
Nonlinearity correction enabled: false
Boxcar width: 0
Storing dark spectrum: false
XAxis mode: Wavelengths
Number of Pixels in Spectrum: 1024
>>>>>Begin Spectral Data<<<<<
801.071	2933
801.214	2975
801.356	2910
801.499	2933
801.641	2899
801.783	2967
801.926	3062
802.068	3039
802.211	2986
802.353	3062
802.496	2963
802.638	3013
802.78	3058
802.923	3074
803.065	3028
803.208	2922
803.35	2933
803.492	2979
803.635	2960
803.777	2785
803.919	2857
804.061	3249
804.204	2971
804.346	2952
804.488	2830
804.63	3020
804.773	2864
804.915	2960
805.057	3123
805.199	2979
805.341	2982
805.483	3024
805.626	3001
805.768	2979
805.91	3097
806.052	3142
806.194	3043
806.336	3226
806.478	3009
806.62	2937
806.762	3009
806.904	3100
807.046	3169
807.188	2960
807.33	2944
807.472	3001
807.614	2906
807.756	3028
807.898	2944
808.04	2906
808.182	3017
808.324	2948
808.465	2899
808.607	2902
808.749	2815
808.891	2906
809.033	2982
809.174	3009
809.316	2902
809.458	2922
809.6	2788
809.741	2811
809.883	2773
810.025	2876
810.166	2826
810.308	2861
810.45	2887
810.591	2819
810.733	2811
810.875	2864
811.016	2788
811.158	2788
811.299	2864
811.441	2956
811.582	2918
811.724	2861
811.865	2861
812.007	2902
812.148	2914
812.29	2857
812.431	2914
812.573	2914
812.714	2998
812.855	3085
812.997	3100
813.138	3154
813.279	3020
813.421	3005
813.562	2998
813.703	2891
813.845	2918
813.986	2781
814.127	2754
814.268	2853
814.41	2853
814.551	2838
814.692	2899
814.833	2834
814.974	2876
815.115	2963
815.256	2811
815.397	2842
815.539	2910
815.68	2781
815.821	2826
815.962	2994
816.103	2971
816.244	2899
816.385	2872
816.526	2998
816.666	2929
816.807	2758
816.948	2899
817.089	2925
817.23	2880
817.371	2777
817.512	2823
817.653	2876
817.793	2838
817.934	2899
818.075	2967
818.216	3001
818.356	3024
818.497	2918
818.638	2773
818.778	2804
818.919	2796
819.06	2750
819.2	2891
819.341	2845
819.481	2826
819.622	2933
819.762	3097
819.903	3062
820.043	2952
820.184	2887
820.324	2944
820.465	2994
820.605	2990
820.746	3028
820.886	2982
821.026	3119
821.167	3154
821.307	3294
821.447	3279
821.588	3260
821.728	3214
821.868	3188
822.008	3066
822.149	3230
822.289	3241
822.429	3116
822.569	3112
822.709	3249
822.849	3017
822.99	3100
823.13	3142
823.27	3211
823.41	3116
823.55	3131
823.69	3142
823.83	3169
823.97	3089
824.11	2967
824.25	3024
824.389	3119
824.529	3097
824.669	3112
824.809	3203
824.949	3294
825.089	3245
825.228	3169
825.368	3009
825.508	3001
825.648	2975
825.787	3062
825.927	3028
826.067	2967
826.206	3013
826.346	3032
826.485	3051
826.625	3150
826.765	3272
826.904	3237
827.044	2967
827.183	2971
827.323	2861
827.462	2982
827.601	2933
827.741	2963
827.88	2982
828.02	2880
828.159	2944
828.298	3085
828.437	3135
828.577	3039
828.716	3184
828.855	3085
828.994	2929
829.134	2868
829.273	2902
829.412	2899
829.551	2861
829.69	2906
829.829	3005
829.968	3112
830.107	3009
830.246	3013
830.385	2910
830.524	2887
830.663	2830
830.802	2769
830.941	2636
831.08	2678
831.219	2807
831.357	2758
831.496	2967
831.635	2766
831.774	2663
831.913	2655
832.051	2549
832.19	2606
832.329	2697
832.467	2545
832.606	2488
832.744	2590
832.883	2632
833.022	2579
833.16	2644
833.299	2701
833.437	2720
833.576	2720
833.714	2735
833.852	2739
833.991	2766
834.129	2849
834.267	2838
834.406	2800
834.544	2868
834.682	2899
834.821	2864
834.959	3028
835.097	2895
835.235	3081
835.373	3043
835.511	3009
835.65	2948
835.788	2979
835.926	2845
836.064	2845
836.202	2845
836.34	3100
836.478	3165
836.615	3070
836.753	3157
836.891	3214
837.029	3180
837.167	3138
837.305	3047
837.443	2994
837.58	2956
837.718	3093
837.856	3085
837.993	2994
838.131	3116
838.269	3100
838.406	3089
838.544	3062
838.681	2967
838.819	2922
838.956	2804
839.094	2853
839.231	2937
839.369	3001
839.506	3393
839.643	3207
839.781	3017
839.918	2937
840.055	3081
840.193	3043
840.33	3070
840.467	3127
840.604	3150
840.742	3409
840.879	3066
841.016	3047
841.153	3100
841.29	3329
841.427	3279
841.564	3272
841.701	3306
841.838	3233
841.975	3218
842.112	3195
842.249	3058
842.385	3070
842.522	3275
842.659	3077
842.796	3066
842.933	3089
843.069	3043
843.206	3013
843.343	3142
843.479	3100
843.616	3138
843.752	2922
843.889	2895
844.025	3089
844.162	2899
844.298	3070
844.435	2948
844.571	2944
844.708	3070
844.844	3161
844.98	3268
845.117	3199
845.253	3062
845.389	2994
845.525	3089
845.661	3077
845.798	2982
845.934	3135
846.07	3062
846.206	3199
846.342	3306
846.478	3237
846.614	3100
846.75	3028
846.886	3055
847.022	3218
847.158	3154
847.294	3203
847.429	3253
847.565	3226
847.701	3511
847.837	3047
847.972	3017
848.108	3154
848.244	3157
848.379	2994
848.515	2944
848.65	2918
848.786	3017
848.921	3001
849.057	3112
849.192	3154
849.328	3081
849.463	3116
849.598	3085
849.734	3055
849.869	3001
850.004	2963
850.14	2975
850.275	2933
850.41	2876
850.545	2906
850.68	2948
850.815	2975
850.95	2979
851.085	3226
851.22	3138
851.355	3074
851.49	2986
851.625	3051
851.76	3062
851.895	2975
852.03	2944
852.165	3100
852.299	3154
852.434	3195
852.569	3176
852.703	3195
852.838	3275
852.973	3351
853.107	3317
853.242	3188
853.376	3119
853.511	3005
853.645	3081
853.78	3253
853.914	3131
854.048	3161
854.183	3119
854.317	3169
854.451	3363
854.585	3131
854.72	3154
854.854	3249
854.988	3100
855.122	3116
855.256	2998
855.39	3157
855.524	3310
855.658	3237
855.792	3161
855.926	3253
856.06	3264
856.194	3302
856.327	3192
856.461	3116
856.595	3089
856.729	3142
856.862	3195
856.996	3184
857.13	3233
857.263	3313
857.397	3298
857.53	3165
857.664	3241
857.797	3268
857.931	3275
858.064	3199
858.197	3275
858.331	3199
858.464	3123
858.597	3047
858.731	3127
858.864	3188
858.997	3085
859.13	3165
859.263	3230
859.396	3237
859.529	3112
859.662	3119
859.795	3097
859.928	3211
860.061	3291
860.194	3313
860.327	3161
860.46	3142
860.592	3313
860.725	3268
860.858	3302
860.99	3146
861.123	3093
861.256	3081
861.388	3192
861.521	3926
861.653	3070
861.786	3013
861.918	3051
862.05	3119
862.183	3112
862.315	3207
862.447	3230
862.58	3104
862.712	2963
862.844	2914
862.976	3066
863.108	3039
863.24	3450
863.372	2910
863.504	3028
863.636	3005
863.768	3081
863.9	3032
864.032	2937
864.164	2998
864.296	3062
864.428	3108
864.559	3135
864.691	3055
864.823	3089
864.954	3051
865.086	3077
865.217	3020
865.349	3024
865.48	2986
865.612	3043
865.743	3195
865.875	3039
866.006	2979
866.137	2990
866.269	2971
866.4	3001
866.531	2960
866.662	2948
866.793	2944
866.924	2922
867.055	2994
867.186	2922
867.317	2918
867.448	2887
867.579	2887
867.71	2895
867.841	2845
867.972	2937
868.103	2899
868.233	2918
868.364	2906
868.495	2922
868.625	3131
868.756	3226
868.886	2975
869.017	3028
869.147	3184
869.278	3211
869.408	3085
869.539	3104
869.669	3142
869.799	3085
869.929	3142
870.06	3119
870.19	3374
870.32	3313
870.45	3344
870.58	3386
870.71	3473
870.84	3454
870.97	3302
871.1	3275
871.23	3542
871.36	3477
871.489	3374
871.619	3439
871.749	3443
871.879	3469
872.008	3488
872.138	3386
872.267	3329
872.397	3184
872.526	3135
872.656	3077
872.785	3123
872.915	3310
873.044	3389
873.173	3264
873.303	3256
873.432	3294
873.561	3272
873.69	3211
873.819	3138
873.948	3226
874.077	3131
874.206	3074
874.335	3127
874.464	3291
874.593	3351
874.722	3283
874.851	3443
874.979	3420
875.108	3351
875.237	3218
875.365	3203
875.494	3199
875.623	3283
875.751	3108
875.88	3138
876.008	3226
876.136	3268
876.265	3416
876.393	3534
876.521	3431
876.65	3424
876.778	3363
876.906	3272
877.034	3192
877.162	3272
877.29	3203
877.418	3302
877.546	3275
877.674	3264
877.802	3233
877.93	3249
878.058	3176
878.185	3131
878.313	3222
878.441	3245
878.568	3127
878.696	3199
878.824	3298
878.951	3351
879.079	3477
879.206	3656
879.333	3462
879.461	3367
879.588	3382
879.715	3515
879.842	3584
879.97	3405
880.097	3222
880.224	3176
880.351	3203
880.478	3237
880.605	3211
880.732	3233
880.859	3523
880.986	3313
881.112	3325
881.239	3230
881.366	3112
881.493	3085
881.619	3047
881.746	3100
881.872	3123
881.999	3135
882.125	3169
882.252	3283
882.378	3336
882.505	3450
882.631	3332
882.757	3184
882.883	3226
883.01	3241
883.136	3157
883.262	3116
883.388	3165
883.514	3310
883.64	3363
883.766	3310
883.892	3195
884.018	3249
884.143	3412
884.269	3587
884.395	3272
884.52	3176
884.646	3173
884.772	3161
884.897	3108
885.023	3214
885.148	3344
885.274	3450
885.399	3439
885.524	3291
885.65	3291
885.775	3359
885.9	3279
886.025	3450
886.15	3397
886.275	3325
886.4	3253
886.525	3321
886.65	3268
886.775	3325
886.9	3507
887.025	3667
887.149	3447
887.274	3272
887.399	3192
887.523	3203
887.648	3195
887.773	3192
887.897	3393
888.021	3450
888.146	3279
888.27	3450
888.395	3542
888.519	3477
888.643	3515
888.767	3443
888.891	3355
889.015	3226
889.139	3306
889.263	3279
889.387	3450
889.511	3564
889.635	3504
889.759	3317
889.883	3317
890.006	3405
890.13	3496
890.254	3336
890.377	3355
890.501	3241
890.624	3233
890.748	3370
890.871	3188
890.995	3123
891.118	3093
891.241	3195
891.364	3176
891.488	3367
891.611	3165
891.734	3226
891.857	3351
891.98	3283
892.103	3382
892.226	3310
892.349	3218
892.471	3154
892.594	3272
892.717	3298
892.839	3310
892.962	3329
893.085	3344
893.207	3283
893.33	3173
893.452	3207
893.575	3348
893.697	3310
893.819	3473
893.941	3488
894.064	3458
894.186	3291
894.308	3321
894.43	3492
894.552	3553
894.674	3469
894.796	3332
894.918	3321
895.04	3306
895.161	3397
895.283	3409
895.405	3340
895.526	3389
895.648	3439
895.769	3420
895.891	3466
896.012	3534
896.134	3477
896.255	3428
896.376	3416
896.498	3370
896.619	3511
896.74	3393
896.861	3428
896.982	3743
897.103	3865
897.224	3599
897.345	3564
897.466	3450
897.587	3545
897.708	3641
897.828	3526
897.949	3435
898.07	3367
898.19	3431
898.311	3606
898.431	3439
898.552	3538
898.672	3591
898.792	3591
898.913	3557
899.033	3405
899.153	3294
899.273	3199
899.393	3310
899.513	3340
899.633	3355
899.753	3329
899.873	3336
899.993	3370
900.113	3332
900.232	3401
900.352	3370
900.472	3306
900.591	3214
900.711	3325
900.83	3272
900.95	3424
901.069	3485
901.189	3370
901.308	3195
901.427	3150
901.546	3195
901.665	3317
901.784	3374
901.904	3241
902.023	3154
902.141	3013
902.26	3020
902.379	3123
902.498	3116
902.617	3055
902.735	3192
902.854	3245
902.973	3207
903.091	3055
903.21	3028
903.328	3116
903.446	3127
903.565	3131
903.683	3165
903.801	3154
903.919	3272
904.038	3294
904.156	3169
904.274	3310
904.392	3272
904.51	3291
904.627	3370
904.745	3450
904.863	3523
904.981	3306
905.098	3218
905.216	3218
905.334	3310
905.451	3302
905.569	3329
905.686	3450
905.803	3477
905.921	3279
906.038	3424
906.155	3367
906.272	3279
906.389	3374
906.506	3207
906.623	3245
906.74	3294
906.857	3192
906.974	3298
907.091	3458
907.208	3553
907.324	3481
907.441	3401
907.557	3272
907.674	3245
907.79	3214
907.907	3291
908.023	3409
908.139	3370
908.256	3344
908.372	3397
908.488	3367
908.604	3283
908.72	3283
908.836	3317
908.952	3294
909.068	3363
909.184	3504
909.3	3386
909.415	3500
909.531	3500
909.647	3294
909.762	3306
909.878	3226
909.993	3374
910.108	3325
910.224	3351
910.339	3439
910.454	3340
910.57	3306
910.685	3237
910.8	3622
910.915	3561
911.03	3447
911.145	3306
911.259	3302
911.374	3329
911.489	3230
911.604	3283
911.718	3119
911.833	3203
911.947	3039
912.062	3005
912.176	3169
912.291	3218
912.405	3226
912.519	3447
912.633	3466
912.748	3355
912.862	3287
912.976	3180
913.09	3074
913.204	3195
913.318	3241
913.431	3302
913.545	3340
913.659	3397
913.772	3370
913.886	3272
914	3203
914.113	3382
914.226	3435
914.34	3401
914.453	3199
914.566	3416
914.68	3283
914.793	3332
914.906	3176
915.019	3119
915.132	3043
915.245	3218
915.358	3222
915.47	3184
915.583	3283
915.696	3306
915.809	3428
915.921	3466
916.034	3272
916.146	3264
916.259	3230
916.371	3386
916.483	3355
916.595	3310
916.708	3329
916.82	3374
916.932	3344
917.044	3340
917.156	3344
917.268	3233
917.38	3272
917.491	3321
917.603	3401
917.715	3428
917.826	3435
917.938	3374
918.049	3268
918.161	3454
918.272	3595
918.384	3606
918.495	3485
918.606	3351
918.717	3264
918.828	3355
918.939	3374
919.05	3321
919.161	3393
919.272	3180
919.383	3317
919.494	3504
919.604	3701
919.715	3473
919.826	3393
919.936	3477
920.047	3603
920.157	3576
920.267	3793
920.378	3606
920.488	3530
920.598	3812
920.708	3953
920.818	3831
920.928	3869
921.038	4010
921.148	3998
921.258	3690
921.368	3637
921.477	3603
921.587	3553
921.697	3473
921.806	3629
921.916	3545
922.025	3386
922.134	3401
922.244	3325
922.353	3412
922.462	3268
922.571	3203
922.68	3077
922.789	3081
922.898	3138
923.007	3097
923.116	3211
923.224	3184
923.333	3180
923.442	3127
923.55	3066
923.659	3150
923.767	3195
923.876	3157
923.984	3264
924.092	3119
924.201	3214
924.309	3241
924.417	3214
924.525	3180
924.633	3256
924.741	4230
924.849	3051
924.956	3272
925.064	3104
925.172	3070
925.279	3093
925.387	3218
925.494	3226
925.602	3382
925.709	3367
925.816	3207
925.924	3283
926.031	3363
926.138	3321
926.245	3336
926.352	3306
926.459	3382
926.566	3488
926.673	3329
926.779	3249
926.886	3237
926.993	3150
927.099	3123
927.206	3127
927.312	3142
927.419	3241
927.525	3207
927.631	3294
927.737	3154
927.843	3119
927.95	3051
928.056	3150
928.162	3195
928.267	3245
928.373	3778
928.479	3332
928.585	3081
928.69	3214
928.796	3237
928.901	3169
929.007	3047
929.112	3207
929.218	3161
929.323	3142
929.428	3157
929.533	3329
929.638	3123
929.743	3176
929.848	3249
929.953	3230
930.058	3135
930.163	2994
930.267	3043
930.372	3211
930.477	3055
930.581	3287
930.685	3161
930.79	3058
930.894	3108
930.998	3131
931.103	3272
931.207	2891
931.311	2948
931.415	2944
931.519	2838
931.623	2804
