Data from test_V78500241_468.txt Node
Date: Fri Mar 25 16:18:26 CST 2022
User: usil
Spectrometer: V785-0024
Trigger mode: 0
Integration Time (sec): 4.000000E-1
Scans to average: 1
Nonlinearity correction enabled: false
Boxcar width: 0
Storing dark spectrum: false
XAxis mode: Wavelengths
Number of Pixels in Spectrum: 1024
>>>>>Begin Spectral Data<<<<<
801.071	2887
801.214	2944
801.356	2845
801.499	2910
801.641	2849
801.783	2933
801.926	3032
802.068	2967
802.211	2986
802.353	3013
802.496	2944
802.638	3005
802.78	3028
802.923	3077
803.065	2963
803.208	2868
803.35	2857
803.492	2933
803.635	2922
803.777	2754
803.919	2845
804.061	3199
804.204	2937
804.346	2895
804.488	2815
804.63	2971
804.773	2853
804.915	2891
805.057	3081
805.199	2910
805.341	2929
805.483	2982
805.626	2986
805.768	2925
805.91	3058
806.052	3119
806.194	3013
806.336	3218
806.478	2994
806.62	2944
806.762	2963
806.904	3043
807.046	3154
807.188	2960
807.33	2910
807.472	2960
807.614	2868
807.756	2971
807.898	2929
808.04	2922
808.182	2956
808.324	2948
808.465	2861
808.607	2830
808.749	2769
808.891	2861
809.033	2967
809.174	2941
809.316	2906
809.458	2857
809.6	2743
809.741	2750
809.883	2746
810.025	2864
810.166	2819
810.308	2815
810.45	2830
810.591	2777
810.733	2762
810.875	2864
811.016	2769
811.158	2727
811.299	2800
811.441	2944
811.582	2868
811.724	2796
811.865	2864
812.007	2914
812.148	2845
812.29	2849
812.431	2876
812.573	2944
812.714	2922
812.855	3036
812.997	3081
813.138	3127
813.279	3028
813.421	2967
813.562	2941
813.703	2887
813.845	2918
813.986	2762
814.127	2716
814.268	2800
814.41	2800
814.551	2800
814.692	2864
814.833	2796
814.974	2883
815.115	2937
815.256	2834
815.397	2785
815.539	2845
815.68	2800
815.821	2766
815.962	2922
816.103	2902
816.244	2861
816.385	2868
816.526	2960
816.666	2929
816.807	2781
816.948	2902
817.089	2910
817.23	2838
817.371	2781
817.512	2781
817.653	2826
817.793	2842
817.934	2876
818.075	2971
818.216	2986
818.356	3005
818.497	2864
818.638	2788
818.778	2834
818.919	2777
819.06	2773
819.2	2853
819.341	2819
819.481	2792
819.622	2918
819.762	3066
819.903	3024
820.043	2929
820.184	2902
820.324	2864
820.465	2998
820.605	3039
820.746	3036
820.886	2956
821.026	3116
821.167	3192
821.307	3249
821.447	3268
821.588	3195
821.728	3188
821.868	3214
822.008	3070
822.149	3203
822.289	3211
822.429	3066
822.569	3066
822.709	3165
822.849	3043
822.99	3077
823.13	3142
823.27	3211
823.41	3100
823.55	3146
823.69	3146
823.83	3157
823.97	3131
824.11	3013
824.25	2960
824.389	3062
824.529	3104
824.669	3058
824.809	3192
824.949	3279
825.089	3199
825.228	3142
825.368	3024
825.508	2933
825.648	2960
825.787	3039
825.927	3005
826.067	2914
826.206	2929
826.346	3043
826.485	3081
826.625	3089
826.765	3230
826.904	3203
827.044	2998
827.183	2914
827.323	2861
827.462	2982
827.601	2895
827.741	2883
827.88	2982
828.02	2845
828.159	2982
828.298	3020
828.437	3070
828.577	3047
828.716	3207
828.855	3066
828.994	2918
829.134	2914
829.273	2941
829.412	2880
829.551	2853
829.69	2906
829.829	3001
829.968	3119
830.107	2998
830.246	3013
830.385	2902
830.524	2895
830.663	2826
830.802	2716
830.941	2678
831.08	2655
831.219	2739
831.357	2766
831.496	2937
831.635	2716
831.774	2655
831.913	2625
832.051	2575
832.19	2583
832.329	2705
832.467	2537
832.606	2473
832.744	2560
832.883	2594
833.022	2587
833.16	2629
833.299	2686
833.437	2697
833.576	2667
833.714	2705
833.852	2731
833.991	2743
834.129	2842
834.267	2849
834.406	2788
834.544	2880
834.682	2906
834.821	2880
834.959	3028
835.097	2895
835.235	3085
835.373	3001
835.511	2998
835.65	2944
835.788	2948
835.926	2853
836.064	2800
836.202	2830
836.34	3074
836.478	3127
836.615	3020
836.753	3119
836.891	3180
837.029	3169
837.167	3123
837.305	3001
837.443	3047
837.58	2963
837.718	3142
837.856	3058
837.993	3036
838.131	3112
838.269	3074
838.406	3097
838.544	3062
838.681	2914
838.819	2918
838.956	2807
839.094	2864
839.231	2910
839.369	3009
839.506	3363
839.643	3173
839.781	3009
839.918	3001
840.055	3020
840.193	3013
840.33	3062
840.467	3116
840.604	3150
840.742	3386
840.879	3047
841.016	3017
841.153	3074
841.29	3367
841.427	3279
841.564	3253
841.701	3321
841.838	3222
841.975	3180
842.112	3233
842.249	3089
842.385	3020
842.522	3233
842.659	3062
842.796	3043
842.933	3081
843.069	3032
843.206	3051
843.343	3173
843.479	3127
843.616	3116
843.752	2899
843.889	2872
844.025	3055
844.162	2883
844.298	3062
844.435	2925
844.571	2925
844.708	3058
844.844	3207
844.98	3226
845.117	3218
845.253	3024
845.389	3013
845.525	3116
845.661	3093
845.798	3005
845.934	3112
846.07	3070
846.206	3188
846.342	3302
846.478	3222
846.614	3077
846.75	3070
846.886	3020
847.022	3233
847.158	3142
847.294	3199
847.429	3241
847.565	3173
847.701	3466
847.837	3005
847.972	3005
848.108	3154
848.244	3135
848.379	2971
848.515	2967
848.65	2941
848.786	2963
848.921	3028
849.057	3112
849.192	3108
849.328	3039
849.463	3081
849.598	3051
849.734	3036
849.869	2998
850.004	2937
850.14	2975
850.275	2895
850.41	2826
850.545	2864
850.68	2922
850.815	2952
850.95	2944
851.085	3203
851.22	3146
851.355	3017
851.49	2990
851.625	2994
851.76	3009
851.895	2922
852.03	2902
852.165	3017
852.299	3138
852.434	3199
852.569	3127
852.703	3173
852.838	3241
852.973	3313
853.107	3294
853.242	3119
853.376	3097
853.511	2963
853.645	3005
853.78	3214
853.914	3135
854.048	3104
854.183	3055
854.317	3119
854.451	3275
854.585	3116
854.72	3066
854.854	3211
854.988	3039
855.122	3074
855.256	3005
855.39	3089
855.524	3241
855.658	3157
855.792	3135
855.926	3180
856.06	3233
856.194	3203
856.327	3146
856.461	3043
856.595	3093
856.729	3066
856.862	3226
856.996	3180
857.13	3188
857.263	3260
857.397	3306
857.53	3127
857.664	3195
857.797	3195
857.931	3237
858.064	3131
858.197	3176
858.331	3165
858.464	3097
858.597	2975
858.731	3142
858.864	3173
858.997	3066
859.13	3165
859.263	3161
859.396	3169
859.529	3100
859.662	3009
859.795	3043
859.928	3123
860.061	3260
860.194	3264
860.327	3119
860.46	3093
860.592	3226
860.725	3253
860.858	3283
860.99	3093
861.123	3062
861.256	3028
861.388	3127
861.521	3915
861.653	3032
861.786	2986
861.918	2990
862.05	3039
862.183	3097
862.315	3180
862.447	3203
862.58	3062
862.712	2952
862.844	2853
862.976	3001
863.108	2975
863.24	3275
863.372	2845
863.504	2941
863.636	2979
863.768	2982
863.9	2975
864.032	2887
864.164	2910
864.296	2948
864.428	3119
864.559	3081
864.691	3074
864.823	3024
864.954	3039
865.086	2998
865.217	3001
865.349	2979
865.48	2979
865.612	2994
865.743	3127
865.875	2971
866.006	2925
866.137	2986
866.269	2925
866.4	2910
866.531	2929
866.662	2887
866.793	2876
866.924	2872
867.055	2933
867.186	2918
867.317	2902
867.448	2815
867.579	2868
867.71	2857
867.841	2823
867.972	2944
868.103	2899
868.233	2838
868.364	2845
868.495	2902
868.625	3081
868.756	3165
868.886	2948
869.017	2998
869.147	3165
869.278	3169
869.408	3055
869.539	3013
869.669	3047
869.799	3043
869.929	3131
870.06	3089
870.19	3344
870.32	3260
870.45	3298
870.58	3412
870.71	3447
870.84	3466
870.97	3348
871.1	3211
871.23	3500
871.36	3466
871.489	3336
871.619	3409
871.749	3405
871.879	3416
872.008	3466
872.138	3344
872.267	3260
872.397	3138
872.526	3070
872.656	3001
872.785	3093
872.915	3249
873.044	3294
873.173	3214
873.303	3249
873.432	3237
873.561	3260
873.69	3157
873.819	3138
873.948	3173
874.077	3081
874.206	3039
874.335	3085
874.464	3230
874.593	3363
874.722	3256
874.851	3397
874.979	3351
875.108	3310
875.237	3195
875.365	3146
875.494	3135
875.623	3245
875.751	3104
875.88	3089
876.008	3199
876.136	3218
876.265	3332
876.393	3515
876.521	3397
876.65	3374
876.778	3321
876.906	3245
877.034	3184
877.162	3233
877.29	3199
877.418	3245
877.546	3279
877.674	3256
877.802	3211
877.93	3207
878.058	3157
878.185	3070
878.313	3161
878.441	3169
878.568	3047
878.696	3150
878.824	3241
878.951	3298
879.079	3389
879.206	3564
879.333	3454
879.461	3374
879.588	3348
879.715	3443
879.842	3561
879.97	3370
880.097	3173
880.224	3131
880.351	3214
880.478	3199
880.605	3173
880.732	3154
880.859	3466
880.986	3275
881.112	3336
881.239	3188
881.366	3112
881.493	3036
881.619	3028
881.746	3100
881.872	3074
881.999	3104
882.125	3142
882.252	3264
882.378	3260
882.505	3409
882.631	3226
882.757	3154
882.883	3211
883.01	3222
883.136	3184
883.262	3055
883.388	3077
883.514	3336
883.64	3367
883.766	3287
883.892	3157
884.018	3241
884.143	3389
884.269	3530
884.395	3199
884.52	3135
884.646	3146
884.772	3116
884.897	3089
885.023	3203
885.148	3325
885.274	3450
885.399	3367
885.524	3325
885.65	3214
885.775	3294
885.9	3264
886.025	3389
886.15	3351
886.275	3287
886.4	3241
886.525	3294
886.65	3298
886.775	3321
886.9	3496
887.025	3614
887.149	3416
887.274	3256
887.399	3207
887.523	3195
887.648	3188
887.773	3195
887.897	3420
888.021	3397
888.146	3302
888.27	3389
888.395	3496
888.519	3393
888.643	3420
888.767	3511
888.891	3302
889.015	3230
889.139	3313
889.263	3272
889.387	3382
889.511	3462
889.635	3409
889.759	3294
889.883	3298
890.006	3409
890.13	3511
890.254	3241
890.377	3321
890.501	3199
890.624	3169
890.748	3317
890.871	3169
890.995	3104
891.118	3066
891.241	3165
891.364	3272
891.488	3313
891.611	3169
891.734	3230
891.857	3298
891.98	3230
892.103	3389
892.226	3306
892.349	3233
892.471	3127
892.594	3237
892.717	3287
892.839	3272
892.962	3291
893.085	3351
893.207	3287
893.33	3161
893.452	3195
893.575	3336
893.697	3195
893.819	3458
893.941	3553
894.064	3443
894.186	3279
894.308	3241
894.43	3412
894.552	3561
894.674	3409
894.796	3279
894.918	3340
895.04	3268
895.161	3412
895.283	3389
895.405	3294
895.526	3336
895.648	3424
895.769	3393
895.891	3454
896.012	3443
896.134	3477
896.255	3393
896.376	3332
896.498	3355
896.619	3431
896.74	3393
896.861	3351
896.982	3641
897.103	3827
897.224	3587
897.345	3507
897.466	3412
897.587	3485
897.708	3637
897.828	3561
897.949	3454
898.07	3344
898.19	3386
898.311	3584
898.431	3420
898.552	3538
898.672	3625
898.792	3576
898.913	3534
899.033	3329
899.153	3279
899.273	3233
899.393	3241
899.513	3306
899.633	3313
899.753	3344
899.873	3249
899.993	3389
900.113	3313
900.232	3355
900.352	3351
900.472	3268
900.591	3245
900.711	3317
900.83	3230
900.95	3409
901.069	3523
901.189	3348
901.308	3207
901.427	3100
901.546	3157
901.665	3291
901.784	3325
901.904	3199
902.023	3138
902.141	3009
902.26	3009
902.379	3093
902.498	3036
902.617	3043
902.735	3192
902.854	3203
902.973	3207
903.091	3020
903.21	3093
903.328	3131
903.446	3097
903.565	3077
903.683	3184
903.801	3146
903.919	3264
904.038	3279
904.156	3146
904.274	3275
904.392	3272
904.51	3291
904.627	3306
904.745	3428
904.863	3507
904.981	3237
905.098	3173
905.216	3214
905.334	3294
905.451	3291
905.569	3306
905.686	3428
905.803	3416
905.921	3253
906.038	3447
906.155	3359
906.272	3260
906.389	3313
906.506	3199
906.623	3237
906.74	3233
906.857	3173
906.974	3253
907.091	3466
907.208	3545
907.324	3454
907.441	3363
907.557	3222
907.674	3249
907.79	3222
907.907	3283
908.023	3351
908.139	3355
908.256	3355
908.372	3348
908.488	3348
908.604	3226
908.72	3241
908.836	3253
908.952	3302
909.068	3302
909.184	3496
909.3	3393
909.415	3500
909.531	3439
909.647	3264
909.762	3294
909.878	3302
909.993	3332
910.108	3325
910.224	3344
910.339	3424
910.454	3340
910.57	3268
910.685	3253
910.8	3584
910.915	3523
911.03	3450
911.145	3245
911.259	3253
911.374	3283
911.489	3211
911.604	3230
911.718	3100
911.833	3131
911.947	3013
912.062	3013
912.176	3165
912.291	3176
912.405	3184
912.519	3401
912.633	3447
912.748	3325
912.862	3287
912.976	3176
913.09	3036
913.204	3131
913.318	3192
913.431	3332
913.545	3374
913.659	3397
913.772	3310
913.886	3230
914	3207
914.113	3310
914.226	3397
914.34	3378
914.453	3222
914.566	3416
914.68	3291
914.793	3302
914.906	3100
915.019	3108
915.132	3077
915.245	3169
915.358	3195
915.47	3218
915.583	3264
915.696	3291
915.809	3382
915.921	3439
916.034	3249
916.146	3294
916.259	3233
916.371	3378
916.483	3359
916.595	3245
916.708	3332
916.82	3313
916.932	3321
917.044	3329
917.156	3332
917.268	3233
917.38	3310
917.491	3313
917.603	3367
917.715	3454
917.826	3462
917.938	3389
918.049	3317
918.161	3424
918.272	3572
918.384	3553
918.495	3469
918.606	3302
918.717	3249
918.828	3348
918.939	3412
919.05	3336
919.161	3344
919.272	3176
919.383	3310
919.494	3481
919.604	3652
919.715	3447
919.826	3389
919.936	3450
920.047	3595
920.157	3538
920.267	3800
920.378	3595
920.488	3587
920.598	3785
920.708	3930
920.818	3842
920.928	3823
921.038	4013
921.148	3960
921.258	3728
921.368	3663
921.477	3549
921.587	3526
921.697	3492
921.806	3633
921.916	3542
922.025	3332
922.134	3359
922.244	3291
922.353	3401
922.462	3260
922.571	3207
922.68	3131
922.789	3085
922.898	3180
923.007	3062
923.116	3233
923.224	3180
923.333	3184
923.442	3070
923.55	3123
923.659	3119
923.767	3230
923.876	3131
923.984	3249
924.092	3108
924.201	3192
924.309	3184
924.417	3211
924.525	3180
924.633	3214
924.741	3987
924.849	3036
924.956	3253
925.064	3089
925.172	3036
925.279	3070
925.387	3165
925.494	3211
925.602	3370
925.709	3359
925.816	3199
925.924	3279
926.031	3332
926.138	3321
926.245	3386
926.352	3260
926.459	3393
926.566	3458
926.673	3310
926.779	3245
926.886	3283
926.993	3184
927.099	3138
927.206	3085
927.312	3119
927.419	3184
927.525	3173
927.631	3233
927.737	3123
927.843	3127
927.95	3036
928.056	3161
928.162	3188
928.267	3256
928.373	3781
928.479	3321
928.585	3020
928.69	3222
928.796	3279
928.901	3127
929.007	3055
929.112	3203
929.218	3154
929.323	3157
929.428	3138
929.533	3329
929.638	3131
929.743	3176
929.848	3264
929.953	3218
930.058	3154
930.163	3024
930.267	3051
930.372	3188
930.477	2990
930.581	3317
930.685	3199
930.79	3070
930.894	3100
930.998	3062
931.103	3275
931.207	2967
931.311	2906
931.415	2887
931.519	2800
931.623	2811
