Data from test_V78500241_1292.txt Node
Date: Fri Mar 25 16:24:09 CST 2022
User: usil
Spectrometer: V785-0024
Trigger mode: 0
Integration Time (sec): 4.000000E-1
Scans to average: 1
Nonlinearity correction enabled: false
Boxcar width: 0
Storing dark spectrum: false
XAxis mode: Wavelengths
Number of Pixels in Spectrum: 1024
>>>>>Begin Spectral Data<<<<<
801.071	2899
801.214	2937
801.356	2861
801.499	2887
801.641	2853
801.783	2906
801.926	3024
802.068	2975
802.211	2975
802.353	3032
802.496	2948
802.638	2960
802.78	2998
802.923	3070
803.065	2963
803.208	2895
803.35	2887
803.492	2971
803.635	2922
803.777	2731
803.919	2834
804.061	3165
804.204	2948
804.346	2876
804.488	2853
804.63	2990
804.773	2861
804.915	2906
805.057	3077
805.199	2975
805.341	2963
805.483	3001
805.626	2998
805.768	2941
805.91	3055
806.052	3116
806.194	3017
806.336	3226
806.478	3013
806.62	2918
806.762	2975
806.904	3055
807.046	3142
807.188	2967
807.33	2883
807.472	2944
807.614	2902
807.756	2982
807.898	2933
808.04	2864
808.182	2975
808.324	2948
808.465	2864
808.607	2838
808.749	2788
808.891	2845
809.033	2979
809.174	2956
809.316	2899
809.458	2857
809.6	2720
809.741	2762
809.883	2743
810.025	2861
810.166	2830
810.308	2830
810.45	2853
810.591	2777
810.733	2746
810.875	2845
811.016	2781
811.158	2720
811.299	2834
811.441	2944
811.582	2895
811.724	2792
811.865	2804
812.007	2876
812.148	2883
812.29	2830
812.431	2861
812.573	2941
812.714	2944
812.855	3020
812.997	3047
813.138	3127
813.279	2998
813.421	2975
813.562	2918
813.703	2868
813.845	2883
813.986	2743
814.127	2697
814.268	2807
814.41	2834
814.551	2811
814.692	2849
814.833	2804
814.974	2876
815.115	2941
815.256	2815
815.397	2792
815.539	2861
815.68	2750
815.821	2785
815.962	2910
816.103	2906
816.244	2857
816.385	2853
816.526	2971
816.666	2891
816.807	2743
816.948	2864
817.089	2864
817.23	2819
817.371	2758
817.512	2807
817.653	2800
817.793	2807
817.934	2838
818.075	2937
818.216	2967
818.356	2990
818.497	2868
818.638	2777
818.778	2769
818.919	2777
819.06	2758
819.2	2864
819.341	2807
819.481	2807
819.622	2906
819.762	3051
819.903	2998
820.043	2918
820.184	2914
820.324	2876
820.465	3017
820.605	2975
820.746	2990
820.886	2925
821.026	3051
821.167	3150
821.307	3222
821.447	3260
821.588	3226
821.728	3180
821.868	3192
822.008	3051
822.149	3154
822.289	3157
822.429	3055
822.569	3055
822.709	3154
822.849	3005
822.99	3028
823.13	3138
823.27	3173
823.41	3104
823.55	3154
823.69	3108
823.83	3142
823.97	3051
824.11	3020
824.25	3001
824.389	3051
824.529	3085
824.669	3047
824.809	3173
824.949	3222
825.089	3192
825.228	3157
825.368	3024
825.508	2960
825.648	2982
825.787	2990
825.927	3058
826.067	2971
826.206	2952
826.346	3066
826.485	3093
826.625	3104
826.765	3283
826.904	3207
827.044	3032
827.183	2937
827.323	2872
827.462	3039
827.601	2948
827.741	2948
827.88	2952
828.02	2857
828.159	2998
828.298	3093
828.437	3135
828.577	3020
828.716	3230
828.855	3123
828.994	2994
829.134	2895
829.273	2914
829.412	2899
829.551	2895
829.69	2929
829.829	2990
829.968	3180
830.107	3047
830.246	3081
830.385	2960
830.524	2906
830.663	2880
830.802	2777
830.941	2689
831.08	2670
831.219	2777
831.357	2766
831.496	2960
831.635	2777
831.774	2670
831.913	2697
832.051	2571
832.19	2625
832.329	2727
832.467	2541
832.606	2526
832.744	2610
832.883	2640
833.022	2606
833.16	2670
833.299	2720
833.437	2735
833.576	2724
833.714	2781
833.852	2754
833.991	2800
834.129	2895
834.267	2880
834.406	2845
834.544	2929
834.682	2887
834.821	2929
834.959	3093
835.097	2933
835.235	3085
835.373	3024
835.511	3043
835.65	2952
835.788	2956
835.926	2849
836.064	2830
836.202	2872
836.34	3135
836.478	3211
836.615	3055
836.753	3161
836.891	3241
837.029	3180
837.167	3146
837.305	3112
837.443	3062
837.58	2979
837.718	3161
837.856	3085
837.993	3032
838.131	3135
838.269	3127
838.406	3097
838.544	3108
838.681	2956
838.819	2933
838.956	2842
839.094	2864
839.231	2914
839.369	3024
839.506	3389
839.643	3287
839.781	3017
839.918	2982
840.055	3085
840.193	3104
840.33	3085
840.467	3157
840.604	3192
840.742	3416
840.879	3081
841.016	3070
841.153	3157
841.29	3351
841.427	3321
841.564	3272
841.701	3348
841.838	3241
841.975	3249
842.112	3207
842.249	3089
842.385	3039
842.522	3291
842.659	3100
842.796	3097
842.933	3131
843.069	3047
843.206	3074
843.343	3211
843.479	3074
843.616	3138
843.752	2914
843.889	2918
844.025	3077
844.162	2902
844.298	3093
844.435	2990
844.571	2937
844.708	3070
844.844	3222
844.98	3264
845.117	3203
845.253	3077
845.389	2986
845.525	3116
845.661	3131
845.798	3081
845.934	3066
846.07	3070
846.206	3184
846.342	3397
846.478	3268
846.614	3119
846.75	3062
846.886	3062
847.022	3249
847.158	3123
847.294	3230
847.429	3260
847.565	3230
847.701	3496
847.837	3066
847.972	3005
848.108	3142
848.244	3173
848.379	3005
848.515	2971
848.65	2994
848.786	2982
848.921	2998
849.057	3108
849.192	3173
849.328	3142
849.463	3161
849.598	3093
849.734	3093
849.869	3005
850.004	2941
850.14	2994
850.275	2967
850.41	2845
850.545	2895
850.68	2948
850.815	2975
850.95	3020
851.085	3214
851.22	3119
851.355	3062
851.49	3017
851.625	3036
851.76	3043
851.895	2963
852.03	2906
852.165	3055
852.299	3131
852.434	3176
852.569	3176
852.703	3154
852.838	3302
852.973	3389
853.107	3367
853.242	3184
853.376	3116
853.511	3024
853.645	3062
853.78	3260
853.914	3142
854.048	3131
854.183	3055
854.317	3169
854.451	3313
854.585	3131
854.72	3119
854.854	3253
854.988	3119
855.122	3135
855.256	2986
855.39	3131
855.524	3260
855.658	3256
855.792	3173
855.926	3230
856.06	3203
856.194	3279
856.327	3211
856.461	3127
856.595	3123
856.729	3058
856.862	3237
856.996	3180
857.13	3184
857.263	3256
857.397	3294
857.53	3104
857.664	3233
857.797	3260
857.931	3233
858.064	3207
858.197	3222
858.331	3154
858.464	3127
858.597	3005
858.731	3116
858.864	3184
858.997	3119
859.13	3169
859.263	3195
859.396	3222
859.529	3112
859.662	3062
859.795	3100
859.928	3203
860.061	3283
860.194	3272
860.327	3135
860.46	3135
860.592	3237
860.725	3310
860.858	3233
860.99	3161
861.123	3074
861.256	3051
861.388	3165
861.521	3698
861.653	3039
861.786	3013
861.918	3047
862.05	3039
862.183	3070
862.315	3233
862.447	3241
862.58	3142
862.712	2963
862.844	2906
862.976	3051
863.108	3020
863.24	3351
863.372	2914
863.504	3001
863.636	2948
863.768	3062
863.9	3013
864.032	2922
864.164	2967
864.296	3089
864.428	3097
864.559	3131
864.691	3089
864.823	3089
864.954	3074
865.086	3036
865.217	3020
865.349	2933
865.48	3017
865.612	3051
865.743	3180
865.875	3017
866.006	3017
866.137	2982
866.269	2963
866.4	2956
866.531	2952
866.662	2922
866.793	2883
866.924	2952
867.055	2967
867.186	2960
867.317	2895
867.448	2845
867.579	2872
867.71	2857
867.841	2815
867.972	2910
868.103	2944
868.233	2929
868.364	2914
868.495	2902
868.625	3070
868.756	3180
868.886	2982
869.017	3036
869.147	3195
869.278	3169
869.408	3039
869.539	3051
869.669	3138
869.799	3074
869.929	3146
870.06	3112
870.19	3348
870.32	3310
870.45	3336
870.58	3348
870.71	3428
870.84	3450
870.97	3310
871.1	3253
871.23	3504
871.36	3492
871.489	3386
871.619	3363
871.749	3443
871.879	3428
872.008	3515
872.138	3370
872.267	3321
872.397	3123
872.526	3108
872.656	3043
872.785	3100
872.915	3272
873.044	3332
873.173	3253
873.303	3340
873.432	3283
873.561	3253
873.69	3184
873.819	3150
873.948	3226
874.077	3119
874.206	3047
874.335	3081
874.464	3218
874.593	3382
874.722	3230
874.851	3435
874.979	3340
875.108	3321
875.237	3226
875.365	3176
875.494	3154
875.623	3268
875.751	3104
875.88	3154
876.008	3211
876.136	3203
876.265	3363
876.393	3485
876.521	3466
876.65	3420
876.778	3313
876.906	3264
877.034	3203
877.162	3230
877.29	3233
877.418	3279
877.546	3214
877.674	3256
877.802	3230
877.93	3256
878.058	3176
878.185	3135
878.313	3218
878.441	3230
878.568	3104
878.696	3165
878.824	3245
878.951	3306
879.079	3466
879.206	3618
879.333	3454
879.461	3332
879.588	3344
879.715	3469
879.842	3576
879.97	3405
880.097	3169
880.224	3119
880.351	3199
880.478	3207
880.605	3237
880.732	3192
880.859	3504
880.986	3306
881.112	3340
881.239	3211
881.366	3116
881.493	3074
881.619	3070
881.746	3058
881.872	3100
881.999	3119
882.125	3203
882.252	3249
882.378	3321
882.505	3428
882.631	3279
882.757	3184
882.883	3226
883.01	3237
883.136	3173
883.262	3089
883.388	3138
883.514	3344
883.64	3378
883.766	3344
883.892	3207
884.018	3249
884.143	3420
884.269	3504
884.395	3176
884.52	3131
884.646	3180
884.772	3119
884.897	3131
885.023	3245
885.148	3374
885.274	3382
885.399	3355
885.524	3287
885.65	3275
885.775	3348
885.9	3291
886.025	3469
886.15	3401
886.275	3310
886.4	3241
886.525	3294
886.65	3298
886.775	3279
886.9	3511
887.025	3614
887.149	3389
887.274	3279
887.399	3176
887.523	3241
887.648	3199
887.773	3218
887.897	3336
888.021	3439
888.146	3363
888.27	3450
888.395	3553
888.519	3428
888.643	3439
888.767	3466
888.891	3329
889.015	3253
889.139	3294
889.263	3260
889.387	3424
889.511	3511
889.635	3397
889.759	3287
889.883	3310
890.006	3416
890.13	3485
890.254	3279
890.377	3355
890.501	3199
890.624	3169
890.748	3306
890.871	3165
890.995	3123
891.118	3089
891.241	3222
891.364	3218
891.488	3321
891.611	3169
891.734	3211
891.857	3260
891.98	3222
892.103	3367
892.226	3253
892.349	3249
892.471	3123
892.594	3256
892.717	3294
892.839	3256
892.962	3291
893.085	3363
893.207	3302
893.33	3173
893.452	3199
893.575	3348
893.697	3230
893.819	3481
893.941	3511
894.064	3473
894.186	3306
894.308	3260
894.43	3424
894.552	3549
894.674	3454
894.796	3272
894.918	3344
895.04	3306
895.161	3405
895.283	3428
895.405	3306
895.526	3374
895.648	3443
895.769	3450
895.891	3492
896.012	3496
896.134	3488
896.255	3439
896.376	3363
896.498	3336
896.619	3397
896.74	3378
896.861	3401
896.982	3682
897.103	3827
897.224	3587
897.345	3496
897.466	3488
897.587	3488
897.708	3637
897.828	3572
897.949	3450
898.07	3321
898.19	3458
898.311	3591
898.431	3485
898.552	3511
898.672	3572
898.792	3545
898.913	3564
899.033	3416
899.153	3279
899.273	3237
899.393	3249
899.513	3272
899.633	3344
899.753	3310
899.873	3298
899.993	3374
900.113	3268
900.232	3401
900.352	3370
900.472	3302
900.591	3161
900.711	3294
900.83	3260
900.95	3401
901.069	3492
901.189	3344
901.308	3203
901.427	3104
901.546	3180
901.665	3321
901.784	3321
901.904	3222
902.023	3154
902.141	3024
902.26	2994
902.379	3169
902.498	3077
902.617	3066
902.735	3253
902.854	3226
902.973	3180
903.091	3043
903.21	3066
903.328	3116
903.446	3100
903.565	3100
903.683	3237
903.801	3154
903.919	3268
904.038	3332
904.156	3173
904.274	3344
904.392	3256
904.51	3332
904.627	3386
904.745	3439
904.863	3530
904.981	3249
905.098	3203
905.216	3279
905.334	3325
905.451	3336
905.569	3359
905.686	3458
905.803	3466
905.921	3313
906.038	3485
906.155	3397
906.272	3291
906.389	3348
906.506	3256
906.623	3279
906.74	3321
906.857	3256
906.974	3310
907.091	3519
907.208	3599
907.324	3515
907.441	3401
907.557	3291
907.674	3287
907.79	3249
907.907	3325
908.023	3431
908.139	3439
908.256	3370
908.372	3393
908.488	3397
908.604	3298
908.72	3291
908.836	3317
908.952	3336
909.068	3351
909.184	3538
909.3	3424
909.415	3564
909.531	3519
909.647	3298
909.762	3340
909.878	3272
909.993	3409
910.108	3386
910.224	3397
910.339	3462
910.454	3386
910.57	3329
910.685	3264
910.8	3648
910.915	3599
911.03	3496
911.145	3294
911.259	3351
911.374	3367
911.489	3279
911.604	3241
911.718	3169
911.833	3203
911.947	3066
912.062	3024
912.176	3233
912.291	3245
912.405	3233
912.519	3462
912.633	3481
912.748	3401
912.862	3329
912.976	3211
913.09	3081
913.204	3150
913.318	3253
913.431	3370
913.545	3351
913.659	3431
913.772	3382
913.886	3260
914	3233
914.113	3405
914.226	3458
914.34	3359
914.453	3218
914.566	3450
914.68	3321
914.793	3355
914.906	3188
915.019	3176
915.132	3116
915.245	3188
915.358	3226
915.47	3264
915.583	3325
915.696	3340
915.809	3450
915.921	3462
916.034	3279
916.146	3298
916.259	3245
916.371	3424
916.483	3431
916.595	3317
916.708	3386
916.82	3389
916.932	3340
917.044	3355
917.156	3401
917.268	3340
917.38	3374
917.491	3283
917.603	3435
917.715	3504
917.826	3462
917.938	3386
918.049	3287
918.161	3485
918.272	3606
918.384	3595
918.495	3530
918.606	3393
918.717	3279
918.828	3378
918.939	3473
919.05	3317
919.161	3401
919.272	3214
919.383	3291
919.494	3492
919.604	3694
919.715	3564
919.826	3450
919.936	3496
920.047	3603
920.157	3614
920.267	3781
920.378	3633
920.488	3633
920.598	3793
920.708	3987
920.818	3865
920.928	3827
921.038	4082
921.148	4029
921.258	3759
921.368	3656
921.477	3648
921.587	3545
921.697	3469
921.806	3637
921.916	3553
922.025	3370
922.134	3393
922.244	3378
922.353	3469
922.462	3294
922.571	3279
922.68	3188
922.789	3097
922.898	3176
923.007	3157
923.116	3222
923.224	3195
923.333	3233
923.442	3093
923.55	3112
923.659	3184
923.767	3226
923.876	3169
923.984	3264
924.092	3131
924.201	3211
924.309	3233
924.417	3275
924.525	3241
924.633	3313
924.741	4044
924.849	3074
924.956	3272
925.064	3127
925.172	3077
925.279	3112
925.387	3249
925.494	3207
925.602	3393
925.709	3340
925.816	3249
925.924	3275
926.031	3443
926.138	3355
926.245	3382
926.352	3260
926.459	3473
926.566	3515
926.673	3378
926.779	3245
926.886	3275
926.993	3150
927.099	3146
927.206	3131
927.312	3135
927.419	3256
927.525	3211
927.631	3317
927.737	3214
927.843	3161
927.95	3028
928.056	3195
928.162	3180
928.267	3264
928.373	3789
928.479	3329
928.585	3074
928.69	3283
928.796	3302
928.901	3199
929.007	3085
929.112	3203
929.218	3222
929.323	3188
929.428	3195
929.533	3374
929.638	3123
929.743	3218
929.848	3268
929.953	3226
930.058	3131
930.163	3074
930.267	3089
930.372	3226
930.477	3081
930.581	3351
930.685	3214
930.79	3077
930.894	3173
930.998	3131
931.103	3294
931.207	2998
931.311	2971
931.415	2971
931.519	2819
931.623	2868
