Data from test_V78500241_844.txt Node
Date: Fri Mar 25 16:21:03 CST 2022
User: usil
Spectrometer: V785-0024
Trigger mode: 0
Integration Time (sec): 4.000000E-1
Scans to average: 1
Nonlinearity correction enabled: false
Boxcar width: 0
Storing dark spectrum: false
XAxis mode: Wavelengths
Number of Pixels in Spectrum: 1024
>>>>>Begin Spectral Data<<<<<
801.071	2868
801.214	2902
801.356	2887
801.499	2887
801.641	2864
801.783	2929
801.926	3009
802.068	2933
802.211	2967
802.353	3039
802.496	2956
802.638	2990
802.78	3047
802.923	3039
803.065	3017
803.208	2880
803.35	2906
803.492	2933
803.635	2922
803.777	2766
803.919	2857
804.061	3184
804.204	2971
804.346	2864
804.488	2830
804.63	2982
804.773	2830
804.915	2864
805.057	3070
805.199	2902
805.341	2948
805.483	3032
805.626	2990
805.768	2918
805.91	3066
806.052	3104
806.194	3043
806.336	3260
806.478	3020
806.62	2876
806.762	2914
806.904	3039
807.046	3135
807.188	2975
807.33	2887
807.472	2979
807.614	2883
807.756	2971
807.898	2933
808.04	2887
808.182	2948
808.324	2929
808.465	2853
808.607	2895
808.749	2754
808.891	2853
809.033	2941
809.174	2994
809.316	2880
809.458	2849
809.6	2773
809.741	2739
809.883	2750
810.025	2849
810.166	2864
810.308	2834
810.45	2830
810.591	2727
810.733	2754
810.875	2830
811.016	2735
811.158	2792
811.299	2819
811.441	2925
811.582	2880
811.724	2796
811.865	2807
812.007	2906
812.148	2872
812.29	2838
812.431	2849
812.573	2929
812.714	2956
812.855	3047
812.997	3017
813.138	3077
813.279	2979
813.421	2998
813.562	2929
813.703	2842
813.845	2876
813.986	2754
814.127	2716
814.268	2819
814.41	2815
814.551	2781
814.692	2872
814.833	2792
814.974	2895
815.115	2963
815.256	2823
815.397	2807
815.539	2845
815.68	2785
815.821	2746
815.962	2937
816.103	2937
816.244	2849
816.385	2887
816.526	2956
816.666	2906
816.807	2712
816.948	2899
817.089	2895
817.23	2807
817.371	2766
817.512	2769
817.653	2811
817.793	2792
817.934	2857
818.075	2944
818.216	2979
818.356	3005
818.497	2880
818.638	2762
818.778	2781
818.919	2785
819.06	2739
819.2	2868
819.341	2800
819.481	2766
819.622	2895
819.762	3089
819.903	3032
820.043	2902
820.184	2857
820.324	2895
820.465	2982
820.605	2982
820.746	3005
820.886	2922
821.026	3070
821.167	3127
821.307	3199
821.447	3249
821.588	3264
821.728	3161
821.868	3150
822.008	3051
822.149	3173
822.289	3165
822.429	3085
822.569	3062
822.709	3112
822.849	2998
822.99	3047
823.13	3150
823.27	3222
823.41	3062
823.55	3161
823.69	3138
823.83	3173
823.97	3108
824.11	2986
824.25	2971
824.389	3062
824.529	3112
824.669	3047
824.809	3207
824.949	3253
825.089	3222
825.228	3154
825.368	2998
825.508	2971
825.648	2986
825.787	3017
825.927	2994
826.067	2975
826.206	2994
826.346	3009
826.485	3081
826.625	3123
826.765	3279
826.904	3214
827.044	3005
827.183	2937
827.323	2899
827.462	3024
827.601	2960
827.741	2960
827.88	2941
828.02	2864
828.159	2986
828.298	3043
828.437	3138
828.577	3081
828.716	3272
828.855	3100
828.994	2963
829.134	2918
829.273	2952
829.412	2861
829.551	2906
829.69	2925
829.829	3036
829.968	3131
830.107	3077
830.246	3043
830.385	2941
830.524	2922
830.663	2876
830.802	2773
830.941	2693
831.08	2693
831.219	2807
831.357	2811
831.496	2979
831.635	2781
831.774	2689
831.913	2655
832.051	2587
832.19	2613
832.329	2716
832.467	2560
832.606	2507
832.744	2598
832.883	2655
833.022	2613
833.16	2651
833.299	2743
833.437	2754
833.576	2739
833.714	2773
833.852	2746
833.991	2773
834.129	2891
834.267	2887
834.406	2819
834.544	2933
834.682	2933
834.821	2922
834.959	3093
835.097	2952
835.235	3104
835.373	3013
835.511	3028
835.65	2948
835.788	2979
835.926	2895
836.064	2834
836.202	2872
836.34	3138
836.478	3154
836.615	3097
836.753	3146
836.891	3253
837.029	3154
837.167	3112
837.305	3100
837.443	3062
837.58	2998
837.718	3173
837.856	3119
837.993	3077
838.131	3150
838.269	3123
838.406	3127
838.544	3157
838.681	2986
838.819	2944
838.956	2861
839.094	2883
839.231	2963
839.369	3043
839.506	3393
839.643	3226
839.781	3047
839.918	3001
840.055	3093
840.193	3108
840.33	3123
840.467	3173
840.604	3184
840.742	3420
840.879	3116
841.016	3089
841.153	3176
841.29	3363
841.427	3348
841.564	3317
841.701	3344
841.838	3249
841.975	3199
842.112	3256
842.249	3119
842.385	3070
842.522	3272
842.659	3123
842.796	3093
842.933	3150
843.069	3051
843.206	3077
843.343	3192
843.479	3146
843.616	3161
843.752	2948
843.889	2872
844.025	3077
844.162	2891
844.298	3108
844.435	2971
844.571	2975
844.708	3085
844.844	3173
844.98	3279
845.117	3226
845.253	3085
845.389	3009
845.525	3154
845.661	3127
845.798	3013
845.934	3131
846.07	3081
846.206	3256
846.342	3336
846.478	3260
846.614	3112
846.75	3077
846.886	3055
847.022	3264
847.158	3180
847.294	3207
847.429	3283
847.565	3226
847.701	3534
847.837	3043
847.972	2994
848.108	3184
848.244	3165
848.379	3020
848.515	2948
848.65	2982
848.786	2982
848.921	3024
849.057	3142
849.192	3131
849.328	3119
849.463	3112
849.598	3104
849.734	3039
849.869	2994
850.004	2933
850.14	2967
850.275	2956
850.41	2864
850.545	2941
850.68	2937
850.815	2979
850.95	3017
851.085	3199
851.22	3127
851.355	3066
851.49	3009
851.625	3074
851.76	3043
851.895	2929
852.03	2967
852.165	3036
852.299	3116
852.434	3165
852.569	3146
852.703	3214
852.838	3233
852.973	3351
853.107	3359
853.242	3180
853.376	3119
853.511	3009
853.645	3047
853.78	3268
853.914	3138
854.048	3135
854.183	3138
854.317	3195
854.451	3291
854.585	3184
854.72	3081
854.854	3230
854.988	3142
855.122	3138
855.256	2994
855.39	3127
855.524	3241
855.658	3188
855.792	3184
855.926	3237
856.06	3253
856.194	3317
856.327	3169
856.461	3074
856.595	3138
856.729	3116
856.862	3233
856.996	3207
857.13	3249
857.263	3241
857.397	3283
857.53	3119
857.664	3195
857.797	3268
857.931	3253
858.064	3173
858.197	3253
858.331	3123
858.464	3108
858.597	3017
858.731	3157
858.864	3135
858.997	3142
859.13	3184
859.263	3218
859.396	3218
859.529	3112
859.662	3097
859.795	3093
859.928	3180
860.061	3317
860.194	3291
860.327	3169
860.46	3146
860.592	3279
860.725	3294
860.858	3268
860.99	3089
861.123	3058
861.256	3089
861.388	3150
861.521	3911
861.653	3020
861.786	2982
861.918	3024
862.05	3089
862.183	3154
862.315	3161
862.447	3157
862.58	3123
862.712	3005
862.844	2868
862.976	3039
863.108	2990
863.24	3325
863.372	2853
863.504	2994
863.636	2982
863.768	3055
863.9	3020
864.032	2925
864.164	2967
864.296	3024
864.428	3100
864.559	3089
864.691	3119
864.823	3112
864.954	3074
865.086	3062
865.217	2963
865.349	2990
865.48	2994
865.612	3032
865.743	3180
865.875	3013
866.006	2998
866.137	2994
866.269	2941
866.4	2937
866.531	2982
866.662	2910
866.793	2941
866.924	2933
867.055	2967
867.186	2967
867.317	2925
867.448	2826
867.579	2887
867.71	2883
867.841	2807
867.972	2960
868.103	2899
868.233	2895
868.364	2883
868.495	2929
868.625	3093
868.756	3188
868.886	3001
869.017	3036
869.147	3188
869.278	3192
869.408	3070
869.539	3043
869.669	3108
869.799	3051
869.929	3146
870.06	3184
870.19	3351
870.32	3283
870.45	3332
870.58	3431
870.71	3515
870.84	3492
870.97	3329
871.1	3275
871.23	3473
871.36	3485
871.489	3424
871.619	3401
871.749	3435
871.879	3439
872.008	3466
872.138	3412
872.267	3317
872.397	3169
872.526	3150
872.656	3058
872.785	3097
872.915	3245
873.044	3317
873.173	3218
873.303	3287
873.432	3241
873.561	3211
873.69	3169
873.819	3199
873.948	3211
874.077	3100
874.206	3093
874.335	3097
874.464	3214
874.593	3351
874.722	3245
874.851	3389
874.979	3355
875.108	3363
875.237	3218
875.365	3165
875.494	3176
875.623	3302
875.751	3119
875.88	3150
876.008	3184
876.136	3211
876.265	3374
876.393	3507
876.521	3439
876.65	3416
876.778	3344
876.906	3241
877.034	3195
877.162	3302
877.29	3203
877.418	3283
877.546	3275
877.674	3264
877.802	3218
877.93	3272
878.058	3135
878.185	3104
878.313	3218
878.441	3253
878.568	3093
878.696	3203
878.824	3241
878.951	3325
879.079	3428
879.206	3648
879.333	3507
879.461	3389
879.588	3370
879.715	3496
879.842	3641
879.97	3378
880.097	3169
880.224	3150
880.351	3222
880.478	3237
880.605	3199
880.732	3222
880.859	3496
880.986	3291
881.112	3370
881.239	3226
881.366	3112
881.493	3028
881.619	3070
881.746	3116
881.872	3085
881.999	3123
882.125	3138
882.252	3264
882.378	3321
882.505	3458
882.631	3287
882.757	3157
882.883	3245
883.01	3249
883.136	3180
883.262	3093
883.388	3142
883.514	3317
883.64	3355
883.766	3332
883.892	3192
884.018	3275
884.143	3393
884.269	3564
884.395	3195
884.52	3157
884.646	3176
884.772	3142
884.897	3089
885.023	3222
885.148	3363
885.274	3454
885.399	3348
885.524	3313
885.65	3268
885.775	3325
885.9	3264
886.025	3397
886.15	3378
886.275	3317
886.4	3245
886.525	3351
886.65	3302
886.775	3275
886.9	3485
887.025	3629
887.149	3367
887.274	3287
887.399	3180
887.523	3222
887.648	3195
887.773	3222
887.897	3401
888.021	3405
888.146	3313
888.27	3454
888.395	3538
888.519	3447
888.643	3428
888.767	3473
888.891	3294
889.015	3260
889.139	3298
889.263	3241
889.387	3409
889.511	3515
889.635	3447
889.759	3298
889.883	3298
890.006	3439
890.13	3469
890.254	3268
890.377	3348
890.501	3245
890.624	3161
890.748	3317
890.871	3184
890.995	3146
891.118	3081
891.241	3218
891.364	3218
891.488	3336
891.611	3188
891.734	3180
891.857	3264
891.98	3222
892.103	3370
892.226	3272
892.349	3241
892.471	3100
892.594	3275
892.717	3294
892.839	3272
892.962	3294
893.085	3370
893.207	3340
893.33	3169
893.452	3176
893.575	3363
893.697	3237
893.819	3500
893.941	3492
894.064	3454
894.186	3253
894.308	3272
894.43	3447
894.552	3530
894.674	3488
894.796	3256
894.918	3336
895.04	3298
895.161	3416
895.283	3374
895.405	3275
895.526	3355
895.648	3416
895.769	3450
895.891	3447
896.012	3462
896.134	3466
896.255	3443
896.376	3412
896.498	3336
896.619	3420
896.74	3386
896.861	3363
896.982	3637
897.103	3896
897.224	3629
897.345	3545
897.466	3412
897.587	3538
897.708	3610
897.828	3557
897.949	3450
898.07	3348
898.19	3416
898.311	3633
898.431	3462
898.552	3504
898.672	3595
898.792	3561
898.913	3515
899.033	3401
899.153	3279
899.273	3245
899.393	3279
899.513	3340
899.633	3355
899.753	3329
899.873	3310
899.993	3378
900.113	3306
900.232	3416
900.352	3359
900.472	3306
900.591	3226
900.711	3287
900.83	3279
900.95	3405
901.069	3477
901.189	3370
901.308	3131
901.427	3123
901.546	3165
901.665	3325
901.784	3325
901.904	3214
902.023	3146
902.141	3020
902.26	2971
902.379	3142
902.498	3066
902.617	3081
902.735	3218
902.854	3233
902.973	3233
903.091	3055
903.21	3070
903.328	3165
903.446	3104
903.565	3077
903.683	3230
903.801	3161
903.919	3256
904.038	3287
904.156	3173
904.274	3310
904.392	3268
904.51	3359
904.627	3351
904.745	3458
904.863	3523
904.981	3310
905.098	3230
905.216	3268
905.334	3355
905.451	3291
905.569	3370
905.686	3420
905.803	3466
905.921	3367
906.038	3473
906.155	3363
906.272	3332
906.389	3378
906.506	3260
906.623	3332
906.74	3306
906.857	3199
906.974	3302
907.091	3481
907.208	3587
907.324	3485
907.441	3492
907.557	3256
907.674	3249
907.79	3256
907.907	3329
908.023	3397
908.139	3393
908.256	3378
908.372	3435
908.488	3386
908.604	3294
908.72	3291
908.836	3344
908.952	3317
909.068	3374
909.184	3500
909.3	3428
909.415	3519
909.531	3481
909.647	3329
909.762	3355
909.878	3272
909.993	3424
910.108	3393
910.224	3393
910.339	3454
910.454	3359
910.57	3310
910.685	3291
910.8	3641
910.915	3595
911.03	3507
911.145	3279
911.259	3313
911.374	3344
911.489	3253
911.604	3272
911.718	3150
911.833	3165
911.947	3097
912.062	3017
912.176	3195
912.291	3253
912.405	3260
912.519	3496
912.633	3515
912.748	3382
912.862	3363
912.976	3203
913.09	3116
913.204	3157
913.318	3233
913.431	3397
913.545	3378
913.659	3458
913.772	3355
913.886	3268
914	3241
914.113	3370
914.226	3447
914.34	3374
914.453	3275
914.566	3447
914.68	3351
914.793	3370
914.906	3176
915.019	3146
915.132	3123
915.245	3192
915.358	3245
915.47	3241
915.583	3287
915.696	3336
915.809	3466
915.921	3424
916.034	3294
916.146	3283
916.259	3275
916.371	3409
916.483	3412
916.595	3294
916.708	3359
916.82	3340
916.932	3374
917.044	3378
917.156	3389
917.268	3287
917.38	3329
917.491	3325
917.603	3405
917.715	3466
917.826	3496
917.938	3401
918.049	3287
918.161	3443
918.272	3610
918.384	3572
918.495	3542
918.606	3405
918.717	3329
918.828	3401
918.939	3435
919.05	3336
919.161	3412
919.272	3249
919.383	3336
919.494	3545
919.604	3720
919.715	3488
919.826	3431
919.936	3477
920.047	3641
920.157	3580
920.267	3823
920.378	3637
920.488	3606
920.598	3781
920.708	3987
920.818	3873
920.928	3880
921.038	4063
921.148	4032
921.258	3751
921.368	3686
921.477	3576
921.587	3534
921.697	3496
921.806	3652
921.916	3519
922.025	3378
922.134	3420
922.244	3348
922.353	3477
922.462	3340
922.571	3298
922.68	3150
922.789	3112
922.898	3192
923.007	3119
923.116	3199
923.224	3207
923.333	3214
923.442	3119
923.55	3077
923.659	3188
923.767	3279
923.876	3157
923.984	3241
924.092	3150
924.201	3237
924.309	3249
924.417	3272
924.525	3192
924.633	3260
924.741	4040
924.849	3066
924.956	3310
925.064	3150
925.172	3081
925.279	3097
925.387	3230
925.494	3241
925.602	3409
925.709	3344
925.816	3222
925.924	3329
926.031	3420
926.138	3420
926.245	3397
926.352	3302
926.459	3458
926.566	3507
926.673	3351
926.779	3275
926.886	3253
926.993	3207
927.099	3176
927.206	3150
927.312	3157
927.419	3233
927.525	3241
927.631	3283
927.737	3173
927.843	3184
927.95	3058
928.056	3169
928.162	3195
928.267	3279
928.373	3762
928.479	3310
928.585	3093
928.69	3241
928.796	3272
928.901	3211
929.007	3089
929.112	3233
929.218	3214
929.323	3180
929.428	3173
929.533	3382
929.638	3165
929.743	3230
929.848	3272
929.953	3226
930.058	3146
930.163	3043
930.267	3047
930.372	3272
930.477	3036
930.581	3340
930.685	3165
930.79	3055
930.894	3169
930.998	3173
931.103	3313
931.207	2982
931.311	2960
931.415	2937
931.519	2792
931.623	2842
