Data from test_V78500241_1873.txt Node
Date: Fri Mar 25 16:28:10 CST 2022
User: usil
Spectrometer: V785-0024
Trigger mode: 0
Integration Time (sec): 4.000000E-1
Scans to average: 1
Nonlinearity correction enabled: false
Boxcar width: 0
Storing dark spectrum: false
XAxis mode: Wavelengths
Number of Pixels in Spectrum: 1024
>>>>>Begin Spectral Data<<<<<
801.071	2883
801.214	2948
801.356	2864
801.499	2895
801.641	2868
801.783	2914
801.926	3017
802.068	2971
802.211	2994
802.353	3028
802.496	2925
802.638	3028
802.78	3005
802.923	3104
803.065	3001
803.208	2864
803.35	2956
803.492	2937
803.635	2906
803.777	2724
803.919	2880
804.061	3207
804.204	2925
804.346	2937
804.488	2853
804.63	2994
804.773	2887
804.915	2910
805.057	3070
805.199	2971
805.341	2990
805.483	3017
805.626	3047
805.768	2918
805.91	3070
806.052	3089
806.194	2998
806.336	3237
806.478	2998
806.62	2952
806.762	2975
806.904	3070
807.046	3161
807.188	2971
807.33	2906
807.472	2944
807.614	2891
807.756	2944
807.898	2922
808.04	2906
808.182	2990
808.324	2944
808.465	2864
808.607	2864
808.749	2777
808.891	2861
809.033	2979
809.174	2937
809.316	2887
809.458	2880
809.6	2800
809.741	2769
809.883	2754
810.025	2823
810.166	2838
810.308	2834
810.45	2842
810.591	2727
810.733	2796
810.875	2838
811.016	2758
811.158	2750
811.299	2819
811.441	2891
811.582	2857
811.724	2811
811.865	2842
812.007	2914
812.148	2857
812.29	2845
812.431	2880
812.573	2937
812.714	2948
812.855	3062
812.997	3055
813.138	3100
813.279	2998
813.421	2994
813.562	2990
813.703	2864
813.845	2868
813.986	2766
814.127	2727
814.268	2845
814.41	2834
814.551	2781
814.692	2887
814.833	2823
814.974	2872
815.115	2925
815.256	2830
815.397	2785
815.539	2830
815.68	2785
815.821	2766
815.962	2948
816.103	2929
816.244	2857
816.385	2868
816.526	3020
816.666	2922
816.807	2773
816.948	2876
817.089	2883
817.23	2872
817.371	2785
817.512	2785
817.653	2826
817.793	2800
817.934	2853
818.075	2979
818.216	2979
818.356	2952
818.497	2887
818.638	2777
818.778	2838
818.919	2807
819.06	2758
819.2	2895
819.341	2773
819.481	2823
819.622	2937
819.762	3085
819.903	3070
820.043	2918
820.184	2891
820.324	2868
820.465	3013
820.605	3013
820.746	3001
820.886	2918
821.026	3062
821.167	3157
821.307	3256
821.447	3233
821.588	3214
821.728	3207
821.868	3180
822.008	3047
822.149	3150
822.289	3226
822.429	3089
822.569	3058
822.709	3195
822.849	3028
822.99	3085
823.13	3173
823.27	3207
823.41	3104
823.55	3154
823.69	3112
823.83	3195
823.97	3135
824.11	2986
824.25	3009
824.389	3085
824.529	3085
824.669	3058
824.809	3226
824.949	3256
825.089	3199
825.228	3226
825.368	2990
825.508	2994
825.648	2941
825.787	3032
825.927	3028
826.067	2960
826.206	2910
826.346	3032
826.485	3074
826.625	3097
826.765	3256
826.904	3180
827.044	2998
827.183	2922
827.323	2883
827.462	2986
827.601	2952
827.741	2902
827.88	2948
828.02	2842
828.159	2967
828.298	3009
828.437	3104
828.577	3024
828.716	3207
828.855	3077
828.994	2922
829.134	2864
829.273	2937
829.412	2845
829.551	2834
829.69	2895
829.829	3001
829.968	3104
830.107	3009
830.246	3036
830.385	2937
830.524	2853
830.663	2823
830.802	2712
830.941	2617
831.08	2663
831.219	2781
831.357	2807
831.496	2918
831.635	2701
831.774	2663
831.913	2682
832.051	2552
832.19	2579
832.329	2674
832.467	2533
832.606	2488
832.744	2579
832.883	2568
833.022	2587
833.16	2651
833.299	2648
833.437	2678
833.576	2708
833.714	2746
833.852	2712
833.991	2769
834.129	2872
834.267	2819
834.406	2788
834.544	2868
834.682	2918
834.821	2853
834.959	3039
835.097	2887
835.235	3039
835.373	2979
835.511	2982
835.65	2986
835.788	2956
835.926	2819
836.064	2781
836.202	2823
836.34	3081
836.478	3165
836.615	3024
836.753	3093
836.891	3199
837.029	3150
837.167	3093
837.305	3051
837.443	3043
837.58	2967
837.718	3127
837.856	3055
837.993	3013
838.131	3119
838.269	3116
838.406	3051
838.544	3070
838.681	2925
838.819	2880
838.956	2826
839.094	2826
839.231	2891
839.369	3005
839.506	3359
839.643	3211
839.781	3009
839.918	2956
840.055	3032
840.193	3017
840.33	3055
840.467	3097
840.604	3108
840.742	3401
840.879	3047
841.016	3017
841.153	3104
841.29	3340
841.427	3294
841.564	3249
841.701	3275
841.838	3218
841.975	3180
842.112	3192
842.249	3089
842.385	3043
842.522	3268
842.659	3055
842.796	3028
842.933	3089
843.069	2998
843.206	3047
843.343	3218
843.479	3104
843.616	3146
843.752	2876
843.889	2857
844.025	3077
844.162	2861
844.298	3074
844.435	2925
844.571	2925
844.708	3043
844.844	3188
844.98	3233
845.117	3199
845.253	3074
845.389	3005
845.525	3077
845.661	3097
845.798	2971
845.934	3154
846.07	3032
846.206	3233
846.342	3302
846.478	3233
846.614	3108
846.75	3013
846.886	3028
847.022	3256
847.158	3112
847.294	3184
847.429	3272
847.565	3253
847.701	3462
847.837	3009
847.972	3005
848.108	3165
848.244	3116
848.379	2956
848.515	2971
848.65	2868
848.786	2963
848.921	3032
849.057	3066
849.192	3161
849.328	3093
849.463	3112
849.598	3074
849.734	3028
849.869	2944
850.004	2925
850.14	2941
850.275	2899
850.41	2838
850.545	2872
850.68	2941
850.815	2941
850.95	2971
851.085	3157
851.22	3066
851.355	3036
851.49	2982
851.625	2982
851.76	3009
851.895	2941
852.03	2891
852.165	2998
852.299	3108
852.434	3184
852.569	3154
852.703	3131
852.838	3199
852.973	3294
853.107	3302
853.242	3119
853.376	3081
853.511	2963
853.645	3020
853.78	3249
853.914	3127
854.048	3108
854.183	3047
854.317	3146
854.451	3291
854.585	3108
854.72	3077
854.854	3203
854.988	3043
855.122	3081
855.256	2998
855.39	3116
855.524	3249
855.658	3165
855.792	3169
855.926	3176
856.06	3245
856.194	3287
856.327	3100
856.461	3066
856.595	3100
856.729	3077
856.862	3218
856.996	3195
857.13	3192
857.263	3249
857.397	3272
857.53	3074
857.664	3184
857.797	3226
857.931	3226
858.064	3138
858.197	3207
858.331	3077
858.464	3055
858.597	2979
858.731	3127
858.864	3104
858.997	3077
859.13	3112
859.263	3188
859.396	3180
859.529	3097
859.662	3104
859.795	3001
859.928	3150
860.061	3279
860.194	3241
860.327	3108
860.46	3093
860.592	3241
860.725	3253
860.858	3253
860.99	3058
861.123	3047
861.256	3081
861.388	3135
861.521	3808
861.653	3009
861.786	3017
861.918	2982
862.05	3055
862.183	3104
862.315	3142
862.447	3199
862.58	3070
862.712	2967
862.844	2868
862.976	3024
863.108	2971
863.24	3317
863.372	2887
863.504	2998
863.636	2990
863.768	3024
863.9	3013
864.032	2925
864.164	2956
864.296	2979
864.428	3070
864.559	3066
864.691	3089
864.823	3074
864.954	3043
865.086	3024
865.217	2979
865.349	2918
865.48	3013
865.612	3009
865.743	3142
865.875	2982
866.006	2933
866.137	2975
866.269	2922
866.4	2933
866.531	2982
866.662	2872
866.793	2883
866.924	2910
867.055	2975
867.186	2895
867.317	2883
867.448	2842
867.579	2857
867.71	2861
867.841	2823
867.972	2876
868.103	2922
868.233	2830
868.364	2891
868.495	2853
868.625	3089
868.756	3165
868.886	2956
869.017	2998
869.147	3180
869.278	3138
869.408	3081
869.539	3024
869.669	3077
869.799	3017
869.929	3146
870.06	3119
870.19	3291
870.32	3275
870.45	3275
870.58	3370
870.71	3450
870.84	3473
870.97	3302
871.1	3222
871.23	3496
871.36	3473
871.489	3348
871.619	3382
871.749	3454
871.879	3435
872.008	3492
872.138	3332
872.267	3253
872.397	3161
872.526	3070
872.656	2998
872.785	3097
872.915	3253
873.044	3291
873.173	3222
873.303	3253
873.432	3218
873.561	3241
873.69	3127
873.819	3127
873.948	3199
874.077	3097
874.206	3032
874.335	3081
874.464	3161
874.593	3332
874.722	3222
874.851	3382
874.979	3321
875.108	3306
875.237	3214
875.365	3161
875.494	3142
875.623	3260
875.751	3051
875.88	3135
876.008	3169
876.136	3211
876.265	3351
876.393	3519
876.521	3431
876.65	3420
876.778	3302
876.906	3245
877.034	3222
877.162	3260
877.29	3154
877.418	3233
877.546	3226
877.674	3249
877.802	3207
877.93	3207
878.058	3142
878.185	3127
878.313	3165
878.441	3203
878.568	3051
878.696	3146
878.824	3245
878.951	3279
879.079	3431
879.206	3614
879.333	3454
879.461	3336
879.588	3351
879.715	3462
879.842	3591
879.97	3336
880.097	3157
880.224	3119
880.351	3173
880.478	3279
880.605	3180
880.732	3195
880.859	3450
880.986	3321
881.112	3348
881.239	3218
881.366	3085
881.493	3009
881.619	3020
881.746	3039
881.872	3085
881.999	3089
882.125	3165
882.252	3275
882.378	3268
882.505	3401
882.631	3291
882.757	3138
882.883	3154
883.01	3222
883.136	3119
883.262	3104
883.388	3100
883.514	3306
883.64	3321
883.766	3275
883.892	3218
884.018	3230
884.143	3424
884.269	3530
884.395	3188
884.52	3173
884.646	3154
884.772	3119
884.897	3112
885.023	3207
885.148	3313
885.274	3428
885.399	3359
885.524	3302
885.65	3275
885.775	3294
885.9	3253
886.025	3393
886.15	3374
886.275	3279
886.4	3241
886.525	3321
886.65	3283
886.775	3260
886.9	3462
887.025	3603
887.149	3401
887.274	3230
887.399	3180
887.523	3192
887.648	3203
887.773	3199
887.897	3424
888.021	3397
888.146	3287
888.27	3424
888.395	3542
888.519	3477
888.643	3469
888.767	3447
888.891	3272
889.015	3218
889.139	3275
889.263	3233
889.387	3370
889.511	3504
889.635	3473
889.759	3294
889.883	3306
890.006	3370
890.13	3477
890.254	3241
890.377	3340
890.501	3237
890.624	3195
890.748	3272
890.871	3165
890.995	3089
891.118	3043
891.241	3173
891.364	3218
891.488	3313
891.611	3180
891.734	3241
891.857	3272
891.98	3241
892.103	3329
892.226	3218
892.349	3207
892.471	3123
892.594	3226
892.717	3264
892.839	3272
892.962	3283
893.085	3310
893.207	3279
893.33	3135
893.452	3203
893.575	3344
893.697	3272
893.819	3496
893.941	3496
894.064	3401
894.186	3272
894.308	3268
894.43	3397
894.552	3538
894.674	3450
894.796	3230
894.918	3317
895.04	3264
895.161	3409
895.283	3370
895.405	3291
895.526	3348
895.648	3416
895.769	3405
895.891	3462
896.012	3469
896.134	3469
896.255	3458
896.376	3405
896.498	3367
896.619	3428
896.74	3351
896.861	3431
896.982	3660
897.103	3816
897.224	3595
897.345	3523
897.466	3401
897.587	3523
897.708	3584
897.828	3542
897.949	3469
898.07	3355
898.19	3401
898.311	3591
898.431	3435
898.552	3519
898.672	3576
898.792	3576
898.913	3507
899.033	3412
899.153	3283
899.273	3188
899.393	3264
899.513	3321
899.633	3294
899.753	3359
899.873	3306
899.993	3378
900.113	3317
900.232	3397
900.352	3325
900.472	3336
900.591	3195
900.711	3298
900.83	3230
900.95	3412
901.069	3488
901.189	3310
901.308	3165
901.427	3081
901.546	3188
901.665	3279
901.784	3336
901.904	3180
902.023	3135
902.141	3032
902.26	2967
902.379	3123
902.498	3097
902.617	3013
902.735	3157
902.854	3260
902.973	3195
903.091	3024
903.21	3032
903.328	3138
903.446	3093
903.565	3089
903.683	3237
903.801	3146
903.919	3230
904.038	3283
904.156	3161
904.274	3245
904.392	3256
904.51	3275
904.627	3351
904.745	3412
904.863	3515
904.981	3291
905.098	3214
905.216	3241
905.334	3253
905.451	3279
905.569	3329
905.686	3405
905.803	3454
905.921	3287
906.038	3409
906.155	3332
906.272	3253
906.389	3332
906.506	3237
906.623	3211
906.74	3287
906.857	3123
906.974	3260
907.091	3458
907.208	3549
907.324	3488
907.441	3374
907.557	3207
907.674	3275
907.79	3169
907.907	3283
908.023	3374
908.139	3374
908.256	3291
908.372	3389
908.488	3367
908.604	3249
908.72	3188
908.836	3306
908.952	3313
909.068	3302
909.184	3511
909.3	3412
909.415	3469
909.531	3447
909.647	3264
909.762	3302
909.878	3264
909.993	3321
910.108	3310
910.224	3336
910.339	3386
910.454	3325
910.57	3294
910.685	3207
910.8	3557
910.915	3488
911.03	3428
911.145	3268
911.259	3207
911.374	3317
911.489	3253
911.604	3268
911.718	3104
911.833	3138
911.947	3020
912.062	2998
912.176	3119
912.291	3165
912.405	3176
912.519	3409
912.633	3428
912.748	3336
912.862	3260
912.976	3108
913.09	3051
913.204	3089
913.318	3207
913.431	3310
913.545	3306
913.659	3374
913.772	3336
913.886	3195
914	3180
914.113	3313
914.226	3363
914.34	3378
914.453	3233
914.566	3397
914.68	3275
914.793	3317
914.906	3157
915.019	3089
915.132	3070
915.245	3146
915.358	3165
915.47	3222
915.583	3268
915.696	3298
915.809	3367
915.921	3412
916.034	3294
916.146	3245
916.259	3222
916.371	3389
916.483	3420
916.595	3260
916.708	3355
916.82	3321
916.932	3355
917.044	3344
917.156	3367
917.268	3256
917.38	3325
917.491	3310
917.603	3340
917.715	3443
917.826	3515
917.938	3401
918.049	3287
918.161	3431
918.272	3584
918.384	3561
918.495	3492
918.606	3367
918.717	3241
918.828	3363
918.939	3443
919.05	3325
919.161	3374
919.272	3184
919.383	3287
919.494	3538
919.604	3709
919.715	3496
919.826	3412
919.936	3454
920.047	3587
920.157	3614
920.267	3804
920.378	3667
920.488	3614
920.598	3762
920.708	3945
920.818	3873
920.928	3884
921.038	4063
921.148	4029
921.258	3717
921.368	3660
921.477	3641
921.587	3599
921.697	3523
921.806	3679
921.916	3538
922.025	3431
922.134	3389
922.244	3393
922.353	3450
922.462	3287
922.571	3268
922.68	3138
922.789	3116
922.898	3169
923.007	3108
923.116	3313
923.224	3214
923.333	3256
923.442	3138
923.55	3138
923.659	3211
923.767	3260
923.876	3157
923.984	3245
924.092	3131
924.201	3241
924.309	3188
924.417	3321
924.525	3192
924.633	3275
924.741	4044
924.849	3043
924.956	3298
925.064	3146
925.172	3066
925.279	3116
925.387	3260
925.494	3222
925.602	3428
925.709	3359
925.816	3256
925.924	3256
926.031	3431
926.138	3359
926.245	3401
926.352	3272
926.459	3515
926.566	3496
926.673	3340
926.779	3272
926.886	3294
926.993	3165
927.099	3154
927.206	3138
927.312	3176
927.419	3264
927.525	3230
927.631	3306
927.737	3199
927.843	3142
927.95	3055
928.056	3176
928.162	3218
928.267	3233
928.373	3778
928.479	3332
928.585	3100
928.69	3226
928.796	3313
928.901	3176
929.007	3100
929.112	3256
929.218	3207
929.323	3211
929.428	3176
929.533	3321
929.638	3150
929.743	3176
929.848	3245
929.953	3264
930.058	3195
930.163	3032
930.267	3058
930.372	3218
930.477	3108
930.581	3329
930.685	3199
930.79	3039
930.894	3142
930.998	3173
931.103	3329
931.207	2990
931.311	3001
931.415	2937
931.519	2826
931.623	2845
