Data from test_V78500241_897.txt Node
Date: Fri Mar 25 16:21:25 CST 2022
User: usil
Spectrometer: V785-0024
Trigger mode: 0
Integration Time (sec): 4.000000E-1
Scans to average: 1
Nonlinearity correction enabled: false
Boxcar width: 0
Storing dark spectrum: false
XAxis mode: Wavelengths
Number of Pixels in Spectrum: 1024
>>>>>Begin Spectral Data<<<<<
801.071	2944
801.214	2944
801.356	2906
801.499	2910
801.641	2922
801.783	2944
801.926	3062
802.068	2967
802.211	3032
802.353	3028
802.496	3013
802.638	3032
802.78	3036
802.923	3104
803.065	3001
803.208	2910
803.35	2967
803.492	2933
803.635	2922
803.777	2758
803.919	2868
804.061	3222
804.204	2982
804.346	2914
804.488	2872
804.63	3013
804.773	2849
804.915	2941
805.057	3089
805.199	2941
805.341	2994
805.483	3062
805.626	3005
805.768	2975
805.91	3077
806.052	3097
806.194	3047
806.336	3291
806.478	3013
806.62	2952
806.762	2982
806.904	3051
807.046	3192
807.188	3017
807.33	2937
807.472	3020
807.614	2944
807.756	2963
807.898	2948
808.04	2933
808.182	2998
808.324	2933
808.465	2902
808.607	2864
808.749	2792
808.891	2872
809.033	2998
809.174	3013
809.316	2880
809.458	2925
809.6	2823
809.741	2796
809.883	2796
810.025	2880
810.166	2876
810.308	2880
810.45	2857
810.591	2800
810.733	2785
810.875	2823
811.016	2781
811.158	2773
811.299	2826
811.441	2956
811.582	2937
811.724	2842
811.865	2838
812.007	2906
812.148	2864
812.29	2823
812.431	2887
812.573	2948
812.714	2975
812.855	3043
812.997	3051
813.138	3135
813.279	2994
813.421	3013
813.562	2986
813.703	2880
813.845	2914
813.986	2788
814.127	2754
814.268	2823
814.41	2838
814.551	2834
814.692	2910
814.833	2826
814.974	2872
815.115	2971
815.256	2864
815.397	2804
815.539	2922
815.68	2826
815.821	2804
815.962	2948
816.103	2925
816.244	2902
816.385	2868
816.526	2967
816.666	2929
816.807	2758
816.948	2899
817.089	2933
817.23	2861
817.371	2826
817.512	2804
817.653	2853
817.793	2845
817.934	2883
818.075	2990
818.216	2994
818.356	3055
818.497	2899
818.638	2777
818.778	2842
818.919	2823
819.06	2785
819.2	2914
819.341	2819
819.481	2830
819.622	2948
819.762	3104
819.903	3036
820.043	2941
820.184	2891
820.324	2941
820.465	3039
820.605	3047
820.746	3032
820.886	2925
821.026	3097
821.167	3165
821.307	3268
821.447	3325
821.588	3226
821.728	3211
821.868	3207
822.008	3077
822.149	3192
822.289	3275
822.429	3093
822.569	3070
822.709	3188
822.849	3047
822.99	3097
823.13	3211
823.27	3214
823.41	3104
823.55	3154
823.69	3154
823.83	3226
823.97	3123
824.11	2994
824.25	3001
824.389	3089
824.529	3112
824.669	3077
824.809	3176
824.949	3233
825.089	3214
825.228	3192
825.368	3028
825.508	2975
825.648	2979
825.787	3005
825.927	2994
826.067	2986
826.206	2975
826.346	3085
826.485	3070
826.625	3138
826.765	3283
826.904	3188
827.044	2998
827.183	2918
827.323	2861
827.462	3001
827.601	2899
827.741	2918
827.88	2960
828.02	2823
828.159	2960
828.298	3043
828.437	3108
828.577	3028
828.716	3245
828.855	3081
828.994	2891
829.134	2899
829.273	2922
829.412	2899
829.551	2864
829.69	2895
829.829	2994
829.968	3119
830.107	3001
830.246	3066
830.385	2956
830.524	2883
830.663	2830
830.802	2727
830.941	2640
831.08	2636
831.219	2735
831.357	2815
831.496	2975
831.635	2727
831.774	2655
831.913	2644
832.051	2533
832.19	2568
832.329	2697
832.467	2533
832.606	2499
832.744	2632
832.883	2613
833.022	2610
833.16	2648
833.299	2686
833.437	2716
833.576	2727
833.714	2735
833.852	2769
833.991	2769
834.129	2853
834.267	2857
834.406	2785
834.544	2887
834.682	2906
834.821	2868
834.959	3077
835.097	2910
835.235	3066
835.373	3013
835.511	3028
835.65	2994
835.788	2952
835.926	2834
836.064	2815
836.202	2857
836.34	3116
836.478	3146
836.615	3009
836.753	3150
836.891	3199
837.029	3150
837.167	3112
837.305	3062
837.443	3020
837.58	2956
837.718	3157
837.856	3051
837.993	3036
838.131	3112
838.269	3081
838.406	3085
838.544	3100
838.681	2986
838.819	2937
838.956	2845
839.094	2811
839.231	2948
839.369	3043
839.506	3397
839.643	3249
839.781	3047
839.918	2967
840.055	3055
840.193	3058
840.33	3104
840.467	3100
840.604	3154
840.742	3348
840.879	3074
841.016	3043
841.153	3116
841.29	3359
841.427	3287
841.564	3256
841.701	3298
841.838	3199
841.975	3211
842.112	3214
842.249	3074
842.385	3024
842.522	3253
842.659	3077
842.796	3077
842.933	3119
843.069	3070
843.206	3039
843.343	3146
843.479	3104
843.616	3116
843.752	2880
843.889	2876
844.025	3085
844.162	2868
844.298	3066
844.435	2971
844.571	2918
844.708	3097
844.844	3142
844.98	3203
845.117	3230
845.253	3055
845.389	2990
845.525	3119
845.661	3074
845.798	3009
845.934	3123
846.07	3074
846.206	3241
846.342	3325
846.478	3253
846.614	3081
846.75	3058
846.886	3077
847.022	3321
847.158	3138
847.294	3195
847.429	3253
847.565	3222
847.701	3519
847.837	3089
847.972	2998
848.108	3192
848.244	3199
848.379	3039
848.515	2979
848.65	2960
848.786	3001
848.921	3043
849.057	3150
849.192	3157
849.328	3058
849.463	3169
849.598	3043
849.734	3081
849.869	2994
850.004	2925
850.14	2994
850.275	2952
850.41	2902
850.545	2914
850.68	2975
850.815	2975
850.95	2994
851.085	3249
851.22	3150
851.355	3058
851.49	3024
851.625	3043
851.76	3077
851.895	2994
852.03	2933
852.165	3097
852.299	3131
852.434	3253
852.569	3123
852.703	3211
852.838	3283
852.973	3370
853.107	3386
853.242	3230
853.376	3119
853.511	3032
853.645	3081
853.78	3306
853.914	3138
854.048	3173
854.183	3089
854.317	3161
854.451	3336
854.585	3146
854.72	3131
854.854	3283
854.988	3108
855.122	3169
855.256	3005
855.39	3184
855.524	3264
855.658	3214
855.792	3176
855.926	3256
856.06	3260
856.194	3264
856.327	3184
856.461	3138
856.595	3138
856.729	3116
856.862	3230
856.996	3222
857.13	3237
857.263	3256
857.397	3329
857.53	3146
857.664	3214
857.797	3260
857.931	3302
858.064	3230
858.197	3253
858.331	3184
858.464	3127
858.597	3043
858.731	3157
858.864	3199
858.997	3112
859.13	3203
859.263	3211
859.396	3222
859.529	3123
859.662	3081
859.795	3066
859.928	3146
860.061	3272
860.194	3344
860.327	3142
860.46	3131
860.592	3245
860.725	3256
860.858	3256
860.99	3116
861.123	3081
861.256	3119
861.388	3218
861.521	3865
861.653	3051
861.786	3001
861.918	3017
862.05	3119
862.183	3150
862.315	3176
862.447	3237
862.58	3131
862.712	2975
862.844	2925
862.976	3058
863.108	3020
863.24	3329
863.372	2922
863.504	2971
863.636	2982
863.768	3074
863.9	2967
864.032	2925
864.164	3001
864.296	3066
864.428	3146
864.559	3112
864.691	3112
864.823	3123
864.954	3070
865.086	3077
865.217	3032
865.349	2979
865.48	3020
865.612	3024
865.743	3176
865.875	3066
866.006	2990
866.137	2986
866.269	2967
866.4	2975
866.531	2960
866.662	2971
866.793	2952
866.924	2956
867.055	2971
867.186	2963
867.317	2887
867.448	2826
867.579	2872
867.71	2902
867.841	2857
867.972	2956
868.103	2910
868.233	2937
868.364	2933
868.495	2952
868.625	3154
868.756	3214
868.886	3005
869.017	3047
869.147	3226
869.278	3222
869.408	3081
869.539	3036
869.669	3085
869.799	3058
869.929	3203
870.06	3131
870.19	3359
870.32	3317
870.45	3317
870.58	3344
870.71	3447
870.84	3454
870.97	3310
871.1	3241
871.23	3488
871.36	3466
871.489	3363
871.619	3382
871.749	3405
871.879	3435
872.008	3488
872.138	3370
872.267	3294
872.397	3214
872.526	3169
872.656	3039
872.785	3154
872.915	3325
873.044	3332
873.173	3260
873.303	3279
873.432	3256
873.561	3230
873.69	3173
873.819	3165
873.948	3203
874.077	3135
874.206	3058
874.335	3127
874.464	3245
874.593	3409
874.722	3264
874.851	3443
874.979	3348
875.108	3374
875.237	3253
875.365	3218
875.494	3180
875.623	3294
875.751	3104
875.88	3161
876.008	3226
876.136	3214
876.265	3370
876.393	3545
876.521	3439
876.65	3462
876.778	3340
876.906	3291
877.034	3237
877.162	3241
877.29	3226
877.418	3237
877.546	3253
877.674	3294
877.802	3249
877.93	3272
878.058	3173
878.185	3112
878.313	3256
878.441	3233
878.568	3097
878.696	3169
878.824	3291
878.951	3317
879.079	3466
879.206	3610
879.333	3485
879.461	3355
879.588	3386
879.715	3572
879.842	3545
879.97	3389
880.097	3165
880.224	3123
880.351	3203
880.478	3268
880.605	3253
880.732	3211
880.859	3519
880.986	3306
881.112	3332
881.239	3199
881.366	3116
881.493	3047
881.619	2990
881.746	3074
881.872	3131
881.999	3112
882.125	3195
882.252	3279
882.378	3325
882.505	3469
882.631	3313
882.757	3192
882.883	3218
883.01	3260
883.136	3157
883.262	3135
883.388	3119
883.514	3340
883.64	3416
883.766	3325
883.892	3211
884.018	3264
884.143	3454
884.269	3523
884.395	3260
884.52	3173
884.646	3222
884.772	3161
884.897	3119
885.023	3237
885.148	3393
885.274	3431
885.399	3386
885.524	3294
885.65	3313
885.775	3321
885.9	3275
886.025	3477
886.15	3348
886.275	3310
886.4	3272
886.525	3363
886.65	3253
886.775	3298
886.9	3534
887.025	3694
887.149	3443
887.274	3321
887.399	3253
887.523	3230
887.648	3176
887.773	3245
887.897	3397
888.021	3439
888.146	3317
888.27	3431
888.395	3545
888.519	3496
888.643	3428
888.767	3469
888.891	3325
889.015	3287
889.139	3298
889.263	3287
889.387	3386
889.511	3507
889.635	3443
889.759	3291
889.883	3321
890.006	3393
890.13	3500
890.254	3329
890.377	3370
890.501	3233
890.624	3169
890.748	3329
890.871	3157
890.995	3116
891.118	3089
891.241	3203
891.364	3230
891.488	3332
891.611	3184
891.734	3237
891.857	3336
891.98	3253
892.103	3367
892.226	3313
892.349	3203
892.471	3146
892.594	3260
892.717	3329
892.839	3275
892.962	3291
893.085	3397
893.207	3317
893.33	3161
893.452	3241
893.575	3378
893.697	3249
893.819	3526
893.941	3500
894.064	3485
894.186	3287
894.308	3294
894.43	3447
894.552	3530
894.674	3492
894.796	3279
894.918	3344
895.04	3283
895.161	3431
895.283	3416
895.405	3344
895.526	3412
895.648	3466
895.769	3428
895.891	3450
896.012	3466
896.134	3511
896.255	3378
896.376	3401
896.498	3401
896.619	3405
896.74	3386
896.861	3428
896.982	3682
897.103	3842
897.224	3557
897.345	3534
897.466	3435
897.587	3504
897.708	3644
897.828	3561
897.949	3473
898.07	3351
898.19	3439
898.311	3660
898.431	3458
898.552	3519
898.672	3606
898.792	3553
898.913	3561
899.033	3447
899.153	3283
899.273	3237
899.393	3275
899.513	3317
899.633	3351
899.753	3363
899.873	3313
899.993	3374
900.113	3393
900.232	3409
900.352	3367
900.472	3298
900.591	3260
900.711	3317
900.83	3260
900.95	3443
901.069	3511
901.189	3336
901.308	3176
901.427	3135
901.546	3241
901.665	3340
901.784	3359
901.904	3203
902.023	3157
902.141	3024
902.26	3001
902.379	3138
902.498	3055
902.617	3081
902.735	3264
902.854	3272
902.973	3230
903.091	3085
903.21	3100
903.328	3184
903.446	3116
903.565	3131
903.683	3199
903.801	3119
903.919	3256
904.038	3249
904.156	3203
904.274	3325
904.392	3272
904.51	3272
904.627	3363
904.745	3435
904.863	3496
904.981	3233
905.098	3195
905.216	3272
905.334	3325
905.451	3260
905.569	3306
905.686	3462
905.803	3443
905.921	3291
906.038	3450
906.155	3348
906.272	3302
906.389	3348
906.506	3214
906.623	3291
906.74	3272
906.857	3214
906.974	3233
907.091	3481
907.208	3580
907.324	3488
907.441	3393
907.557	3253
907.674	3268
907.79	3188
907.907	3268
908.023	3428
908.139	3405
908.256	3367
908.372	3348
908.488	3363
908.604	3283
908.72	3245
908.836	3306
908.952	3294
909.068	3325
909.184	3488
909.3	3351
909.415	3511
909.531	3485
909.647	3268
909.762	3306
909.878	3283
909.993	3329
910.108	3370
910.224	3344
910.339	3378
910.454	3336
910.57	3317
910.685	3253
910.8	3599
910.915	3538
911.03	3405
911.145	3283
911.259	3275
911.374	3298
911.489	3260
911.604	3260
911.718	3131
911.833	3211
911.947	3058
912.062	3051
912.176	3173
912.291	3226
912.405	3195
912.519	3447
912.633	3530
912.748	3370
912.862	3272
912.976	3157
913.09	3043
913.204	3131
913.318	3195
913.431	3378
913.545	3367
913.659	3431
913.772	3378
913.886	3264
914	3214
914.113	3382
914.226	3431
914.34	3378
914.453	3214
914.566	3393
914.68	3329
914.793	3298
914.906	3150
915.019	3119
915.132	3081
915.245	3192
915.358	3214
915.47	3203
915.583	3260
915.696	3302
915.809	3431
915.921	3397
916.034	3211
916.146	3230
916.259	3249
916.371	3382
916.483	3367
916.595	3294
916.708	3310
916.82	3378
916.932	3378
917.044	3367
917.156	3382
917.268	3291
917.38	3283
917.491	3306
917.603	3416
917.715	3485
917.826	3458
917.938	3412
918.049	3332
918.161	3473
918.272	3553
918.384	3595
918.495	3511
918.606	3359
918.717	3279
918.828	3351
918.939	3393
919.05	3302
919.161	3351
919.272	3173
919.383	3313
919.494	3553
919.604	3675
919.715	3530
919.826	3420
919.936	3458
920.047	3595
920.157	3564
920.267	3774
920.378	3648
920.488	3580
920.598	3800
920.708	3964
920.818	3880
920.928	3846
921.038	3983
921.148	3953
921.258	3720
921.368	3656
921.477	3572
921.587	3587
921.697	3477
921.806	3663
921.916	3519
922.025	3370
922.134	3370
922.244	3294
922.353	3420
922.462	3264
922.571	3237
922.68	3108
922.789	3127
922.898	3157
923.007	3108
923.116	3192
923.224	3161
923.333	3161
923.442	3085
923.55	3085
923.659	3131
923.767	3233
923.876	3131
923.984	3249
924.092	3104
924.201	3211
924.309	3203
924.417	3253
924.525	3176
924.633	3253
924.741	4166
924.849	3062
924.956	3268
925.064	3142
925.172	3028
925.279	3138
925.387	3199
925.494	3226
925.602	3363
925.709	3313
925.816	3207
925.924	3283
926.031	3374
926.138	3329
926.245	3351
926.352	3256
926.459	3428
926.566	3477
926.673	3367
926.779	3253
926.886	3256
926.993	3188
927.099	3138
927.206	3104
927.312	3100
927.419	3222
927.525	3222
927.631	3272
927.737	3123
927.843	3127
927.95	3039
928.056	3169
928.162	3146
928.267	3249
928.373	3869
928.479	3340
928.585	3081
928.69	3241
928.796	3245
928.901	3169
929.007	3039
929.112	3218
929.218	3135
929.323	3146
929.428	3142
929.533	3336
929.638	3150
929.743	3173
929.848	3245
929.953	3214
930.058	3131
930.163	3020
930.267	3051
930.372	3203
930.477	3032
930.581	3344
930.685	3203
930.79	3085
930.894	3108
930.998	3077
931.103	3287
931.207	2956
931.311	2948
931.415	2906
931.519	2785
931.623	2804
