Data from test_V78500241_1882.txt Node
Date: Fri Mar 25 16:28:14 CST 2022
User: usil
Spectrometer: V785-0024
Trigger mode: 0
Integration Time (sec): 4.000000E-1
Scans to average: 1
Nonlinearity correction enabled: false
Boxcar width: 0
Storing dark spectrum: false
XAxis mode: Wavelengths
Number of Pixels in Spectrum: 1024
>>>>>Begin Spectral Data<<<<<
801.071	2937
801.214	2960
801.356	2838
801.499	2933
801.641	2857
801.783	2906
801.926	3051
802.068	2967
802.211	3032
802.353	3055
802.496	2979
802.638	3051
802.78	3005
802.923	3017
803.065	3020
803.208	2906
803.35	2906
803.492	2948
803.635	2937
803.777	2777
803.919	2883
804.061	3161
804.204	2937
804.346	2925
804.488	2842
804.63	2994
804.773	2876
804.915	2891
805.057	3066
805.199	2914
805.341	3009
805.483	3032
805.626	2994
805.768	2956
805.91	3085
806.052	3112
806.194	2990
806.336	3192
806.478	3013
806.62	2948
806.762	2960
806.904	3074
807.046	3165
807.188	2967
807.33	2922
807.472	2937
807.614	2918
807.756	2975
807.898	2925
808.04	2895
808.182	2952
808.324	2910
808.465	2857
808.607	2895
808.749	2796
808.891	2861
809.033	2944
809.174	3020
809.316	2887
809.458	2910
809.6	2788
809.741	2785
809.883	2785
810.025	2834
810.166	2853
810.308	2807
810.45	2838
810.591	2750
810.733	2739
810.875	2834
811.016	2792
811.158	2773
811.299	2792
811.441	2895
811.582	2910
811.724	2796
811.865	2823
812.007	2899
812.148	2891
812.29	2876
812.431	2902
812.573	2880
812.714	2937
812.855	3005
812.997	3051
813.138	3097
813.279	2998
813.421	2975
813.562	2952
813.703	2861
813.845	2880
813.986	2788
814.127	2766
814.268	2826
814.41	2857
814.551	2785
814.692	2849
814.833	2826
814.974	2876
815.115	2998
815.256	2815
815.397	2807
815.539	2883
815.68	2811
815.821	2823
815.962	2910
816.103	2914
816.244	2861
816.385	2880
816.526	2952
816.666	2910
816.807	2743
816.948	2834
817.089	2914
817.23	2830
817.371	2762
817.512	2785
817.653	2845
817.793	2826
817.934	2876
818.075	2944
818.216	2982
818.356	3036
818.497	2861
818.638	2788
818.778	2819
818.919	2792
819.06	2746
819.2	2853
819.341	2792
819.481	2796
819.622	2941
819.762	3104
819.903	3020
820.043	2941
820.184	2887
820.324	2902
820.465	3028
820.605	3070
820.746	3039
820.886	2960
821.026	3112
821.167	3161
821.307	3264
821.447	3294
821.588	3264
821.728	3154
821.868	3222
822.008	3100
822.149	3135
822.289	3237
822.429	3074
822.569	3062
822.709	3180
822.849	3036
822.99	3081
823.13	3161
823.27	3203
823.41	3104
823.55	3100
823.69	3176
823.83	3161
823.97	3131
824.11	2994
824.25	3020
824.389	3097
824.529	3112
824.669	3055
824.809	3203
824.949	3245
825.089	3199
825.228	3123
825.368	3001
825.508	2971
825.648	2979
825.787	2963
825.927	2990
826.067	3001
826.206	2979
826.346	3020
826.485	3043
826.625	3123
826.765	3237
826.904	3180
827.044	3013
827.183	2948
827.323	2811
827.462	2944
827.601	2902
827.741	2899
827.88	2948
828.02	2830
828.159	2948
828.298	3005
828.437	3077
828.577	3039
828.716	3233
828.855	3085
828.994	2910
829.134	2842
829.273	2914
829.412	2857
829.551	2849
829.69	2868
829.829	2990
829.968	3135
830.107	2990
830.246	3020
830.385	2876
830.524	2864
830.663	2781
830.802	2727
830.941	2636
831.08	2632
831.219	2762
831.357	2788
831.496	2944
831.635	2712
831.774	2663
831.913	2678
832.051	2533
832.19	2571
832.329	2674
832.467	2518
832.606	2499
832.744	2571
832.883	2560
833.022	2575
833.16	2617
833.299	2693
833.437	2701
833.576	2720
833.714	2697
833.852	2731
833.991	2739
834.129	2830
834.267	2785
834.406	2754
834.544	2857
834.682	2861
834.821	2849
834.959	3039
835.097	2895
835.235	3070
835.373	3013
835.511	2998
835.65	2922
835.788	2967
835.926	2804
836.064	2781
836.202	2849
836.34	3104
836.478	3119
836.615	3051
836.753	3123
836.891	3188
837.029	3123
837.167	3104
837.305	3028
837.443	3047
837.58	2941
837.718	3100
837.856	3020
837.993	3017
838.131	3131
838.269	3081
838.406	3089
838.544	3093
838.681	2925
838.819	2948
838.956	2807
839.094	2807
839.231	2902
839.369	3001
839.506	3344
839.643	3207
839.781	3009
839.918	2918
840.055	3058
840.193	3058
840.33	3032
840.467	3062
840.604	3142
840.742	3367
840.879	3043
841.016	3081
841.153	3097
841.29	3321
841.427	3298
841.564	3253
841.701	3264
841.838	3211
841.975	3169
842.112	3214
842.249	3085
842.385	3039
842.522	3253
842.659	3081
842.796	3058
842.933	3085
843.069	3051
843.206	3028
843.343	3203
843.479	3104
843.616	3150
843.752	2872
843.889	2849
844.025	3089
844.162	2872
844.298	3074
844.435	2971
844.571	2910
844.708	3081
844.844	3142
844.98	3230
845.117	3188
845.253	3051
845.389	2952
845.525	3123
845.661	3081
845.798	3005
845.934	3104
846.07	3043
846.206	3237
846.342	3272
846.478	3203
846.614	3062
846.75	3028
846.886	3039
847.022	3241
847.158	3131
847.294	3211
847.429	3237
847.565	3233
847.701	3420
847.837	3047
847.972	3005
848.108	3154
848.244	3127
848.379	2990
848.515	2948
848.65	2929
848.786	2918
848.921	3032
849.057	3066
849.192	3138
849.328	3081
849.463	3089
849.598	3017
849.734	3062
849.869	2979
850.004	2914
850.14	2990
850.275	2902
850.41	2826
850.545	2906
850.68	2910
850.815	2986
850.95	2963
851.085	3195
851.22	3089
851.355	3028
851.49	2963
851.625	2933
851.76	3039
851.895	2910
852.03	2906
852.165	3020
852.299	3116
852.434	3150
852.569	3116
852.703	3184
852.838	3260
852.973	3336
853.107	3378
853.242	3135
853.376	3089
853.511	2998
853.645	3017
853.78	3245
853.914	3093
854.048	3097
854.183	3074
854.317	3123
854.451	3245
854.585	3123
854.72	3077
854.854	3195
854.988	3058
855.122	3062
855.256	2982
855.39	3123
855.524	3222
855.658	3173
855.792	3184
855.926	3180
856.06	3173
856.194	3211
856.327	3138
856.461	3077
856.595	3077
856.729	3081
856.862	3180
856.996	3157
857.13	3192
857.263	3241
857.397	3264
857.53	3104
857.664	3146
857.797	3192
857.931	3222
858.064	3203
858.197	3233
858.331	3116
858.464	3089
858.597	3001
858.731	3131
858.864	3131
858.997	3055
859.13	3131
859.263	3142
859.396	3237
859.529	3077
859.662	3077
859.795	3017
859.928	3127
860.061	3283
860.194	3275
860.327	3100
860.46	3062
860.592	3226
860.725	3256
860.858	3226
860.99	3093
861.123	3055
861.256	3074
861.388	3146
861.521	3816
861.653	3009
861.786	2956
861.918	2990
862.05	3051
862.183	3058
862.315	3108
862.447	3157
862.58	3085
862.712	2933
862.844	2872
862.976	3013
863.108	2960
863.24	3287
863.372	2910
863.504	2971
863.636	2918
863.768	3013
863.9	2994
864.032	2922
864.164	2929
864.296	2998
864.428	3043
864.559	3089
864.691	3020
864.823	3085
864.954	3043
865.086	3062
865.217	3005
865.349	2952
865.48	2967
865.612	2998
865.743	3127
865.875	3009
866.006	2929
866.137	2990
866.269	2952
866.4	2899
866.531	2906
866.662	2872
866.793	2895
866.924	2864
867.055	2963
867.186	2918
867.317	2857
867.448	2826
867.579	2842
867.71	2838
867.841	2785
867.972	2929
868.103	2872
868.233	2880
868.364	2883
868.495	2880
868.625	3074
868.756	3131
868.886	2982
869.017	3001
869.147	3157
869.278	3195
869.408	3043
869.539	3013
869.669	3055
869.799	3024
869.929	3097
870.06	3104
870.19	3329
870.32	3275
870.45	3317
870.58	3344
870.71	3454
870.84	3405
870.97	3283
871.1	3264
871.23	3473
871.36	3466
871.489	3359
871.619	3428
871.749	3389
871.879	3443
872.008	3500
872.138	3332
872.267	3275
872.397	3173
872.526	3135
872.656	3005
872.785	3077
872.915	3256
873.044	3302
873.173	3199
873.303	3214
873.432	3207
873.561	3218
873.69	3138
873.819	3138
873.948	3192
874.077	3085
874.206	3024
874.335	3047
874.464	3222
874.593	3321
874.722	3253
874.851	3412
874.979	3336
875.108	3306
875.237	3173
875.365	3161
875.494	3180
875.623	3199
875.751	3089
875.88	3093
876.008	3195
876.136	3226
876.265	3313
876.393	3496
876.521	3405
876.65	3359
876.778	3329
876.906	3268
877.034	3199
877.162	3222
877.29	3173
877.418	3241
877.546	3237
877.674	3253
877.802	3241
877.93	3245
878.058	3135
878.185	3085
878.313	3157
878.441	3218
878.568	3051
878.696	3146
878.824	3241
878.951	3287
879.079	3409
879.206	3633
879.333	3378
879.461	3313
879.588	3370
879.715	3443
879.842	3568
879.97	3378
880.097	3199
880.224	3157
880.351	3214
880.478	3253
880.605	3211
880.732	3157
880.859	3420
880.986	3283
881.112	3340
881.239	3199
881.366	3074
881.493	3055
881.619	3005
881.746	3058
881.872	3070
881.999	3089
882.125	3127
882.252	3256
882.378	3230
882.505	3469
882.631	3294
882.757	3154
882.883	3222
883.01	3218
883.136	3135
883.262	3104
883.388	3131
883.514	3336
883.64	3348
883.766	3310
883.892	3192
884.018	3214
884.143	3393
884.269	3549
884.395	3203
884.52	3131
884.646	3180
884.772	3104
884.897	3074
885.023	3203
885.148	3386
885.274	3393
885.399	3359
885.524	3260
885.65	3241
885.775	3336
885.9	3287
886.025	3428
886.15	3340
886.275	3272
886.4	3226
886.525	3268
886.65	3294
886.775	3310
886.9	3504
887.025	3629
887.149	3443
887.274	3214
887.399	3199
887.523	3195
887.648	3154
887.773	3188
887.897	3382
888.021	3424
888.146	3298
888.27	3431
888.395	3507
888.519	3428
888.643	3439
888.767	3458
888.891	3294
889.015	3230
889.139	3275
889.263	3245
889.387	3386
889.511	3462
889.635	3401
889.759	3291
889.883	3287
890.006	3374
890.13	3488
890.254	3279
890.377	3306
890.501	3203
890.624	3173
890.748	3249
890.871	3165
890.995	3123
891.118	3066
891.241	3211
891.364	3222
891.488	3351
891.611	3180
891.734	3207
891.857	3283
891.98	3222
892.103	3329
892.226	3207
892.349	3211
892.471	3138
892.594	3230
892.717	3272
892.839	3253
892.962	3279
893.085	3397
893.207	3306
893.33	3138
893.452	3226
893.575	3306
893.697	3233
893.819	3481
893.941	3538
894.064	3435
894.186	3294
894.308	3264
894.43	3450
894.552	3534
894.674	3447
894.796	3241
894.918	3340
895.04	3241
895.161	3397
895.283	3355
895.405	3310
895.526	3374
895.648	3428
895.769	3412
895.891	3435
896.012	3504
896.134	3485
896.255	3393
896.376	3409
896.498	3340
896.619	3439
896.74	3378
896.861	3389
896.982	3679
897.103	3838
897.224	3580
897.345	3469
897.466	3409
897.587	3469
897.708	3591
897.828	3545
897.949	3450
898.07	3340
898.19	3367
898.311	3580
898.431	3439
898.552	3496
898.672	3610
898.792	3561
898.913	3504
899.033	3405
899.153	3294
899.273	3188
899.393	3298
899.513	3302
899.633	3321
899.753	3306
899.873	3310
899.993	3386
900.113	3298
900.232	3401
900.352	3351
900.472	3302
900.591	3226
900.711	3287
900.83	3253
900.95	3393
901.069	3515
901.189	3367
901.308	3180
901.427	3108
901.546	3188
901.665	3306
901.784	3321
901.904	3180
902.023	3154
902.141	2998
902.26	3028
902.379	3108
902.498	3051
902.617	3051
902.735	3211
902.854	3211
902.973	3199
903.091	3066
903.21	3047
903.328	3119
903.446	3142
903.565	3127
903.683	3184
903.801	3138
903.919	3222
904.038	3275
904.156	3146
904.274	3294
904.392	3260
904.51	3321
904.627	3291
904.745	3428
904.863	3519
904.981	3275
905.098	3154
905.216	3207
905.334	3272
905.451	3287
905.569	3298
905.686	3405
905.803	3416
905.921	3275
906.038	3367
906.155	3332
906.272	3291
906.389	3317
906.506	3214
906.623	3222
906.74	3230
906.857	3195
906.974	3222
907.091	3439
907.208	3568
907.324	3443
907.441	3374
907.557	3230
907.674	3222
907.79	3180
907.907	3321
908.023	3355
908.139	3382
908.256	3325
908.372	3370
908.488	3351
908.604	3203
908.72	3226
908.836	3230
908.952	3268
909.068	3313
909.184	3469
909.3	3409
909.415	3496
909.531	3466
909.647	3272
909.762	3260
909.878	3222
909.993	3374
910.108	3344
910.224	3321
910.339	3416
910.454	3329
910.57	3306
910.685	3260
910.8	3561
910.915	3519
911.03	3420
911.145	3222
911.259	3264
911.374	3317
911.489	3245
911.604	3226
911.718	3112
911.833	3199
911.947	3005
912.062	2937
912.176	3131
912.291	3165
912.405	3218
912.519	3370
912.633	3420
912.748	3321
912.862	3279
912.976	3157
913.09	3058
913.204	3146
913.318	3214
913.431	3310
913.545	3317
913.659	3389
913.772	3344
913.886	3195
914	3199
914.113	3359
914.226	3405
914.34	3348
914.453	3192
914.566	3416
914.68	3321
914.793	3329
914.906	3138
915.019	3100
915.132	3043
915.245	3180
915.358	3207
915.47	3211
915.583	3268
915.696	3313
915.809	3389
915.921	3397
916.034	3268
916.146	3260
916.259	3184
916.371	3340
916.483	3401
916.595	3222
916.708	3329
916.82	3310
916.932	3291
917.044	3317
917.156	3348
917.268	3241
917.38	3287
917.491	3287
917.603	3332
917.715	3401
917.826	3458
917.938	3386
918.049	3233
918.161	3397
918.272	3576
918.384	3507
918.495	3485
918.606	3367
918.717	3298
918.828	3405
918.939	3401
919.05	3313
919.161	3348
919.272	3180
919.383	3283
919.494	3458
919.604	3675
919.715	3496
919.826	3382
919.936	3454
920.047	3568
920.157	3526
920.267	3781
920.378	3584
920.488	3538
920.598	3759
920.708	3937
920.818	3827
920.928	3831
921.038	4006
921.148	3994
921.258	3690
921.368	3663
921.477	3557
921.587	3492
921.697	3431
921.806	3580
921.916	3481
922.025	3317
922.134	3351
922.244	3329
922.353	3386
922.462	3268
922.571	3230
922.68	3089
922.789	3062
922.898	3104
923.007	3055
923.116	3214
923.224	3176
923.333	3165
923.442	3081
923.55	3077
923.659	3142
923.767	3199
923.876	3070
923.984	3230
924.092	3062
924.201	3161
924.309	3207
924.417	3226
924.525	3157
924.633	3218
924.741	3945
924.849	3036
924.956	3214
925.064	3097
925.172	3032
925.279	3097
925.387	3161
925.494	3157
925.602	3336
925.709	3310
925.816	3165
925.924	3294
926.031	3370
926.138	3302
926.245	3344
926.352	3253
926.459	3431
926.566	3439
926.673	3283
926.779	3249
926.886	3211
926.993	3127
927.099	3108
927.206	3123
927.312	3070
927.419	3199
927.525	3131
927.631	3256
927.737	3161
927.843	3100
927.95	2986
928.056	3119
928.162	3169
928.267	3253
928.373	3740
928.479	3310
928.585	3039
928.69	3199
928.796	3283
928.901	3161
929.007	3039
929.112	3214
929.218	3203
929.323	3142
929.428	3176
929.533	3294
929.638	3154
929.743	3207
929.848	3253
929.953	3230
930.058	3184
930.163	3017
930.267	3066
930.372	3233
930.477	3070
930.581	3348
930.685	3195
930.79	3123
930.894	3180
930.998	3169
931.103	3306
931.207	3013
931.311	2971
931.415	2944
931.519	2834
931.623	2834
