Data from test_V78500241_257.txt Node
Date: Fri Mar 25 16:16:59 CST 2022
User: usil
Spectrometer: V785-0024
Trigger mode: 0
Integration Time (sec): 4.000000E-1
Scans to average: 1
Nonlinearity correction enabled: false
Boxcar width: 0
Storing dark spectrum: false
XAxis mode: Wavelengths
Number of Pixels in Spectrum: 1024
>>>>>Begin Spectral Data<<<<<
801.071	2944
801.214	2963
801.356	2880
801.499	2887
801.641	2872
801.783	2937
801.926	3089
802.068	2956
802.211	2979
802.353	3055
802.496	2944
802.638	3043
802.78	3017
802.923	3089
803.065	2982
803.208	2910
803.35	2933
803.492	2922
803.635	2914
803.777	2746
803.919	2853
804.061	3184
804.204	2922
804.346	2891
804.488	2845
804.63	2990
804.773	2857
804.915	2906
805.057	3081
805.199	2925
805.341	2975
805.483	3009
805.626	2998
805.768	2933
805.91	3097
806.052	3112
806.194	3047
806.336	3218
806.478	3051
806.62	2933
806.762	2986
806.904	3051
807.046	3146
807.188	2990
807.33	2937
807.472	2998
807.614	2933
807.756	2956
807.898	2929
808.04	2883
808.182	2963
808.324	2906
808.465	2906
808.607	2891
808.749	2804
808.891	2857
809.033	2967
809.174	2982
809.316	2842
809.458	2880
809.6	2823
809.741	2811
809.883	2754
810.025	2842
810.166	2845
810.308	2830
810.45	2876
810.591	2769
810.733	2758
810.875	2830
811.016	2830
811.158	2716
811.299	2792
811.441	2899
811.582	2861
811.724	2834
811.865	2842
812.007	2910
812.148	2872
812.29	2845
812.431	2849
812.573	2925
812.714	2948
812.855	3047
812.997	3043
813.138	3108
813.279	2998
813.421	3001
813.562	2944
813.703	2876
813.845	2842
813.986	2769
814.127	2743
814.268	2834
814.41	2857
814.551	2796
814.692	2815
814.833	2819
814.974	2868
815.115	2941
815.256	2815
815.397	2792
815.539	2891
815.68	2788
815.821	2804
815.962	2933
816.103	2910
816.244	2857
816.385	2872
816.526	2971
816.666	2914
816.807	2746
816.948	2902
817.089	2895
817.23	2849
817.371	2769
817.512	2796
817.653	2804
817.793	2815
817.934	2899
818.075	2960
818.216	2986
818.356	3039
818.497	2883
818.638	2781
818.778	2819
818.919	2777
819.06	2773
819.2	2861
819.341	2811
819.481	2792
819.622	2914
819.762	3055
819.903	3020
820.043	2910
820.184	2902
820.324	2899
820.465	3036
820.605	2952
820.746	3036
820.886	2933
821.026	3093
821.167	3135
821.307	3272
821.447	3291
821.588	3237
821.728	3199
821.868	3176
822.008	3055
822.149	3207
822.289	3207
822.429	3085
822.569	3097
822.709	3203
822.849	3051
822.99	3047
823.13	3131
823.27	3207
823.41	3104
823.55	3138
823.69	3161
823.83	3169
823.97	3119
824.11	3017
824.25	3024
824.389	3055
824.529	3089
824.669	3074
824.809	3173
824.949	3249
825.089	3222
825.228	3154
825.368	3001
825.508	2929
825.648	2937
825.787	2975
825.927	3005
826.067	2910
826.206	2986
826.346	3051
826.485	3074
826.625	3135
826.765	3253
826.904	3237
827.044	2975
827.183	2956
827.323	2845
827.462	2986
827.601	2891
827.741	2971
827.88	2944
828.02	2861
828.159	2971
828.298	3043
828.437	3108
828.577	3020
828.716	3241
828.855	3066
828.994	2910
829.134	2868
829.273	2914
829.412	2895
829.551	2849
829.69	2899
829.829	2982
829.968	3131
830.107	3005
830.246	3043
830.385	2922
830.524	2872
830.663	2815
830.802	2731
830.941	2670
831.08	2648
831.219	2781
831.357	2781
831.496	2937
831.635	2743
831.774	2617
831.913	2648
832.051	2568
832.19	2583
832.329	2663
832.467	2549
832.606	2495
832.744	2587
832.883	2579
833.022	2575
833.16	2651
833.299	2689
833.437	2667
833.576	2708
833.714	2708
833.852	2724
833.991	2773
834.129	2830
834.267	2834
834.406	2792
834.544	2830
834.682	2883
834.821	2857
834.959	3043
835.097	2891
835.235	3085
835.373	2975
835.511	3020
835.65	2967
835.788	2967
835.926	2849
836.064	2834
836.202	2826
836.34	3089
836.478	3100
836.615	3055
836.753	3165
836.891	3161
837.029	3169
837.167	3112
837.305	3013
837.443	3055
837.58	2971
837.718	3131
837.856	3036
837.993	3028
838.131	3146
838.269	3127
838.406	3089
838.544	3074
838.681	2944
838.819	2876
838.956	2796
839.094	2861
839.231	2944
839.369	3009
839.506	3370
839.643	3203
839.781	3017
839.918	2944
840.055	3036
840.193	3081
840.33	3070
840.467	3108
840.604	3127
840.742	3405
840.879	3066
841.016	3051
841.153	3108
841.29	3325
841.427	3294
841.564	3249
841.701	3313
841.838	3214
841.975	3173
842.112	3245
842.249	3097
842.385	3036
842.522	3253
842.659	3058
842.796	3036
842.933	3100
843.069	3013
843.206	3024
843.343	3165
843.479	3116
843.616	3142
843.752	2902
843.889	2861
844.025	3093
844.162	2868
844.298	3058
844.435	2948
844.571	2899
844.708	3070
844.844	3173
844.98	3241
845.117	3192
845.253	3036
845.389	2998
845.525	3097
845.661	3108
845.798	2990
845.934	3112
846.07	3081
846.206	3184
846.342	3310
846.478	3230
846.614	3081
846.75	3028
846.886	2975
847.022	3245
847.158	3123
847.294	3188
847.429	3214
847.565	3173
847.701	3511
847.837	3009
847.972	3009
848.108	3142
848.244	3100
848.379	2994
848.515	2922
848.65	2937
848.786	2963
848.921	3005
849.057	3062
849.192	3131
849.328	3077
849.463	3085
849.598	3024
849.734	3039
849.869	2990
850.004	2918
850.14	2948
850.275	2906
850.41	2842
850.545	2899
850.68	2948
850.815	2944
850.95	2918
851.085	3176
851.22	3104
851.355	3039
851.49	2941
851.625	2982
851.76	3001
851.895	2967
852.03	2845
852.165	3009
852.299	3104
852.434	3169
852.569	3116
852.703	3180
852.838	3245
852.973	3310
853.107	3321
853.242	3165
853.376	3100
853.511	2975
853.645	3043
853.78	3226
853.914	3104
854.048	3157
854.183	3062
854.317	3214
854.451	3291
854.585	3112
854.72	3138
854.854	3260
854.988	3047
855.122	3108
855.256	2982
855.39	3104
855.524	3237
855.658	3176
855.792	3195
855.926	3237
856.06	3218
856.194	3256
856.327	3173
856.461	3119
856.595	3093
856.729	3093
856.862	3214
856.996	3169
857.13	3241
857.263	3272
857.397	3332
857.53	3157
857.664	3253
857.797	3260
857.931	3287
858.064	3230
858.197	3253
858.331	3116
858.464	3157
858.597	3024
858.731	3138
858.864	3176
858.997	3119
859.13	3195
859.263	3245
859.396	3226
859.529	3131
859.662	3127
859.795	3077
859.928	3195
860.061	3325
860.194	3291
860.327	3184
860.46	3081
860.592	3321
860.725	3268
860.858	3302
860.99	3135
861.123	3077
861.256	3085
861.388	3199
861.521	3903
861.653	3047
861.786	3055
861.918	3058
862.05	3077
862.183	3157
862.315	3214
862.447	3211
862.58	3173
862.712	2990
862.844	2929
862.976	3062
863.108	3058
863.24	3355
863.372	2929
863.504	3005
863.636	3001
863.768	3070
863.9	3051
864.032	2922
864.164	2986
864.296	3055
864.428	3131
864.559	3142
864.691	3100
864.823	3142
864.954	3104
865.086	3097
865.217	3024
865.349	2998
865.48	3043
865.612	3066
865.743	3211
865.875	3043
866.006	2971
866.137	3028
866.269	2994
866.4	2956
866.531	2952
866.662	2906
866.793	2944
866.924	2925
867.055	3051
867.186	2941
867.317	2895
867.448	2891
867.579	2914
867.71	2929
867.841	2842
867.972	2960
868.103	2979
868.233	2929
868.364	2895
868.495	2929
868.625	3108
868.756	3195
868.886	2998
869.017	3066
869.147	3233
869.278	3165
869.408	3058
869.539	3043
869.669	3119
869.799	3108
869.929	3199
870.06	3184
870.19	3332
870.32	3302
870.45	3302
870.58	3424
870.71	3466
870.84	3504
870.97	3313
871.1	3260
871.23	3500
871.36	3507
871.489	3389
871.619	3424
871.749	3431
871.879	3477
872.008	3488
872.138	3405
872.267	3306
872.397	3161
872.526	3154
872.656	3005
872.785	3150
872.915	3287
873.044	3370
873.173	3260
873.303	3283
873.432	3283
873.561	3268
873.69	3207
873.819	3199
873.948	3253
874.077	3119
874.206	3070
874.335	3093
874.464	3241
874.593	3348
874.722	3253
874.851	3416
874.979	3401
875.108	3370
875.237	3241
875.365	3207
875.494	3237
875.623	3283
875.751	3097
875.88	3112
876.008	3199
876.136	3264
876.265	3405
876.393	3580
876.521	3450
876.65	3370
876.778	3378
876.906	3294
877.034	3245
877.162	3283
877.29	3199
877.418	3302
877.546	3279
877.674	3260
877.802	3268
877.93	3272
878.058	3176
878.185	3173
878.313	3207
878.441	3245
878.568	3127
878.696	3188
878.824	3321
878.951	3355
879.079	3500
879.206	3663
879.333	3458
879.461	3367
879.588	3367
879.715	3515
879.842	3622
879.97	3412
880.097	3169
880.224	3154
880.351	3233
880.478	3287
880.605	3237
880.732	3230
880.859	3530
880.986	3397
881.112	3374
881.239	3207
881.366	3081
881.493	3070
881.619	3081
881.746	3097
881.872	3135
881.999	3108
882.125	3157
882.252	3291
882.378	3313
882.505	3462
882.631	3325
882.757	3211
882.883	3268
883.01	3253
883.136	3165
883.262	3131
883.388	3135
883.514	3329
883.64	3405
883.766	3313
883.892	3249
884.018	3306
884.143	3469
884.269	3576
884.395	3275
884.52	3173
884.646	3203
884.772	3142
884.897	3138
885.023	3241
885.148	3405
885.274	3439
885.399	3401
885.524	3310
885.65	3268
885.775	3370
885.9	3317
886.025	3466
886.15	3374
886.275	3325
886.4	3214
886.525	3340
886.65	3264
886.775	3310
886.9	3534
887.025	3679
887.149	3462
887.274	3272
887.399	3230
887.523	3256
887.648	3188
887.773	3249
887.897	3424
888.021	3462
888.146	3310
888.27	3477
888.395	3584
888.519	3431
888.643	3492
888.767	3507
888.891	3348
889.015	3256
889.139	3336
889.263	3313
889.387	3431
889.511	3523
889.635	3439
889.759	3329
889.883	3340
890.006	3412
890.13	3515
890.254	3310
890.377	3378
890.501	3226
890.624	3214
890.748	3325
890.871	3226
890.995	3154
891.118	3085
891.241	3249
891.364	3253
891.488	3302
891.611	3245
891.734	3260
891.857	3264
891.98	3260
892.103	3409
892.226	3283
892.349	3230
892.471	3127
892.594	3249
892.717	3329
892.839	3317
892.962	3302
893.085	3393
893.207	3317
893.33	3180
893.452	3233
893.575	3378
893.697	3275
893.819	3485
893.941	3534
894.064	3450
894.186	3302
894.308	3298
894.43	3454
894.552	3561
894.674	3523
894.796	3317
894.918	3332
895.04	3283
895.161	3454
895.283	3412
895.405	3359
895.526	3374
895.648	3447
895.769	3443
895.891	3492
896.012	3485
896.134	3504
896.255	3450
896.376	3424
896.498	3397
896.619	3420
896.74	3424
896.861	3401
896.982	3736
897.103	3861
897.224	3629
897.345	3542
897.466	3458
897.587	3500
897.708	3595
897.828	3549
897.949	3466
898.07	3355
898.19	3435
898.311	3629
898.431	3496
898.552	3576
898.672	3648
898.792	3614
898.913	3564
899.033	3412
899.153	3287
899.273	3253
899.393	3321
899.513	3336
899.633	3344
899.753	3363
899.873	3363
899.993	3428
900.113	3325
900.232	3435
900.352	3382
900.472	3294
900.591	3241
900.711	3291
900.83	3291
900.95	3409
901.069	3507
901.189	3363
901.308	3233
901.427	3161
901.546	3237
901.665	3306
901.784	3351
901.904	3214
902.023	3188
902.141	3051
902.26	3028
902.379	3165
902.498	3108
902.617	3074
902.735	3222
902.854	3253
902.973	3218
903.091	3104
903.21	3116
903.328	3135
903.446	3119
903.565	3146
903.683	3253
903.801	3176
903.919	3287
904.038	3348
904.156	3173
904.274	3329
904.392	3260
904.51	3291
904.627	3386
904.745	3424
904.863	3500
904.981	3245
905.098	3199
905.216	3256
905.334	3306
905.451	3336
905.569	3332
905.686	3435
905.803	3469
905.921	3351
906.038	3420
906.155	3355
906.272	3313
906.389	3363
906.506	3256
906.623	3317
906.74	3260
906.857	3233
906.974	3268
907.091	3485
907.208	3595
907.324	3485
907.441	3412
907.557	3256
907.674	3275
907.79	3218
907.907	3302
908.023	3374
908.139	3378
908.256	3359
908.372	3416
908.488	3363
908.604	3298
908.72	3260
908.836	3317
908.952	3306
909.068	3336
909.184	3496
909.3	3393
909.415	3496
909.531	3511
909.647	3313
909.762	3336
909.878	3272
909.993	3416
910.108	3363
910.224	3359
910.339	3416
910.454	3359
910.57	3317
910.685	3245
910.8	3595
910.915	3545
911.03	3481
911.145	3283
911.259	3260
911.374	3355
911.489	3256
911.604	3275
911.718	3112
911.833	3173
911.947	3062
912.062	3001
912.176	3180
912.291	3233
912.405	3173
912.519	3450
912.633	3466
912.748	3367
912.862	3321
912.976	3161
913.09	3104
913.204	3169
913.318	3233
913.431	3367
913.545	3348
913.659	3443
913.772	3397
913.886	3275
914	3222
914.113	3367
914.226	3431
914.34	3397
914.453	3245
914.566	3431
914.68	3310
914.793	3363
914.906	3146
915.019	3142
915.132	3070
915.245	3207
915.358	3249
915.47	3264
915.583	3298
915.696	3294
915.809	3416
915.921	3466
916.034	3294
916.146	3253
916.259	3230
916.371	3416
916.483	3409
916.595	3264
916.708	3344
916.82	3336
916.932	3348
917.044	3344
917.156	3374
917.268	3264
917.38	3283
917.491	3313
917.603	3389
917.715	3431
917.826	3466
917.938	3378
918.049	3294
918.161	3443
918.272	3622
918.384	3564
918.495	3534
918.606	3355
918.717	3310
918.828	3359
918.939	3420
919.05	3317
919.161	3382
919.272	3211
919.383	3283
919.494	3545
919.604	3724
919.715	3519
919.826	3439
919.936	3492
920.047	3641
920.157	3542
920.267	3778
920.378	3644
920.488	3637
920.598	3778
920.708	3964
920.818	3819
920.928	3918
921.038	4040
921.148	4010
921.258	3720
921.368	3667
921.477	3595
921.587	3538
921.697	3485
921.806	3656
921.916	3530
922.025	3378
922.134	3435
922.244	3367
922.353	3450
922.462	3321
922.571	3260
922.68	3127
922.789	3131
922.898	3169
923.007	3119
923.116	3249
923.224	3199
923.333	3260
923.442	3123
923.55	3154
923.659	3192
923.767	3253
923.876	3150
923.984	3306
924.092	3142
924.201	3222
924.309	3275
924.417	3336
924.525	3184
924.633	3268
924.741	4234
924.849	3058
924.956	3272
925.064	3150
925.172	3093
925.279	3157
925.387	3264
925.494	3272
925.602	3428
925.709	3378
925.816	3230
925.924	3329
926.031	3431
926.138	3431
926.245	3458
926.352	3294
926.459	3439
926.566	3500
926.673	3374
926.779	3275
926.886	3351
926.993	3199
927.099	3195
927.206	3173
927.312	3192
927.419	3294
927.525	3249
927.631	3313
927.737	3211
927.843	3184
927.95	3062
928.056	3188
928.162	3253
928.267	3264
928.373	3899
928.479	3351
928.585	3112
928.69	3241
928.796	3302
928.901	3256
929.007	3100
929.112	3298
929.218	3211
929.323	3195
929.428	3192
929.533	3370
929.638	3173
929.743	3253
929.848	3302
929.953	3287
930.058	3184
930.163	3062
930.267	3119
930.372	3241
930.477	3077
930.581	3367
930.685	3233
930.79	3131
930.894	3176
930.998	3176
931.103	3321
931.207	2982
931.311	3009
931.415	2971
931.519	2807
931.623	2834
