Data from test_V78500241_123.txt Node
Date: Fri Mar 25 16:16:03 CST 2022
User: usil
Spectrometer: V785-0024
Trigger mode: 0
Integration Time (sec): 4.000000E-1
Scans to average: 1
Nonlinearity correction enabled: false
Boxcar width: 0
Storing dark spectrum: false
XAxis mode: Wavelengths
Number of Pixels in Spectrum: 1024
>>>>>Begin Spectral Data<<<<<
801.071	2956
801.214	2975
801.356	2883
801.499	2929
801.641	2864
801.783	2944
801.926	3047
802.068	2963
802.211	3036
802.353	3039
802.496	2982
802.638	3024
802.78	3070
802.923	3074
803.065	3020
803.208	2910
803.35	2952
803.492	2960
803.635	2963
803.777	2746
803.919	2899
804.061	3218
804.204	2979
804.346	2914
804.488	2883
804.63	3001
804.773	2899
804.915	2979
805.057	3081
805.199	2948
805.341	2960
805.483	3085
805.626	3032
805.768	2967
805.91	3104
806.052	3123
806.194	3070
806.336	3241
806.478	3047
806.62	3013
806.762	2982
806.904	3085
807.046	3184
807.188	2990
807.33	2918
807.472	2994
807.614	2937
807.756	3028
807.898	2975
808.04	2910
808.182	2963
808.324	2960
808.465	2883
808.607	2895
808.749	2823
808.891	2868
809.033	3020
809.174	3001
809.316	2933
809.458	2948
809.6	2796
809.741	2769
809.883	2811
810.025	2872
810.166	2861
810.308	2895
810.45	2876
810.591	2777
810.733	2804
810.875	2845
811.016	2773
811.158	2800
811.299	2815
811.441	2960
811.582	2922
811.724	2857
811.865	2845
812.007	2944
812.148	2891
812.29	2861
812.431	2864
812.573	2967
812.714	2990
812.855	3062
812.997	3097
813.138	3135
813.279	3028
813.421	3009
813.562	3020
813.703	2887
813.845	2902
813.986	2796
814.127	2720
814.268	2796
814.41	2868
814.551	2788
814.692	2910
814.833	2838
814.974	2956
815.115	2941
815.256	2826
815.397	2838
815.539	2899
815.68	2804
815.821	2830
815.962	2986
816.103	2944
816.244	2872
816.385	2868
816.526	2986
816.666	2956
816.807	2777
816.948	2872
817.089	2948
817.23	2899
817.371	2785
817.512	2777
817.653	2868
817.793	2842
817.934	2914
818.075	2948
818.216	2994
818.356	3051
818.497	2910
818.638	2819
818.778	2857
818.919	2785
819.06	2739
819.2	2918
819.341	2838
819.481	2823
819.622	2941
819.762	3085
819.903	3043
820.043	2941
820.184	2910
820.324	2906
820.465	3032
820.605	3036
820.746	3066
820.886	2986
821.026	3081
821.167	3188
821.307	3264
821.447	3306
821.588	3260
821.728	3230
821.868	3233
822.008	3100
822.149	3233
822.289	3253
822.429	3104
822.569	3089
822.709	3222
822.849	3051
822.99	3123
823.13	3195
823.27	3260
823.41	3123
823.55	3154
823.69	3195
823.83	3184
823.97	3112
824.11	3039
824.25	3001
824.389	3055
824.529	3138
824.669	3085
824.809	3214
824.949	3287
825.089	3233
825.228	3180
825.368	3055
825.508	2956
825.648	2963
825.787	3039
825.927	3028
826.067	2967
826.206	2967
826.346	3066
826.485	3104
826.625	3131
826.765	3260
826.904	3256
827.044	3032
827.183	2941
827.323	2845
827.462	3009
827.601	2918
827.741	2967
827.88	3005
828.02	2899
828.159	3013
828.298	3055
828.437	3119
828.577	3013
828.716	3275
828.855	3062
828.994	2887
829.134	2891
829.273	2929
829.412	2883
829.551	2872
829.69	2910
829.829	3001
829.968	3138
830.107	3024
830.246	3074
830.385	2948
830.524	2891
830.663	2834
830.802	2781
830.941	2693
831.08	2648
831.219	2769
831.357	2777
831.496	2994
831.635	2777
831.774	2663
831.913	2682
832.051	2575
832.19	2594
832.329	2708
832.467	2568
832.606	2522
832.744	2579
832.883	2610
833.022	2590
833.16	2663
833.299	2678
833.437	2689
833.576	2727
833.714	2766
833.852	2739
833.991	2750
834.129	2849
834.267	2861
834.406	2750
834.544	2902
834.682	2906
834.821	2864
834.959	3074
835.097	2895
835.235	3108
835.373	2998
835.511	3066
835.65	2994
835.788	2975
835.926	2853
836.064	2864
836.202	2815
836.34	3093
836.478	3161
836.615	3066
836.753	3157
836.891	3245
837.029	3195
837.167	3127
837.305	3085
837.443	3081
837.58	2971
837.718	3176
837.856	3051
837.993	3047
838.131	3146
838.269	3127
838.406	3123
838.544	3085
838.681	2963
838.819	2929
838.956	2826
839.094	2861
839.231	2937
839.369	3058
839.506	3401
839.643	3211
839.781	3024
839.918	2998
840.055	3077
840.193	3089
840.33	3074
840.467	3123
840.604	3192
840.742	3409
840.879	3104
841.016	3093
841.153	3169
841.29	3336
841.427	3325
841.564	3272
841.701	3310
841.838	3256
841.975	3188
842.112	3253
842.249	3074
842.385	3070
842.522	3249
842.659	3085
842.796	3062
842.933	3108
843.069	3043
843.206	3047
843.343	3180
843.479	3108
843.616	3131
843.752	2902
843.889	2853
844.025	3131
844.162	2887
844.298	3077
844.435	2971
844.571	2937
844.708	3100
844.844	3176
844.98	3260
845.117	3245
845.253	3051
845.389	3047
845.525	3112
845.661	3097
845.798	3043
845.934	3142
846.07	3066
846.206	3226
846.342	3283
846.478	3233
846.614	3123
846.75	3100
846.886	3062
847.022	3302
847.158	3138
847.294	3207
847.429	3241
847.565	3230
847.701	3523
847.837	3062
847.972	3032
848.108	3176
848.244	3127
848.379	3024
848.515	2952
848.65	2960
848.786	2998
848.921	3024
849.057	3119
849.192	3135
849.328	3085
849.463	3157
849.598	3077
849.734	3062
849.869	2998
850.004	2941
850.14	2948
850.275	2922
850.41	2880
850.545	2922
850.68	2933
850.815	2956
850.95	2937
851.085	3211
851.22	3135
851.355	3089
851.49	3005
851.625	2975
851.76	3032
851.895	2975
852.03	2910
852.165	3055
852.299	3169
852.434	3173
852.569	3154
852.703	3192
852.838	3264
852.973	3374
853.107	3332
853.242	3195
853.376	3119
853.511	3001
853.645	3074
853.78	3253
853.914	3150
854.048	3119
854.183	3047
854.317	3173
854.451	3306
854.585	3157
854.72	3062
854.854	3245
854.988	3081
855.122	3085
855.256	2982
855.39	3123
855.524	3253
855.658	3192
855.792	3154
855.926	3237
856.06	3241
856.194	3214
856.327	3184
856.461	3074
856.595	3112
856.729	3097
856.862	3237
856.996	3192
857.13	3188
857.263	3207
857.397	3272
857.53	3127
857.664	3230
857.797	3245
857.931	3287
858.064	3211
858.197	3260
858.331	3157
858.464	3097
858.597	2982
858.731	3176
858.864	3169
858.997	3081
859.13	3169
859.263	3176
859.396	3237
859.529	3135
859.662	3100
859.795	3077
859.928	3146
860.061	3287
860.194	3336
860.327	3138
860.46	3093
860.592	3249
860.725	3260
860.858	3294
860.99	3104
861.123	3074
861.256	3070
861.388	3173
861.521	3850
861.653	3047
861.786	2986
861.918	2994
862.05	3112
862.183	3104
862.315	3169
862.447	3226
862.58	3142
862.712	2933
862.844	2876
862.976	3047
863.108	2990
863.24	3477
863.372	2948
863.504	3005
863.636	2971
863.768	3047
863.9	3013
864.032	2891
864.164	2971
864.296	3039
864.428	3089
864.559	3097
864.691	3066
864.823	3116
864.954	3013
865.086	3055
865.217	3009
865.349	2952
865.48	3009
865.612	3055
865.743	3173
865.875	3017
866.006	2971
866.137	3032
866.269	2979
866.4	2929
866.531	2948
866.662	2906
866.793	2838
866.924	2891
867.055	2937
867.186	2910
867.317	2906
867.448	2872
867.579	2876
867.71	2868
867.841	2845
867.972	2941
868.103	2922
868.233	2914
868.364	2891
868.495	2887
868.625	3058
868.756	3180
868.886	2941
869.017	3013
869.147	3207
869.278	3184
869.408	3085
869.539	3020
869.669	3127
869.799	3055
869.929	3169
870.06	3138
870.19	3355
870.32	3336
870.45	3329
870.58	3405
870.71	3462
870.84	3485
870.97	3336
871.1	3268
871.23	3542
871.36	3450
871.489	3374
871.619	3435
871.749	3409
871.879	3469
872.008	3519
872.138	3389
872.267	3310
872.397	3142
872.526	3146
872.656	3036
872.785	3112
872.915	3272
873.044	3310
873.173	3230
873.303	3256
873.432	3306
873.561	3245
873.69	3161
873.819	3199
873.948	3214
874.077	3112
874.206	3066
874.335	3119
874.464	3237
874.593	3386
874.722	3264
874.851	3416
874.979	3340
875.108	3310
875.237	3230
875.365	3180
875.494	3188
875.623	3264
875.751	3135
875.88	3135
876.008	3226
876.136	3249
876.265	3393
876.393	3545
876.521	3481
876.65	3412
876.778	3355
876.906	3264
877.034	3214
877.162	3241
877.29	3192
877.418	3272
877.546	3218
877.674	3287
877.802	3214
877.93	3268
878.058	3169
878.185	3108
878.313	3214
878.441	3241
878.568	3119
878.696	3188
878.824	3321
878.951	3336
879.079	3500
879.206	3679
879.333	3466
879.461	3370
879.588	3412
879.715	3500
879.842	3641
879.97	3401
880.097	3230
880.224	3138
880.351	3211
880.478	3283
880.605	3249
880.732	3199
880.859	3538
880.986	3329
881.112	3340
881.239	3222
881.366	3127
881.493	3013
881.619	3036
881.746	3089
881.872	3074
881.999	3135
882.125	3173
882.252	3260
882.378	3264
882.505	3469
882.631	3275
882.757	3176
882.883	3268
883.01	3230
883.136	3195
883.262	3123
883.388	3116
883.514	3348
883.64	3389
883.766	3329
883.892	3203
884.018	3283
884.143	3412
884.269	3523
884.395	3222
884.52	3207
884.646	3222
884.772	3138
884.897	3123
885.023	3226
885.148	3351
885.274	3401
885.399	3374
885.524	3306
885.65	3253
885.775	3340
885.9	3302
886.025	3424
886.15	3351
886.275	3329
886.4	3237
886.525	3325
886.65	3291
886.775	3317
886.9	3507
887.025	3671
887.149	3439
887.274	3291
887.399	3222
887.523	3237
887.648	3142
887.773	3203
887.897	3412
888.021	3393
888.146	3313
888.27	3447
888.395	3534
888.519	3424
888.643	3443
888.767	3496
888.891	3317
889.015	3310
889.139	3279
889.263	3283
889.387	3401
889.511	3530
889.635	3477
889.759	3332
889.883	3306
890.006	3378
890.13	3511
890.254	3283
890.377	3389
890.501	3222
890.624	3222
890.748	3340
890.871	3192
890.995	3108
891.118	3097
891.241	3233
891.364	3249
891.488	3332
891.611	3233
891.734	3241
891.857	3321
891.98	3291
892.103	3348
892.226	3283
892.349	3253
892.471	3116
892.594	3245
892.717	3321
892.839	3325
892.962	3310
893.085	3382
893.207	3279
893.33	3184
893.452	3260
893.575	3321
893.697	3264
893.819	3526
893.941	3515
894.064	3447
894.186	3298
894.308	3287
894.43	3481
894.552	3568
894.674	3504
894.796	3310
894.918	3351
895.04	3283
895.161	3447
895.283	3428
895.405	3325
895.526	3374
895.648	3443
895.769	3466
895.891	3500
896.012	3523
896.134	3473
896.255	3450
896.376	3428
896.498	3367
896.619	3450
896.74	3397
896.861	3431
896.982	3701
897.103	3842
897.224	3618
897.345	3534
897.466	3477
897.587	3507
897.708	3656
897.828	3584
897.949	3458
898.07	3363
898.19	3443
898.311	3671
898.431	3492
898.552	3542
898.672	3633
898.792	3591
898.913	3542
899.033	3435
899.153	3321
899.273	3233
899.393	3348
899.513	3367
899.633	3374
899.753	3389
899.873	3355
899.993	3401
900.113	3374
900.232	3401
900.352	3374
900.472	3340
900.591	3260
900.711	3325
900.83	3287
900.95	3397
901.069	3515
901.189	3367
901.308	3207
901.427	3123
901.546	3169
901.665	3291
901.784	3355
901.904	3188
902.023	3123
902.141	3047
902.26	3024
902.379	3161
902.498	3093
902.617	3093
902.735	3237
902.854	3283
902.973	3211
903.091	3074
903.21	3081
903.328	3173
903.446	3135
903.565	3119
903.683	3207
903.801	3142
903.919	3249
904.038	3298
904.156	3207
904.274	3279
904.392	3283
904.51	3344
904.627	3355
904.745	3450
904.863	3557
904.981	3294
905.098	3150
905.216	3218
905.334	3351
905.451	3336
905.569	3313
905.686	3450
905.803	3473
905.921	3329
906.038	3431
906.155	3348
906.272	3329
906.389	3317
906.506	3214
906.623	3275
906.74	3294
906.857	3218
906.974	3256
907.091	3462
907.208	3572
907.324	3511
907.441	3389
907.557	3264
907.674	3256
907.79	3222
907.907	3294
908.023	3397
908.139	3424
908.256	3340
908.372	3393
908.488	3359
908.604	3275
908.72	3260
908.836	3336
908.952	3298
909.068	3378
909.184	3504
909.3	3454
909.415	3557
909.531	3481
909.647	3321
909.762	3317
909.878	3302
909.993	3386
910.108	3348
910.224	3382
910.339	3431
910.454	3382
910.57	3279
910.685	3264
910.8	3610
910.915	3584
911.03	3401
911.145	3313
911.259	3302
911.374	3340
911.489	3264
911.604	3249
911.718	3165
911.833	3192
911.947	3013
912.062	2990
912.176	3184
912.291	3253
912.405	3233
912.519	3443
912.633	3492
912.748	3363
912.862	3325
912.976	3184
913.09	3085
913.204	3180
913.318	3214
913.431	3386
913.545	3382
913.659	3424
913.772	3367
913.886	3275
914	3222
914.113	3363
914.226	3458
914.34	3382
914.453	3214
914.566	3450
914.68	3325
914.793	3329
914.906	3138
915.019	3119
915.132	3077
915.245	3192
915.358	3256
915.47	3237
915.583	3275
915.696	3306
915.809	3431
915.921	3412
916.034	3283
916.146	3294
916.259	3275
916.371	3416
916.483	3389
916.595	3283
916.708	3397
916.82	3348
916.932	3355
917.044	3344
917.156	3340
917.268	3279
917.38	3332
917.491	3321
917.603	3374
917.715	3458
917.826	3526
917.938	3450
918.049	3306
918.161	3466
918.272	3614
918.384	3595
918.495	3538
918.606	3363
918.717	3321
918.828	3370
918.939	3450
919.05	3359
919.161	3401
919.272	3199
919.383	3313
919.494	3538
919.604	3705
919.715	3515
919.826	3428
919.936	3462
920.047	3625
920.157	3587
920.267	3804
920.378	3625
920.488	3606
920.598	3797
920.708	3968
920.818	3850
920.928	3876
921.038	4051
921.148	4029
921.258	3774
921.368	3637
921.477	3629
921.587	3526
921.697	3469
921.806	3641
921.916	3542
922.025	3378
922.134	3393
922.244	3313
922.353	3435
922.462	3283
922.571	3253
922.68	3123
922.789	3119
922.898	3180
923.007	3138
923.116	3226
923.224	3195
923.333	3195
923.442	3097
923.55	3104
923.659	3135
923.767	3264
923.876	3157
923.984	3260
924.092	3135
924.201	3233
924.309	3253
924.417	3272
924.525	3237
924.633	3253
924.741	4215
924.849	3081
924.956	3287
925.064	3142
925.172	3112
925.279	3146
925.387	3207
925.494	3207
925.602	3355
925.709	3302
925.816	3214
925.924	3310
926.031	3397
926.138	3351
926.245	3367
926.352	3253
926.459	3412
926.566	3488
926.673	3313
926.779	3275
926.886	3291
926.993	3161
927.099	3135
927.206	3104
927.312	3135
927.419	3230
927.525	3241
927.631	3287
927.737	3157
927.843	3093
927.95	3047
928.056	3154
928.162	3195
928.267	3260
928.373	3854
928.479	3298
928.585	3081
928.69	3226
928.796	3336
928.901	3188
929.007	3077
929.112	3241
929.218	3203
929.323	3150
929.428	3169
929.533	3378
929.638	3154
929.743	3207
929.848	3279
929.953	3230
930.058	3195
930.163	3036
930.267	3077
930.372	3260
930.477	3085
930.581	3325
930.685	3226
930.79	3085
930.894	3108
930.998	3119
931.103	3302
931.207	2971
931.311	2998
931.415	2948
931.519	2788
931.623	2830
