Data from test_V78500241_1534.txt Node
Date: Fri Mar 25 16:25:49 CST 2022
User: usil
Spectrometer: V785-0024
Trigger mode: 0
Integration Time (sec): 4.000000E-1
Scans to average: 1
Nonlinearity correction enabled: false
Boxcar width: 0
Storing dark spectrum: false
XAxis mode: Wavelengths
Number of Pixels in Spectrum: 1024
>>>>>Begin Spectral Data<<<<<
801.071	2948
801.214	2952
801.356	2887
801.499	2876
801.641	2887
801.783	2910
801.926	3039
802.068	2979
802.211	2986
802.353	3036
802.496	3009
802.638	3058
802.78	3043
802.923	3055
803.065	3001
803.208	2887
803.35	2910
803.492	2952
803.635	2971
803.777	2746
803.919	2861
804.061	3207
804.204	2952
804.346	2922
804.488	2845
804.63	3028
804.773	2872
804.915	2910
805.057	3116
805.199	2944
805.341	2971
805.483	3024
805.626	2994
805.768	2975
805.91	3097
806.052	3127
806.194	3081
806.336	3245
806.478	2971
806.62	2960
806.762	2994
806.904	3051
807.046	3184
807.188	2990
807.33	2941
807.472	2998
807.614	2922
807.756	3013
807.898	2937
808.04	2922
808.182	2929
808.324	2963
808.465	2868
808.607	2876
808.749	2807
808.891	2838
809.033	3009
809.174	2994
809.316	2918
809.458	2910
809.6	2754
809.741	2792
809.883	2811
810.025	2845
810.166	2857
810.308	2826
810.45	2872
810.591	2769
810.733	2811
810.875	2834
811.016	2788
811.158	2800
811.299	2792
811.441	2914
811.582	2895
811.724	2845
811.865	2864
812.007	2899
812.148	2876
812.29	2872
812.431	2906
812.573	2933
812.714	2975
812.855	3062
812.997	3036
813.138	3108
813.279	3032
813.421	2990
813.562	2937
813.703	2857
813.845	2925
813.986	2792
814.127	2750
814.268	2849
814.41	2891
814.551	2785
814.692	2891
814.833	2807
814.974	2914
815.115	2971
815.256	2823
815.397	2830
815.539	2845
815.68	2785
815.821	2788
815.962	2944
816.103	2929
816.244	2922
816.385	2895
816.526	2994
816.666	2914
816.807	2769
816.948	2925
817.089	2937
817.23	2830
817.371	2807
817.512	2758
817.653	2830
817.793	2838
817.934	2861
818.075	3005
818.216	3058
818.356	3047
818.497	2872
818.638	2807
818.778	2857
818.919	2788
819.06	2739
819.2	2868
819.341	2834
819.481	2792
819.622	2956
819.762	3112
819.903	3032
820.043	2960
820.184	2895
820.324	2883
820.465	3028
820.605	2990
820.746	3017
820.886	2933
821.026	3104
821.167	3173
821.307	3256
821.447	3264
821.588	3222
821.728	3203
821.868	3199
822.008	3104
822.149	3146
822.289	3245
822.429	3070
822.569	3104
822.709	3192
822.849	3043
822.99	3058
823.13	3173
823.27	3165
823.41	3127
823.55	3161
823.69	3157
823.83	3157
823.97	3100
824.11	2990
824.25	3032
824.389	3070
824.529	3108
824.669	3085
824.809	3184
824.949	3321
825.089	3245
825.228	3146
825.368	2998
825.508	2975
825.648	2994
825.787	3028
825.927	3032
826.067	2956
826.206	2922
826.346	3077
826.485	3077
826.625	3135
826.765	3256
826.904	3256
827.044	2982
827.183	2929
827.323	2883
827.462	2975
827.601	2918
827.741	2922
827.88	2944
828.02	2887
828.159	2975
828.298	3024
828.437	3127
828.577	3036
828.716	3222
828.855	3077
828.994	2922
829.134	2880
829.273	2872
829.412	2861
829.551	2853
829.69	2899
829.829	2956
829.968	3138
830.107	3001
830.246	3036
830.385	2906
830.524	2887
830.663	2838
830.802	2735
830.941	2670
831.08	2636
831.219	2777
831.357	2739
831.496	2963
831.635	2693
831.774	2636
831.913	2701
832.051	2552
832.19	2575
832.329	2689
832.467	2545
832.606	2492
832.744	2575
832.883	2632
833.022	2575
833.16	2663
833.299	2670
833.437	2724
833.576	2712
833.714	2712
833.852	2731
833.991	2735
834.129	2823
834.267	2845
834.406	2807
834.544	2864
834.682	2853
834.821	2868
834.959	3070
835.097	2891
835.235	3085
835.373	2986
835.511	3009
835.65	2967
835.788	2967
835.926	2815
836.064	2845
836.202	2845
836.34	3093
836.478	3131
836.615	3066
836.753	3165
836.891	3176
837.029	3154
837.167	3097
837.305	3066
837.443	3043
837.58	2990
837.718	3154
837.856	3043
837.993	3028
838.131	3116
838.269	3100
838.406	3104
838.544	3055
838.681	2925
838.819	2929
838.956	2804
839.094	2845
839.231	2922
839.369	3028
839.506	3409
839.643	3214
839.781	3009
839.918	2941
840.055	3058
840.193	2979
840.33	3066
840.467	3070
840.604	3150
840.742	3424
840.879	3055
841.016	3062
841.153	3127
841.29	3329
841.427	3298
841.564	3313
841.701	3298
841.838	3192
841.975	3173
842.112	3180
842.249	3058
842.385	3024
842.522	3260
842.659	3074
842.796	3077
842.933	3085
843.069	3036
843.206	3001
843.343	3188
843.479	3123
843.616	3131
843.752	2876
843.889	2868
844.025	3077
844.162	2883
844.298	3093
844.435	2937
844.571	2918
844.708	3093
844.844	3154
844.98	3226
845.117	3188
845.253	3051
845.389	3043
845.525	3081
845.661	3093
845.798	3039
845.934	3100
846.07	3039
846.206	3211
846.342	3355
846.478	3203
846.614	3089
846.75	3055
846.886	3039
847.022	3253
847.158	3146
847.294	3192
847.429	3203
847.565	3203
847.701	3485
847.837	3024
847.972	2979
848.108	3108
848.244	3161
848.379	2986
848.515	2937
848.65	2941
848.786	2960
848.921	3028
849.057	3108
849.192	3123
849.328	3074
849.463	3100
849.598	3047
849.734	3013
849.869	2979
850.004	2925
850.14	2982
850.275	2963
850.41	2834
850.545	2895
850.68	2948
850.815	2948
850.95	2956
851.085	3157
851.22	3085
851.355	2998
851.49	2967
851.625	2990
851.76	3055
851.895	2933
852.03	2899
852.165	3036
852.299	3150
852.434	3180
852.569	3165
852.703	3165
852.838	3233
852.973	3325
853.107	3321
853.242	3142
853.376	3108
853.511	3005
853.645	3039
853.78	3245
853.914	3123
854.048	3146
854.183	3081
854.317	3135
854.451	3321
854.585	3116
854.72	3100
854.854	3203
854.988	3032
855.122	3081
855.256	2956
855.39	3100
855.524	3218
855.658	3192
855.792	3157
855.926	3176
856.06	3237
856.194	3256
856.327	3100
856.461	3066
856.595	3119
856.729	3119
856.862	3203
856.996	3157
857.13	3169
857.263	3207
857.397	3253
857.53	3135
857.664	3192
857.797	3226
857.931	3275
858.064	3157
858.197	3192
858.331	3116
858.464	3104
858.597	3039
858.731	3116
858.864	3108
858.997	3100
859.13	3173
859.263	3173
859.396	3203
859.529	3081
859.662	3066
859.795	3047
859.928	3100
860.061	3287
860.194	3302
860.327	3146
860.46	3047
860.592	3253
860.725	3230
860.858	3207
860.99	3108
861.123	3024
861.256	3036
861.388	3135
861.521	3896
861.653	3024
861.786	2952
861.918	3017
862.05	3062
862.183	3116
862.315	3112
862.447	3211
862.58	3104
862.712	2914
862.844	2864
862.976	3009
863.108	2986
863.24	3351
863.372	2857
863.504	3001
863.636	2948
863.768	3005
863.9	2948
864.032	2895
864.164	2944
864.296	3020
864.428	3112
864.559	3100
864.691	3104
864.823	3047
864.954	3013
865.086	3032
865.217	2982
865.349	2963
865.48	2986
865.612	3028
865.743	3154
865.875	2979
866.006	2937
866.137	2971
866.269	2948
866.4	2933
866.531	2937
866.662	2861
866.793	2887
866.924	2857
867.055	2986
867.186	2902
867.317	2883
867.448	2838
867.579	2834
867.71	2834
867.841	2823
867.972	2899
868.103	2891
868.233	2883
868.364	2861
868.495	2872
868.625	3093
868.756	3161
868.886	2963
869.017	3009
869.147	3150
869.278	3150
869.408	3055
869.539	2994
869.669	3108
869.799	3017
869.929	3108
870.06	3123
870.19	3321
870.32	3283
870.45	3298
870.58	3370
870.71	3431
870.84	3435
870.97	3332
871.1	3218
871.23	3469
871.36	3462
871.489	3359
871.619	3389
871.749	3405
871.879	3424
872.008	3504
872.138	3325
872.267	3298
872.397	3119
872.526	3074
872.656	3009
872.785	3112
872.915	3245
873.044	3291
873.173	3241
873.303	3249
873.432	3260
873.561	3237
873.69	3173
873.819	3173
873.948	3165
874.077	3085
874.206	3066
874.335	3081
874.464	3222
874.593	3329
874.722	3245
874.851	3344
874.979	3329
875.108	3302
875.237	3192
875.365	3207
875.494	3180
875.623	3256
875.751	3093
875.88	3081
876.008	3165
876.136	3241
876.265	3424
876.393	3500
876.521	3374
876.65	3397
876.778	3325
876.906	3268
877.034	3165
877.162	3184
877.29	3169
877.418	3260
877.546	3230
877.674	3207
877.802	3207
877.93	3214
878.058	3093
878.185	3077
878.313	3237
878.441	3192
878.568	3093
878.696	3150
878.824	3264
878.951	3298
879.079	3397
879.206	3637
879.333	3431
879.461	3321
879.588	3351
879.715	3485
879.842	3606
879.97	3370
880.097	3146
880.224	3146
880.351	3207
880.478	3222
880.605	3226
880.732	3211
880.859	3496
880.986	3279
881.112	3321
881.239	3199
881.366	3097
881.493	3032
881.619	3017
881.746	3062
881.872	3100
881.999	3116
882.125	3138
882.252	3249
882.378	3279
882.505	3435
882.631	3272
882.757	3154
882.883	3222
883.01	3214
883.136	3161
883.262	3104
883.388	3085
883.514	3321
883.64	3340
883.766	3302
883.892	3169
884.018	3245
884.143	3428
884.269	3545
884.395	3211
884.52	3131
884.646	3188
884.772	3100
884.897	3100
885.023	3233
885.148	3317
885.274	3424
885.399	3370
885.524	3294
885.65	3245
885.775	3321
885.9	3230
886.025	3397
886.15	3344
886.275	3329
886.4	3268
886.525	3313
886.65	3283
886.775	3260
886.9	3462
887.025	3622
887.149	3405
887.274	3256
887.399	3169
887.523	3195
887.648	3138
887.773	3180
887.897	3351
888.021	3424
888.146	3317
888.27	3473
888.395	3526
888.519	3412
888.643	3420
888.767	3454
888.891	3237
889.015	3298
889.139	3317
889.263	3260
889.387	3389
889.511	3500
889.635	3454
889.759	3272
889.883	3329
890.006	3386
890.13	3462
890.254	3264
890.377	3325
890.501	3169
890.624	3184
890.748	3291
890.871	3192
890.995	3097
891.118	3055
891.241	3173
891.364	3173
891.488	3348
891.611	3138
891.734	3199
891.857	3264
891.98	3226
892.103	3287
892.226	3249
892.349	3207
892.471	3142
892.594	3245
892.717	3298
892.839	3275
892.962	3313
893.085	3351
893.207	3332
893.33	3123
893.452	3211
893.575	3336
893.697	3279
893.819	3458
893.941	3473
894.064	3458
894.186	3260
894.308	3253
894.43	3405
894.552	3530
894.674	3477
894.796	3283
894.918	3317
895.04	3287
895.161	3428
895.283	3389
895.405	3355
895.526	3382
895.648	3416
895.769	3401
895.891	3439
896.012	3450
896.134	3462
896.255	3397
896.376	3378
896.498	3348
896.619	3405
896.74	3389
896.861	3370
896.982	3667
897.103	3884
897.224	3576
897.345	3523
897.466	3443
897.587	3469
897.708	3629
897.828	3549
897.949	3435
898.07	3317
898.19	3401
898.311	3606
898.431	3450
898.552	3523
898.672	3599
898.792	3580
898.913	3545
899.033	3367
899.153	3321
899.273	3218
899.393	3283
899.513	3310
899.633	3336
899.753	3302
899.873	3283
899.993	3409
900.113	3336
900.232	3355
900.352	3355
900.472	3294
900.591	3207
900.711	3256
900.83	3207
900.95	3439
901.069	3492
901.189	3317
901.308	3180
901.427	3131
901.546	3154
901.665	3275
901.784	3313
901.904	3222
902.023	3150
902.141	2982
902.26	3013
902.379	3116
902.498	3058
902.617	3070
902.735	3222
902.854	3233
902.973	3195
903.091	3085
903.21	3047
903.328	3142
903.446	3097
903.565	3097
903.683	3203
903.801	3135
903.919	3298
904.038	3294
904.156	3138
904.274	3275
904.392	3237
904.51	3294
904.627	3340
904.745	3374
904.863	3443
904.981	3264
905.098	3173
905.216	3230
905.334	3272
905.451	3279
905.569	3317
905.686	3424
905.803	3420
905.921	3272
906.038	3450
906.155	3348
906.272	3275
906.389	3310
906.506	3253
906.623	3272
906.74	3279
906.857	3203
906.974	3283
907.091	3462
907.208	3530
907.324	3469
907.441	3370
907.557	3195
907.674	3230
907.79	3203
907.907	3249
908.023	3382
908.139	3405
908.256	3306
908.372	3367
908.488	3317
908.604	3260
908.72	3207
908.836	3287
908.952	3291
909.068	3336
909.184	3485
909.3	3355
909.415	3485
909.531	3488
909.647	3230
909.762	3329
909.878	3272
909.993	3351
910.108	3321
910.224	3321
910.339	3409
910.454	3329
910.57	3310
910.685	3241
910.8	3561
910.915	3530
911.03	3439
911.145	3245
911.259	3245
911.374	3310
911.489	3237
911.604	3207
911.718	3104
911.833	3131
911.947	3036
912.062	2967
912.176	3169
912.291	3176
912.405	3226
912.519	3424
912.633	3469
912.748	3317
912.862	3298
912.976	3207
913.09	3036
913.204	3116
913.318	3218
913.431	3329
913.545	3294
913.659	3389
913.772	3325
913.886	3253
914	3199
914.113	3344
914.226	3450
914.34	3351
914.453	3230
914.566	3409
914.68	3272
914.793	3321
914.906	3138
915.019	3119
915.132	3081
915.245	3180
915.358	3195
915.47	3233
915.583	3253
915.696	3298
915.809	3443
915.921	3431
916.034	3233
916.146	3241
916.259	3241
916.371	3367
916.483	3363
916.595	3275
916.708	3363
916.82	3359
916.932	3325
917.044	3367
917.156	3359
917.268	3294
917.38	3279
917.491	3283
917.603	3382
917.715	3409
917.826	3450
917.938	3355
918.049	3294
918.161	3397
918.272	3530
918.384	3519
918.495	3534
918.606	3302
918.717	3294
918.828	3370
918.939	3462
919.05	3272
919.161	3378
919.272	3195
919.383	3283
919.494	3496
919.604	3732
919.715	3500
919.826	3416
919.936	3504
920.047	3576
920.157	3572
920.267	3770
920.378	3603
920.488	3568
920.598	3747
920.708	3937
920.818	3827
920.928	3812
921.038	4017
921.148	3937
921.258	3720
921.368	3637
921.477	3564
921.587	3545
921.697	3458
921.806	3606
921.916	3515
922.025	3329
922.134	3348
922.244	3325
922.353	3431
922.462	3298
922.571	3192
922.68	3100
922.789	3085
922.898	3135
923.007	3089
923.116	3203
923.224	3157
923.333	3199
923.442	3085
923.55	3123
923.659	3161
923.767	3199
923.876	3146
923.984	3241
924.092	3119
924.201	3199
924.309	3272
924.417	3275
924.525	3169
924.633	3226
924.741	4147
924.849	3077
924.956	3260
925.064	3112
925.172	2998
925.279	3093
925.387	3173
925.494	3203
925.602	3359
925.709	3317
925.816	3169
925.924	3256
926.031	3370
926.138	3355
926.245	3310
926.352	3264
926.459	3386
926.566	3477
926.673	3317
926.779	3260
926.886	3249
926.993	3173
927.099	3131
927.206	3100
927.312	3127
927.419	3237
927.525	3188
927.631	3272
927.737	3108
927.843	3127
927.95	3017
928.056	3131
928.162	3138
928.267	3272
928.373	3766
928.479	3310
928.585	3085
928.69	3173
928.796	3275
928.901	3131
929.007	3028
929.112	3192
929.218	3184
929.323	3123
929.428	3127
929.533	3336
929.638	3142
929.743	3119
929.848	3260
929.953	3203
930.058	3127
930.163	2994
930.267	3066
930.372	3233
930.477	3020
930.581	3321
930.685	3203
930.79	3058
930.894	3097
930.998	3100
931.103	3291
931.207	2990
931.311	2925
931.415	2933
931.519	2811
931.623	2815
