Data from test_V78500241_1282.txt Node
Date: Fri Mar 25 16:24:05 CST 2022
User: usil
Spectrometer: V785-0024
Trigger mode: 0
Integration Time (sec): 4.000000E-1
Scans to average: 1
Nonlinearity correction enabled: false
Boxcar width: 0
Storing dark spectrum: false
XAxis mode: Wavelengths
Number of Pixels in Spectrum: 1024
>>>>>Begin Spectral Data<<<<<
801.071	2922
801.214	2975
801.356	2868
801.499	2853
801.641	2883
801.783	2906
801.926	3020
802.068	2944
802.211	2967
802.353	3039
802.496	2986
802.638	3001
802.78	3058
802.923	3036
803.065	3001
803.208	2891
803.35	2902
803.492	2933
803.635	2967
803.777	2746
803.919	2868
804.061	3184
804.204	2941
804.346	2918
804.488	2811
804.63	3001
804.773	2868
804.915	2899
805.057	3066
805.199	2937
805.341	2960
805.483	2994
805.626	2956
805.768	2960
805.91	3104
806.052	3070
806.194	2994
806.336	3230
806.478	3024
806.62	2956
806.762	2967
806.904	3017
807.046	3173
807.188	2948
807.33	2899
807.472	2979
807.614	2868
807.756	2960
807.898	2918
808.04	2861
808.182	2963
808.324	2971
808.465	2895
808.607	2861
808.749	2800
808.891	2834
809.033	2944
809.174	2952
809.316	2868
809.458	2861
809.6	2777
809.741	2746
809.883	2788
810.025	2807
810.166	2796
810.308	2861
810.45	2872
810.591	2754
810.733	2750
810.875	2830
811.016	2758
811.158	2785
811.299	2781
811.441	2925
811.582	2880
811.724	2804
811.865	2815
812.007	2941
812.148	2887
812.29	2876
812.431	2880
812.573	2960
812.714	2941
812.855	3058
812.997	3017
813.138	3142
813.279	2994
813.421	2986
813.562	2960
813.703	2902
813.845	2845
813.986	2758
814.127	2731
814.268	2861
814.41	2823
814.551	2815
814.692	2872
814.833	2830
814.974	2899
815.115	2941
815.256	2823
815.397	2811
815.539	2838
815.68	2743
815.821	2788
815.962	2941
816.103	2906
816.244	2922
816.385	2891
816.526	2944
816.666	2902
816.807	2731
816.948	2910
817.089	2883
817.23	2868
817.371	2769
817.512	2785
817.653	2815
817.793	2823
817.934	2849
818.075	2975
818.216	3001
818.356	2979
818.497	2883
818.638	2777
818.778	2819
818.919	2777
819.06	2792
819.2	2868
819.341	2769
819.481	2796
819.622	2902
819.762	3100
819.903	3047
820.043	2876
820.184	2899
820.324	2906
820.465	2998
820.605	3032
820.746	3009
820.886	2944
821.026	3077
821.167	3180
821.307	3226
821.447	3283
821.588	3222
821.728	3218
821.868	3195
822.008	3051
822.149	3180
822.289	3207
822.429	3066
822.569	3085
822.709	3173
822.849	3039
822.99	3089
823.13	3123
823.27	3169
823.41	3097
823.55	3142
823.69	3104
823.83	3176
823.97	3119
824.11	3024
824.25	2982
824.389	3047
824.529	3085
824.669	3028
824.809	3157
824.949	3249
825.089	3226
825.228	3184
825.368	3001
825.508	2963
825.648	2960
825.787	3028
825.927	3032
826.067	2944
826.206	2967
826.346	3043
826.485	3062
826.625	3104
826.765	3249
826.904	3192
827.044	3001
827.183	2902
827.323	2849
827.462	2982
827.601	2880
827.741	2937
827.88	2899
828.02	2845
828.159	2929
828.298	2998
828.437	3081
828.577	2982
828.716	3260
828.855	3028
828.994	2918
829.134	2857
829.273	2899
829.412	2853
829.551	2834
829.69	2895
829.829	2960
829.968	3093
830.107	2994
830.246	3020
830.385	2941
830.524	2857
830.663	2853
830.802	2739
830.941	2667
831.08	2610
831.219	2746
831.357	2750
831.496	2967
831.635	2750
831.774	2659
831.913	2632
832.051	2533
832.19	2556
832.329	2682
832.467	2522
832.606	2461
832.744	2575
832.883	2579
833.022	2560
833.16	2648
833.299	2697
833.437	2659
833.576	2674
833.714	2693
833.852	2743
833.991	2762
834.129	2819
834.267	2819
834.406	2785
834.544	2842
834.682	2834
834.821	2834
834.959	3043
835.097	2883
835.235	3074
835.373	2998
835.511	2998
835.65	2925
835.788	2971
835.926	2811
836.064	2785
836.202	2842
836.34	3066
836.478	3154
836.615	3036
836.753	3135
836.891	3199
837.029	3146
837.167	3104
837.305	3051
837.443	3009
837.58	2929
837.718	3146
837.856	3032
837.993	3020
838.131	3112
838.269	3085
838.406	3123
838.544	3062
838.681	2902
838.819	2891
838.956	2777
839.094	2834
839.231	2922
839.369	3020
839.506	3420
839.643	3230
839.781	3005
839.918	2975
840.055	3020
840.193	3066
840.33	3043
840.467	3097
840.604	3119
840.742	3374
840.879	3032
841.016	2971
841.153	3100
841.29	3325
841.427	3287
841.564	3253
841.701	3291
841.838	3211
841.975	3131
842.112	3214
842.249	3043
842.385	3062
842.522	3260
842.659	3070
842.796	3032
842.933	3058
843.069	3039
843.206	3047
843.343	3180
843.479	3081
843.616	3123
843.752	2864
843.889	2906
844.025	3070
844.162	2868
844.298	3051
844.435	2941
844.571	2891
844.708	3039
844.844	3131
844.98	3188
845.117	3176
845.253	3036
845.389	2994
845.525	3100
845.661	3085
845.798	3047
845.934	3142
846.07	3051
846.206	3237
846.342	3272
846.478	3184
846.614	3058
846.75	3009
846.886	2990
847.022	3241
847.158	3100
847.294	3161
847.429	3260
847.565	3203
847.701	3428
847.837	3005
847.972	2967
848.108	3157
848.244	3131
848.379	2986
848.515	2918
848.65	2902
848.786	2956
848.921	2990
849.057	3085
849.192	3131
849.328	3017
849.463	3085
849.598	3047
849.734	3032
849.869	2990
850.004	2929
850.14	2960
850.275	2918
850.41	2826
850.545	2849
850.68	2929
850.815	2918
850.95	2922
851.085	3150
851.22	3070
851.355	3001
851.49	2982
851.625	2971
851.76	3020
851.895	2902
852.03	2868
852.165	3039
852.299	3108
852.434	3203
852.569	3131
852.703	3135
852.838	3233
852.973	3306
853.107	3321
853.242	3146
853.376	3089
853.511	2956
853.645	3013
853.78	3214
853.914	3135
854.048	3036
854.183	3039
854.317	3108
854.451	3302
854.585	3119
854.72	3062
854.854	3195
854.988	3032
855.122	3074
855.256	2933
855.39	3127
855.524	3195
855.658	3180
855.792	3127
855.926	3157
856.06	3203
856.194	3241
856.327	3123
856.461	3070
856.595	3051
856.729	3036
856.862	3199
856.996	3165
857.13	3165
857.263	3176
857.397	3249
857.53	3116
857.664	3188
857.797	3207
857.931	3256
858.064	3173
858.197	3218
858.331	3093
858.464	3089
858.597	3017
858.731	3077
858.864	3119
858.997	3100
859.13	3207
859.263	3207
859.396	3180
859.529	3070
859.662	3116
859.795	3055
859.928	3142
860.061	3268
860.194	3302
860.327	3169
860.46	3127
860.592	3245
860.725	3268
860.858	3233
860.99	3131
861.123	3070
861.256	3062
861.388	3192
861.521	3728
861.653	3055
861.786	3028
861.918	3036
862.05	3093
862.183	3104
862.315	3180
862.447	3203
862.58	3100
862.712	3020
862.844	2902
862.976	3039
863.108	3032
863.24	3348
863.372	2910
863.504	3009
863.636	2986
863.768	3085
863.9	2990
864.032	2941
864.164	2975
864.296	3043
864.428	3116
864.559	3138
864.691	3081
864.823	3112
864.954	3074
865.086	3074
865.217	3017
865.349	2982
865.48	3017
865.612	3058
865.743	3188
865.875	3051
866.006	2975
866.137	3013
866.269	2990
866.4	2982
866.531	2960
866.662	2925
866.793	2941
866.924	2937
867.055	2982
867.186	2975
867.317	2929
867.448	2883
867.579	2895
867.71	2872
867.841	2872
867.972	2933
868.103	2963
868.233	2922
868.364	2891
868.495	2925
868.625	3119
868.756	3180
868.886	2982
869.017	3024
869.147	3230
869.278	3218
869.408	3085
869.539	3055
869.669	3119
869.799	3043
869.929	3180
870.06	3169
870.19	3386
870.32	3336
870.45	3329
870.58	3393
870.71	3488
870.84	3488
870.97	3279
871.1	3268
871.23	3534
871.36	3507
871.489	3389
871.619	3428
871.749	3374
871.879	3507
872.008	3511
872.138	3405
872.267	3321
872.397	3165
872.526	3176
872.656	3013
872.785	3161
872.915	3272
873.044	3336
873.173	3249
873.303	3275
873.432	3264
873.561	3218
873.69	3173
873.819	3161
873.948	3214
874.077	3138
874.206	3036
874.335	3123
874.464	3245
874.593	3363
874.722	3268
874.851	3401
874.979	3348
875.108	3329
875.237	3237
875.365	3184
875.494	3165
875.623	3272
875.751	3085
875.88	3127
876.008	3211
876.136	3260
876.265	3393
876.393	3534
876.521	3412
876.65	3416
876.778	3355
876.906	3291
877.034	3230
877.162	3272
877.29	3154
877.418	3294
877.546	3275
877.674	3279
877.802	3260
877.93	3283
878.058	3176
878.185	3131
878.313	3218
878.441	3253
878.568	3055
878.696	3173
878.824	3283
878.951	3298
879.079	3462
879.206	3652
879.333	3473
879.461	3397
879.588	3393
879.715	3530
879.842	3633
879.97	3397
880.097	3180
880.224	3184
880.351	3188
880.478	3233
880.605	3207
880.732	3211
880.859	3538
880.986	3367
881.112	3389
881.239	3233
881.366	3165
881.493	3077
881.619	3074
881.746	3112
881.872	3108
881.999	3142
882.125	3173
882.252	3268
882.378	3321
882.505	3462
882.631	3291
882.757	3157
882.883	3214
883.01	3249
883.136	3180
883.262	3112
883.388	3135
883.514	3374
883.64	3424
883.766	3340
883.892	3256
884.018	3275
884.143	3447
884.269	3572
884.395	3230
884.52	3169
884.646	3226
884.772	3173
884.897	3142
885.023	3211
885.148	3386
885.274	3439
885.399	3355
885.524	3279
885.65	3279
885.775	3363
885.9	3329
886.025	3458
886.15	3393
886.275	3340
886.4	3253
886.525	3348
886.65	3348
886.775	3272
886.9	3496
887.025	3610
887.149	3420
887.274	3279
887.399	3226
887.523	3233
887.648	3199
887.773	3203
887.897	3409
888.021	3439
888.146	3332
888.27	3477
888.395	3572
888.519	3454
888.643	3515
888.767	3500
888.891	3325
889.015	3283
889.139	3317
889.263	3279
889.387	3405
889.511	3511
889.635	3466
889.759	3302
889.883	3359
890.006	3412
890.13	3485
890.254	3340
890.377	3336
890.501	3233
890.624	3180
890.748	3298
890.871	3173
890.995	3131
891.118	3116
891.241	3249
891.364	3260
891.488	3367
891.611	3192
891.734	3260
891.857	3325
891.98	3283
892.103	3351
892.226	3310
892.349	3260
892.471	3135
892.594	3256
892.717	3325
892.839	3279
892.962	3351
893.085	3363
893.207	3336
893.33	3173
893.452	3230
893.575	3355
893.697	3264
893.819	3481
893.941	3549
894.064	3454
894.186	3306
894.308	3291
894.43	3466
894.552	3584
894.674	3481
894.796	3279
894.918	3344
895.04	3321
895.161	3488
895.283	3370
895.405	3336
895.526	3386
895.648	3435
895.769	3488
895.891	3488
896.012	3504
896.134	3481
896.255	3420
896.376	3409
896.498	3359
896.619	3485
896.74	3393
896.861	3424
896.982	3717
897.103	3850
897.224	3595
897.345	3553
897.466	3439
897.587	3507
897.708	3660
897.828	3572
897.949	3473
898.07	3374
898.19	3424
898.311	3625
898.431	3473
898.552	3519
898.672	3629
898.792	3599
898.913	3534
899.033	3405
899.153	3321
899.273	3222
899.393	3249
899.513	3348
899.633	3348
899.753	3348
899.873	3332
899.993	3424
900.113	3367
900.232	3393
900.352	3355
900.472	3336
900.591	3207
900.711	3291
900.83	3249
900.95	3424
901.069	3538
901.189	3386
901.308	3222
901.427	3135
901.546	3226
901.665	3291
901.784	3355
901.904	3195
902.023	3184
902.141	2979
902.26	3032
902.379	3154
902.498	3047
902.617	3074
902.735	3264
902.854	3218
902.973	3192
903.091	3047
903.21	3077
903.328	3150
903.446	3097
903.565	3138
903.683	3218
903.801	3100
903.919	3260
904.038	3306
904.156	3165
904.274	3329
904.392	3283
904.51	3306
904.627	3367
904.745	3462
904.863	3538
904.981	3298
905.098	3154
905.216	3233
905.334	3336
905.451	3332
905.569	3317
905.686	3481
905.803	3439
905.921	3283
906.038	3424
906.155	3367
906.272	3249
906.389	3317
906.506	3233
906.623	3283
906.74	3264
906.857	3237
906.974	3249
907.091	3462
907.208	3549
907.324	3462
907.441	3401
907.557	3218
907.674	3272
907.79	3241
907.907	3302
908.023	3397
908.139	3393
908.256	3317
908.372	3370
908.488	3359
908.604	3287
908.72	3241
908.836	3268
908.952	3321
909.068	3325
909.184	3500
909.3	3389
909.415	3469
909.531	3458
909.647	3287
909.762	3294
909.878	3313
909.993	3370
910.108	3310
910.224	3370
910.339	3412
910.454	3310
910.57	3306
910.685	3279
910.8	3641
910.915	3572
911.03	3450
911.145	3310
911.259	3279
911.374	3336
911.489	3294
911.604	3237
911.718	3188
911.833	3188
911.947	3039
912.062	3024
912.176	3180
912.291	3192
912.405	3207
912.519	3435
912.633	3477
912.748	3336
912.862	3325
912.976	3180
913.09	3062
913.204	3131
913.318	3218
913.431	3374
913.545	3351
913.659	3454
913.772	3313
913.886	3211
914	3207
914.113	3363
914.226	3458
914.34	3386
914.453	3230
914.566	3435
914.68	3344
914.793	3325
914.906	3157
915.019	3165
915.132	3055
915.245	3169
915.358	3192
915.47	3207
915.583	3298
915.696	3294
915.809	3382
915.921	3420
916.034	3260
916.146	3275
916.259	3218
916.371	3431
916.483	3359
916.595	3321
916.708	3344
916.82	3332
916.932	3344
917.044	3367
917.156	3317
917.268	3249
917.38	3317
917.491	3279
917.603	3382
917.715	3462
917.826	3469
917.938	3405
918.049	3283
918.161	3420
918.272	3595
918.384	3580
918.495	3542
918.606	3389
918.717	3340
918.828	3348
918.939	3389
919.05	3340
919.161	3412
919.272	3142
919.383	3264
919.494	3511
919.604	3709
919.715	3443
919.826	3439
919.936	3424
920.047	3561
920.157	3530
920.267	3751
920.378	3614
920.488	3542
920.598	3781
920.708	3930
920.818	3816
920.928	3831
921.038	4044
921.148	4044
921.258	3736
921.368	3641
921.477	3610
921.587	3549
921.697	3473
921.806	3629
921.916	3561
922.025	3332
922.134	3397
922.244	3332
922.353	3424
922.462	3272
922.571	3241
922.68	3089
922.789	3062
922.898	3180
923.007	3123
923.116	3237
923.224	3176
923.333	3188
923.442	3077
923.55	3116
923.659	3116
923.767	3222
923.876	3142
923.984	3241
924.092	3104
924.201	3192
924.309	3245
924.417	3233
924.525	3184
924.633	3214
924.741	4044
924.849	3085
924.956	3313
925.064	3097
925.172	3070
925.279	3116
925.387	3184
925.494	3218
925.602	3367
925.709	3370
925.816	3214
925.924	3294
926.031	3420
926.138	3363
926.245	3332
926.352	3241
926.459	3420
926.566	3496
926.673	3325
926.779	3302
926.886	3241
926.993	3211
927.099	3157
927.206	3127
927.312	3127
927.419	3268
927.525	3260
927.631	3306
927.737	3199
927.843	3150
927.95	3043
928.056	3176
928.162	3214
928.267	3256
928.373	3880
928.479	3359
928.585	3100
928.69	3237
928.796	3283
928.901	3230
929.007	3077
929.112	3245
929.218	3253
929.323	3199
929.428	3180
929.533	3340
929.638	3173
929.743	3218
929.848	3245
929.953	3241
930.058	3195
930.163	3039
930.267	3089
930.372	3268
930.477	3081
930.581	3374
930.685	3218
930.79	3131
930.894	3169
930.998	3127
931.103	3313
931.207	2998
931.311	2994
931.415	2975
931.519	2815
931.623	2826
