Data from test_V78500241_1959.txt Node
Date: Fri Mar 25 16:28:46 CST 2022
User: usil
Spectrometer: V785-0024
Trigger mode: 0
Integration Time (sec): 4.000000E-1
Scans to average: 1
Nonlinearity correction enabled: false
Boxcar width: 0
Storing dark spectrum: false
XAxis mode: Wavelengths
Number of Pixels in Spectrum: 1024
>>>>>Begin Spectral Data<<<<<
801.071	2922
801.214	2994
801.356	2910
801.499	2925
801.641	2861
801.783	2960
801.926	3062
802.068	3001
802.211	3017
802.353	3047
802.496	3017
802.638	3009
802.78	3024
802.923	3100
803.065	3039
803.208	2922
803.35	2925
803.492	2929
803.635	2899
803.777	2807
803.919	2857
804.061	3226
804.204	2967
804.346	2902
804.488	2872
804.63	2979
804.773	2876
804.915	2929
805.057	3074
805.199	2925
805.341	2979
805.483	3055
805.626	3039
805.768	2967
805.91	3089
806.052	3108
806.194	3001
806.336	3256
806.478	3017
806.62	2975
806.762	2986
806.904	3066
807.046	3165
807.188	2994
807.33	2906
807.472	3020
807.614	2906
807.756	3009
807.898	2933
808.04	2906
808.182	2952
808.324	2967
808.465	2880
808.607	2861
808.749	2792
808.891	2876
809.033	2937
809.174	2948
809.316	2883
809.458	2895
809.6	2777
809.741	2773
809.883	2804
810.025	2845
810.166	2880
810.308	2834
810.45	2845
810.591	2800
810.733	2762
810.875	2861
811.016	2739
811.158	2788
811.299	2842
811.441	2902
811.582	2929
811.724	2826
811.865	2842
812.007	2902
812.148	2902
812.29	2830
812.431	2899
812.573	2948
812.714	2963
812.855	3051
812.997	3028
813.138	3165
813.279	3055
813.421	2971
813.562	2944
813.703	2861
813.845	2849
813.986	2792
814.127	2750
814.268	2807
814.41	2838
814.551	2823
814.692	2895
814.833	2861
814.974	2899
815.115	2952
815.256	2826
815.397	2834
815.539	2842
815.68	2769
815.821	2777
815.962	2922
816.103	2925
816.244	2845
816.385	2834
816.526	2971
816.666	2906
816.807	2773
816.948	2868
817.089	2937
817.23	2857
817.371	2807
817.512	2788
817.653	2864
817.793	2857
817.934	2845
818.075	2952
818.216	2948
818.356	3032
818.497	2891
818.638	2800
818.778	2815
818.919	2804
819.06	2739
819.2	2902
819.341	2815
819.481	2823
819.622	2948
819.762	3104
819.903	3039
820.043	2929
820.184	2880
820.324	2929
820.465	3024
820.605	2967
820.746	2990
820.886	2929
821.026	3058
821.167	3165
821.307	3275
821.447	3245
821.588	3233
821.728	3180
821.868	3154
822.008	3104
822.149	3161
822.289	3253
822.429	3104
822.569	3135
822.709	3176
822.849	3032
822.99	3077
823.13	3188
823.27	3161
823.41	3150
823.55	3180
823.69	3116
823.83	3211
823.97	3077
824.11	2994
824.25	2971
824.389	3081
824.529	3104
824.669	3077
824.809	3195
824.949	3253
825.089	3180
825.228	3176
825.368	3009
825.508	2952
825.648	3001
825.787	3020
825.927	3028
826.067	2971
826.206	2944
826.346	3077
826.485	3089
826.625	3127
826.765	3268
826.904	3188
827.044	2963
827.183	2937
827.323	2845
827.462	2975
827.601	2914
827.741	2918
827.88	2952
828.02	2861
828.159	2986
828.298	3036
828.437	3116
828.577	3017
828.716	3260
828.855	3043
828.994	2906
829.134	2906
829.273	2925
829.412	2857
829.551	2880
829.69	2895
829.829	2960
829.968	3116
830.107	2990
830.246	3017
830.385	2895
830.524	2929
830.663	2830
830.802	2724
830.941	2659
831.08	2636
831.219	2739
831.357	2785
831.496	2929
831.635	2743
831.774	2651
831.913	2617
832.051	2533
832.19	2560
832.329	2716
832.467	2507
832.606	2469
832.744	2606
832.883	2545
833.022	2590
833.16	2648
833.299	2651
833.437	2724
833.576	2686
833.714	2701
833.852	2701
833.991	2754
834.129	2842
834.267	2788
834.406	2781
834.544	2849
834.682	2883
834.821	2872
834.959	3039
835.097	2857
835.235	3032
835.373	3032
835.511	2998
835.65	2975
835.788	2963
835.926	2796
836.064	2815
836.202	2838
836.34	3081
836.478	3138
836.615	3047
836.753	3131
836.891	3211
837.029	3169
837.167	3138
837.305	3112
837.443	3032
837.58	2944
837.718	3119
837.856	3081
837.993	3036
838.131	3108
838.269	3097
838.406	3074
838.544	3077
838.681	2952
838.819	2902
838.956	2804
839.094	2826
839.231	2883
839.369	3024
839.506	3325
839.643	3207
839.781	2998
839.918	2952
840.055	3077
840.193	3058
840.33	3089
840.467	3081
840.604	3135
840.742	3405
840.879	3036
841.016	3047
841.153	3093
841.29	3370
841.427	3302
841.564	3272
841.701	3332
841.838	3214
841.975	3188
842.112	3165
842.249	3070
842.385	3039
842.522	3245
842.659	3093
842.796	3085
842.933	3112
843.069	2994
843.206	3001
843.343	3180
843.479	3100
843.616	3100
843.752	2883
843.889	2830
844.025	3089
844.162	2872
844.298	3077
844.435	2933
844.571	2922
844.708	3081
844.844	3184
844.98	3230
845.117	3192
845.253	3058
845.389	3005
845.525	3089
845.661	3108
845.798	2986
845.934	3112
846.07	3062
846.206	3233
846.342	3313
846.478	3249
846.614	3089
846.75	3070
846.886	3009
847.022	3211
847.158	3119
847.294	3184
847.429	3214
847.565	3169
847.701	3488
847.837	3055
847.972	3001
848.108	3135
848.244	3135
848.379	3009
848.515	2906
848.65	2880
848.786	2963
848.921	2994
849.057	3097
849.192	3093
849.328	3058
849.463	3100
849.598	3036
849.734	3055
849.869	2963
850.004	2914
850.14	2971
850.275	2933
850.41	2826
850.545	2868
850.68	2922
850.815	2922
850.95	2967
851.085	3135
851.22	3081
851.355	3047
851.49	2948
851.625	2990
851.76	3013
851.895	2933
852.03	2902
852.165	3039
852.299	3112
852.434	3199
852.569	3100
852.703	3188
852.838	3233
852.973	3340
853.107	3306
853.242	3157
853.376	3074
853.511	2979
853.645	3051
853.78	3222
853.914	3123
854.048	3062
854.183	3112
854.317	3150
854.451	3275
854.585	3119
854.72	3062
854.854	3203
854.988	3028
855.122	3089
855.256	2956
855.39	3081
855.524	3241
855.658	3184
855.792	3135
855.926	3165
856.06	3237
856.194	3294
856.327	3119
856.461	3055
856.595	3055
856.729	3093
856.862	3211
856.996	3131
857.13	3233
857.263	3241
857.397	3310
857.53	3116
857.664	3203
857.797	3169
857.931	3218
858.064	3180
858.197	3230
858.331	3142
858.464	3104
858.597	3028
858.731	3138
858.864	3135
858.997	3066
859.13	3131
859.263	3138
859.396	3233
859.529	3081
859.662	3081
859.795	3070
859.928	3112
860.061	3291
860.194	3287
860.327	3131
860.46	3062
860.592	3230
860.725	3222
860.858	3260
860.99	3123
861.123	3066
861.256	3074
861.388	3157
861.521	3857
861.653	3020
861.786	2971
861.918	2948
862.05	3043
862.183	3085
862.315	3150
862.447	3192
862.58	3100
862.712	2922
862.844	2861
862.976	3024
863.108	2982
863.24	3298
863.372	2857
863.504	2979
863.636	2937
863.768	3028
863.9	3017
864.032	2887
864.164	2979
864.296	3005
864.428	3058
864.559	3089
864.691	3074
864.823	3077
864.954	3009
865.086	3062
865.217	2986
865.349	2986
865.48	2998
865.612	2971
865.743	3169
865.875	2971
866.006	2952
866.137	2998
866.269	2906
866.4	2922
866.531	2937
866.662	2876
866.793	2899
866.924	2914
867.055	2960
867.186	2918
867.317	2902
867.448	2819
867.579	2830
867.71	2845
867.841	2819
867.972	2899
868.103	2883
868.233	2876
868.364	2868
868.495	2910
868.625	3043
868.756	3146
868.886	2967
869.017	3009
869.147	3188
869.278	3150
869.408	3017
869.539	3017
869.669	3081
869.799	3043
869.929	3138
870.06	3142
870.19	3283
870.32	3294
870.45	3249
870.58	3348
870.71	3458
870.84	3428
870.97	3336
871.1	3249
871.23	3492
871.36	3428
871.489	3336
871.619	3363
871.749	3374
871.879	3401
872.008	3485
872.138	3355
872.267	3268
872.397	3112
872.526	3085
872.656	2990
872.785	3146
872.915	3237
873.044	3313
873.173	3214
873.303	3214
873.432	3272
873.561	3279
873.69	3131
873.819	3123
873.948	3138
874.077	3142
874.206	3032
874.335	3100
874.464	3199
874.593	3363
874.722	3249
874.851	3329
874.979	3363
875.108	3317
875.237	3199
875.365	3138
875.494	3127
875.623	3237
875.751	3055
875.88	3085
876.008	3188
876.136	3203
876.265	3386
876.393	3507
876.521	3405
876.65	3409
876.778	3317
876.906	3184
877.034	3214
877.162	3253
877.29	3195
877.418	3245
877.546	3268
877.674	3241
877.802	3218
877.93	3230
878.058	3135
878.185	3070
878.313	3195
878.441	3192
878.568	3093
878.696	3176
878.824	3233
878.951	3325
879.079	3412
879.206	3606
879.333	3412
879.461	3332
879.588	3397
879.715	3492
879.842	3580
879.97	3409
880.097	3123
880.224	3150
880.351	3214
880.478	3207
880.605	3173
880.732	3184
880.859	3473
880.986	3253
881.112	3340
881.239	3157
881.366	3097
881.493	3051
881.619	3055
881.746	3043
881.872	3077
881.999	3116
882.125	3104
882.252	3211
882.378	3260
882.505	3416
882.631	3245
882.757	3180
882.883	3249
883.01	3218
883.136	3138
883.262	3085
883.388	3104
883.514	3287
883.64	3340
883.766	3302
883.892	3180
884.018	3233
884.143	3393
884.269	3511
884.395	3169
884.52	3154
884.646	3192
884.772	3089
884.897	3077
885.023	3199
885.148	3283
885.274	3401
885.399	3397
885.524	3264
885.65	3291
885.775	3310
885.9	3268
886.025	3447
886.15	3363
886.275	3306
886.4	3203
886.525	3287
886.65	3260
886.775	3260
886.9	3485
887.025	3660
887.149	3428
887.274	3279
887.399	3150
887.523	3211
887.648	3188
887.773	3180
887.897	3348
888.021	3359
888.146	3310
888.27	3409
888.395	3545
888.519	3428
888.643	3450
888.767	3477
888.891	3287
889.015	3241
889.139	3272
889.263	3230
889.387	3420
889.511	3481
889.635	3420
889.759	3253
889.883	3268
890.006	3344
890.13	3481
890.254	3249
890.377	3317
890.501	3203
890.624	3192
890.748	3313
890.871	3195
890.995	3123
891.118	3055
891.241	3173
891.364	3211
891.488	3317
891.611	3154
891.734	3233
891.857	3294
891.98	3256
892.103	3325
892.226	3272
892.349	3230
892.471	3097
892.594	3253
892.717	3302
892.839	3279
892.962	3313
893.085	3367
893.207	3272
893.33	3142
893.452	3188
893.575	3340
893.697	3195
893.819	3473
893.941	3481
894.064	3412
894.186	3249
894.308	3241
894.43	3431
894.552	3568
894.674	3469
894.796	3283
894.918	3332
895.04	3260
895.161	3447
895.283	3397
895.405	3317
895.526	3359
895.648	3428
895.769	3405
895.891	3492
896.012	3466
896.134	3458
896.255	3428
896.376	3382
896.498	3325
896.619	3462
896.74	3355
896.861	3397
896.982	3652
897.103	3766
897.224	3591
897.345	3523
897.466	3420
897.587	3504
897.708	3603
897.828	3542
897.949	3428
898.07	3298
898.19	3393
898.311	3599
898.431	3424
898.552	3469
898.672	3572
898.792	3599
898.913	3519
899.033	3397
899.153	3253
899.273	3222
899.393	3310
899.513	3313
899.633	3321
899.753	3291
899.873	3310
899.993	3351
900.113	3336
900.232	3409
900.352	3351
900.472	3268
900.591	3192
900.711	3237
900.83	3260
900.95	3431
901.069	3458
901.189	3340
901.308	3150
901.427	3142
901.546	3173
901.665	3253
901.784	3336
901.904	3165
902.023	3127
902.141	3005
902.26	2998
902.379	3108
902.498	3074
902.617	3074
902.735	3192
902.854	3222
902.973	3176
903.091	3024
903.21	3047
903.328	3108
903.446	3127
903.565	3142
903.683	3226
903.801	3108
903.919	3249
904.038	3253
904.156	3146
904.274	3283
904.392	3264
904.51	3279
904.627	3302
904.745	3428
904.863	3526
904.981	3226
905.098	3165
905.216	3230
905.334	3283
905.451	3256
905.569	3321
905.686	3389
905.803	3431
905.921	3249
906.038	3420
906.155	3332
906.272	3264
906.389	3344
906.506	3214
906.623	3237
906.74	3287
906.857	3173
906.974	3249
907.091	3412
907.208	3595
907.324	3454
907.441	3367
907.557	3237
907.674	3283
907.79	3218
907.907	3226
908.023	3367
908.139	3363
908.256	3321
908.372	3374
908.488	3336
908.604	3275
908.72	3241
908.836	3298
908.952	3279
909.068	3348
909.184	3458
909.3	3389
909.415	3523
909.531	3477
909.647	3222
909.762	3302
909.878	3264
909.993	3336
910.108	3302
910.224	3336
910.339	3428
910.454	3363
910.57	3283
910.685	3222
910.8	3610
910.915	3526
911.03	3420
911.145	3275
911.259	3275
911.374	3332
911.489	3241
911.604	3249
911.718	3116
911.833	3131
911.947	3024
912.062	2971
912.176	3154
912.291	3180
912.405	3207
912.519	3416
912.633	3435
912.748	3332
912.862	3279
912.976	3157
913.09	3047
913.204	3116
913.318	3169
913.431	3329
913.545	3321
913.659	3397
913.772	3302
913.886	3207
914	3184
914.113	3359
914.226	3370
914.34	3370
914.453	3218
914.566	3389
914.68	3283
914.793	3275
914.906	3131
915.019	3108
915.132	3058
915.245	3142
915.358	3184
915.47	3237
915.583	3211
915.696	3291
915.809	3378
915.921	3374
916.034	3260
916.146	3203
916.259	3184
916.371	3412
916.483	3355
916.595	3256
916.708	3351
916.82	3302
916.932	3359
917.044	3355
917.156	3355
917.268	3226
917.38	3321
917.491	3298
917.603	3355
917.715	3443
917.826	3450
917.938	3367
918.049	3298
918.161	3416
918.272	3587
918.384	3584
918.495	3492
918.606	3348
918.717	3313
918.828	3359
918.939	3416
919.05	3306
919.161	3378
919.272	3203
919.383	3302
919.494	3534
919.604	3686
919.715	3488
919.826	3439
919.936	3473
920.047	3591
920.157	3564
920.267	3743
920.378	3599
920.488	3610
920.598	3800
920.708	4044
920.818	3797
920.928	3888
921.038	4040
921.148	4055
921.258	3789
921.368	3667
921.477	3587
921.587	3584
921.697	3530
921.806	3652
921.916	3549
922.025	3374
922.134	3378
922.244	3325
922.353	3466
922.462	3325
922.571	3237
922.68	3131
922.789	3108
922.898	3146
923.007	3127
923.116	3245
923.224	3230
923.333	3203
923.442	3131
923.55	3150
923.659	3176
923.767	3268
923.876	3154
923.984	3275
924.092	3173
924.201	3268
924.309	3253
924.417	3302
924.525	3222
924.633	3302
924.741	4169
924.849	3112
924.956	3317
925.064	3150
925.172	3051
925.279	3127
925.387	3233
925.494	3233
925.602	3382
925.709	3355
925.816	3241
925.924	3294
926.031	3382
926.138	3344
926.245	3412
926.352	3329
926.459	3424
926.566	3492
926.673	3351
926.779	3313
926.886	3287
926.993	3180
927.099	3154
927.206	3161
927.312	3161
927.419	3275
927.525	3222
927.631	3294
927.737	3154
927.843	3173
927.95	3070
928.056	3180
928.162	3184
928.267	3268
928.373	3903
928.479	3306
928.585	3104
928.69	3226
928.796	3298
928.901	3211
929.007	3066
929.112	3195
929.218	3226
929.323	3188
929.428	3176
929.533	3321
929.638	3165
929.743	3165
929.848	3256
929.953	3230
930.058	3169
930.163	3024
930.267	3089
930.372	3272
930.477	3066
930.581	3317
930.685	3188
930.79	3093
930.894	3157
930.998	3135
931.103	3310
931.207	3047
931.311	2960
931.415	2963
931.519	2815
931.623	2811
