Data from test_V78500241_241.txt Node
Date: Fri Mar 25 16:16:52 CST 2022
User: usil
Spectrometer: V785-0024
Trigger mode: 0
Integration Time (sec): 4.000000E-1
Scans to average: 1
Nonlinearity correction enabled: false
Boxcar width: 0
Storing dark spectrum: false
XAxis mode: Wavelengths
Number of Pixels in Spectrum: 1024
>>>>>Begin Spectral Data<<<<<
801.071	2906
801.214	2944
801.356	2857
801.499	2883
801.641	2845
801.783	2918
801.926	3036
802.068	2971
802.211	2994
802.353	3017
802.496	2971
802.638	2982
802.78	3017
802.923	3051
803.065	3001
803.208	2857
803.35	2906
803.492	2933
803.635	2910
803.777	2788
803.919	2857
804.061	3154
804.204	2887
804.346	2891
804.488	2830
804.63	2975
804.773	2872
804.915	2925
805.057	3058
805.199	2937
805.341	2952
805.483	3039
805.626	3001
805.768	2937
805.91	3058
806.052	3108
806.194	3009
806.336	3176
806.478	3009
806.62	2880
806.762	2918
806.904	3028
807.046	3142
807.188	2967
807.33	2891
807.472	2963
807.614	2864
807.756	2956
807.898	2891
808.04	2857
808.182	2948
808.324	2960
808.465	2861
808.607	2853
808.749	2758
808.891	2830
809.033	2899
809.174	2975
809.316	2906
809.458	2864
809.6	2754
809.741	2746
809.883	2727
810.025	2838
810.166	2826
810.308	2838
810.45	2868
810.591	2777
810.733	2720
810.875	2796
811.016	2792
811.158	2773
811.299	2800
811.441	2895
811.582	2891
811.724	2804
811.865	2811
812.007	2883
812.148	2872
812.29	2861
812.431	2887
812.573	2902
812.714	2952
812.855	3013
812.997	3074
813.138	3097
813.279	3043
813.421	2994
813.562	2979
813.703	2864
813.845	2887
813.986	2800
814.127	2743
814.268	2838
814.41	2826
814.551	2838
814.692	2887
814.833	2804
814.974	2941
815.115	2990
815.256	2842
815.397	2796
815.539	2861
815.68	2842
815.821	2788
815.962	2979
816.103	2952
816.244	2876
816.385	2891
816.526	3009
816.666	2971
816.807	2777
816.948	2933
817.089	2933
817.23	2876
817.371	2796
817.512	2868
817.653	2872
817.793	2868
817.934	2899
818.075	2990
818.216	3039
818.356	3039
818.497	2902
818.638	2842
818.778	2845
818.919	2826
819.06	2781
819.2	2944
819.341	2887
819.481	2883
819.622	2979
819.762	3161
819.903	3070
820.043	3001
820.184	2956
820.324	2937
820.465	3062
820.605	3043
820.746	3058
820.886	2948
821.026	3161
821.167	3199
821.307	3313
821.447	3348
821.588	3245
821.728	3272
821.868	3268
822.008	3146
822.149	3237
822.289	3260
822.429	3157
822.569	3108
822.709	3214
822.849	3085
822.99	3112
823.13	3237
823.27	3218
823.41	3116
823.55	3150
823.69	3203
823.83	3237
823.97	3131
824.11	3020
824.25	3051
824.389	3127
824.529	3184
824.669	3089
824.809	3230
824.949	3302
825.089	3237
825.228	3188
825.368	3020
825.508	2994
825.648	3020
825.787	3017
825.927	3043
826.067	3028
826.206	2982
826.346	3070
826.485	3089
826.625	3146
826.765	3340
826.904	3279
827.044	3009
827.183	2979
827.323	2868
827.462	3055
827.601	2986
827.741	3009
827.88	2971
828.02	2887
828.159	3017
828.298	3074
828.437	3135
828.577	3081
828.716	3275
828.855	3154
828.994	2948
829.134	2929
829.273	3001
829.412	2887
829.551	2899
829.69	2922
829.829	3005
829.968	3188
830.107	3062
830.246	3058
830.385	2941
830.524	2891
830.663	2872
830.802	2762
830.941	2720
831.08	2682
831.219	2785
831.357	2785
831.496	2963
831.635	2754
831.774	2712
831.913	2686
832.051	2571
832.19	2575
832.329	2731
832.467	2545
832.606	2514
832.744	2602
832.883	2602
833.022	2632
833.16	2739
833.299	2727
833.437	2720
833.576	2701
833.714	2766
833.852	2769
833.991	2804
834.129	2883
834.267	2864
834.406	2868
834.544	2918
834.682	2887
834.821	2880
834.959	3116
835.097	2979
835.235	3077
835.373	3047
835.511	3017
835.65	2994
835.788	2994
835.926	2857
836.064	2853
836.202	2861
836.34	3123
836.478	3192
836.615	3081
836.753	3142
836.891	3211
837.029	3214
837.167	3116
837.305	3112
837.443	3085
837.58	2990
837.718	3127
837.856	3081
837.993	3039
838.131	3123
838.269	3146
838.406	3123
838.544	3119
838.681	2979
838.819	2937
838.956	2826
839.094	2883
839.231	2929
839.369	3062
839.506	3420
839.643	3256
839.781	3039
839.918	2960
840.055	3081
840.193	3074
840.33	3074
840.467	3131
840.604	3146
840.742	3462
840.879	3066
841.016	3058
841.153	3127
841.29	3344
841.427	3355
841.564	3306
841.701	3325
841.838	3214
841.975	3264
842.112	3230
842.249	3085
842.385	3070
842.522	3287
842.659	3112
842.796	3089
842.933	3123
843.069	3051
843.206	3097
843.343	3203
843.479	3104
843.616	3165
843.752	2933
843.889	2906
844.025	3127
844.162	2906
844.298	3112
844.435	2956
844.571	2963
844.708	3047
844.844	3253
844.98	3287
845.117	3218
845.253	3116
845.389	3020
845.525	3070
845.661	3142
845.798	3077
845.934	3169
846.07	3058
846.206	3245
846.342	3370
846.478	3291
846.614	3093
846.75	3062
846.886	3085
847.022	3279
847.158	3188
847.294	3211
847.429	3287
847.565	3207
847.701	3545
847.837	3093
847.972	3043
848.108	3169
848.244	3161
848.379	3089
848.515	2994
848.65	2967
848.786	3009
848.921	3081
849.057	3146
849.192	3138
849.328	3131
849.463	3146
849.598	3077
849.734	3074
849.869	2979
850.004	2952
850.14	3009
850.275	2971
850.41	2853
850.545	2918
850.68	2990
850.815	3001
850.95	2998
851.085	3211
851.22	3138
851.355	3062
851.49	3032
851.625	3039
851.76	3032
851.895	2967
852.03	2963
852.165	3017
852.299	3142
852.434	3211
852.569	3169
852.703	3184
852.838	3283
852.973	3351
853.107	3340
853.242	3188
853.376	3112
853.511	3043
853.645	3062
853.78	3249
853.914	3165
854.048	3127
854.183	3119
854.317	3157
854.451	3321
854.585	3146
854.72	3070
854.854	3173
854.988	3104
855.122	3116
855.256	2994
855.39	3169
855.524	3272
855.658	3188
855.792	3195
855.926	3195
856.06	3249
856.194	3272
856.327	3154
856.461	3089
856.595	3108
856.729	3127
856.862	3214
856.996	3199
857.13	3230
857.263	3268
857.397	3283
857.53	3169
857.664	3207
857.797	3233
857.931	3256
858.064	3222
858.197	3199
858.331	3135
858.464	3093
858.597	3039
858.731	3180
858.864	3184
858.997	3116
859.13	3154
859.263	3230
859.396	3245
859.529	3116
859.662	3085
859.795	3055
859.928	3176
860.061	3298
860.194	3317
860.327	3146
860.46	3112
860.592	3283
860.725	3260
860.858	3275
860.99	3100
861.123	3028
861.256	3108
861.388	3123
861.521	3850
861.653	3024
861.786	2998
861.918	3043
862.05	3108
862.183	3131
862.315	3165
862.447	3249
862.58	3108
862.712	3013
862.844	2868
862.976	3043
863.108	3062
863.24	3336
863.372	2891
863.504	2975
863.636	2956
863.768	3039
863.9	2979
864.032	2948
864.164	2967
864.296	3055
864.428	3116
864.559	3116
864.691	3077
864.823	3074
864.954	3036
865.086	3081
865.217	3032
865.349	2960
865.48	2967
865.612	3032
865.743	3203
865.875	2975
866.006	2998
866.137	3017
866.269	2967
866.4	2963
866.531	2944
866.662	2941
866.793	2887
866.924	2922
867.055	2960
867.186	2948
867.317	2914
867.448	2868
867.579	2872
867.71	2895
867.841	2883
867.972	2899
868.103	2925
868.233	2906
868.364	2910
868.495	2922
868.625	3077
868.756	3199
868.886	2967
869.017	3058
869.147	3169
869.278	3199
869.408	3074
869.539	3055
869.669	3142
869.799	3028
869.929	3135
870.06	3142
870.19	3359
870.32	3317
870.45	3294
870.58	3374
870.71	3466
870.84	3424
870.97	3294
871.1	3260
871.23	3481
871.36	3454
871.489	3389
871.619	3458
871.749	3439
871.879	3458
872.008	3496
872.138	3416
872.267	3287
872.397	3142
872.526	3123
872.656	3066
872.785	3131
872.915	3233
873.044	3363
873.173	3245
873.303	3256
873.432	3272
873.561	3268
873.69	3150
873.819	3161
873.948	3230
874.077	3127
874.206	3089
874.335	3112
874.464	3253
874.593	3359
874.722	3249
874.851	3428
874.979	3355
875.108	3340
875.237	3230
875.365	3192
875.494	3176
875.623	3249
875.751	3093
875.88	3146
876.008	3176
876.136	3241
876.265	3420
876.393	3561
876.521	3492
876.65	3412
876.778	3374
876.906	3279
877.034	3192
877.162	3272
877.29	3214
877.418	3287
877.546	3275
877.674	3279
877.802	3249
877.93	3218
878.058	3188
878.185	3131
878.313	3199
878.441	3237
878.568	3085
878.696	3184
878.824	3294
878.951	3287
879.079	3462
879.206	3679
879.333	3466
879.461	3351
879.588	3393
879.715	3481
879.842	3603
879.97	3389
880.097	3157
880.224	3150
880.351	3222
880.478	3211
880.605	3237
880.732	3192
880.859	3488
880.986	3313
881.112	3367
881.239	3226
881.366	3123
881.493	3058
881.619	3020
881.746	3108
881.872	3150
881.999	3142
882.125	3214
882.252	3249
882.378	3279
882.505	3454
882.631	3264
882.757	3169
882.883	3260
883.01	3226
883.136	3169
883.262	3161
883.388	3100
883.514	3336
883.64	3378
883.766	3340
883.892	3226
884.018	3253
884.143	3443
884.269	3526
884.395	3264
884.52	3218
884.646	3173
884.772	3131
884.897	3142
885.023	3249
885.148	3389
885.274	3431
885.399	3397
885.524	3268
885.65	3272
885.775	3313
885.9	3336
886.025	3454
886.15	3374
886.275	3325
886.4	3256
886.525	3321
886.65	3298
886.775	3317
886.9	3538
887.025	3644
887.149	3458
887.274	3256
887.399	3207
887.523	3211
887.648	3207
887.773	3199
887.897	3412
888.021	3454
888.146	3329
888.27	3466
888.395	3542
888.519	3420
888.643	3466
888.767	3507
888.891	3313
889.015	3287
889.139	3306
889.263	3272
889.387	3412
889.511	3557
889.635	3458
889.759	3294
889.883	3351
890.006	3405
890.13	3496
890.254	3313
890.377	3382
890.501	3214
890.624	3184
890.748	3355
890.871	3169
890.995	3104
891.118	3104
891.241	3211
891.364	3245
891.488	3329
891.611	3188
891.734	3211
891.857	3298
891.98	3249
892.103	3359
892.226	3272
892.349	3256
892.471	3097
892.594	3253
892.717	3306
892.839	3291
892.962	3279
893.085	3344
893.207	3317
893.33	3188
893.452	3188
893.575	3367
893.697	3245
893.819	3462
893.941	3523
894.064	3477
894.186	3268
894.308	3249
894.43	3439
894.552	3584
894.674	3447
894.796	3287
894.918	3317
895.04	3313
895.161	3382
895.283	3405
895.405	3332
895.526	3359
895.648	3439
895.769	3428
895.891	3473
896.012	3507
896.134	3515
896.255	3431
896.376	3412
896.498	3363
896.619	3466
896.74	3370
896.861	3389
896.982	3656
897.103	3869
897.224	3587
897.345	3519
897.466	3424
897.587	3542
897.708	3618
897.828	3534
897.949	3443
898.07	3310
898.19	3367
898.311	3618
898.431	3492
898.552	3526
898.672	3580
898.792	3599
898.913	3519
899.033	3420
899.153	3283
899.273	3211
899.393	3348
899.513	3329
899.633	3348
899.753	3329
899.873	3298
899.993	3367
900.113	3351
900.232	3401
900.352	3332
900.472	3287
900.591	3207
900.711	3348
900.83	3268
900.95	3405
901.069	3519
901.189	3363
901.308	3188
901.427	3138
901.546	3195
901.665	3321
901.784	3291
901.904	3211
902.023	3173
902.141	3062
902.26	3005
902.379	3180
902.498	3051
902.617	3005
902.735	3245
902.854	3253
902.973	3218
903.091	3074
903.21	3089
903.328	3169
903.446	3116
903.565	3119
903.683	3192
903.801	3116
903.919	3260
904.038	3321
904.156	3176
904.274	3272
904.392	3310
904.51	3310
904.627	3294
904.745	3424
904.863	3488
904.981	3283
905.098	3180
905.216	3230
905.334	3291
905.451	3264
905.569	3332
905.686	3450
905.803	3477
905.921	3294
906.038	3447
906.155	3397
906.272	3313
906.389	3306
906.506	3222
906.623	3264
906.74	3310
906.857	3157
906.974	3268
907.091	3443
907.208	3595
907.324	3511
907.441	3420
907.557	3253
907.674	3233
907.79	3222
907.907	3294
908.023	3378
908.139	3382
908.256	3367
908.372	3367
908.488	3359
908.604	3268
908.72	3260
908.836	3317
908.952	3298
909.068	3359
909.184	3507
909.3	3416
909.415	3500
909.531	3473
909.647	3287
909.762	3302
909.878	3226
909.993	3370
910.108	3325
910.224	3370
910.339	3428
910.454	3332
910.57	3336
910.685	3245
910.8	3614
910.915	3557
911.03	3428
911.145	3283
911.259	3256
911.374	3317
911.489	3241
911.604	3249
911.718	3157
911.833	3138
911.947	3062
912.062	3005
912.176	3173
912.291	3230
912.405	3207
912.519	3485
912.633	3477
912.748	3317
912.862	3302
912.976	3184
913.09	3062
913.204	3154
913.318	3214
913.431	3359
913.545	3344
913.659	3450
913.772	3325
913.886	3253
914	3218
914.113	3393
914.226	3435
914.34	3389
914.453	3253
914.566	3370
914.68	3279
914.793	3321
914.906	3150
915.019	3131
915.132	3058
915.245	3176
915.358	3165
915.47	3291
915.583	3294
915.696	3256
915.809	3435
915.921	3378
916.034	3298
916.146	3260
916.259	3249
916.371	3378
916.483	3344
916.595	3272
916.708	3351
916.82	3313
916.932	3351
917.044	3340
917.156	3317
917.268	3256
917.38	3313
917.491	3302
917.603	3363
917.715	3481
917.826	3447
917.938	3397
918.049	3279
918.161	3439
918.272	3591
918.384	3572
918.495	3496
918.606	3291
918.717	3264
918.828	3405
918.939	3431
919.05	3302
919.161	3355
919.272	3180
919.383	3287
919.494	3519
919.604	3717
919.715	3504
919.826	3481
919.936	3447
920.047	3584
920.157	3587
920.267	3781
920.378	3622
920.488	3572
920.598	3812
920.708	3968
920.818	3865
920.928	3854
921.038	4032
921.148	4021
921.258	3720
921.368	3648
921.477	3580
921.587	3568
921.697	3462
921.806	3625
921.916	3580
922.025	3351
922.134	3420
922.244	3344
922.353	3420
922.462	3283
922.571	3222
922.68	3119
922.789	3104
922.898	3119
923.007	3127
923.116	3218
923.224	3192
923.333	3211
923.442	3104
923.55	3142
923.659	3146
923.767	3241
923.876	3112
923.984	3249
924.092	3154
924.201	3222
924.309	3199
924.417	3245
924.525	3203
924.633	3218
924.741	4234
924.849	3055
924.956	3272
925.064	3100
925.172	3043
925.279	3127
925.387	3241
925.494	3218
925.602	3412
925.709	3351
925.816	3192
925.924	3287
926.031	3348
926.138	3344
926.245	3374
926.352	3256
926.459	3393
926.566	3500
926.673	3310
926.779	3253
926.886	3272
926.993	3112
927.099	3131
927.206	3123
927.312	3131
927.419	3218
927.525	3226
927.631	3283
927.737	3123
927.843	3165
927.95	3039
928.056	3108
928.162	3211
928.267	3268
928.373	3831
928.479	3287
928.585	3055
928.69	3222
928.796	3306
928.901	3169
929.007	3055
929.112	3256
929.218	3180
929.323	3161
929.428	3173
929.533	3332
929.638	3127
929.743	3195
929.848	3283
929.953	3188
930.058	3150
930.163	3024
930.267	3047
930.372	3146
930.477	3028
930.581	3348
930.685	3222
930.79	3058
930.894	3123
930.998	3093
931.103	3302
931.207	2963
931.311	2929
931.415	2910
931.519	2811
931.623	2804
