Data from test_V78500241_629.txt Node
Date: Fri Mar 25 16:19:33 CST 2022
User: usil
Spectrometer: V785-0024
Trigger mode: 0
Integration Time (sec): 4.000000E-1
Scans to average: 1
Nonlinearity correction enabled: false
Boxcar width: 0
Storing dark spectrum: false
XAxis mode: Wavelengths
Number of Pixels in Spectrum: 1024
>>>>>Begin Spectral Data<<<<<
801.071	2937
801.214	2971
801.356	2906
801.499	2933
801.641	2887
801.783	2975
801.926	3093
802.068	2994
802.211	3051
802.353	3055
802.496	3009
802.638	3074
802.78	3047
802.923	3077
803.065	2982
803.208	2902
803.35	2891
803.492	2960
803.635	2963
803.777	2781
803.919	2899
804.061	3226
804.204	2937
804.346	2956
804.488	2861
804.63	3005
804.773	2868
804.915	2895
805.057	3100
805.199	2948
805.341	2994
805.483	3043
805.626	3013
805.768	2975
805.91	3085
806.052	3119
806.194	3055
806.336	3253
806.478	3017
806.62	2948
806.762	3009
806.904	3058
807.046	3184
807.188	2975
807.33	2918
807.472	2979
807.614	2933
807.756	2990
807.898	2971
808.04	2914
808.182	2994
808.324	2998
808.465	2899
808.607	2826
808.749	2792
808.891	2842
809.033	2982
809.174	2944
809.316	2929
809.458	2929
809.6	2807
809.741	2785
809.883	2773
810.025	2830
810.166	2883
810.308	2868
810.45	2834
810.591	2781
810.733	2807
810.875	2872
811.016	2777
811.158	2788
811.299	2838
811.441	2960
811.582	2922
811.724	2842
811.865	2845
812.007	2876
812.148	2876
812.29	2823
812.431	2880
812.573	2971
812.714	2975
812.855	3093
812.997	3051
813.138	3116
813.279	3017
813.421	2986
813.562	2967
813.703	2872
813.845	2937
813.986	2785
814.127	2746
814.268	2792
814.41	2849
814.551	2815
814.692	2864
814.833	2834
814.974	2895
815.115	2960
815.256	2849
815.397	2838
815.539	2815
815.68	2804
815.821	2792
815.962	2929
816.103	2941
816.244	2910
816.385	2895
816.526	2975
816.666	2960
816.807	2743
816.948	2906
817.089	2963
817.23	2876
817.371	2781
817.512	2800
817.653	2876
817.793	2842
817.934	2849
818.075	2986
818.216	2998
818.356	3001
818.497	2887
818.638	2785
818.778	2857
818.919	2819
819.06	2777
819.2	2880
819.341	2766
819.481	2819
819.622	2941
819.762	3116
819.903	3055
820.043	2918
820.184	2918
820.324	2902
820.465	3032
820.605	3017
820.746	3043
820.886	2895
821.026	3085
821.167	3188
821.307	3260
821.447	3310
821.588	3226
821.728	3207
821.868	3199
822.008	3066
822.149	3173
822.289	3233
822.429	3077
822.569	3077
822.709	3157
822.849	3051
822.99	3085
823.13	3180
823.27	3230
823.41	3131
823.55	3154
823.69	3173
823.83	3214
823.97	3081
824.11	3005
824.25	2979
824.389	3081
824.529	3127
824.669	3093
824.809	3233
824.949	3214
825.089	3203
825.228	3173
825.368	3013
825.508	2941
825.648	2971
825.787	3020
825.927	3013
826.067	2948
826.206	2963
826.346	3062
826.485	3077
826.625	3127
826.765	3268
826.904	3237
827.044	3013
827.183	2883
827.323	2868
827.462	3009
827.601	2937
827.741	2941
827.88	2990
828.02	2895
828.159	2967
828.298	3062
828.437	3127
828.577	3043
828.716	3249
828.855	3070
828.994	2944
829.134	2937
829.273	2937
829.412	2895
829.551	2868
829.69	2899
829.829	2971
829.968	3100
830.107	3009
830.246	3020
830.385	2906
830.524	2845
830.663	2842
830.802	2731
830.941	2636
831.08	2667
831.219	2796
831.357	2792
831.496	2937
831.635	2716
831.774	2663
831.913	2655
832.051	2545
832.19	2575
832.329	2693
832.467	2564
832.606	2473
832.744	2564
832.883	2575
833.022	2587
833.16	2648
833.299	2712
833.437	2708
833.576	2705
833.714	2701
833.852	2762
833.991	2754
834.129	2826
834.267	2819
834.406	2823
834.544	2849
834.682	2853
834.821	2891
834.959	3077
835.097	2944
835.235	3058
835.373	2944
835.511	3024
835.65	2979
835.788	2944
835.926	2864
836.064	2823
836.202	2895
836.34	3089
836.478	3176
836.615	3032
836.753	3135
836.891	3192
837.029	3119
837.167	3112
837.305	3074
837.443	3005
837.58	2956
837.718	3154
837.856	3074
837.993	3039
838.131	3116
838.269	3112
838.406	3135
838.544	3100
838.681	2963
838.819	2922
838.956	2800
839.094	2864
839.231	2906
839.369	3009
839.506	3359
839.643	3226
839.781	3017
839.918	2925
840.055	3085
840.193	3043
840.33	3062
840.467	3112
840.604	3131
840.742	3378
840.879	3047
841.016	3043
841.153	3104
841.29	3348
841.427	3291
841.564	3256
841.701	3306
841.838	3211
841.975	3199
842.112	3230
842.249	3047
842.385	3039
842.522	3245
842.659	3116
842.796	3058
842.933	3123
843.069	3062
843.206	3028
843.343	3203
843.479	3104
843.616	3097
843.752	2902
843.889	2868
844.025	3066
844.162	2864
844.298	3074
844.435	2941
844.571	2910
844.708	3085
844.844	3207
844.98	3256
845.117	3226
845.253	3043
845.389	3009
845.525	3093
845.661	3074
845.798	3001
845.934	3100
846.07	3047
846.206	3264
846.342	3332
846.478	3211
846.614	3062
846.75	3100
846.886	3005
847.022	3272
847.158	3119
847.294	3184
847.429	3249
847.565	3241
847.701	3469
847.837	3005
847.972	2990
848.108	3142
848.244	3135
848.379	3017
848.515	2899
848.65	2960
848.786	2929
848.921	3043
849.057	3093
849.192	3161
849.328	3074
849.463	3074
849.598	3047
849.734	3058
849.869	2979
850.004	2963
850.14	2979
850.275	2933
850.41	2880
850.545	2872
850.68	2918
850.815	2967
850.95	2990
851.085	3135
851.22	3085
851.355	3020
851.49	2975
851.625	3013
851.76	3017
851.895	2918
852.03	2899
852.165	3058
852.299	3100
852.434	3207
852.569	3154
852.703	3180
852.838	3211
852.973	3344
853.107	3355
853.242	3112
853.376	3081
853.511	2994
853.645	3047
853.78	3253
853.914	3074
854.048	3100
854.183	3097
854.317	3093
854.451	3272
854.585	3112
854.72	3100
854.854	3184
854.988	3039
855.122	3062
855.256	3005
855.39	3119
855.524	3211
855.658	3192
855.792	3138
855.926	3203
856.06	3195
856.194	3233
856.327	3135
856.461	3081
856.595	3066
856.729	3104
856.862	3203
856.996	3119
857.13	3211
857.263	3233
857.397	3272
857.53	3119
857.664	3184
857.797	3222
857.931	3241
858.064	3135
858.197	3207
858.331	3135
858.464	3097
858.597	2998
858.731	3157
858.864	3119
858.997	3089
859.13	3169
859.263	3146
859.396	3230
859.529	3058
859.662	3047
859.795	3089
859.928	3150
860.061	3272
860.194	3260
860.327	3116
860.46	3070
860.592	3249
860.725	3222
860.858	3218
860.99	3108
861.123	3051
861.256	3055
861.388	3127
861.521	3690
861.653	3013
861.786	3013
861.918	2975
862.05	3028
862.183	3100
862.315	3176
862.447	3211
862.58	3093
862.712	2918
862.844	2883
862.976	2986
863.108	3017
863.24	3370
863.372	2849
863.504	2982
863.636	2941
863.768	3020
863.9	2960
864.032	2891
864.164	2979
864.296	3005
864.428	3112
864.559	3116
864.691	3093
864.823	3066
864.954	3047
865.086	3032
865.217	3001
865.349	2975
865.48	2944
865.612	3013
865.743	3135
865.875	3001
866.006	2963
866.137	2990
866.269	2944
866.4	2922
866.531	2937
866.662	2902
866.793	2906
866.924	2918
867.055	2948
867.186	2933
867.317	2876
867.448	2811
867.579	2838
867.71	2800
867.841	2830
867.972	2868
868.103	2883
868.233	2880
868.364	2864
868.495	2857
868.625	3081
868.756	3161
868.886	2967
869.017	2994
869.147	3138
869.278	3165
869.408	3036
869.539	2994
869.669	3097
869.799	3032
869.929	3116
870.06	3081
870.19	3294
870.32	3283
870.45	3256
870.58	3374
870.71	3439
870.84	3431
870.97	3264
871.1	3211
871.23	3481
871.36	3443
871.489	3336
871.619	3382
871.749	3409
871.879	3431
872.008	3530
872.138	3359
872.267	3256
872.397	3142
872.526	3116
872.656	3024
872.785	3074
872.915	3237
873.044	3268
873.173	3241
873.303	3294
873.432	3180
873.561	3214
873.69	3146
873.819	3154
873.948	3203
874.077	3093
874.206	3028
874.335	3085
874.464	3226
874.593	3355
874.722	3237
874.851	3382
874.979	3355
875.108	3325
875.237	3199
875.365	3135
875.494	3108
875.623	3264
875.751	3070
875.88	3127
876.008	3173
876.136	3230
876.265	3363
876.393	3526
876.521	3447
876.65	3370
876.778	3317
876.906	3230
877.034	3214
877.162	3184
877.29	3199
877.418	3233
877.546	3214
877.674	3233
877.802	3226
877.93	3249
878.058	3138
878.185	3074
878.313	3188
878.441	3173
878.568	3047
878.696	3135
878.824	3211
878.951	3313
879.079	3439
879.206	3603
879.333	3454
879.461	3344
879.588	3355
879.715	3500
879.842	3606
879.97	3378
880.097	3150
880.224	3123
880.351	3165
880.478	3180
880.605	3195
880.732	3192
880.859	3481
880.986	3287
881.112	3329
881.239	3184
881.366	3097
881.493	3036
881.619	3009
881.746	3127
881.872	3077
881.999	3070
882.125	3138
882.252	3249
882.378	3272
882.505	3447
882.631	3253
882.757	3123
882.883	3199
883.01	3199
883.136	3188
883.262	3116
883.388	3104
883.514	3351
883.64	3363
883.766	3287
883.892	3169
884.018	3214
884.143	3416
884.269	3557
884.395	3192
884.52	3173
884.646	3184
884.772	3138
884.897	3081
885.023	3218
885.148	3294
885.274	3412
885.399	3332
885.524	3237
885.65	3253
885.775	3310
885.9	3249
886.025	3424
886.15	3321
886.275	3313
886.4	3230
886.525	3275
886.65	3241
886.775	3302
886.9	3504
887.025	3629
887.149	3405
887.274	3264
887.399	3173
887.523	3214
887.648	3154
887.773	3199
887.897	3325
888.021	3416
888.146	3264
888.27	3412
888.395	3515
888.519	3416
888.643	3409
888.767	3428
888.891	3313
889.015	3211
889.139	3298
889.263	3230
889.387	3382
889.511	3504
889.635	3443
889.759	3264
889.883	3302
890.006	3363
890.13	3439
890.254	3298
890.377	3351
890.501	3237
890.624	3184
890.748	3325
890.871	3165
890.995	3138
891.118	3058
891.241	3222
891.364	3226
891.488	3298
891.611	3188
891.734	3233
891.857	3340
891.98	3268
892.103	3363
892.226	3294
892.349	3192
892.471	3100
892.594	3218
892.717	3256
892.839	3264
892.962	3260
893.085	3355
893.207	3313
893.33	3154
893.452	3207
893.575	3351
893.697	3237
893.819	3458
893.941	3488
894.064	3466
894.186	3310
894.308	3260
894.43	3424
894.552	3534
894.674	3477
894.796	3275
894.918	3272
895.04	3256
895.161	3412
895.283	3389
895.405	3302
895.526	3374
895.648	3431
895.769	3412
895.891	3462
896.012	3469
896.134	3462
896.255	3401
896.376	3348
896.498	3332
896.619	3420
896.74	3340
896.861	3412
896.982	3675
897.103	3842
897.224	3538
897.345	3496
897.466	3412
897.587	3530
897.708	3584
897.828	3545
897.949	3405
898.07	3348
898.19	3405
898.311	3614
898.431	3447
898.552	3496
898.672	3557
898.792	3549
898.913	3530
899.033	3416
899.153	3287
899.273	3188
899.393	3298
899.513	3306
899.633	3306
899.753	3313
899.873	3287
899.993	3397
900.113	3313
900.232	3351
900.352	3348
900.472	3287
900.591	3218
900.711	3367
900.83	3249
900.95	3443
901.069	3488
901.189	3412
901.308	3180
901.427	3154
901.546	3184
901.665	3279
901.784	3325
901.904	3184
902.023	3142
902.141	2994
902.26	2986
902.379	3097
902.498	3093
902.617	3089
902.735	3195
902.854	3275
902.973	3195
903.091	3055
903.21	3024
903.328	3157
903.446	3093
903.565	3097
903.683	3199
903.801	3154
903.919	3211
904.038	3283
904.156	3146
904.274	3306
904.392	3268
904.51	3279
904.627	3321
904.745	3424
904.863	3485
904.981	3268
905.098	3169
905.216	3188
905.334	3264
905.451	3340
905.569	3306
905.686	3420
905.803	3469
905.921	3313
906.038	3367
906.155	3332
906.272	3283
906.389	3351
906.506	3291
906.623	3245
906.74	3275
906.857	3192
906.974	3272
907.091	3504
907.208	3526
907.324	3511
907.441	3389
907.557	3256
907.674	3203
907.79	3203
907.907	3287
908.023	3359
908.139	3374
908.256	3310
908.372	3325
908.488	3359
908.604	3226
908.72	3214
908.836	3287
908.952	3279
909.068	3374
909.184	3492
909.3	3340
909.415	3515
909.531	3443
909.647	3287
909.762	3256
909.878	3268
909.993	3374
910.108	3370
910.224	3374
910.339	3412
910.454	3329
910.57	3313
910.685	3245
910.8	3587
910.915	3545
911.03	3412
911.145	3294
911.259	3287
911.374	3306
911.489	3279
911.604	3199
911.718	3135
911.833	3173
911.947	3009
912.062	2975
912.176	3161
912.291	3188
912.405	3192
912.519	3435
912.633	3439
912.748	3344
912.862	3249
912.976	3165
913.09	3077
913.204	3138
913.318	3214
913.431	3321
913.545	3313
913.659	3378
913.772	3348
913.886	3184
914	3211
914.113	3389
914.226	3389
914.34	3382
914.453	3188
914.566	3378
914.68	3310
914.793	3310
914.906	3165
915.019	3135
915.132	3058
915.245	3161
915.358	3226
915.47	3214
915.583	3245
915.696	3310
915.809	3401
915.921	3416
916.034	3272
916.146	3272
916.259	3226
916.371	3359
916.483	3359
916.595	3272
916.708	3302
916.82	3294
916.932	3310
917.044	3302
917.156	3317
917.268	3211
917.38	3310
917.491	3279
917.603	3363
917.715	3424
917.826	3439
917.938	3374
918.049	3245
918.161	3416
918.272	3584
918.384	3572
918.495	3439
918.606	3325
918.717	3268
918.828	3359
918.939	3424
919.05	3329
919.161	3389
919.272	3184
919.383	3264
919.494	3492
919.604	3641
919.715	3504
919.826	3389
919.936	3435
920.047	3576
920.157	3549
920.267	3740
920.378	3622
920.488	3519
920.598	3781
920.708	3907
920.818	3823
920.928	3861
921.038	4002
921.148	3972
921.258	3701
921.368	3610
921.477	3576
921.587	3545
921.697	3454
921.806	3614
921.916	3481
922.025	3344
922.134	3310
922.244	3283
922.353	3405
922.462	3298
922.571	3237
922.68	3093
922.789	3074
922.898	3150
923.007	3077
923.116	3226
923.224	3176
923.333	3157
923.442	3123
923.55	3066
923.659	3138
923.767	3222
923.876	3116
923.984	3260
924.092	3093
924.201	3214
924.309	3245
924.417	3260
924.525	3214
924.633	3230
924.741	4006
924.849	3051
924.956	3272
925.064	3070
925.172	3074
925.279	3131
925.387	3192
925.494	3195
925.602	3363
925.709	3313
925.816	3218
925.924	3272
926.031	3370
926.138	3317
926.245	3374
926.352	3260
926.459	3420
926.566	3477
926.673	3317
926.779	3233
926.886	3237
926.993	3135
927.099	3150
927.206	3100
927.312	3188
927.419	3230
927.525	3211
927.631	3275
927.737	3135
927.843	3127
927.95	3055
928.056	3142
928.162	3154
928.267	3264
928.373	3778
928.479	3340
928.585	3074
928.69	3214
928.796	3287
928.901	3135
929.007	3077
929.112	3184
929.218	3188
929.323	3138
929.428	3146
929.533	3302
929.638	3100
929.743	3150
929.848	3260
929.953	3207
930.058	3131
930.163	2986
930.267	3036
930.372	3199
930.477	3036
930.581	3302
930.685	3192
930.79	3051
930.894	3116
930.998	3119
931.103	3313
931.207	2944
931.311	2944
931.415	2910
931.519	2766
931.623	2781
