Data from test_V78500241_1722.txt Node
Date: Fri Mar 25 16:27:07 CST 2022
User: usil
Spectrometer: V785-0024
Trigger mode: 0
Integration Time (sec): 4.000000E-1
Scans to average: 1
Nonlinearity correction enabled: false
Boxcar width: 0
Storing dark spectrum: false
XAxis mode: Wavelengths
Number of Pixels in Spectrum: 1024
>>>>>Begin Spectral Data<<<<<
801.071	2914
801.214	2952
801.356	2895
801.499	2902
801.641	2868
801.783	2868
801.926	3009
802.068	2929
802.211	3005
802.353	3020
802.496	2967
802.638	3028
802.78	3005
802.923	3093
803.065	2982
803.208	2902
803.35	2902
803.492	2960
803.635	2933
803.777	2746
803.919	2853
804.061	3214
804.204	2929
804.346	2929
804.488	2834
804.63	2967
804.773	2868
804.915	2937
805.057	3081
805.199	2902
805.341	2998
805.483	3051
805.626	2982
805.768	2986
805.91	3097
806.052	3089
806.194	3020
806.336	3226
806.478	3047
806.62	2937
806.762	3013
806.904	3051
807.046	3123
807.188	2986
807.33	2883
807.472	3005
807.614	2910
807.756	2975
807.898	2925
808.04	2902
808.182	2979
808.324	2952
808.465	2925
808.607	2857
808.749	2800
808.891	2849
809.033	2971
809.174	2925
809.316	2899
809.458	2880
809.6	2777
809.741	2754
809.883	2769
810.025	2842
810.166	2838
810.308	2800
810.45	2887
810.591	2781
810.733	2750
810.875	2823
811.016	2766
811.158	2758
811.299	2815
811.441	2918
811.582	2883
811.724	2819
811.865	2804
812.007	2922
812.148	2906
812.29	2868
812.431	2899
812.573	2929
812.714	2963
812.855	3017
812.997	3104
813.138	3131
813.279	3020
813.421	2948
813.562	2982
813.703	2906
813.845	2864
813.986	2792
814.127	2724
814.268	2842
814.41	2857
814.551	2834
814.692	2891
814.833	2830
814.974	2876
815.115	2952
815.256	2834
815.397	2807
815.539	2845
815.68	2739
815.821	2804
815.962	2948
816.103	2948
816.244	2876
816.385	2872
816.526	2982
816.666	2899
816.807	2769
816.948	2872
817.089	2891
817.23	2845
817.371	2800
817.512	2788
817.653	2861
817.793	2826
817.934	2880
818.075	2982
818.216	2979
818.356	3017
818.497	2891
818.638	2762
818.778	2754
818.919	2762
819.06	2743
819.2	2902
819.341	2819
819.481	2781
819.622	2895
819.762	3104
819.903	3036
820.043	2941
820.184	2880
820.324	2864
820.465	3005
820.605	3039
820.746	3017
820.886	2960
821.026	3055
821.167	3150
821.307	3272
821.447	3272
821.588	3241
821.728	3180
821.868	3176
822.008	3055
822.149	3207
822.289	3230
822.429	3089
822.569	3074
822.709	3188
822.849	3013
822.99	3066
823.13	3123
823.27	3203
823.41	3116
823.55	3112
823.69	3146
823.83	3184
823.97	3089
824.11	2986
824.25	2948
824.389	3032
824.529	3100
824.669	3066
824.809	3173
824.949	3230
825.089	3195
825.228	3123
825.368	2979
825.508	2922
825.648	2933
825.787	2975
825.927	2986
826.067	2990
826.206	2941
826.346	3047
826.485	3043
826.625	3093
826.765	3272
826.904	3169
827.044	2971
827.183	2906
827.323	2864
827.462	2979
827.601	2902
827.741	2944
827.88	2914
828.02	2826
828.159	3001
828.298	3009
828.437	3112
828.577	3043
828.716	3233
828.855	3074
828.994	2887
829.134	2914
829.273	2906
829.412	2864
829.551	2887
829.69	2918
829.829	2979
829.968	3112
830.107	2986
830.246	3032
830.385	2918
830.524	2857
830.663	2834
830.802	2701
830.941	2621
831.08	2644
831.219	2750
831.357	2769
831.496	2937
831.635	2720
831.774	2625
831.913	2640
832.051	2564
832.19	2575
832.329	2682
832.467	2549
832.606	2484
832.744	2587
832.883	2579
833.022	2568
833.16	2674
833.299	2693
833.437	2667
833.576	2670
833.714	2701
833.852	2731
833.991	2758
834.129	2826
834.267	2823
834.406	2769
834.544	2834
834.682	2876
834.821	2861
834.959	3047
835.097	2922
835.235	3047
835.373	2982
835.511	3020
835.65	2979
835.788	2948
835.926	2804
836.064	2807
836.202	2845
836.34	3066
836.478	3138
836.615	3051
836.753	3142
836.891	3192
837.029	3161
837.167	3093
837.305	3074
837.443	3024
837.58	2960
837.718	3112
837.856	3039
837.993	3043
838.131	3123
838.269	3077
838.406	3100
838.544	3066
838.681	2933
838.819	2891
838.956	2838
839.094	2815
839.231	2918
839.369	3032
839.506	3348
839.643	3253
839.781	3020
839.918	2956
840.055	3055
840.193	3028
840.33	3017
840.467	3093
840.604	3146
840.742	3416
840.879	3062
841.016	3051
841.153	3112
841.29	3363
841.427	3287
841.564	3256
841.701	3283
841.838	3207
841.975	3142
842.112	3195
842.249	3070
842.385	3039
842.522	3222
842.659	3047
842.796	3043
842.933	3108
843.069	3009
843.206	3009
843.343	3176
843.479	3112
843.616	3135
843.752	2906
843.889	2876
844.025	3077
844.162	2830
844.298	3051
844.435	2937
844.571	2910
844.708	3051
844.844	3195
844.98	3214
845.117	3176
845.253	3047
845.389	3013
845.525	3104
845.661	3100
845.798	3013
845.934	3127
846.07	3062
846.206	3233
846.342	3313
846.478	3268
846.614	3081
846.75	3055
846.886	3032
847.022	3230
847.158	3135
847.294	3195
847.429	3230
847.565	3184
847.701	3466
847.837	3028
847.972	2990
848.108	3119
848.244	3161
848.379	2979
848.515	2933
848.65	2906
848.786	2922
848.921	2990
849.057	3104
849.192	3119
849.328	3081
849.463	3097
849.598	3100
849.734	3024
849.869	2979
850.004	2910
850.14	2975
850.275	2918
850.41	2815
850.545	2872
850.68	2956
850.815	2952
850.95	2979
851.085	3188
851.22	3123
851.355	3070
851.49	2960
851.625	2982
851.76	3028
851.895	2944
852.03	2906
852.165	3020
852.299	3062
852.434	3154
852.569	3138
852.703	3146
852.838	3230
852.973	3306
853.107	3336
853.242	3135
853.376	3104
853.511	2990
853.645	3032
853.78	3218
853.914	3089
854.048	3119
854.183	3108
854.317	3150
854.451	3249
854.585	3131
854.72	3081
854.854	3180
854.988	3062
855.122	3104
855.256	2956
855.39	3108
855.524	3214
855.658	3169
855.792	3116
855.926	3192
856.06	3211
856.194	3249
856.327	3135
856.461	3070
856.595	3066
856.729	3119
856.862	3214
856.996	3207
857.13	3211
857.263	3241
857.397	3245
857.53	3097
857.664	3180
857.797	3260
857.931	3256
858.064	3154
858.197	3226
858.331	3127
858.464	3116
858.597	3001
858.731	3093
858.864	3116
858.997	3028
859.13	3146
859.263	3207
859.396	3161
859.529	3104
859.662	3089
859.795	3058
859.928	3138
860.061	3260
860.194	3218
860.327	3093
860.46	3081
860.592	3222
860.725	3226
860.858	3241
860.99	3104
861.123	3001
861.256	3020
861.388	3112
861.521	3960
861.653	3001
861.786	2956
861.918	3028
862.05	3066
862.183	3043
862.315	3123
862.447	3233
862.58	3081
862.712	2960
862.844	2895
862.976	2986
863.108	3032
863.24	3264
863.372	2883
863.504	2963
863.636	2975
863.768	2994
863.9	2982
864.032	2887
864.164	2910
864.296	2994
864.428	3077
864.559	3131
864.691	3074
864.823	3058
864.954	3043
865.086	3024
865.217	2990
865.349	2948
865.48	2971
865.612	3001
865.743	3161
865.875	2963
866.006	2922
866.137	2975
866.269	2918
866.4	2922
866.531	2918
866.662	2872
866.793	2853
866.924	2929
867.055	2971
867.186	2899
867.317	2876
867.448	2861
867.579	2864
867.71	2853
867.841	2807
867.972	2876
868.103	2883
868.233	2883
868.364	2857
868.495	2899
868.625	3074
868.756	3176
868.886	2990
869.017	3001
869.147	3188
869.278	3138
869.408	3047
869.539	3005
869.669	3108
869.799	3043
869.929	3142
870.06	3119
870.19	3321
870.32	3275
870.45	3325
870.58	3332
870.71	3435
870.84	3367
870.97	3287
871.1	3237
871.23	3488
871.36	3428
871.489	3370
871.619	3363
871.749	3401
871.879	3405
872.008	3458
872.138	3374
872.267	3245
872.397	3142
872.526	3085
872.656	3036
872.785	3074
872.915	3199
873.044	3294
873.173	3237
873.303	3249
873.432	3230
873.561	3233
873.69	3146
873.819	3138
873.948	3188
874.077	3112
874.206	3017
874.335	3108
874.464	3176
874.593	3367
874.722	3214
874.851	3355
874.979	3351
875.108	3310
875.237	3241
875.365	3169
875.494	3146
875.623	3249
875.751	3055
875.88	3112
876.008	3203
876.136	3233
876.265	3367
876.393	3485
876.521	3405
876.65	3389
876.778	3332
876.906	3241
877.034	3211
877.162	3241
877.29	3226
877.418	3233
877.546	3211
877.674	3241
877.802	3256
877.93	3203
878.058	3146
878.185	3058
878.313	3207
878.441	3173
878.568	3100
878.696	3146
878.824	3283
878.951	3283
879.079	3469
879.206	3648
879.333	3412
879.461	3321
879.588	3306
879.715	3443
879.842	3591
879.97	3393
880.097	3165
880.224	3093
880.351	3207
880.478	3237
880.605	3241
880.732	3192
880.859	3523
880.986	3291
881.112	3310
881.239	3214
881.366	3108
881.493	3058
881.619	2994
881.746	3089
881.872	3081
881.999	3097
882.125	3146
882.252	3241
882.378	3256
882.505	3428
882.631	3237
882.757	3165
882.883	3218
883.01	3230
883.136	3169
883.262	3070
883.388	3085
883.514	3317
883.64	3348
883.766	3291
883.892	3184
884.018	3241
884.143	3412
884.269	3580
884.395	3161
884.52	3127
884.646	3222
884.772	3138
884.897	3097
885.023	3195
885.148	3344
885.274	3431
885.399	3409
885.524	3272
885.65	3253
885.775	3321
885.9	3272
886.025	3428
886.15	3355
886.275	3275
886.4	3222
886.525	3310
886.65	3241
886.775	3283
886.9	3511
887.025	3606
887.149	3409
887.274	3245
887.399	3199
887.523	3207
887.648	3161
887.773	3222
887.897	3340
888.021	3401
888.146	3298
888.27	3447
888.395	3549
888.519	3466
888.643	3420
888.767	3477
888.891	3302
889.015	3226
889.139	3264
889.263	3253
889.387	3447
889.511	3530
889.635	3443
889.759	3253
889.883	3268
890.006	3386
890.13	3450
890.254	3253
890.377	3313
890.501	3218
890.624	3161
890.748	3313
890.871	3138
890.995	3112
891.118	3081
891.241	3184
891.364	3211
891.488	3351
891.611	3188
891.734	3237
891.857	3253
891.98	3249
892.103	3325
892.226	3264
892.349	3233
892.471	3116
892.594	3195
892.717	3317
892.839	3291
892.962	3310
893.085	3370
893.207	3264
893.33	3131
893.452	3230
893.575	3302
893.697	3275
893.819	3488
893.941	3469
894.064	3431
894.186	3249
894.308	3268
894.43	3443
894.552	3557
894.674	3458
894.796	3264
894.918	3302
895.04	3302
895.161	3435
895.283	3367
895.405	3325
895.526	3382
895.648	3435
895.769	3431
895.891	3462
896.012	3481
896.134	3511
896.255	3428
896.376	3401
896.498	3321
896.619	3435
896.74	3374
896.861	3359
896.982	3663
897.103	3831
897.224	3542
897.345	3504
897.466	3431
897.587	3492
897.708	3622
897.828	3564
897.949	3424
898.07	3329
898.19	3431
898.311	3599
898.431	3439
898.552	3519
898.672	3625
898.792	3572
898.913	3488
899.033	3374
899.153	3264
899.273	3237
899.393	3264
899.513	3313
899.633	3336
899.753	3321
899.873	3268
899.993	3336
900.113	3336
900.232	3412
900.352	3317
900.472	3313
900.591	3214
900.711	3287
900.83	3230
900.95	3397
901.069	3458
901.189	3336
901.308	3150
901.427	3142
901.546	3192
901.665	3298
901.784	3264
901.904	3207
902.023	3138
902.141	3055
902.26	2971
902.379	3123
902.498	3028
902.617	3039
902.735	3192
902.854	3249
902.973	3165
903.091	3039
903.21	3077
903.328	3104
903.446	3135
903.565	3104
903.683	3188
903.801	3112
903.919	3253
904.038	3275
904.156	3161
904.274	3298
904.392	3260
904.51	3310
904.627	3359
904.745	3450
904.863	3504
904.981	3249
905.098	3123
905.216	3176
905.334	3268
905.451	3306
905.569	3275
905.686	3424
905.803	3424
905.921	3332
906.038	3386
906.155	3367
906.272	3298
906.389	3329
906.506	3272
906.623	3226
906.74	3294
906.857	3157
906.974	3275
907.091	3450
907.208	3561
907.324	3466
907.441	3374
907.557	3218
907.674	3272
907.79	3195
907.907	3287
908.023	3351
908.139	3393
908.256	3310
908.372	3374
908.488	3363
908.604	3226
908.72	3275
908.836	3283
908.952	3279
909.068	3336
909.184	3496
909.3	3378
909.415	3488
909.531	3519
909.647	3241
909.762	3298
909.878	3233
909.993	3355
910.108	3340
910.224	3351
910.339	3386
910.454	3336
910.57	3291
910.685	3268
910.8	3618
910.915	3576
911.03	3428
911.145	3294
911.259	3253
911.374	3268
911.489	3260
911.604	3241
911.718	3112
911.833	3142
911.947	3062
912.062	2990
912.176	3157
912.291	3226
912.405	3180
912.519	3447
912.633	3469
912.748	3321
912.862	3230
912.976	3150
913.09	3032
913.204	3127
913.318	3211
913.431	3367
913.545	3302
913.659	3386
913.772	3317
913.886	3222
914	3199
914.113	3336
914.226	3389
914.34	3332
914.453	3237
914.566	3397
914.68	3306
914.793	3291
914.906	3169
915.019	3127
915.132	3077
915.245	3150
915.358	3230
915.47	3245
915.583	3260
915.696	3279
915.809	3386
915.921	3412
916.034	3272
916.146	3256
916.259	3222
916.371	3431
916.483	3393
916.595	3275
916.708	3340
916.82	3351
916.932	3363
917.044	3367
917.156	3367
917.268	3237
917.38	3279
917.491	3233
917.603	3378
917.715	3428
917.826	3462
917.938	3389
918.049	3294
918.161	3386
918.272	3549
918.384	3526
918.495	3488
918.606	3329
918.717	3264
918.828	3348
918.939	3409
919.05	3283
919.161	3329
919.272	3192
919.383	3294
919.494	3481
919.604	3660
919.715	3473
919.826	3397
919.936	3477
920.047	3606
920.157	3538
920.267	3770
920.378	3603
920.488	3568
920.598	3804
920.708	3953
920.818	3850
920.928	3835
921.038	4051
921.148	3998
921.258	3686
921.368	3603
921.477	3549
921.587	3534
921.697	3454
921.806	3629
921.916	3477
922.025	3370
922.134	3359
922.244	3317
922.353	3443
922.462	3268
922.571	3241
922.68	3108
922.789	3070
922.898	3161
923.007	3097
923.116	3180
923.224	3173
923.333	3169
923.442	3104
923.55	3089
923.659	3150
923.767	3203
923.876	3173
923.984	3214
924.092	3116
924.201	3165
924.309	3180
924.417	3253
924.525	3222
924.633	3218
924.741	3998
924.849	3036
924.956	3233
925.064	3070
925.172	3062
925.279	3089
925.387	3211
925.494	3188
925.602	3397
925.709	3310
925.816	3230
925.924	3260
926.031	3363
926.138	3310
926.245	3412
926.352	3256
926.459	3431
926.566	3424
926.673	3317
926.779	3264
926.886	3233
926.993	3169
927.099	3119
927.206	3093
927.312	3093
927.419	3245
927.525	3218
927.631	3275
927.737	3180
927.843	3116
927.95	3020
928.056	3146
928.162	3184
928.267	3203
928.373	3896
928.479	3344
928.585	3066
928.69	3237
928.796	3291
928.901	3161
929.007	3013
929.112	3211
929.218	3161
929.323	3138
929.428	3157
929.533	3329
929.638	3100
929.743	3138
929.848	3268
929.953	3230
930.058	3138
930.163	3013
930.267	3081
930.372	3195
930.477	3039
930.581	3291
930.685	3165
930.79	3051
930.894	3108
930.998	3116
931.103	3283
931.207	2960
931.311	2914
931.415	2929
931.519	2754
931.623	2800
