Data from test_V78500241_1196.txt Node
Date: Fri Mar 25 16:23:29 CST 2022
User: usil
Spectrometer: V785-0024
Trigger mode: 0
Integration Time (sec): 4.000000E-1
Scans to average: 1
Nonlinearity correction enabled: false
Boxcar width: 0
Storing dark spectrum: false
XAxis mode: Wavelengths
Number of Pixels in Spectrum: 1024
>>>>>Begin Spectral Data<<<<<
801.071	2960
801.214	2960
801.356	2887
801.499	2925
801.641	2910
801.783	2948
801.926	3077
802.068	2986
802.211	3032
802.353	3039
802.496	2979
802.638	3020
802.78	3077
802.923	3085
803.065	2986
803.208	2929
803.35	2925
803.492	2922
803.635	2944
803.777	2750
803.919	2868
804.061	3207
804.204	2914
804.346	2922
804.488	2830
804.63	2979
804.773	2883
804.915	2937
805.057	3081
805.199	2960
805.341	2960
805.483	3062
805.626	3051
805.768	2975
805.91	3100
806.052	3112
806.194	3043
806.336	3188
806.478	3077
806.62	2975
806.762	2952
806.904	3077
807.046	3199
807.188	3001
807.33	2922
807.472	3036
807.614	2918
807.756	2994
807.898	2933
808.04	2906
808.182	2986
808.324	3001
808.465	2902
808.607	2910
808.749	2800
808.891	2849
809.033	3001
809.174	2941
809.316	2880
809.458	2880
809.6	2758
809.741	2800
809.883	2758
810.025	2845
810.166	2845
810.308	2864
810.45	2861
810.591	2796
810.733	2800
810.875	2838
811.016	2804
811.158	2754
811.299	2849
811.441	2922
811.582	2918
811.724	2842
811.865	2830
812.007	2937
812.148	2899
812.29	2910
812.431	2922
812.573	2971
812.714	2933
812.855	3055
812.997	3062
813.138	3131
813.279	3062
813.421	2986
813.562	3005
813.703	2861
813.845	2861
813.986	2773
814.127	2773
814.268	2823
814.41	2834
814.551	2819
814.692	2891
814.833	2796
814.974	2876
815.115	2975
815.256	2853
815.397	2819
815.539	2868
815.68	2796
815.821	2807
815.962	2929
816.103	2937
816.244	2918
816.385	2891
816.526	2944
816.666	2937
816.807	2788
816.948	2914
817.089	2925
817.23	2872
817.371	2785
817.512	2804
817.653	2853
817.793	2815
817.934	2849
818.075	2975
818.216	2990
818.356	3024
818.497	2849
818.638	2800
818.778	2796
818.919	2796
819.06	2758
819.2	2895
819.341	2823
819.481	2777
819.622	2914
819.762	3154
819.903	3074
820.043	2922
820.184	2891
820.324	2922
820.465	3047
820.605	3024
820.746	2998
820.886	2929
821.026	3085
821.167	3161
821.307	3298
821.447	3279
821.588	3222
821.728	3203
821.868	3188
822.008	3093
822.149	3165
822.289	3264
822.429	3138
822.569	3066
822.709	3165
822.849	3058
822.99	3097
823.13	3154
823.27	3207
823.41	3116
823.55	3146
823.69	3138
823.83	3207
823.97	3097
824.11	2982
824.25	3001
824.389	3074
824.529	3135
824.669	3024
824.809	3199
824.949	3249
825.089	3233
825.228	3176
825.368	3024
825.508	2979
825.648	3013
825.787	3055
825.927	3039
826.067	3032
826.206	2975
826.346	3074
826.485	3077
826.625	3123
826.765	3294
826.904	3264
827.044	3032
827.183	2929
827.323	2910
827.462	3043
827.601	2963
827.741	2979
827.88	3005
828.02	2899
828.159	3013
828.298	3100
828.437	3146
828.577	3081
828.716	3287
828.855	3116
828.994	2944
829.134	2910
829.273	2982
829.412	2914
829.551	2895
829.69	2994
829.829	3024
829.968	3184
830.107	3024
830.246	3085
830.385	2967
830.524	2906
830.663	2842
830.802	2785
830.941	2693
831.08	2670
831.219	2796
831.357	2807
831.496	2994
831.635	2735
831.774	2655
831.913	2708
832.051	2606
832.19	2594
832.329	2720
832.467	2590
832.606	2518
832.744	2632
832.883	2644
833.022	2598
833.16	2712
833.299	2705
833.437	2697
833.576	2727
833.714	2750
833.852	2766
833.991	2800
834.129	2861
834.267	2872
834.406	2830
834.544	2922
834.682	2914
834.821	2960
834.959	3097
835.097	2944
835.235	3142
835.373	3047
835.511	3062
835.65	2952
835.788	2979
835.926	2842
836.064	2838
836.202	2883
836.34	3142
836.478	3176
836.615	3085
836.753	3195
836.891	3237
837.029	3211
837.167	3119
837.305	3100
837.443	3077
837.58	2971
837.718	3146
837.856	3131
837.993	3051
838.131	3146
838.269	3157
838.406	3131
838.544	3112
838.681	2982
838.819	2975
838.956	2868
839.094	2845
839.231	2922
839.369	3081
839.506	3420
839.643	3272
839.781	3055
839.918	3005
840.055	3085
840.193	3058
840.33	3070
840.467	3138
840.604	3184
840.742	3424
840.879	3074
841.016	3097
841.153	3138
841.29	3370
841.427	3325
841.564	3275
841.701	3340
841.838	3233
841.975	3211
842.112	3226
842.249	3074
842.385	3089
842.522	3283
842.659	3104
842.796	3077
842.933	3123
843.069	3062
843.206	3055
843.343	3214
843.479	3112
843.616	3165
843.752	2975
843.889	2868
844.025	3097
844.162	2880
844.298	3131
844.435	2971
844.571	2982
844.708	3112
844.844	3203
844.98	3268
845.117	3214
845.253	3051
845.389	3074
845.525	3150
845.661	3142
845.798	3013
845.934	3180
846.07	3085
846.206	3245
846.342	3340
846.478	3272
846.614	3085
846.75	3093
846.886	3081
847.022	3260
847.158	3188
847.294	3249
847.429	3233
847.565	3249
847.701	3485
847.837	3070
847.972	3047
848.108	3165
848.244	3188
848.379	3020
848.515	2963
848.65	2967
848.786	2982
848.921	3066
849.057	3112
849.192	3154
849.328	3123
849.463	3176
849.598	3058
849.734	3097
849.869	3005
850.004	2925
850.14	3047
850.275	2952
850.41	2872
850.545	2891
850.68	2948
850.815	2979
850.95	3017
851.085	3207
851.22	3169
851.355	3070
851.49	3005
851.625	3039
851.76	3036
851.895	2986
852.03	2895
852.165	3032
852.299	3116
852.434	3207
852.569	3157
852.703	3192
852.838	3256
852.973	3386
853.107	3336
853.242	3108
853.376	3146
853.511	2998
853.645	3081
853.78	3241
853.914	3173
854.048	3142
854.183	3146
854.317	3176
854.451	3340
854.585	3165
854.72	3104
854.854	3256
854.988	3089
855.122	3138
855.256	3020
855.39	3146
855.524	3287
855.658	3165
855.792	3176
855.926	3157
856.06	3283
856.194	3268
856.327	3165
856.461	3138
856.595	3150
856.729	3108
856.862	3226
856.996	3214
857.13	3237
857.263	3264
857.397	3325
857.53	3104
857.664	3226
857.797	3272
857.931	3253
858.064	3154
858.197	3241
858.331	3154
858.464	3127
858.597	3001
858.731	3135
858.864	3180
858.997	3127
859.13	3188
859.263	3195
859.396	3207
859.529	3112
859.662	3066
859.795	3077
859.928	3173
860.061	3268
860.194	3294
860.327	3176
860.46	3131
860.592	3241
860.725	3279
860.858	3226
860.99	3154
861.123	3089
861.256	3077
861.388	3192
861.521	3732
861.653	3039
861.786	3005
861.918	3024
862.05	3085
862.183	3077
862.315	3157
862.447	3207
862.58	3119
862.712	2956
862.844	2853
862.976	3043
863.108	3009
863.24	3344
863.372	2922
863.504	2998
863.636	2971
863.768	3066
863.9	2998
864.032	2944
864.164	2960
864.296	3028
864.428	3116
864.559	3142
864.691	3104
864.823	3089
864.954	3051
865.086	3085
865.217	3017
865.349	2944
865.48	3032
865.612	2994
865.743	3176
865.875	2994
866.006	2975
866.137	2975
866.269	2967
866.4	2998
866.531	2967
866.662	2941
866.793	2952
866.924	2891
867.055	2982
867.186	2960
867.317	2918
867.448	2853
867.579	2842
867.71	2876
867.841	2842
867.972	2933
868.103	2948
868.233	2906
868.364	2895
868.495	2914
868.625	3127
868.756	3214
868.886	2952
869.017	3017
869.147	3131
869.278	3214
869.408	3085
869.539	3055
869.669	3074
869.799	3058
869.929	3192
870.06	3142
870.19	3351
870.32	3253
870.45	3313
870.58	3374
870.71	3492
870.84	3485
870.97	3272
871.1	3264
871.23	3481
871.36	3431
871.489	3359
871.619	3454
871.749	3435
871.879	3477
872.008	3462
872.138	3386
872.267	3306
872.397	3165
872.526	3108
872.656	3032
872.785	3119
872.915	3275
873.044	3310
873.173	3214
873.303	3260
873.432	3241
873.561	3233
873.69	3165
873.819	3150
873.948	3192
874.077	3116
874.206	3032
874.335	3108
874.464	3230
874.593	3370
874.722	3287
874.851	3405
874.979	3363
875.108	3302
875.237	3264
875.365	3142
875.494	3176
875.623	3233
875.751	3089
875.88	3119
876.008	3207
876.136	3260
876.265	3367
876.393	3504
876.521	3454
876.65	3401
876.778	3351
876.906	3249
877.034	3195
877.162	3237
877.29	3176
877.418	3275
877.546	3279
877.674	3249
877.802	3272
877.93	3237
878.058	3157
878.185	3116
878.313	3233
878.441	3287
878.568	3100
878.696	3184
878.824	3245
878.951	3279
879.079	3435
879.206	3652
879.333	3420
879.461	3321
879.588	3378
879.715	3507
879.842	3637
879.97	3397
880.097	3199
880.224	3142
880.351	3237
880.478	3249
880.605	3226
880.732	3199
880.859	3496
880.986	3310
881.112	3321
881.239	3176
881.366	3123
881.493	3062
881.619	3024
881.746	3081
881.872	3104
881.999	3154
882.125	3203
882.252	3253
882.378	3298
882.505	3473
882.631	3317
882.757	3157
882.883	3199
883.01	3275
883.136	3203
883.262	3089
883.388	3119
883.514	3298
883.64	3409
883.766	3329
883.892	3218
884.018	3268
884.143	3454
884.269	3568
884.395	3230
884.52	3142
884.646	3218
884.772	3108
884.897	3104
885.023	3218
885.148	3344
885.274	3443
885.399	3405
885.524	3291
885.65	3241
885.775	3325
885.9	3317
886.025	3409
886.15	3359
886.275	3317
886.4	3214
886.525	3336
886.65	3306
886.775	3306
886.9	3603
887.025	3675
887.149	3412
887.274	3294
887.399	3226
887.523	3192
887.648	3169
887.773	3214
887.897	3348
888.021	3389
888.146	3329
888.27	3469
888.395	3568
888.519	3405
888.643	3439
888.767	3462
888.891	3325
889.015	3245
889.139	3310
889.263	3237
889.387	3447
889.511	3515
889.635	3469
889.759	3294
889.883	3275
890.006	3393
890.13	3496
890.254	3306
890.377	3351
890.501	3203
890.624	3184
890.748	3355
890.871	3211
890.995	3085
891.118	3058
891.241	3188
891.364	3256
891.488	3336
891.611	3157
891.734	3218
891.857	3268
891.98	3253
892.103	3363
892.226	3325
892.349	3214
892.471	3135
892.594	3275
892.717	3287
892.839	3306
892.962	3313
893.085	3378
893.207	3313
893.33	3165
893.452	3237
893.575	3386
893.697	3283
893.819	3496
893.941	3481
894.064	3473
894.186	3283
894.308	3294
894.43	3416
894.552	3519
894.674	3523
894.796	3272
894.918	3332
895.04	3310
895.161	3416
895.283	3363
895.405	3325
895.526	3367
895.648	3447
895.769	3431
895.891	3473
896.012	3488
896.134	3477
896.255	3450
896.376	3409
896.498	3355
896.619	3420
896.74	3393
896.861	3374
896.982	3671
897.103	3911
897.224	3610
897.345	3515
897.466	3454
897.587	3523
897.708	3622
897.828	3545
897.949	3416
898.07	3344
898.19	3393
898.311	3576
898.431	3469
898.552	3488
898.672	3606
898.792	3633
898.913	3534
899.033	3405
899.153	3306
899.273	3237
899.393	3313
899.513	3329
899.633	3310
899.753	3310
899.873	3344
899.993	3378
900.113	3363
900.232	3382
900.352	3348
900.472	3302
900.591	3214
900.711	3306
900.83	3237
900.95	3412
901.069	3507
901.189	3348
901.308	3173
901.427	3146
901.546	3180
901.665	3268
901.784	3378
901.904	3180
902.023	3161
902.141	3051
902.26	3009
902.379	3154
902.498	3077
902.617	3066
902.735	3241
902.854	3260
902.973	3207
903.091	3020
903.21	3093
903.328	3146
903.446	3104
903.565	3097
903.683	3230
903.801	3097
903.919	3260
904.038	3256
904.156	3180
904.274	3306
904.392	3222
904.51	3287
904.627	3348
904.745	3454
904.863	3496
904.981	3302
905.098	3195
905.216	3222
905.334	3279
905.451	3283
905.569	3344
905.686	3420
905.803	3485
905.921	3310
906.038	3462
906.155	3401
906.272	3283
906.389	3298
906.506	3233
906.623	3291
906.74	3241
906.857	3211
906.974	3253
907.091	3473
907.208	3538
907.324	3447
907.441	3389
907.557	3249
907.674	3230
907.79	3222
907.907	3275
908.023	3329
908.139	3386
908.256	3325
908.372	3363
908.488	3374
908.604	3237
908.72	3275
908.836	3302
908.952	3302
909.068	3325
909.184	3496
909.3	3393
909.415	3530
909.531	3462
909.647	3283
909.762	3306
909.878	3237
909.993	3355
910.108	3355
910.224	3348
910.339	3393
910.454	3344
910.57	3294
910.685	3226
910.8	3606
910.915	3530
911.03	3473
911.145	3279
911.259	3275
911.374	3306
911.489	3233
911.604	3237
911.718	3085
911.833	3154
911.947	3013
912.062	3013
912.176	3207
912.291	3173
912.405	3188
912.519	3439
912.633	3496
912.748	3351
912.862	3302
912.976	3192
913.09	3032
913.204	3135
913.318	3233
913.431	3336
913.545	3302
913.659	3401
913.772	3344
913.886	3233
914	3184
914.113	3302
914.226	3382
914.34	3374
914.453	3218
914.566	3409
914.68	3321
914.793	3317
914.906	3097
915.019	3176
915.132	3093
915.245	3165
915.358	3203
915.47	3218
915.583	3294
915.696	3294
915.809	3397
915.921	3428
916.034	3256
916.146	3264
916.259	3211
916.371	3351
916.483	3313
916.595	3260
916.708	3306
916.82	3355
916.932	3348
917.044	3351
917.156	3340
917.268	3294
917.38	3321
917.491	3268
917.603	3351
917.715	3485
917.826	3492
917.938	3420
918.049	3272
918.161	3428
918.272	3561
918.384	3576
918.495	3511
918.606	3306
918.717	3294
918.828	3409
918.939	3428
919.05	3310
919.161	3382
919.272	3192
919.383	3310
919.494	3507
919.604	3652
919.715	3454
919.826	3428
919.936	3439
920.047	3587
920.157	3542
920.267	3762
920.378	3618
920.488	3549
920.598	3774
920.708	3903
920.818	3819
920.928	3846
921.038	4025
921.148	3972
921.258	3694
921.368	3633
921.477	3545
921.587	3534
921.697	3454
921.806	3633
921.916	3553
922.025	3351
922.134	3363
922.244	3336
922.353	3386
922.462	3260
922.571	3199
922.68	3070
922.789	3058
922.898	3097
923.007	3108
923.116	3203
923.224	3199
923.333	3230
923.442	3123
923.55	3104
923.659	3135
923.767	3226
923.876	3116
923.984	3260
924.092	3119
924.201	3207
924.309	3192
924.417	3230
924.525	3180
924.633	3275
924.741	4051
924.849	3066
924.956	3275
925.064	3077
925.172	3036
925.279	3081
925.387	3211
925.494	3146
925.602	3351
925.709	3359
925.816	3169
925.924	3302
926.031	3382
926.138	3291
926.245	3336
926.352	3230
926.459	3409
926.566	3496
926.673	3272
926.779	3302
926.886	3233
926.993	3104
927.099	3157
927.206	3127
927.312	3127
927.419	3268
927.525	3195
927.631	3214
927.737	3127
927.843	3150
927.95	3039
928.056	3135
928.162	3222
928.267	3230
928.373	3873
928.479	3298
928.585	3077
928.69	3203
928.796	3253
928.901	3180
929.007	3028
929.112	3180
929.218	3211
929.323	3146
929.428	3154
929.533	3313
929.638	3108
929.743	3146
929.848	3237
929.953	3184
930.058	3154
930.163	3005
930.267	3070
930.372	3188
930.477	3028
930.581	3344
930.685	3146
930.79	3070
930.894	3104
930.998	3093
931.103	3298
931.207	2952
931.311	2918
931.415	2910
931.519	2800
931.623	2838
