Data from test_V78500241_1492.txt Node
Date: Fri Mar 25 16:25:32 CST 2022
User: usil
Spectrometer: V785-0024
Trigger mode: 0
Integration Time (sec): 4.000000E-1
Scans to average: 1
Nonlinearity correction enabled: false
Boxcar width: 0
Storing dark spectrum: false
XAxis mode: Wavelengths
Number of Pixels in Spectrum: 1024
>>>>>Begin Spectral Data<<<<<
801.071	2914
801.214	2929
801.356	2823
801.499	2914
801.641	2883
801.783	2914
801.926	3032
802.068	2982
802.211	2948
802.353	3043
802.496	2941
802.638	2975
802.78	3024
802.923	3066
803.065	3028
803.208	2899
803.35	2910
803.492	2887
803.635	2914
803.777	2762
803.919	2807
804.061	3138
804.204	2937
804.346	2883
804.488	2823
804.63	2979
804.773	2842
804.915	2918
805.057	3074
805.199	2937
805.341	2990
805.483	3028
805.626	3005
805.768	2963
805.91	3097
806.052	3112
806.194	3043
806.336	3207
806.478	3017
806.62	2975
806.762	2982
806.904	3036
807.046	3161
807.188	3017
807.33	2864
807.472	2990
807.614	2895
807.756	2971
807.898	2952
808.04	2880
808.182	3001
808.324	2944
808.465	2895
808.607	2861
808.749	2807
808.891	2842
809.033	3017
809.174	2971
809.316	2883
809.458	2880
809.6	2773
809.741	2739
809.883	2773
810.025	2845
810.166	2864
810.308	2834
810.45	2811
810.591	2769
810.733	2766
810.875	2826
811.016	2796
811.158	2739
811.299	2807
811.441	2941
811.582	2861
811.724	2842
811.865	2785
812.007	2883
812.148	2902
812.29	2849
812.431	2914
812.573	2960
812.714	2960
812.855	3051
812.997	3074
813.138	3116
813.279	3005
813.421	2963
813.562	2944
813.703	2864
813.845	2902
813.986	2746
814.127	2724
814.268	2834
814.41	2826
814.551	2792
814.692	2853
814.833	2815
814.974	2910
815.115	2952
815.256	2861
815.397	2823
815.539	2857
815.68	2769
815.821	2788
815.962	2914
816.103	2937
816.244	2902
816.385	2857
816.526	2941
816.666	2929
816.807	2727
816.948	2868
817.089	2925
817.23	2853
817.371	2773
817.512	2762
817.653	2834
817.793	2807
817.934	2857
818.075	2952
818.216	2956
818.356	2990
818.497	2880
818.638	2788
818.778	2834
818.919	2823
819.06	2785
819.2	2872
819.341	2785
819.481	2769
819.622	2956
819.762	3100
819.903	3039
820.043	2902
820.184	2914
820.324	2861
820.465	3013
820.605	3043
820.746	3009
820.886	2952
821.026	3127
821.167	3123
821.307	3245
821.447	3287
821.588	3256
821.728	3199
821.868	3169
822.008	3043
822.149	3150
822.289	3233
822.429	3089
822.569	3085
822.709	3161
822.849	3017
822.99	3066
823.13	3161
823.27	3222
823.41	3085
823.55	3123
823.69	3127
823.83	3192
823.97	3085
824.11	2982
824.25	3001
824.389	3070
824.529	3093
824.669	3032
824.809	3176
824.949	3253
825.089	3230
825.228	3138
825.368	2998
825.508	2960
825.648	2994
825.787	3013
825.927	3020
826.067	2933
826.206	2982
826.346	3020
826.485	3138
826.625	3131
826.765	3268
826.904	3211
827.044	2967
827.183	2929
827.323	2849
827.462	2967
827.601	2876
827.741	2944
827.88	2929
828.02	2845
828.159	2967
828.298	3009
828.437	3135
828.577	3001
828.716	3222
828.855	3089
828.994	2922
829.134	2864
829.273	2914
829.412	2849
829.551	2838
829.69	2910
829.829	2967
829.968	3085
830.107	3013
830.246	3024
830.385	2944
830.524	2861
830.663	2800
830.802	2743
830.941	2651
831.08	2644
831.219	2746
831.357	2743
831.496	2922
831.635	2689
831.774	2621
831.913	2636
832.051	2541
832.19	2590
832.329	2644
832.467	2518
832.606	2461
832.744	2564
832.883	2564
833.022	2560
833.16	2659
833.299	2689
833.437	2682
833.576	2667
833.714	2701
833.852	2743
833.991	2739
834.129	2811
834.267	2842
834.406	2754
834.544	2838
834.682	2853
834.821	2842
834.959	3051
835.097	2895
835.235	3055
835.373	2994
835.511	3039
835.65	2944
835.788	2933
835.926	2815
836.064	2773
836.202	2804
836.34	3081
836.478	3165
836.615	3066
836.753	3127
836.891	3199
837.029	3165
837.167	3085
837.305	3039
837.443	3009
837.58	2948
837.718	3104
837.856	3062
837.993	3024
838.131	3131
838.269	3116
838.406	3066
838.544	3100
838.681	2952
838.819	2910
838.956	2826
839.094	2842
839.231	2933
839.369	3005
839.506	3397
839.643	3230
839.781	3001
839.918	2967
840.055	3066
840.193	3051
840.33	3036
840.467	3081
840.604	3142
840.742	3424
840.879	3028
841.016	3024
841.153	3112
841.29	3310
841.427	3268
841.564	3237
841.701	3291
841.838	3192
841.975	3135
842.112	3211
842.249	3055
842.385	3017
842.522	3207
842.659	3100
842.796	3074
842.933	3089
843.069	3036
843.206	3036
843.343	3195
843.479	3081
843.616	3123
843.752	2861
843.889	2834
844.025	3089
844.162	2868
844.298	3077
844.435	2952
844.571	2925
844.708	3058
844.844	3169
844.98	3214
845.117	3157
845.253	3036
845.389	2963
845.525	3108
845.661	3097
845.798	3039
845.934	3142
846.07	3051
846.206	3222
846.342	3302
846.478	3199
846.614	3089
846.75	3043
846.886	3020
847.022	3253
847.158	3131
847.294	3237
847.429	3230
847.565	3169
847.701	3435
847.837	3017
847.972	2998
848.108	3165
848.244	3097
848.379	2971
848.515	2948
848.65	2914
848.786	2922
848.921	2994
849.057	3089
849.192	3127
849.328	3062
849.463	3097
849.598	3036
849.734	3028
849.869	2944
850.004	2925
850.14	2967
850.275	2902
850.41	2845
850.545	2891
850.68	2922
850.815	2925
850.95	2952
851.085	3195
851.22	3077
851.355	3039
851.49	2937
851.625	3047
851.76	3009
851.895	2960
852.03	2914
852.165	3001
852.299	3119
852.434	3180
852.569	3116
852.703	3203
852.838	3218
852.973	3340
853.107	3344
853.242	3150
853.376	3100
853.511	2933
853.645	3039
853.78	3214
853.914	3131
854.048	3100
854.183	3051
854.317	3169
854.451	3253
854.585	3138
854.72	3081
854.854	3226
854.988	3039
855.122	3070
855.256	2952
855.39	3116
855.524	3230
855.658	3157
855.792	3142
855.926	3165
856.06	3199
856.194	3275
856.327	3150
856.461	3070
856.595	3100
856.729	3093
856.862	3192
856.996	3146
857.13	3180
857.263	3230
857.397	3211
857.53	3108
857.664	3199
857.797	3241
857.931	3245
858.064	3146
858.197	3214
858.331	3119
858.464	3108
858.597	2979
858.731	3100
858.864	3104
858.997	3074
859.13	3097
859.263	3161
859.396	3184
859.529	3062
859.662	3051
859.795	3058
859.928	3165
860.061	3275
860.194	3264
860.327	3119
860.46	3104
860.592	3256
860.725	3199
860.858	3237
860.99	3055
861.123	3055
861.256	3017
861.388	3108
861.521	3846
861.653	3020
861.786	2967
861.918	2975
862.05	3058
862.183	3085
862.315	3123
862.447	3195
862.58	3039
862.712	2918
862.844	2842
862.976	3020
863.108	2967
863.24	3283
863.372	2864
863.504	2952
863.636	2944
863.768	3024
863.9	2963
864.032	2880
864.164	2937
864.296	3009
864.428	3097
864.559	3055
864.691	3077
864.823	3055
864.954	3020
865.086	3043
865.217	2975
865.349	2899
865.48	2925
865.612	2982
865.743	3157
865.875	3009
866.006	2941
866.137	2967
866.269	2948
866.4	2929
866.531	2899
866.662	2883
866.793	2845
866.924	2925
867.055	2944
867.186	2899
867.317	2910
867.448	2834
867.579	2842
867.71	2823
867.841	2811
867.972	2899
868.103	2914
868.233	2895
868.364	2868
868.495	2880
868.625	3077
868.756	3161
868.886	2960
869.017	3005
869.147	3165
869.278	3146
869.408	3028
869.539	3055
869.669	3123
869.799	3020
869.929	3100
870.06	3077
870.19	3340
870.32	3268
870.45	3287
870.58	3367
870.71	3450
870.84	3424
870.97	3302
871.1	3230
871.23	3477
871.36	3420
871.489	3336
871.619	3416
871.749	3420
871.879	3447
872.008	3492
872.138	3378
872.267	3249
872.397	3135
872.526	3093
872.656	2967
872.785	3100
872.915	3214
873.044	3325
873.173	3222
873.303	3245
873.432	3233
873.561	3207
873.69	3146
873.819	3154
873.948	3195
874.077	3131
874.206	3077
874.335	3070
874.464	3226
874.593	3351
874.722	3226
874.851	3336
874.979	3306
875.108	3332
875.237	3226
875.365	3146
875.494	3135
875.623	3241
875.751	3108
875.88	3085
876.008	3180
876.136	3222
876.265	3329
876.393	3519
876.521	3374
876.65	3412
876.778	3332
876.906	3249
877.034	3180
877.162	3218
877.29	3184
877.418	3218
877.546	3256
877.674	3241
877.802	3226
877.93	3214
878.058	3135
878.185	3089
878.313	3184
878.441	3173
878.568	3055
878.696	3161
878.824	3241
878.951	3275
879.079	3447
879.206	3587
879.333	3435
879.461	3283
879.588	3332
879.715	3485
879.842	3568
879.97	3367
880.097	3173
880.224	3135
880.351	3180
880.478	3226
880.605	3222
880.732	3165
880.859	3511
880.986	3302
881.112	3317
881.239	3207
881.366	3127
881.493	2998
881.619	3017
881.746	3047
881.872	3043
881.999	3085
882.125	3135
882.252	3260
882.378	3272
882.505	3428
882.631	3256
882.757	3119
882.883	3195
883.01	3203
883.136	3135
883.262	3074
883.388	3070
883.514	3370
883.64	3386
883.766	3317
883.892	3146
884.018	3264
884.143	3401
884.269	3530
884.395	3184
884.52	3119
884.646	3195
884.772	3097
884.897	3112
885.023	3169
885.148	3313
885.274	3420
885.399	3382
885.524	3245
885.65	3260
885.775	3302
885.9	3294
886.025	3488
886.15	3359
886.275	3287
886.4	3230
886.525	3291
886.65	3313
886.775	3275
886.9	3511
887.025	3644
887.149	3397
887.274	3260
887.399	3199
887.523	3256
887.648	3214
887.773	3230
887.897	3405
888.021	3462
888.146	3306
888.27	3473
888.395	3568
888.519	3462
888.643	3454
888.767	3507
888.891	3317
889.015	3272
889.139	3268
889.263	3279
889.387	3450
889.511	3553
889.635	3507
889.759	3313
889.883	3351
890.006	3393
890.13	3488
890.254	3291
890.377	3367
890.501	3218
890.624	3211
890.748	3325
890.871	3222
890.995	3142
891.118	3100
891.241	3260
891.364	3245
891.488	3355
891.611	3256
891.734	3268
891.857	3336
891.98	3291
892.103	3359
892.226	3325
892.349	3256
892.471	3119
892.594	3302
892.717	3317
892.839	3329
892.962	3329
893.085	3389
893.207	3359
893.33	3203
893.452	3241
893.575	3367
893.697	3302
893.819	3450
893.941	3504
894.064	3458
894.186	3310
894.308	3325
894.43	3473
894.552	3599
894.674	3477
894.796	3291
894.918	3355
895.04	3344
895.161	3469
895.283	3428
895.405	3355
895.526	3469
895.648	3450
895.769	3473
895.891	3454
896.012	3481
896.134	3504
896.255	3473
896.376	3374
896.498	3363
896.619	3454
896.74	3412
896.861	3443
896.982	3743
897.103	3918
897.224	3618
897.345	3538
897.466	3439
897.587	3507
897.708	3686
897.828	3606
897.949	3458
898.07	3374
898.19	3435
898.311	3644
898.431	3485
898.552	3523
898.672	3603
898.792	3614
898.913	3549
899.033	3443
899.153	3332
899.273	3226
899.393	3317
899.513	3348
899.633	3325
899.753	3378
899.873	3363
899.993	3420
900.113	3389
900.232	3416
900.352	3351
900.472	3332
900.591	3199
900.711	3370
900.83	3279
900.95	3439
901.069	3519
901.189	3389
901.308	3222
901.427	3127
901.546	3207
901.665	3363
901.784	3359
901.904	3245
902.023	3165
902.141	3036
902.26	3032
902.379	3161
902.498	3093
902.617	3074
902.735	3203
902.854	3291
902.973	3203
903.091	3055
903.21	3051
903.328	3161
903.446	3112
903.565	3112
903.683	3214
903.801	3104
903.919	3237
904.038	3294
904.156	3214
904.274	3329
904.392	3283
904.51	3313
904.627	3348
904.745	3473
904.863	3515
904.981	3302
905.098	3207
905.216	3268
905.334	3321
905.451	3332
905.569	3340
905.686	3435
905.803	3488
905.921	3291
906.038	3458
906.155	3397
906.272	3321
906.389	3386
906.506	3294
906.623	3268
906.74	3294
906.857	3233
906.974	3310
907.091	3481
907.208	3595
907.324	3515
907.441	3443
907.557	3264
907.674	3310
907.79	3272
907.907	3306
908.023	3409
908.139	3359
908.256	3332
908.372	3424
908.488	3412
908.604	3298
908.72	3222
908.836	3272
908.952	3306
909.068	3401
909.184	3481
909.3	3389
909.415	3496
909.531	3473
909.647	3302
909.762	3310
909.878	3329
909.993	3405
910.108	3367
910.224	3363
910.339	3439
910.454	3374
910.57	3298
910.685	3283
910.8	3641
910.915	3568
911.03	3469
911.145	3241
911.259	3317
911.374	3340
911.489	3253
911.604	3268
911.718	3157
911.833	3165
911.947	3047
912.062	3017
912.176	3199
912.291	3222
912.405	3230
912.519	3462
912.633	3507
912.748	3382
912.862	3287
912.976	3207
913.09	3062
913.204	3169
913.318	3245
913.431	3340
913.545	3370
913.659	3412
913.772	3382
913.886	3214
914	3222
914.113	3370
914.226	3397
914.34	3401
914.453	3207
914.566	3428
914.68	3348
914.793	3340
914.906	3195
915.019	3131
915.132	3093
915.245	3214
915.358	3279
915.47	3279
915.583	3313
915.696	3317
915.809	3409
915.921	3431
916.034	3260
916.146	3294
916.259	3268
916.371	3412
916.483	3382
916.595	3332
916.708	3405
916.82	3378
916.932	3367
917.044	3401
917.156	3386
917.268	3272
917.38	3298
917.491	3363
917.603	3401
917.715	3504
917.826	3492
917.938	3367
918.049	3310
918.161	3454
918.272	3538
918.384	3591
918.495	3462
918.606	3428
918.717	3306
918.828	3374
918.939	3397
919.05	3336
919.161	3374
919.272	3199
919.383	3340
919.494	3515
919.604	3705
919.715	3511
919.826	3462
919.936	3504
920.047	3633
920.157	3580
920.267	3793
920.378	3614
920.488	3614
920.598	3812
920.708	3991
920.818	3869
920.928	3816
921.038	4040
921.148	3972
921.258	3766
921.368	3675
921.477	3618
921.587	3603
921.697	3466
921.806	3656
921.916	3572
922.025	3340
922.134	3378
922.244	3336
922.353	3439
922.462	3306
922.571	3260
922.68	3142
922.789	3089
922.898	3154
923.007	3131
923.116	3230
923.224	3214
923.333	3218
923.442	3138
923.55	3116
923.659	3211
923.767	3237
923.876	3165
923.984	3283
924.092	3135
924.201	3207
924.309	3272
924.417	3272
924.525	3245
924.633	3298
924.741	4219
924.849	3066
924.956	3310
925.064	3127
925.172	3074
925.279	3127
925.387	3249
925.494	3176
925.602	3351
925.709	3329
925.816	3199
925.924	3325
926.031	3431
926.138	3325
926.245	3412
926.352	3260
926.459	3458
926.566	3469
926.673	3336
926.779	3287
926.886	3256
926.993	3154
927.099	3157
927.206	3131
927.312	3112
927.419	3268
927.525	3226
927.631	3313
927.737	3119
927.843	3180
927.95	3051
928.056	3100
928.162	3195
928.267	3260
928.373	3781
928.479	3332
928.585	3104
928.69	3241
928.796	3279
928.901	3214
929.007	3066
929.112	3249
929.218	3241
929.323	3154
929.428	3173
929.533	3329
929.638	3131
929.743	3211
929.848	3291
929.953	3245
930.058	3154
930.163	3017
930.267	3070
930.372	3218
930.477	3024
930.581	3340
930.685	3176
930.79	3055
930.894	3138
930.998	3108
931.103	3264
931.207	2979
931.311	2956
931.415	2929
931.519	2823
931.623	2804
