Data from test_V78500241_1203.txt Node
Date: Fri Mar 25 16:23:32 CST 2022
User: usil
Spectrometer: V785-0024
Trigger mode: 0
Integration Time (sec): 4.000000E-1
Scans to average: 1
Nonlinearity correction enabled: false
Boxcar width: 0
Storing dark spectrum: false
XAxis mode: Wavelengths
Number of Pixels in Spectrum: 1024
>>>>>Begin Spectral Data<<<<<
801.071	2979
801.214	2944
801.356	2925
801.499	2960
801.641	2902
801.783	2948
801.926	3066
802.068	3009
802.211	3024
802.353	3058
802.496	3001
802.638	3020
802.78	3081
802.923	3089
803.065	3047
803.208	2925
803.35	2941
803.492	2975
803.635	2937
803.777	2796
803.919	2906
804.061	3203
804.204	2971
804.346	2902
804.488	2906
804.63	3020
804.773	2906
804.915	2929
805.057	3074
805.199	2960
805.341	3001
805.483	3081
805.626	3036
805.768	2982
805.91	3119
806.052	3119
806.194	3058
806.336	3237
806.478	3032
806.62	2963
806.762	3047
806.904	3058
807.046	3188
807.188	2952
807.33	2914
807.472	3013
807.614	2925
807.756	2994
807.898	2941
808.04	2895
808.182	2982
808.324	2960
808.465	2899
808.607	2910
808.749	2834
808.891	2819
809.033	2986
809.174	3009
809.316	2922
809.458	2910
809.6	2796
809.741	2815
809.883	2754
810.025	2868
810.166	2880
810.308	2895
810.45	2887
810.591	2834
810.733	2750
810.875	2861
811.016	2788
811.158	2781
811.299	2811
811.441	2967
811.582	2914
811.724	2857
811.865	2815
812.007	2910
812.148	2914
812.29	2887
812.431	2914
812.573	2937
812.714	2982
812.855	3066
812.997	3100
813.138	3119
813.279	3013
813.421	2986
813.562	2971
813.703	2880
813.845	2899
813.986	2781
814.127	2724
814.268	2819
814.41	2895
814.551	2845
814.692	2868
814.833	2815
814.974	2895
815.115	2979
815.256	2838
815.397	2811
815.539	2838
815.68	2785
815.821	2788
815.962	2956
816.103	2982
816.244	2914
816.385	2891
816.526	2990
816.666	2937
816.807	2785
816.948	2922
817.089	2914
817.23	2853
817.371	2796
817.512	2785
817.653	2842
817.793	2830
817.934	2906
818.075	2952
818.216	3001
818.356	3043
818.497	2883
818.638	2815
818.778	2826
818.919	2842
819.06	2773
819.2	2899
819.341	2792
819.481	2823
819.622	2941
819.762	3112
819.903	3058
820.043	2944
820.184	2914
820.324	2910
820.465	3005
820.605	3009
820.746	3074
820.886	2948
821.026	3119
821.167	3184
821.307	3249
821.447	3279
821.588	3283
821.728	3237
821.868	3207
822.008	3085
822.149	3169
822.289	3260
822.429	3131
822.569	3100
822.709	3169
822.849	3043
822.99	3062
823.13	3192
823.27	3176
823.41	3157
823.55	3138
823.69	3154
823.83	3180
823.97	3097
824.11	3013
824.25	3032
824.389	3093
824.529	3108
824.669	3097
824.809	3195
824.949	3260
825.089	3241
825.228	3199
825.368	3013
825.508	2986
825.648	2944
825.787	3017
825.927	3024
826.067	2971
826.206	2944
826.346	3051
826.485	3104
826.625	3135
826.765	3222
826.904	3180
827.044	2986
827.183	2944
827.323	2883
827.462	3017
827.601	2906
827.741	2948
827.88	2956
828.02	2838
828.159	2963
828.298	3020
828.437	3138
828.577	3089
828.716	3203
828.855	3093
828.994	2925
829.134	2918
829.273	2933
829.412	2853
829.551	2880
829.69	2914
829.829	3009
829.968	3146
830.107	3001
830.246	3020
830.385	2925
830.524	2883
830.663	2807
830.802	2720
830.941	2674
831.08	2632
831.219	2769
831.357	2716
831.496	2956
831.635	2724
831.774	2678
831.913	2686
832.051	2560
832.19	2587
832.329	2708
832.467	2587
832.606	2484
832.744	2579
832.883	2602
833.022	2587
833.16	2663
833.299	2708
833.437	2724
833.576	2705
833.714	2762
833.852	2746
833.991	2758
834.129	2819
834.267	2819
834.406	2800
834.544	2876
834.682	2834
834.821	2902
834.959	3077
835.097	2933
835.235	3062
835.373	2986
835.511	3032
835.65	2944
835.788	2956
835.926	2838
836.064	2845
836.202	2842
836.34	3112
836.478	3127
836.615	3085
836.753	3131
836.891	3176
837.029	3119
837.167	3093
837.305	3066
837.443	3055
837.58	2971
837.718	3138
837.856	3070
837.993	3005
838.131	3100
838.269	3100
838.406	3104
838.544	3100
838.681	2952
838.819	2891
838.956	2815
839.094	2826
839.231	2895
839.369	3028
839.506	3329
839.643	3279
839.781	3028
839.918	2982
840.055	3089
840.193	3028
840.33	3081
840.467	3066
840.604	3173
840.742	3454
840.879	3097
841.016	3100
841.153	3100
841.29	3359
841.427	3294
841.564	3272
841.701	3298
841.838	3218
841.975	3150
842.112	3218
842.249	3058
842.385	3051
842.522	3283
842.659	3085
842.796	3077
842.933	3085
843.069	3039
843.206	3043
843.343	3176
843.479	3112
843.616	3119
843.752	2887
843.889	2883
844.025	3074
844.162	2880
844.298	3112
844.435	2948
844.571	2925
844.708	3108
844.844	3180
844.98	3222
845.117	3184
845.253	3058
845.389	2979
845.525	3097
845.661	3100
845.798	3020
845.934	3119
846.07	3066
846.206	3241
846.342	3325
846.478	3207
846.614	3108
846.75	3077
846.886	3039
847.022	3245
847.158	3146
847.294	3150
847.429	3253
847.565	3199
847.701	3481
847.837	3024
847.972	2982
848.108	3180
848.244	3131
848.379	2971
848.515	2952
848.65	2918
848.786	2971
848.921	3005
849.057	3074
849.192	3150
849.328	3028
849.463	3116
849.598	3047
849.734	3017
849.869	3001
850.004	2902
850.14	2963
850.275	2902
850.41	2811
850.545	2918
850.68	2929
850.815	2952
850.95	2956
851.085	3180
851.22	3112
851.355	3032
851.49	2975
851.625	2994
851.76	3039
851.895	2944
852.03	2891
852.165	3017
852.299	3123
852.434	3214
852.569	3154
852.703	3161
852.838	3249
852.973	3313
853.107	3348
853.242	3180
853.376	3104
853.511	2971
853.645	3032
853.78	3184
853.914	3123
854.048	3055
854.183	3085
854.317	3184
854.451	3279
854.585	3157
854.72	3070
854.854	3180
854.988	3062
855.122	3070
855.256	2986
855.39	3127
855.524	3253
855.658	3207
855.792	3146
855.926	3214
856.06	3249
856.194	3203
856.327	3154
856.461	3089
856.595	3039
856.729	3097
856.862	3222
856.996	3157
857.13	3192
857.263	3253
857.397	3283
857.53	3119
857.664	3161
857.797	3245
857.931	3253
858.064	3157
858.197	3222
858.331	3138
858.464	3070
858.597	2982
858.731	3100
858.864	3157
858.997	3085
859.13	3161
859.263	3199
859.396	3180
859.529	3104
859.662	3055
859.795	3028
859.928	3108
860.061	3272
860.194	3291
860.327	3123
860.46	3066
860.592	3249
860.725	3222
860.858	3249
860.99	3116
861.123	3051
861.256	3062
861.388	3154
861.521	3652
861.653	2998
861.786	2979
861.918	3013
862.05	3097
862.183	3058
862.315	3108
862.447	3203
862.58	3108
862.712	2937
862.844	2922
862.976	3017
863.108	3017
863.24	3382
863.372	2853
863.504	2963
863.636	2948
863.768	3039
863.9	2990
864.032	2925
864.164	2948
864.296	3032
864.428	3097
864.559	3051
864.691	3017
864.823	3047
864.954	3066
865.086	3039
865.217	3001
865.349	2952
865.48	3001
865.612	3005
865.743	3108
865.875	2994
866.006	2986
866.137	2986
866.269	2937
866.4	2906
866.531	2941
866.662	2880
866.793	2872
866.924	2902
867.055	2963
867.186	2902
867.317	2864
867.448	2845
867.579	2895
867.71	2857
867.841	2819
867.972	2922
868.103	2922
868.233	2857
868.364	2857
868.495	2891
868.625	3097
868.756	3180
868.886	2986
869.017	3039
869.147	3173
869.278	3176
869.408	3028
869.539	3036
869.669	3066
869.799	3043
869.929	3161
870.06	3112
870.19	3351
870.32	3279
870.45	3325
870.58	3344
870.71	3454
870.84	3435
870.97	3298
871.1	3218
871.23	3473
871.36	3481
871.489	3378
871.619	3424
871.749	3389
871.879	3409
872.008	3454
872.138	3351
872.267	3283
872.397	3146
872.526	3074
872.656	3013
872.785	3089
872.915	3233
873.044	3272
873.173	3226
873.303	3245
873.432	3226
873.561	3203
873.69	3161
873.819	3142
873.948	3157
874.077	3150
874.206	3055
874.335	3058
874.464	3199
874.593	3367
874.722	3260
874.851	3389
874.979	3332
875.108	3325
875.237	3184
875.365	3154
875.494	3169
875.623	3230
875.751	3058
875.88	3093
876.008	3188
876.136	3195
876.265	3370
876.393	3496
876.521	3393
876.65	3351
876.778	3317
876.906	3294
877.034	3173
877.162	3241
877.29	3180
877.418	3241
877.546	3253
877.674	3275
877.802	3256
877.93	3203
878.058	3184
878.185	3116
878.313	3188
878.441	3195
878.568	3085
878.696	3165
878.824	3214
878.951	3253
879.079	3450
879.206	3648
879.333	3401
879.461	3313
879.588	3351
879.715	3473
879.842	3591
879.97	3409
880.097	3112
880.224	3135
880.351	3214
880.478	3188
880.605	3214
880.732	3146
880.859	3485
880.986	3294
881.112	3321
881.239	3256
881.366	3043
881.493	3005
881.619	2975
881.746	3047
881.872	3108
881.999	3070
882.125	3116
882.252	3245
882.378	3279
882.505	3382
882.631	3294
882.757	3192
882.883	3195
883.01	3173
883.136	3173
883.262	3116
883.388	3127
883.514	3344
883.64	3382
883.766	3344
883.892	3169
884.018	3226
884.143	3409
884.269	3526
884.395	3226
884.52	3161
884.646	3188
884.772	3112
884.897	3104
885.023	3173
885.148	3294
885.274	3412
885.399	3344
885.524	3264
885.65	3249
885.775	3287
885.9	3279
886.025	3405
886.15	3325
886.275	3306
886.4	3207
886.525	3264
886.65	3268
886.775	3287
886.9	3534
887.025	3641
887.149	3420
887.274	3237
887.399	3173
887.523	3150
887.648	3180
887.773	3260
887.897	3386
888.021	3397
888.146	3306
888.27	3416
888.395	3557
888.519	3428
888.643	3439
888.767	3439
888.891	3321
889.015	3237
889.139	3302
889.263	3226
889.387	3397
889.511	3492
889.635	3447
889.759	3310
889.883	3283
890.006	3363
890.13	3504
890.254	3268
890.377	3302
890.501	3195
890.624	3184
890.748	3268
890.871	3169
890.995	3123
891.118	3066
891.241	3173
891.364	3207
891.488	3340
891.611	3207
891.734	3249
891.857	3283
891.98	3211
892.103	3325
892.226	3245
892.349	3203
892.471	3104
892.594	3264
892.717	3275
892.839	3260
892.962	3256
893.085	3363
893.207	3279
893.33	3157
893.452	3188
893.575	3367
893.697	3245
893.819	3466
893.941	3473
894.064	3420
894.186	3283
894.308	3298
894.43	3477
894.552	3572
894.674	3443
894.796	3264
894.918	3336
895.04	3260
895.161	3401
895.283	3351
895.405	3275
895.526	3336
895.648	3454
895.769	3393
895.891	3477
896.012	3473
896.134	3466
896.255	3378
896.376	3397
896.498	3348
896.619	3405
896.74	3359
896.861	3435
896.982	3686
897.103	3854
897.224	3599
897.345	3496
897.466	3447
897.587	3504
897.708	3603
897.828	3557
897.949	3450
898.07	3359
898.19	3389
898.311	3603
898.431	3435
898.552	3496
898.672	3580
898.792	3599
898.913	3530
899.033	3416
899.153	3256
899.273	3203
899.393	3260
899.513	3298
899.633	3351
899.753	3348
899.873	3298
899.993	3355
900.113	3321
900.232	3378
900.352	3332
900.472	3355
900.591	3188
900.711	3275
900.83	3233
900.95	3370
901.069	3477
901.189	3355
901.308	3173
901.427	3138
901.546	3214
901.665	3272
901.784	3344
901.904	3161
902.023	3127
902.141	3009
902.26	3001
902.379	3173
902.498	3070
902.617	3051
902.735	3199
902.854	3253
902.973	3203
903.091	3066
903.21	3081
903.328	3123
903.446	3058
903.565	3097
903.683	3176
903.801	3119
903.919	3241
904.038	3313
904.156	3165
904.274	3264
904.392	3260
904.51	3302
904.627	3370
904.745	3439
904.863	3473
904.981	3249
905.098	3161
905.216	3184
905.334	3306
905.451	3264
905.569	3241
905.686	3412
905.803	3450
905.921	3325
906.038	3428
906.155	3317
906.272	3272
906.389	3359
906.506	3237
906.623	3264
906.74	3279
906.857	3192
906.974	3275
907.091	3439
907.208	3530
907.324	3454
907.441	3370
907.557	3230
907.674	3237
907.79	3218
907.907	3272
908.023	3374
908.139	3363
908.256	3287
908.372	3348
908.488	3294
908.604	3253
908.72	3249
908.836	3287
908.952	3268
909.068	3370
909.184	3469
909.3	3412
909.415	3511
909.531	3488
909.647	3283
909.762	3283
909.878	3268
909.993	3355
910.108	3306
910.224	3332
910.339	3401
910.454	3306
910.57	3279
910.685	3226
910.8	3595
910.915	3519
911.03	3431
911.145	3260
911.259	3264
911.374	3298
911.489	3214
911.604	3211
911.718	3100
911.833	3123
911.947	3036
912.062	2982
912.176	3161
912.291	3165
912.405	3173
912.519	3412
912.633	3507
912.748	3283
912.862	3264
912.976	3142
913.09	3047
913.204	3131
913.318	3188
913.431	3336
913.545	3348
913.659	3420
913.772	3275
913.886	3256
914	3165
914.113	3367
914.226	3397
914.34	3359
914.453	3211
914.566	3420
914.68	3287
914.793	3287
914.906	3146
915.019	3131
915.132	3074
915.245	3176
915.358	3226
915.47	3218
915.583	3268
915.696	3287
915.809	3401
915.921	3420
916.034	3214
916.146	3253
916.259	3218
916.371	3367
916.483	3336
916.595	3275
916.708	3325
916.82	3355
916.932	3344
917.044	3351
917.156	3336
917.268	3260
917.38	3313
917.491	3302
917.603	3374
917.715	3473
917.826	3443
917.938	3401
918.049	3260
918.161	3443
918.272	3580
918.384	3545
918.495	3447
918.606	3332
918.717	3306
918.828	3370
918.939	3420
919.05	3291
919.161	3382
919.272	3119
919.383	3306
919.494	3504
919.604	3618
919.715	3481
919.826	3389
919.936	3469
920.047	3584
920.157	3557
920.267	3804
920.378	3572
920.488	3564
920.598	3755
920.708	3964
920.818	3804
920.928	3808
921.038	4051
921.148	4013
921.258	3690
921.368	3610
921.477	3603
921.587	3542
921.697	3431
921.806	3633
921.916	3496
922.025	3359
922.134	3340
922.244	3321
922.353	3428
922.462	3279
922.571	3199
922.68	3066
922.789	3070
922.898	3119
923.007	3112
923.116	3203
923.224	3154
923.333	3165
923.442	3112
923.55	3055
923.659	3142
923.767	3199
923.876	3100
923.984	3233
924.092	3108
924.201	3211
924.309	3188
924.417	3249
924.525	3188
924.633	3253
924.741	4025
924.849	3043
924.956	3256
925.064	3074
925.172	3020
925.279	3066
925.387	3214
925.494	3192
925.602	3355
925.709	3313
925.816	3180
925.924	3302
926.031	3355
926.138	3321
926.245	3367
926.352	3222
926.459	3401
926.566	3420
926.673	3279
926.779	3241
926.886	3218
926.993	3119
927.099	3138
927.206	3085
927.312	3093
927.419	3203
927.525	3188
927.631	3279
927.737	3138
927.843	3093
927.95	3017
928.056	3142
928.162	3157
928.267	3230
928.373	3838
928.479	3321
928.585	3039
928.69	3222
928.796	3275
928.901	3157
929.007	3028
929.112	3214
929.218	3199
929.323	3112
929.428	3135
929.533	3321
929.638	3131
929.743	3176
929.848	3302
929.953	3199
930.058	3154
930.163	2998
930.267	3009
930.372	3161
930.477	3036
930.581	3291
930.685	3176
930.79	3039
930.894	3123
930.998	3077
931.103	3264
931.207	2948
931.311	2960
931.415	2922
931.519	2804
931.623	2800
