Data from test_V78500241_1367.txt Node
Date: Fri Mar 25 16:24:40 CST 2022
User: usil
Spectrometer: V785-0024
Trigger mode: 0
Integration Time (sec): 4.000000E-1
Scans to average: 1
Nonlinearity correction enabled: false
Boxcar width: 0
Storing dark spectrum: false
XAxis mode: Wavelengths
Number of Pixels in Spectrum: 1024
>>>>>Begin Spectral Data<<<<<
801.071	2925
801.214	2925
801.356	2834
801.499	2937
801.641	2857
801.783	2891
801.926	3066
802.068	2994
802.211	2979
802.353	3017
802.496	2941
802.638	3005
802.78	3024
802.923	3077
803.065	2994
803.208	2876
803.35	2918
803.492	2880
803.635	2895
803.777	2773
803.919	2864
804.061	3218
804.204	2929
804.346	2910
804.488	2826
804.63	2948
804.773	2857
804.915	2910
805.057	3074
805.199	2944
805.341	2952
805.483	3036
805.626	3051
805.768	2971
805.91	3066
806.052	3135
806.194	3009
806.336	3218
806.478	2990
806.62	2918
806.762	2998
806.904	3043
807.046	3199
807.188	2982
807.33	2937
807.472	2979
807.614	2899
807.756	3017
807.898	2925
808.04	2876
808.182	2971
808.324	2941
808.465	2899
808.607	2883
808.749	2807
808.891	2826
809.033	2956
809.174	2944
809.316	2853
809.458	2876
809.6	2777
809.741	2788
809.883	2792
810.025	2849
810.166	2868
810.308	2830
810.45	2868
810.591	2754
810.733	2762
810.875	2838
811.016	2777
811.158	2766
811.299	2804
811.441	2925
811.582	2887
811.724	2807
811.865	2838
812.007	2906
812.148	2891
812.29	2899
812.431	2902
812.573	2937
812.714	2925
812.855	3047
812.997	3032
813.138	3081
813.279	2967
813.421	2994
813.562	2948
813.703	2838
813.845	2918
813.986	2762
814.127	2712
814.268	2796
814.41	2861
814.551	2826
814.692	2849
814.833	2811
814.974	2842
815.115	2941
815.256	2815
815.397	2845
815.539	2883
815.68	2785
815.821	2807
815.962	2922
816.103	2918
816.244	2857
816.385	2864
816.526	2963
816.666	2918
816.807	2743
816.948	2887
817.089	2899
817.23	2842
817.371	2746
817.512	2796
817.653	2842
817.793	2830
817.934	2880
818.075	2956
818.216	3013
818.356	2982
818.497	2864
818.638	2804
818.778	2796
818.919	2781
819.06	2773
819.2	2868
819.341	2811
819.481	2788
819.622	2952
819.762	3093
819.903	3039
820.043	2941
820.184	2899
820.324	2906
820.465	3017
820.605	3005
820.746	3024
820.886	2948
821.026	3108
821.167	3131
821.307	3272
821.447	3279
821.588	3233
821.728	3169
821.868	3176
822.008	3081
822.149	3161
822.289	3237
822.429	3085
822.569	3077
822.709	3188
822.849	3028
822.99	3055
823.13	3161
823.27	3203
823.41	3081
823.55	3154
823.69	3150
823.83	3218
823.97	3058
824.11	3017
824.25	2967
824.389	3039
824.529	3104
824.669	3024
824.809	3169
824.949	3272
825.089	3195
825.228	3161
825.368	3005
825.508	2967
825.648	2982
825.787	2986
825.927	3009
826.067	2960
826.206	2967
826.346	3024
826.485	3051
826.625	3055
826.765	3272
826.904	3195
827.044	3009
827.183	2979
827.323	2883
827.462	2975
827.601	2922
827.741	2883
827.88	2948
828.02	2864
828.159	2990
828.298	3043
828.437	3135
828.577	3047
828.716	3260
828.855	3085
828.994	2906
829.134	2864
829.273	2887
829.412	2864
829.551	2849
829.69	2861
829.829	2967
829.968	3127
830.107	2952
830.246	3013
830.385	2899
830.524	2887
830.663	2845
830.802	2735
830.941	2659
831.08	2644
831.219	2754
831.357	2746
831.496	2937
831.635	2678
831.774	2625
831.913	2659
832.051	2530
832.19	2564
832.329	2693
832.467	2552
832.606	2492
832.744	2590
832.883	2583
833.022	2594
833.16	2632
833.299	2674
833.437	2705
833.576	2724
833.714	2678
833.852	2720
833.991	2743
834.129	2830
834.267	2785
834.406	2796
834.544	2902
834.682	2857
834.821	2849
834.959	3047
835.097	2883
835.235	3058
835.373	2948
835.511	3017
835.65	2956
835.788	2948
835.926	2834
836.064	2857
836.202	2826
836.34	3112
836.478	3169
836.615	3051
836.753	3100
836.891	3165
837.029	3131
837.167	3081
837.305	3032
837.443	3036
837.58	2952
837.718	3108
837.856	3070
837.993	3001
838.131	3085
838.269	3123
838.406	3093
838.544	3066
838.681	2967
838.819	2941
838.956	2781
839.094	2796
839.231	2960
839.369	3032
839.506	3332
839.643	3199
839.781	3017
839.918	2963
840.055	3066
840.193	3020
840.33	3058
840.467	3077
840.604	3150
840.742	3420
840.879	3032
841.016	3039
841.153	3093
841.29	3344
841.427	3287
841.564	3256
841.701	3313
841.838	3237
841.975	3180
842.112	3188
842.249	3066
842.385	3024
842.522	3256
842.659	3108
842.796	3085
842.933	3089
843.069	3024
843.206	3005
843.343	3138
843.479	3074
843.616	3138
843.752	2895
843.889	2887
844.025	3066
844.162	2895
844.298	3051
844.435	2960
844.571	2872
844.708	3047
844.844	3207
844.98	3226
845.117	3199
845.253	2994
845.389	2998
845.525	3051
845.661	3081
845.798	3051
845.934	3142
846.07	3032
846.206	3214
846.342	3310
846.478	3180
846.614	3055
846.75	3047
846.886	3028
847.022	3264
847.158	3127
847.294	3192
847.429	3226
847.565	3180
847.701	3473
847.837	3009
847.972	3032
848.108	3112
848.244	3116
848.379	2986
848.515	2929
848.65	2895
848.786	2979
848.921	2990
849.057	3070
849.192	3123
849.328	3055
849.463	3081
849.598	3081
849.734	3032
849.869	2982
850.004	2883
850.14	2982
850.275	2933
850.41	2800
850.545	2872
850.68	2948
850.815	2948
850.95	2967
851.085	3173
851.22	3081
851.355	3024
851.49	2998
851.625	3013
851.76	3024
851.895	2925
852.03	2941
852.165	3020
852.299	3108
852.434	3199
852.569	3142
852.703	3150
852.838	3260
852.973	3317
853.107	3351
853.242	3157
853.376	3062
853.511	2944
853.645	3047
853.78	3245
853.914	3085
854.048	3093
854.183	3074
854.317	3127
854.451	3279
854.585	3108
854.72	3085
854.854	3173
854.988	3043
855.122	3070
855.256	2952
855.39	3070
855.524	3214
855.658	3154
855.792	3131
855.926	3195
856.06	3207
856.194	3275
856.327	3165
856.461	3039
856.595	3058
856.729	3085
856.862	3245
856.996	3154
857.13	3211
857.263	3203
857.397	3253
857.53	3051
857.664	3173
857.797	3245
857.931	3226
858.064	3161
858.197	3180
858.331	3138
858.464	3074
858.597	2982
858.731	3131
858.864	3116
858.997	3074
859.13	3119
859.263	3184
859.396	3211
859.529	3055
859.662	3036
859.795	3047
859.928	3169
860.061	3256
860.194	3256
860.327	3127
860.46	3077
860.592	3222
860.725	3203
860.858	3207
860.99	3123
861.123	3039
861.256	3024
861.388	3150
861.521	3728
861.653	2990
861.786	2990
861.918	2990
862.05	3051
862.183	3070
862.315	3142
862.447	3176
862.58	3066
862.712	2952
862.844	2872
862.976	3028
863.108	3017
863.24	3321
863.372	2853
863.504	2967
863.636	2910
863.768	3001
863.9	2975
864.032	2922
864.164	2967
864.296	2990
864.428	3100
864.559	3085
864.691	3062
864.823	3058
864.954	3020
865.086	3024
865.217	2979
865.349	2906
865.48	2979
865.612	3001
865.743	3123
865.875	2967
866.006	2944
866.137	2933
866.269	2937
866.4	2906
866.531	2933
866.662	2914
866.793	2864
866.924	2891
867.055	2975
867.186	2914
867.317	2868
867.448	2834
867.579	2845
867.71	2849
867.841	2845
867.972	2857
868.103	2895
868.233	2899
868.364	2861
868.495	2933
868.625	3043
868.756	3127
868.886	2948
869.017	3005
869.147	3127
869.278	3161
869.408	3070
869.539	3017
869.669	3051
869.799	3036
869.929	3131
870.06	3062
870.19	3287
870.32	3283
870.45	3291
870.58	3355
870.71	3462
870.84	3428
870.97	3272
871.1	3211
871.23	3443
871.36	3428
871.489	3340
871.619	3409
871.749	3397
871.879	3431
872.008	3477
872.138	3321
872.267	3294
872.397	3161
872.526	3093
872.656	2990
872.785	3089
872.915	3233
873.044	3283
873.173	3214
873.303	3214
873.432	3237
873.561	3226
873.69	3165
873.819	3127
873.948	3169
874.077	3085
874.206	3047
874.335	3066
874.464	3176
874.593	3329
874.722	3241
874.851	3443
874.979	3294
875.108	3291
875.237	3203
875.365	3116
875.494	3150
875.623	3237
875.751	3055
875.88	3093
876.008	3203
876.136	3222
876.265	3359
876.393	3469
876.521	3439
876.65	3386
876.778	3332
876.906	3207
877.034	3165
877.162	3211
877.29	3154
877.418	3218
877.546	3241
877.674	3230
877.802	3222
877.93	3218
878.058	3138
878.185	3097
878.313	3173
878.441	3211
878.568	3036
878.696	3127
878.824	3226
878.951	3332
879.079	3439
879.206	3584
879.333	3462
879.461	3298
879.588	3344
879.715	3469
879.842	3599
879.97	3389
880.097	3165
880.224	3161
880.351	3211
880.478	3199
880.605	3188
880.732	3180
880.859	3477
880.986	3291
881.112	3313
881.239	3176
881.366	3089
881.493	3005
881.619	3032
881.746	3058
881.872	3089
881.999	3039
882.125	3108
882.252	3237
882.378	3264
882.505	3466
882.631	3241
882.757	3116
882.883	3226
883.01	3123
883.136	3127
883.262	3112
883.388	3097
883.514	3317
883.64	3332
883.766	3249
883.892	3192
884.018	3233
884.143	3405
884.269	3519
884.395	3203
884.52	3169
884.646	3169
884.772	3116
884.897	3089
885.023	3192
885.148	3310
885.274	3397
885.399	3363
885.524	3275
885.65	3294
885.775	3298
885.9	3287
886.025	3435
886.15	3348
886.275	3298
886.4	3230
886.525	3321
886.65	3291
886.775	3298
886.9	3488
887.025	3629
887.149	3412
887.274	3256
887.399	3249
887.523	3176
887.648	3218
887.773	3218
887.897	3393
888.021	3409
888.146	3317
888.27	3485
888.395	3557
888.519	3481
888.643	3496
888.767	3450
888.891	3348
889.015	3287
889.139	3279
889.263	3260
889.387	3428
889.511	3576
889.635	3481
889.759	3325
889.883	3336
890.006	3435
890.13	3526
890.254	3291
890.377	3374
890.501	3256
890.624	3230
890.748	3370
890.871	3199
890.995	3154
891.118	3127
891.241	3211
891.364	3272
891.488	3370
891.611	3218
891.734	3245
891.857	3321
891.98	3283
892.103	3382
892.226	3283
892.349	3283
892.471	3154
892.594	3260
892.717	3332
892.839	3298
892.962	3344
893.085	3405
893.207	3321
893.33	3161
893.452	3218
893.575	3367
893.697	3294
893.819	3511
893.941	3553
894.064	3523
894.186	3332
894.308	3287
894.43	3477
894.552	3618
894.674	3485
894.796	3306
894.918	3355
895.04	3325
895.161	3439
895.283	3393
895.405	3317
895.526	3409
895.648	3500
895.769	3462
895.891	3454
896.012	3523
896.134	3473
896.255	3450
896.376	3450
896.498	3374
896.619	3428
896.74	3389
896.861	3458
896.982	3694
897.103	3899
897.224	3614
897.345	3519
897.466	3443
897.587	3534
897.708	3637
897.828	3584
897.949	3473
898.07	3378
898.19	3409
898.311	3572
898.431	3500
898.552	3564
898.672	3610
898.792	3580
898.913	3538
899.033	3450
899.153	3367
899.273	3237
899.393	3291
899.513	3348
899.633	3397
899.753	3367
899.873	3348
899.993	3416
900.113	3351
900.232	3359
900.352	3389
900.472	3313
900.591	3199
900.711	3302
900.83	3245
900.95	3473
901.069	3500
901.189	3340
901.308	3218
901.427	3165
901.546	3241
901.665	3291
901.784	3370
901.904	3268
902.023	3142
902.141	3036
902.26	3020
902.379	3169
902.498	3081
902.617	3112
902.735	3203
902.854	3272
902.973	3249
903.091	3066
903.21	3112
903.328	3146
903.446	3150
903.565	3135
903.683	3275
903.801	3184
903.919	3237
904.038	3329
904.156	3214
904.274	3313
904.392	3275
904.51	3340
904.627	3321
904.745	3443
904.863	3530
904.981	3298
905.098	3180
905.216	3222
905.334	3291
905.451	3332
905.569	3329
905.686	3500
905.803	3492
905.921	3325
906.038	3462
906.155	3393
906.272	3294
906.389	3367
906.506	3275
906.623	3260
906.74	3310
906.857	3249
906.974	3268
907.091	3500
907.208	3618
907.324	3492
907.441	3367
907.557	3256
907.674	3287
907.79	3256
907.907	3291
908.023	3412
908.139	3412
908.256	3340
908.372	3424
908.488	3389
908.604	3298
908.72	3256
908.836	3310
908.952	3283
909.068	3386
909.184	3511
909.3	3405
909.415	3534
909.531	3481
909.647	3302
909.762	3348
909.878	3302
909.993	3378
910.108	3389
910.224	3348
910.339	3458
910.454	3374
910.57	3302
910.685	3287
910.8	3576
910.915	3553
911.03	3477
911.145	3306
911.259	3291
911.374	3321
911.489	3291
911.604	3218
911.718	3146
911.833	3211
911.947	3070
912.062	2994
912.176	3195
912.291	3241
912.405	3230
912.519	3481
912.633	3530
912.748	3359
912.862	3279
912.976	3211
913.09	3097
913.204	3157
913.318	3241
913.431	3363
913.545	3325
913.659	3450
913.772	3336
913.886	3253
914	3256
914.113	3378
914.226	3431
914.34	3389
914.453	3237
914.566	3447
914.68	3329
914.793	3329
914.906	3176
915.019	3161
915.132	3085
915.245	3180
915.358	3245
915.47	3245
915.583	3283
915.696	3336
915.809	3420
915.921	3485
916.034	3256
916.146	3283
916.259	3291
916.371	3386
916.483	3397
916.595	3275
916.708	3355
916.82	3397
916.932	3386
917.044	3393
917.156	3363
917.268	3241
917.38	3348
917.491	3291
917.603	3450
917.715	3458
917.826	3439
917.938	3401
918.049	3306
918.161	3420
918.272	3595
918.384	3603
918.495	3523
918.606	3367
918.717	3310
918.828	3382
918.939	3439
919.05	3359
919.161	3439
919.272	3207
919.383	3272
919.494	3492
919.604	3717
919.715	3500
919.826	3439
919.936	3469
920.047	3580
920.157	3564
920.267	3766
920.378	3622
920.488	3572
920.598	3804
920.708	3968
920.818	3804
920.928	3846
921.038	4059
921.148	4010
921.258	3747
921.368	3633
921.477	3591
921.587	3557
921.697	3496
921.806	3610
921.916	3553
922.025	3355
922.134	3389
922.244	3336
922.353	3488
922.462	3302
922.571	3237
922.68	3116
922.789	3093
922.898	3211
923.007	3142
923.116	3211
923.224	3192
923.333	3207
923.442	3138
923.55	3097
923.659	3176
923.767	3241
923.876	3142
923.984	3264
924.092	3127
924.201	3230
924.309	3237
924.417	3279
924.525	3214
924.633	3268
924.741	4017
924.849	3039
924.956	3302
925.064	3123
925.172	3077
925.279	3146
925.387	3207
925.494	3230
925.602	3351
925.709	3363
925.816	3218
925.924	3306
926.031	3393
926.138	3348
926.245	3378
926.352	3264
926.459	3435
926.566	3500
926.673	3359
926.779	3310
926.886	3256
926.993	3180
927.099	3127
927.206	3138
927.312	3116
927.419	3245
927.525	3253
927.631	3260
927.737	3176
927.843	3184
927.95	3047
928.056	3135
928.162	3169
928.267	3272
928.373	3850
928.479	3317
928.585	3097
928.69	3199
928.796	3317
928.901	3207
929.007	3051
929.112	3184
929.218	3176
929.323	3192
929.428	3161
929.533	3332
929.638	3154
929.743	3184
929.848	3321
929.953	3233
930.058	3154
930.163	2994
930.267	3043
930.372	3222
930.477	3070
930.581	3321
930.685	3165
930.79	3077
930.894	3138
930.998	3089
931.103	3310
931.207	2986
931.311	2929
931.415	2922
931.519	2773
931.623	2819
