Data from test_V78500241_1139.txt Node
Date: Fri Mar 25 16:23:05 CST 2022
User: usil
Spectrometer: V785-0024
Trigger mode: 0
Integration Time (sec): 4.000000E-1
Scans to average: 1
Nonlinearity correction enabled: false
Boxcar width: 0
Storing dark spectrum: false
XAxis mode: Wavelengths
Number of Pixels in Spectrum: 1024
>>>>>Begin Spectral Data<<<<<
801.071	2960
801.214	2975
801.356	2895
801.499	2899
801.641	2872
801.783	2933
801.926	3085
802.068	2979
802.211	3017
802.353	3051
802.496	2982
802.638	3020
802.78	3047
802.923	3104
803.065	3017
803.208	2891
803.35	2933
803.492	2937
803.635	2937
803.777	2750
803.919	2899
804.061	3207
804.204	2956
804.346	2933
804.488	2880
804.63	2990
804.773	2899
804.915	2937
805.057	3097
805.199	2941
805.341	2971
805.483	3020
805.626	2994
805.768	2967
805.91	3077
806.052	3100
806.194	3024
806.336	3249
806.478	3043
806.62	2963
806.762	3001
806.904	3032
807.046	3188
807.188	2979
807.33	2887
807.472	3001
807.614	2868
807.756	2998
807.898	2902
808.04	2914
808.182	2979
808.324	2956
808.465	2868
808.607	2902
808.749	2777
808.891	2823
809.033	2952
809.174	2967
809.316	2887
809.458	2906
809.6	2762
809.741	2739
809.883	2792
810.025	2842
810.166	2849
810.308	2845
810.45	2830
810.591	2773
810.733	2785
810.875	2838
811.016	2785
811.158	2773
811.299	2800
811.441	2952
811.582	2876
811.724	2834
811.865	2823
812.007	2918
812.148	2868
812.29	2876
812.431	2883
812.573	2925
812.714	2975
812.855	3028
812.997	3043
813.138	3104
813.279	3020
813.421	2971
813.562	2933
813.703	2845
813.845	2914
813.986	2788
814.127	2720
814.268	2792
814.41	2849
814.551	2788
814.692	2864
814.833	2842
814.974	2849
815.115	2956
815.256	2826
815.397	2792
815.539	2853
815.68	2758
815.821	2796
815.962	2944
816.103	2925
816.244	2857
816.385	2807
816.526	2941
816.666	2910
816.807	2705
816.948	2883
817.089	2906
817.23	2838
817.371	2769
817.512	2766
817.653	2845
817.793	2826
817.934	2872
818.075	2952
818.216	2986
818.356	3001
818.497	2872
818.638	2792
818.778	2834
818.919	2788
819.06	2758
819.2	2857
819.341	2792
819.481	2788
819.622	2891
819.762	3093
819.903	3013
820.043	2918
820.184	2864
820.324	2876
820.465	2948
820.605	3024
820.746	3039
820.886	2960
821.026	3123
821.167	3161
821.307	3203
821.447	3279
821.588	3256
821.728	3192
821.868	3203
822.008	3074
822.149	3169
822.289	3233
822.429	3112
822.569	3070
822.709	3157
822.849	3032
822.99	3062
823.13	3184
823.27	3226
823.41	3108
823.55	3131
823.69	3195
823.83	3192
823.97	3100
824.11	3005
824.25	3047
824.389	3070
824.529	3150
824.669	3100
824.809	3230
824.949	3283
825.089	3226
825.228	3211
825.368	3036
825.508	2975
825.648	2967
825.787	3028
825.927	3028
826.067	3036
826.206	2975
826.346	3070
826.485	3093
826.625	3165
826.765	3302
826.904	3253
827.044	3024
827.183	2952
827.323	2902
827.462	2998
827.601	2956
827.741	2975
827.88	2986
828.02	2887
828.159	2994
828.298	3055
828.437	3161
828.577	3104
828.716	3291
828.855	3100
828.994	2963
829.134	2902
829.273	2922
829.412	2925
829.551	2929
829.69	2963
829.829	3055
829.968	3165
830.107	3047
830.246	3051
830.385	2937
830.524	2902
830.663	2861
830.802	2811
830.941	2682
831.08	2670
831.219	2807
831.357	2804
831.496	2990
831.635	2727
831.774	2670
831.913	2678
832.051	2583
832.19	2598
832.329	2743
832.467	2587
832.606	2526
832.744	2636
832.883	2629
833.022	2602
833.16	2724
833.299	2720
833.437	2712
833.576	2781
833.714	2758
833.852	2762
833.991	2769
834.129	2864
834.267	2876
834.406	2845
834.544	2906
834.682	2914
834.821	2902
834.959	3081
835.097	2922
835.235	3104
835.373	3036
835.511	3036
835.65	2979
835.788	3017
835.926	2872
836.064	2838
836.202	2872
836.34	3123
836.478	3203
836.615	3108
836.753	3161
836.891	3260
837.029	3218
837.167	3176
837.305	3104
837.443	3036
837.58	2960
837.718	3150
837.856	3119
837.993	3081
838.131	3127
838.269	3116
838.406	3119
838.544	3089
838.681	2979
838.819	2986
838.956	2876
839.094	2853
839.231	2914
839.369	3051
839.506	3462
839.643	3264
839.781	3055
839.918	2979
840.055	3097
840.193	3051
840.33	3051
840.467	3138
840.604	3222
840.742	3409
840.879	3116
841.016	3062
841.153	3165
841.29	3389
841.427	3340
841.564	3264
841.701	3306
841.838	3283
841.975	3260
842.112	3192
842.249	3104
842.385	3112
842.522	3275
842.659	3135
842.796	3074
842.933	3138
843.069	3066
843.206	3089
843.343	3241
843.479	3154
843.616	3135
843.752	2933
843.889	2925
844.025	3119
844.162	2925
844.298	3077
844.435	3013
844.571	2944
844.708	3112
844.844	3199
844.98	3287
845.117	3226
845.253	3058
845.389	3055
845.525	3157
845.661	3097
845.798	3043
845.934	3173
846.07	3077
846.206	3226
846.342	3329
846.478	3237
846.614	3127
846.75	3112
846.886	3074
847.022	3253
847.158	3142
847.294	3245
847.429	3298
847.565	3260
847.701	3504
847.837	3077
847.972	3062
848.108	3161
848.244	3150
848.379	3062
848.515	2960
848.65	2975
848.786	2994
848.921	3051
849.057	3119
849.192	3165
849.328	3089
849.463	3154
849.598	3093
849.734	3058
849.869	2994
850.004	2925
850.14	3001
850.275	2933
850.41	2849
850.545	2944
850.68	2952
850.815	2998
850.95	3039
851.085	3195
851.22	3154
851.355	3062
851.49	3009
851.625	2994
851.76	3036
851.895	2967
852.03	2948
852.165	3039
852.299	3154
852.434	3211
852.569	3142
852.703	3199
852.838	3275
852.973	3344
853.107	3393
853.242	3184
853.376	3138
853.511	3013
853.645	3062
853.78	3268
853.914	3180
854.048	3112
854.183	3135
854.317	3173
854.451	3321
854.585	3142
854.72	3108
854.854	3230
854.988	3116
855.122	3119
855.256	2952
855.39	3119
855.524	3218
855.658	3184
855.792	3199
855.926	3237
856.06	3226
856.194	3264
856.327	3180
856.461	3127
856.595	3097
856.729	3093
856.862	3241
856.996	3188
857.13	3226
857.263	3264
857.397	3275
857.53	3157
857.664	3188
857.797	3264
857.931	3249
858.064	3222
858.197	3260
858.331	3097
858.464	3116
858.597	3032
858.731	3089
858.864	3146
858.997	3104
859.13	3169
859.263	3180
859.396	3211
859.529	3127
859.662	3108
859.795	3081
859.928	3157
860.061	3291
860.194	3332
860.327	3131
860.46	3112
860.592	3226
860.725	3283
860.858	3260
860.99	3116
861.123	3062
861.256	3062
861.388	3146
861.521	3808
861.653	3051
861.786	3017
861.918	3028
862.05	3070
862.183	3112
862.315	3184
862.447	3188
862.58	3104
862.712	2952
862.844	2876
862.976	3013
863.108	3028
863.24	3329
863.372	2933
863.504	2998
863.636	2967
863.768	3066
863.9	2979
864.032	2918
864.164	2963
864.296	3043
864.428	3108
864.559	3116
864.691	3131
864.823	3066
864.954	3028
865.086	3051
865.217	3017
865.349	2960
865.48	3013
865.612	3028
865.743	3138
865.875	3039
866.006	2971
866.137	3001
866.269	2944
866.4	2979
866.531	2948
866.662	2902
866.793	2933
866.924	2918
867.055	3013
867.186	2944
867.317	2906
867.448	2823
867.579	2857
867.71	2902
867.841	2861
867.972	2944
868.103	2922
868.233	2910
868.364	2906
868.495	2937
868.625	3154
868.756	3173
868.886	2990
869.017	3032
869.147	3195
869.278	3176
869.408	3074
869.539	3085
869.669	3112
869.799	3058
869.929	3146
870.06	3127
870.19	3332
870.32	3298
870.45	3351
870.58	3431
870.71	3454
870.84	3477
870.97	3344
871.1	3260
871.23	3496
871.36	3511
871.489	3359
871.619	3428
871.749	3405
871.879	3420
872.008	3481
872.138	3351
872.267	3283
872.397	3173
872.526	3119
872.656	3017
872.785	3123
872.915	3275
873.044	3355
873.173	3256
873.303	3283
873.432	3260
873.561	3268
873.69	3150
873.819	3165
873.948	3184
874.077	3116
874.206	3055
874.335	3100
874.464	3249
874.593	3363
874.722	3275
874.851	3412
874.979	3321
875.108	3329
875.237	3226
875.365	3169
875.494	3157
875.623	3237
875.751	3062
875.88	3127
876.008	3184
876.136	3226
876.265	3439
876.393	3500
876.521	3435
876.65	3401
876.778	3378
876.906	3272
877.034	3214
877.162	3218
877.29	3192
877.418	3253
877.546	3279
877.674	3275
877.802	3237
877.93	3233
878.058	3142
878.185	3100
878.313	3218
878.441	3218
878.568	3077
878.696	3173
878.824	3253
878.951	3306
879.079	3439
879.206	3644
879.333	3454
879.461	3348
879.588	3370
879.715	3485
879.842	3614
879.97	3370
880.097	3180
880.224	3142
880.351	3184
880.478	3233
880.605	3256
880.732	3173
880.859	3534
880.986	3321
881.112	3291
881.239	3214
881.366	3154
881.493	3062
881.619	3005
881.746	3104
881.872	3135
881.999	3108
882.125	3138
882.252	3268
882.378	3344
882.505	3462
882.631	3302
882.757	3161
882.883	3241
883.01	3268
883.136	3131
883.262	3108
883.388	3127
883.514	3291
883.64	3336
883.766	3291
883.892	3192
884.018	3214
884.143	3439
884.269	3523
884.395	3184
884.52	3195
884.646	3173
884.772	3123
884.897	3104
885.023	3218
885.148	3344
885.274	3428
885.399	3355
885.524	3298
885.65	3287
885.775	3317
885.9	3287
886.025	3458
886.15	3351
886.275	3370
886.4	3264
886.525	3336
886.65	3272
886.775	3294
886.9	3538
887.025	3641
887.149	3409
887.274	3253
887.399	3233
887.523	3188
887.648	3176
887.773	3199
887.897	3386
888.021	3424
888.146	3306
888.27	3447
888.395	3534
888.519	3435
888.643	3458
888.767	3469
888.891	3321
889.015	3222
889.139	3310
889.263	3272
889.387	3420
889.511	3507
889.635	3431
889.759	3313
889.883	3294
890.006	3382
890.13	3477
890.254	3313
890.377	3363
890.501	3249
890.624	3211
890.748	3302
890.871	3211
890.995	3104
891.118	3085
891.241	3192
891.364	3226
891.488	3336
891.611	3230
891.734	3203
891.857	3310
891.98	3275
892.103	3321
892.226	3260
892.349	3199
892.471	3119
892.594	3237
892.717	3310
892.839	3294
892.962	3313
893.085	3393
893.207	3329
893.33	3207
893.452	3230
893.575	3359
893.697	3245
893.819	3458
893.941	3526
894.064	3477
894.186	3283
894.308	3275
894.43	3454
894.552	3526
894.674	3488
894.796	3310
894.918	3321
895.04	3298
895.161	3458
895.283	3382
895.405	3329
895.526	3374
895.648	3447
895.769	3443
895.891	3462
896.012	3481
896.134	3469
896.255	3367
896.376	3378
896.498	3386
896.619	3424
896.74	3370
896.861	3412
896.982	3709
897.103	3816
897.224	3637
897.345	3504
897.466	3428
897.587	3538
897.708	3637
897.828	3587
897.949	3458
898.07	3355
898.19	3439
898.311	3606
898.431	3443
898.552	3519
898.672	3568
898.792	3580
898.913	3477
899.033	3420
899.153	3256
899.273	3245
899.393	3268
899.513	3336
899.633	3348
899.753	3329
899.873	3321
899.993	3378
900.113	3351
900.232	3397
900.352	3363
900.472	3310
900.591	3222
900.711	3321
900.83	3241
900.95	3389
901.069	3500
901.189	3340
901.308	3203
901.427	3119
901.546	3188
901.665	3268
901.784	3351
901.904	3218
902.023	3135
902.141	3039
902.26	3017
902.379	3119
902.498	3116
902.617	3062
902.735	3211
902.854	3226
902.973	3184
903.091	3043
903.21	3062
903.328	3123
903.446	3116
903.565	3100
903.683	3195
903.801	3150
903.919	3245
904.038	3351
904.156	3188
904.274	3268
904.392	3268
904.51	3279
904.627	3329
904.745	3450
904.863	3496
904.981	3279
905.098	3165
905.216	3249
905.334	3306
905.451	3264
905.569	3306
905.686	3447
905.803	3458
905.921	3294
906.038	3405
906.155	3321
906.272	3253
906.389	3306
906.506	3218
906.623	3264
906.74	3233
906.857	3195
906.974	3241
907.091	3488
907.208	3553
907.324	3454
907.441	3405
907.557	3249
907.674	3241
907.79	3211
907.907	3279
908.023	3340
908.139	3363
908.256	3332
908.372	3332
908.488	3340
908.604	3256
908.72	3241
908.836	3275
908.952	3302
909.068	3348
909.184	3500
909.3	3428
909.415	3469
909.531	3504
909.647	3256
909.762	3294
909.878	3275
909.993	3378
910.108	3344
910.224	3344
910.339	3431
910.454	3302
910.57	3302
910.685	3260
910.8	3599
910.915	3553
911.03	3454
911.145	3313
911.259	3302
911.374	3302
911.489	3256
911.604	3245
911.718	3116
911.833	3165
911.947	3055
912.062	3017
912.176	3157
912.291	3192
912.405	3199
912.519	3454
912.633	3504
912.748	3317
912.862	3264
912.976	3146
913.09	3047
913.204	3165
913.318	3241
913.431	3325
913.545	3340
913.659	3393
913.772	3321
913.886	3237
914	3157
914.113	3348
914.226	3397
914.34	3313
914.453	3214
914.566	3401
914.68	3348
914.793	3310
914.906	3176
915.019	3119
915.132	3047
915.245	3184
915.358	3203
915.47	3268
915.583	3283
915.696	3321
915.809	3428
915.921	3450
916.034	3268
916.146	3245
916.259	3233
916.371	3370
916.483	3382
916.595	3268
916.708	3336
916.82	3351
916.932	3317
917.044	3363
917.156	3359
917.268	3268
917.38	3317
917.491	3313
917.603	3363
917.715	3454
917.826	3439
917.938	3355
918.049	3268
918.161	3428
918.272	3542
918.384	3587
918.495	3481
918.606	3386
918.717	3275
918.828	3393
918.939	3424
919.05	3298
919.161	3351
919.272	3165
919.383	3306
919.494	3488
919.604	3709
919.715	3447
919.826	3397
919.936	3420
920.047	3614
920.157	3549
920.267	3747
920.378	3553
920.488	3564
920.598	3774
920.708	3903
920.818	3785
920.928	3854
921.038	4017
921.148	4006
921.258	3690
921.368	3584
921.477	3568
921.587	3561
921.697	3469
921.806	3656
921.916	3519
922.025	3321
922.134	3378
922.244	3310
922.353	3466
922.462	3291
922.571	3222
922.68	3093
922.789	3055
922.898	3138
923.007	3097
923.116	3218
923.224	3154
923.333	3199
923.442	3085
923.55	3100
923.659	3127
923.767	3203
923.876	3135
923.984	3226
924.092	3127
924.201	3180
924.309	3199
924.417	3211
924.525	3176
924.633	3230
924.741	4006
924.849	3013
924.956	3313
925.064	3104
925.172	3020
925.279	3077
925.387	3218
925.494	3203
925.602	3294
925.709	3332
925.816	3199
925.924	3283
926.031	3370
926.138	3332
926.245	3340
926.352	3237
926.459	3416
926.566	3488
926.673	3283
926.779	3260
926.886	3230
926.993	3138
927.099	3135
927.206	3100
927.312	3112
927.419	3230
927.525	3207
927.631	3298
927.737	3112
927.843	3100
927.95	3036
928.056	3123
928.162	3176
928.267	3211
928.373	3892
928.479	3294
928.585	3066
928.69	3253
928.796	3298
928.901	3165
929.007	3020
929.112	3184
929.218	3192
929.323	3192
929.428	3116
929.533	3313
929.638	3108
929.743	3119
929.848	3249
929.953	3195
930.058	3146
930.163	3001
930.267	3024
930.372	3211
930.477	3005
930.581	3291
930.685	3169
930.79	3097
930.894	3112
930.998	3112
931.103	3298
931.207	2944
931.311	2952
931.415	2929
931.519	2815
931.623	2811
