Data from test_V78500241_1227.txt Node
Date: Fri Mar 25 16:23:42 CST 2022
User: usil
Spectrometer: V785-0024
Trigger mode: 0
Integration Time (sec): 4.000000E-1
Scans to average: 1
Nonlinearity correction enabled: false
Boxcar width: 0
Storing dark spectrum: false
XAxis mode: Wavelengths
Number of Pixels in Spectrum: 1024
>>>>>Begin Spectral Data<<<<<
801.071	2918
801.214	2925
801.356	2857
801.499	2880
801.641	2899
801.783	2891
801.926	3032
802.068	2967
802.211	2979
802.353	3005
802.496	2937
802.638	3005
802.78	3043
802.923	3100
803.065	2979
803.208	2872
803.35	2925
803.492	2929
803.635	2929
803.777	2762
803.919	2902
804.061	3199
804.204	2933
804.346	2925
804.488	2807
804.63	2944
804.773	2887
804.915	2883
805.057	3077
805.199	2918
805.341	2956
805.483	3047
805.626	2948
805.768	2910
805.91	3077
806.052	3097
806.194	3028
806.336	3272
806.478	3017
806.62	2963
806.762	2967
806.904	3039
807.046	3180
807.188	2963
807.33	2902
807.472	3013
807.614	2895
807.756	2941
807.898	2918
808.04	2918
808.182	2967
808.324	2948
808.465	2899
808.607	2922
808.749	2804
808.891	2830
809.033	2990
809.174	3001
809.316	2902
809.458	2880
809.6	2781
809.741	2762
809.883	2766
810.025	2849
810.166	2861
810.308	2834
810.45	2838
810.591	2773
810.733	2758
810.875	2849
811.016	2766
811.158	2766
811.299	2838
811.441	2941
811.582	2880
811.724	2834
811.865	2842
812.007	2902
812.148	2872
812.29	2849
812.431	2880
812.573	2941
812.714	2952
812.855	3058
812.997	3058
813.138	3112
813.279	3017
813.421	2941
813.562	2971
813.703	2868
813.845	2891
813.986	2792
814.127	2712
814.268	2807
814.41	2876
814.551	2788
814.692	2868
814.833	2838
814.974	2883
815.115	2963
815.256	2796
815.397	2815
815.539	2830
815.68	2781
815.821	2792
815.962	2902
816.103	2906
816.244	2902
816.385	2864
816.526	3005
816.666	2925
816.807	2750
816.948	2883
817.089	2902
817.23	2826
817.371	2792
817.512	2785
817.653	2842
817.793	2804
817.934	2872
818.075	2922
818.216	2979
818.356	3013
818.497	2891
818.638	2785
818.778	2811
818.919	2788
819.06	2735
819.2	2891
819.341	2800
819.481	2826
819.622	2925
819.762	3039
819.903	3032
820.043	2895
820.184	2899
820.324	2887
820.465	3013
820.605	3028
820.746	3020
820.886	2937
821.026	3093
821.167	3131
821.307	3237
821.447	3287
821.588	3249
821.728	3226
821.868	3211
822.008	3077
822.149	3161
822.289	3241
822.429	3028
822.569	3070
822.709	3131
822.849	3051
822.99	3055
823.13	3142
823.27	3192
823.41	3131
823.55	3165
823.69	3146
823.83	3180
823.97	3112
824.11	3005
824.25	3001
824.389	3051
824.529	3085
824.669	3032
824.809	3207
824.949	3283
825.089	3192
825.228	3157
825.368	3001
825.508	2960
825.648	2971
825.787	2956
825.927	3032
826.067	2941
826.206	2922
826.346	3066
826.485	3055
826.625	3081
826.765	3214
826.904	3207
827.044	2967
827.183	2933
827.323	2872
827.462	2994
827.601	2868
827.741	2963
827.88	2963
828.02	2826
828.159	2982
828.298	3024
828.437	3104
828.577	3039
828.716	3203
828.855	3058
828.994	2868
829.134	2906
829.273	2922
829.412	2807
829.551	2872
829.69	2887
829.829	2963
829.968	3104
830.107	2998
830.246	3020
830.385	2891
830.524	2876
830.663	2785
830.802	2731
830.941	2670
831.08	2651
831.219	2769
831.357	2766
831.496	2952
831.635	2697
831.774	2655
831.913	2632
832.051	2499
832.19	2587
832.329	2689
832.467	2537
832.606	2488
832.744	2552
832.883	2583
833.022	2594
833.16	2644
833.299	2651
833.437	2678
833.576	2682
833.714	2712
833.852	2697
833.991	2750
834.129	2842
834.267	2819
834.406	2777
834.544	2883
834.682	2876
834.821	2861
834.959	3055
835.097	2887
835.235	3058
835.373	2971
835.511	3005
835.65	2986
835.788	2929
835.926	2864
836.064	2796
836.202	2838
836.34	3058
836.478	3135
836.615	3036
836.753	3097
836.891	3207
837.029	3176
837.167	3081
837.305	3043
837.443	3005
837.58	2960
837.718	3097
837.856	3074
837.993	3032
838.131	3108
838.269	3104
838.406	3070
838.544	3051
838.681	2929
838.819	2902
838.956	2804
839.094	2815
839.231	2910
839.369	3020
839.506	3393
839.643	3211
839.781	2998
839.918	2960
840.055	3058
840.193	3043
840.33	3085
840.467	3093
840.604	3104
840.742	3389
840.879	3017
841.016	3043
841.153	3127
841.29	3298
841.427	3275
841.564	3268
841.701	3272
841.838	3207
841.975	3150
842.112	3188
842.249	3066
842.385	3005
842.522	3253
842.659	3058
842.796	3001
842.933	3108
843.069	3070
843.206	3028
843.343	3142
843.479	3062
843.616	3131
843.752	2880
843.889	2845
844.025	3100
844.162	2845
844.298	3055
844.435	2952
844.571	2925
844.708	3051
844.844	3161
844.98	3184
845.117	3176
845.253	3066
845.389	3013
845.525	3058
845.661	3097
845.798	2994
845.934	3116
846.07	3024
846.206	3192
846.342	3306
846.478	3188
846.614	3085
846.75	3024
846.886	3028
847.022	3245
847.158	3138
847.294	3192
847.429	3207
847.565	3222
847.701	3462
847.837	3032
847.972	3013
848.108	3150
848.244	3135
848.379	2960
848.515	2899
848.65	2925
848.786	2937
848.921	3013
849.057	3123
849.192	3127
849.328	3081
849.463	3123
849.598	3066
849.734	3028
849.869	2952
850.004	2876
850.14	2952
850.275	2895
850.41	2796
850.545	2868
850.68	2937
850.815	2963
850.95	2925
851.085	3176
851.22	3089
851.355	3055
851.49	2971
851.625	3009
851.76	3024
851.895	2922
852.03	2876
852.165	3032
852.299	3123
852.434	3138
852.569	3192
852.703	3184
852.838	3207
852.973	3321
853.107	3317
853.242	3142
853.376	3108
853.511	2982
853.645	3005
853.78	3226
853.914	3097
854.048	3123
854.183	3077
854.317	3108
854.451	3329
854.585	3165
854.72	3074
854.854	3173
854.988	3074
855.122	3077
855.256	2956
855.39	3070
855.524	3256
855.658	3138
855.792	3146
855.926	3131
856.06	3207
856.194	3253
856.327	3161
856.461	3032
856.595	3100
856.729	3062
856.862	3192
856.996	3207
857.13	3157
857.263	3260
857.397	3260
857.53	3108
857.664	3192
857.797	3203
857.931	3241
858.064	3146
858.197	3226
858.331	3146
858.464	3100
858.597	2990
858.731	3131
858.864	3104
858.997	3085
859.13	3123
859.263	3188
859.396	3192
859.529	3104
859.662	3074
859.795	3036
859.928	3085
860.061	3249
860.194	3283
860.327	3119
860.46	3112
860.592	3222
860.725	3207
860.858	3256
860.99	3108
861.123	3032
861.256	3036
861.388	3138
861.521	3682
861.653	3028
861.786	2979
861.918	2975
862.05	3062
862.183	3089
862.315	3142
862.447	3161
862.58	3081
862.712	2933
862.844	2838
862.976	3001
863.108	3001
863.24	3428
863.372	2864
863.504	2918
863.636	2948
863.768	2998
863.9	3005
864.032	2887
864.164	2941
864.296	2982
864.428	3070
864.559	3127
864.691	3066
864.823	3036
864.954	3020
865.086	3058
865.217	3009
865.349	2944
865.48	2941
865.612	3047
865.743	3138
865.875	3009
866.006	2963
866.137	2971
866.269	2937
866.4	2922
866.531	2899
866.662	2883
866.793	2876
866.924	2895
867.055	2975
867.186	2933
867.317	2872
867.448	2826
867.579	2834
867.71	2838
867.841	2838
867.972	2891
868.103	2861
868.233	2872
868.364	2857
868.495	2876
868.625	3062
868.756	3146
868.886	2956
869.017	2986
869.147	3157
869.278	3131
869.408	3036
869.539	2994
869.669	3081
869.799	2982
869.929	3112
870.06	3089
870.19	3367
870.32	3241
870.45	3256
870.58	3344
870.71	3450
870.84	3424
870.97	3283
871.1	3222
871.23	3462
871.36	3439
871.489	3367
871.619	3370
871.749	3431
871.879	3443
872.008	3485
872.138	3359
872.267	3272
872.397	3138
872.526	3074
872.656	2998
872.785	3062
872.915	3211
873.044	3302
873.173	3226
873.303	3268
873.432	3253
873.561	3226
873.69	3119
873.819	3127
873.948	3203
874.077	3104
874.206	3058
874.335	3058
874.464	3195
874.593	3279
874.722	3226
874.851	3409
874.979	3348
875.108	3321
875.237	3161
875.365	3123
875.494	3184
875.623	3237
875.751	3070
875.88	3081
876.008	3184
876.136	3214
876.265	3329
876.393	3519
876.521	3424
876.65	3389
876.778	3317
876.906	3275
877.034	3176
877.162	3203
877.29	3146
877.418	3211
877.546	3214
877.674	3218
877.802	3218
877.93	3195
878.058	3146
878.185	3085
878.313	3214
878.441	3207
878.568	3058
878.696	3157
878.824	3249
878.951	3260
879.079	3435
879.206	3603
879.333	3435
879.461	3302
879.588	3344
879.715	3481
879.842	3549
879.97	3386
880.097	3180
880.224	3165
880.351	3184
880.478	3218
880.605	3233
880.732	3150
880.859	3492
880.986	3321
881.112	3332
881.239	3195
881.366	3093
881.493	3036
881.619	3009
881.746	3058
881.872	3032
881.999	3116
882.125	3116
882.252	3199
882.378	3302
882.505	3424
882.631	3253
882.757	3173
882.883	3214
883.01	3226
883.136	3142
883.262	3089
883.388	3146
883.514	3298
883.64	3351
883.766	3291
883.892	3199
884.018	3253
884.143	3405
884.269	3568
884.395	3195
884.52	3173
884.646	3150
884.772	3123
884.897	3089
885.023	3180
885.148	3279
885.274	3389
885.399	3397
885.524	3233
885.65	3233
885.775	3332
885.9	3264
886.025	3439
886.15	3374
886.275	3279
886.4	3245
886.525	3321
886.65	3249
886.775	3294
886.9	3496
887.025	3644
887.149	3363
887.274	3260
887.399	3207
887.523	3207
887.648	3192
887.773	3157
887.897	3397
888.021	3386
888.146	3321
888.27	3420
888.395	3561
888.519	3439
888.643	3428
888.767	3469
888.891	3294
889.015	3237
889.139	3279
889.263	3184
889.387	3389
889.511	3526
889.635	3492
889.759	3291
889.883	3275
890.006	3424
890.13	3504
890.254	3253
890.377	3336
890.501	3218
890.624	3180
890.748	3298
890.871	3199
890.995	3119
891.118	3070
891.241	3131
891.364	3199
891.488	3344
891.611	3154
891.734	3214
891.857	3264
891.98	3214
892.103	3313
892.226	3249
892.349	3176
892.471	3135
892.594	3237
892.717	3253
892.839	3218
892.962	3283
893.085	3306
893.207	3283
893.33	3150
893.452	3226
893.575	3344
893.697	3272
893.819	3477
893.941	3481
894.064	3454
894.186	3264
894.308	3268
894.43	3431
894.552	3553
894.674	3458
894.796	3249
894.918	3329
895.04	3275
895.161	3424
895.283	3370
895.405	3310
895.526	3382
895.648	3401
895.769	3389
895.891	3424
896.012	3458
896.134	3450
896.255	3412
896.376	3393
896.498	3344
896.619	3435
896.74	3351
896.861	3378
896.982	3663
897.103	3804
897.224	3549
897.345	3481
897.466	3454
897.587	3481
897.708	3641
897.828	3553
897.949	3450
898.07	3329
898.19	3447
898.311	3603
898.431	3428
898.552	3481
898.672	3572
898.792	3553
898.913	3477
899.033	3397
899.153	3291
899.273	3256
899.393	3253
899.513	3279
899.633	3283
899.753	3287
899.873	3310
899.993	3374
900.113	3306
900.232	3378
900.352	3351
900.472	3275
900.591	3218
900.711	3294
900.83	3249
900.95	3359
901.069	3462
901.189	3344
901.308	3165
901.427	3165
901.546	3192
901.665	3317
901.784	3340
901.904	3214
902.023	3161
902.141	3039
902.26	2979
902.379	3131
902.498	3058
902.617	3039
902.735	3199
902.854	3264
902.973	3211
903.091	3020
903.21	3047
903.328	3150
903.446	3081
903.565	3104
903.683	3173
903.801	3116
903.919	3226
904.038	3260
904.156	3154
904.274	3298
904.392	3218
904.51	3245
904.627	3291
904.745	3435
904.863	3507
904.981	3268
905.098	3135
905.216	3195
905.334	3260
905.451	3329
905.569	3245
905.686	3424
905.803	3443
905.921	3253
906.038	3416
906.155	3374
906.272	3241
906.389	3344
906.506	3207
906.623	3272
906.74	3230
906.857	3184
906.974	3249
907.091	3477
907.208	3572
907.324	3462
907.441	3367
907.557	3256
907.674	3207
907.79	3207
907.907	3298
908.023	3370
908.139	3367
908.256	3302
908.372	3336
908.488	3386
908.604	3321
908.72	3241
908.836	3279
908.952	3272
909.068	3313
909.184	3469
909.3	3401
909.415	3462
909.531	3477
909.647	3268
909.762	3275
909.878	3199
909.993	3340
910.108	3359
910.224	3313
910.339	3359
910.454	3279
910.57	3268
910.685	3245
910.8	3549
910.915	3519
911.03	3386
911.145	3279
911.259	3245
911.374	3329
911.489	3222
911.604	3218
911.718	3119
911.833	3150
911.947	3001
912.062	2998
912.176	3154
912.291	3199
912.405	3249
912.519	3420
912.633	3496
912.748	3325
912.862	3260
912.976	3176
913.09	3032
913.204	3142
913.318	3211
913.431	3351
913.545	3325
913.659	3393
913.772	3332
913.886	3211
914	3214
914.113	3336
914.226	3397
914.34	3348
914.453	3195
914.566	3386
914.68	3294
914.793	3317
914.906	3135
915.019	3085
915.132	3085
915.245	3169
915.358	3214
915.47	3249
915.583	3279
915.696	3245
915.809	3431
915.921	3382
916.034	3249
916.146	3260
916.259	3233
916.371	3348
916.483	3363
916.595	3287
916.708	3355
916.82	3325
916.932	3329
917.044	3340
917.156	3310
917.268	3233
917.38	3291
917.491	3294
917.603	3344
917.715	3420
917.826	3488
917.938	3393
918.049	3260
918.161	3424
918.272	3545
918.384	3572
918.495	3481
918.606	3332
918.717	3302
918.828	3389
918.939	3416
919.05	3298
919.161	3378
919.272	3180
919.383	3279
919.494	3511
919.604	3663
919.715	3515
919.826	3416
919.936	3477
920.047	3580
920.157	3561
920.267	3770
920.378	3599
920.488	3545
920.598	3759
920.708	3918
920.818	3789
920.928	3785
921.038	3998
921.148	3953
921.258	3682
921.368	3633
921.477	3572
921.587	3530
921.697	3435
921.806	3622
921.916	3504
922.025	3363
922.134	3306
922.244	3302
922.353	3416
922.462	3256
922.571	3233
922.68	3108
922.789	3066
922.898	3154
923.007	3127
923.116	3230
923.224	3180
923.333	3161
923.442	3077
923.55	3108
923.659	3142
923.767	3211
923.876	3108
923.984	3214
924.092	3089
924.201	3188
924.309	3207
924.417	3245
924.525	3214
924.633	3249
924.741	4010
924.849	3074
924.956	3256
925.064	3089
925.172	3017
925.279	3089
925.387	3176
925.494	3173
925.602	3306
925.709	3325
925.816	3207
925.924	3306
926.031	3393
926.138	3302
926.245	3378
926.352	3233
926.459	3386
926.566	3458
926.673	3313
926.779	3268
926.886	3253
926.993	3161
927.099	3169
927.206	3104
927.312	3081
927.419	3211
927.525	3211
927.631	3264
927.737	3154
927.843	3100
927.95	2994
928.056	3165
928.162	3142
928.267	3226
928.373	3861
928.479	3279
928.585	3062
928.69	3230
928.796	3264
928.901	3157
929.007	3055
929.112	3165
929.218	3184
929.323	3131
929.428	3127
929.533	3298
929.638	3093
929.743	3135
929.848	3245
929.953	3192
930.058	3119
930.163	2982
930.267	3039
930.372	3203
930.477	3020
930.581	3313
930.685	3180
930.79	3028
930.894	3123
930.998	3112
931.103	3264
931.207	2910
931.311	2902
931.415	2944
931.519	2800
931.623	2781
