Data from test_V78500241_151.txt Node
Date: Fri Mar 25 16:16:15 CST 2022
User: usil
Spectrometer: V785-0024
Trigger mode: 0
Integration Time (sec): 4.000000E-1
Scans to average: 1
Nonlinearity correction enabled: false
Boxcar width: 0
Storing dark spectrum: false
XAxis mode: Wavelengths
Number of Pixels in Spectrum: 1024
>>>>>Begin Spectral Data<<<<<
801.071	2948
801.214	2925
801.356	2902
801.499	2914
801.641	2887
801.783	2929
801.926	3081
802.068	2994
802.211	3024
802.353	3043
802.496	2963
802.638	2990
802.78	3039
802.923	3104
803.065	3017
803.208	2944
803.35	2922
803.492	2960
803.635	2929
803.777	2769
803.919	2845
804.061	3180
804.204	2971
804.346	2914
804.488	2861
804.63	2963
804.773	2849
804.915	2895
805.057	3077
805.199	2929
805.341	3017
805.483	3055
805.626	3009
805.768	2986
805.91	3085
806.052	3135
806.194	3017
806.336	3256
806.478	3001
806.62	2944
806.762	3013
806.904	3081
807.046	3214
807.188	3013
807.33	2929
807.472	2990
807.614	2925
807.756	3036
807.898	2933
808.04	2929
808.182	2986
808.324	2960
808.465	2902
808.607	2895
808.749	2811
808.891	2857
809.033	3017
809.174	2956
809.316	2910
809.458	2918
809.6	2769
809.741	2773
809.883	2777
810.025	2826
810.166	2887
810.308	2872
810.45	2868
810.591	2758
810.733	2796
810.875	2868
811.016	2826
811.158	2746
811.299	2845
811.441	2982
811.582	2933
811.724	2819
811.865	2845
812.007	2922
812.148	2872
812.29	2872
812.431	2925
812.573	2925
812.714	2986
812.855	3036
812.997	3036
813.138	3157
813.279	3062
813.421	3009
813.562	2967
813.703	2895
813.845	2864
813.986	2800
814.127	2716
814.268	2804
814.41	2857
814.551	2807
814.692	2883
814.833	2811
814.974	2922
815.115	2998
815.256	2842
815.397	2842
815.539	2906
815.68	2788
815.821	2834
815.962	2952
816.103	2944
816.244	2914
816.385	2872
816.526	2971
816.666	2925
816.807	2792
816.948	2922
817.089	2937
817.23	2902
817.371	2792
817.512	2792
817.653	2838
817.793	2800
817.934	2918
818.075	3013
818.216	2979
818.356	3058
818.497	2883
818.638	2815
818.778	2826
818.919	2807
819.06	2773
819.2	2887
819.341	2834
819.481	2823
819.622	2933
819.762	3112
819.903	3058
820.043	2963
820.184	2906
820.324	2941
820.465	3070
820.605	3009
820.746	3009
820.886	2960
821.026	3093
821.167	3192
821.307	3298
821.447	3291
821.588	3302
821.728	3260
821.868	3173
822.008	3085
822.149	3207
822.289	3260
822.429	3077
822.569	3093
822.709	3211
822.849	3043
822.99	3112
823.13	3161
823.27	3176
823.41	3074
823.55	3161
823.69	3154
823.83	3214
823.97	3104
824.11	2998
824.25	3024
824.389	3077
824.529	3070
824.669	3093
824.809	3214
824.949	3321
825.089	3249
825.228	3161
825.368	2990
825.508	2967
825.648	2998
825.787	3043
825.927	3085
826.067	2967
826.206	2986
826.346	3047
826.485	3108
826.625	3131
826.765	3241
826.904	3214
827.044	3005
827.183	2922
827.323	2883
827.462	3017
827.601	2918
827.741	2963
827.88	2975
828.02	2899
828.159	2944
828.298	3047
828.437	3135
828.577	3058
828.716	3272
828.855	3074
828.994	2967
829.134	2918
829.273	2941
829.412	2861
829.551	2872
829.69	2883
829.829	2994
829.968	3127
830.107	3043
830.246	3043
830.385	2967
830.524	2906
830.663	2849
830.802	2758
830.941	2636
831.08	2648
831.219	2804
831.357	2758
831.496	2975
831.635	2731
831.774	2686
831.913	2629
832.051	2579
832.19	2587
832.329	2693
832.467	2533
832.606	2492
832.744	2587
832.883	2568
833.022	2617
833.16	2659
833.299	2678
833.437	2697
833.576	2712
833.714	2762
833.852	2743
833.991	2785
834.129	2857
834.267	2861
834.406	2792
834.544	2891
834.682	2883
834.821	2872
834.959	3093
835.097	2891
835.235	3116
835.373	2963
835.511	3058
835.65	2982
835.788	2986
835.926	2887
836.064	2819
836.202	2826
836.34	3104
836.478	3150
836.615	3062
836.753	3142
836.891	3230
837.029	3169
837.167	3119
837.305	3100
837.443	3039
837.58	2948
837.718	3161
837.856	3089
837.993	3051
838.131	3146
838.269	3123
838.406	3066
838.544	3089
838.681	2960
838.819	2967
838.956	2819
839.094	2880
839.231	2941
839.369	3020
839.506	3355
839.643	3214
839.781	3017
839.918	2971
840.055	3047
840.193	3077
840.33	3085
840.467	3112
840.604	3173
840.742	3428
840.879	3066
841.016	3058
841.153	3135
841.29	3336
841.427	3340
841.564	3272
841.701	3302
841.838	3233
841.975	3180
842.112	3237
842.249	3074
842.385	3074
842.522	3291
842.659	3104
842.796	3066
842.933	3108
843.069	3058
843.206	3058
843.343	3176
843.479	3116
843.616	3157
843.752	2864
843.889	2868
844.025	3081
844.162	2868
844.298	3097
844.435	2952
844.571	2948
844.708	3097
844.844	3192
844.98	3245
845.117	3230
845.253	3024
845.389	3032
845.525	3119
845.661	3146
845.798	3051
845.934	3146
846.07	3066
846.206	3222
846.342	3336
846.478	3264
846.614	3131
846.75	3085
846.886	3036
847.022	3230
847.158	3150
847.294	3214
847.429	3283
847.565	3237
847.701	3496
847.837	3062
847.972	3009
848.108	3211
848.244	3188
848.379	3001
848.515	2929
848.65	2914
848.786	2994
848.921	3074
849.057	3112
849.192	3161
849.328	3062
849.463	3104
849.598	3104
849.734	3020
849.869	3039
850.004	2914
850.14	2986
850.275	2952
850.41	2834
850.545	2895
850.68	2941
850.815	2967
850.95	2963
851.085	3184
851.22	3108
851.355	3051
851.49	2994
851.625	3039
851.76	3020
851.895	2929
852.03	2906
852.165	3055
852.299	3157
852.434	3192
852.569	3161
852.703	3169
852.838	3256
852.973	3363
853.107	3332
853.242	3154
853.376	3116
853.511	2948
853.645	3047
853.78	3253
853.914	3180
854.048	3142
854.183	3093
854.317	3157
854.451	3329
854.585	3127
854.72	3131
854.854	3188
854.988	3066
855.122	3055
855.256	2986
855.39	3161
855.524	3272
855.658	3192
855.792	3150
855.926	3188
856.06	3245
856.194	3291
856.327	3131
856.461	3100
856.595	3093
856.729	3127
856.862	3207
856.996	3192
857.13	3203
857.263	3203
857.397	3317
857.53	3169
857.664	3176
857.797	3256
857.931	3275
858.064	3150
858.197	3222
858.331	3154
858.464	3116
858.597	3001
858.731	3150
858.864	3131
858.997	3081
859.13	3157
859.263	3192
859.396	3211
859.529	3116
859.662	3074
859.795	3047
859.928	3184
860.061	3313
860.194	3294
860.327	3138
860.46	3070
860.592	3264
860.725	3249
860.858	3272
860.99	3135
861.123	3028
861.256	3089
861.388	3146
861.521	3686
861.653	3028
861.786	2994
861.918	3017
862.05	3100
862.183	3112
862.315	3165
862.447	3199
862.58	3062
862.712	2971
862.844	2880
862.976	3051
863.108	3058
863.24	3359
863.372	2906
863.504	3013
863.636	3005
863.768	3043
863.9	2998
864.032	2948
864.164	2979
864.296	3009
864.428	3123
864.559	3138
864.691	3089
864.823	3077
864.954	3020
865.086	3066
865.217	3009
865.349	2982
865.48	2990
865.612	3032
865.743	3154
865.875	3028
866.006	2982
866.137	2948
866.269	2960
866.4	2956
866.531	2937
866.662	2933
866.793	2910
866.924	2899
867.055	3001
867.186	2918
867.317	2948
867.448	2853
867.579	2861
867.71	2895
867.841	2792
867.972	2891
868.103	2948
868.233	2887
868.364	2887
868.495	2929
868.625	3093
868.756	3188
868.886	2990
869.017	3032
869.147	3218
869.278	3218
869.408	3047
869.539	3058
869.669	3150
869.799	3036
869.929	3161
870.06	3104
870.19	3302
870.32	3283
870.45	3298
870.58	3355
870.71	3466
870.84	3496
870.97	3279
871.1	3298
871.23	3523
871.36	3504
871.489	3386
871.619	3393
871.749	3435
871.879	3435
872.008	3466
872.138	3420
872.267	3294
872.397	3150
872.526	3112
872.656	3043
872.785	3108
872.915	3260
873.044	3336
873.173	3237
873.303	3298
873.432	3268
873.561	3253
873.69	3199
873.819	3169
873.948	3241
874.077	3146
874.206	3074
874.335	3108
874.464	3249
874.593	3348
874.722	3256
874.851	3397
874.979	3344
875.108	3348
875.237	3222
875.365	3161
875.494	3146
875.623	3287
875.751	3116
875.88	3119
876.008	3230
876.136	3283
876.265	3393
876.393	3568
876.521	3420
876.65	3416
876.778	3382
876.906	3249
877.034	3233
877.162	3230
877.29	3241
877.418	3260
877.546	3245
877.674	3298
877.802	3237
877.93	3230
878.058	3173
878.185	3135
878.313	3233
878.441	3214
878.568	3081
878.696	3131
878.824	3287
878.951	3294
879.079	3443
879.206	3641
879.333	3431
879.461	3344
879.588	3382
879.715	3492
879.842	3580
879.97	3370
880.097	3203
880.224	3146
880.351	3188
880.478	3211
880.605	3256
880.732	3256
880.859	3507
880.986	3325
881.112	3351
881.239	3188
881.366	3154
881.493	3066
881.619	3058
881.746	3081
881.872	3112
881.999	3131
882.125	3131
882.252	3260
882.378	3275
882.505	3424
882.631	3256
882.757	3180
882.883	3226
883.01	3291
883.136	3214
883.262	3066
883.388	3154
883.514	3321
883.64	3397
883.766	3325
883.892	3211
884.018	3241
884.143	3462
884.269	3568
884.395	3237
884.52	3176
884.646	3192
884.772	3138
884.897	3138
885.023	3230
885.148	3359
885.274	3435
885.399	3363
885.524	3302
885.65	3283
885.775	3397
885.9	3294
886.025	3469
886.15	3378
886.275	3313
886.4	3256
886.525	3329
886.65	3245
886.775	3306
886.9	3557
887.025	3652
887.149	3416
887.274	3264
887.399	3188
887.523	3237
887.648	3199
887.773	3226
887.897	3374
888.021	3393
888.146	3313
888.27	3439
888.395	3564
888.519	3462
888.643	3454
888.767	3477
888.891	3348
889.015	3283
889.139	3336
889.263	3275
889.387	3428
889.511	3477
889.635	3500
889.759	3325
889.883	3329
890.006	3397
890.13	3515
890.254	3283
890.377	3355
890.501	3214
890.624	3176
890.748	3294
890.871	3211
890.995	3112
891.118	3062
891.241	3203
891.364	3245
891.488	3370
891.611	3211
891.734	3218
891.857	3306
891.98	3241
892.103	3317
892.226	3317
892.349	3218
892.471	3104
892.594	3233
892.717	3363
892.839	3268
892.962	3291
893.085	3363
893.207	3268
893.33	3180
893.452	3214
893.575	3359
893.697	3264
893.819	3485
893.941	3504
894.064	3458
894.186	3283
894.308	3268
894.43	3492
894.552	3553
894.674	3496
894.796	3283
894.918	3329
895.04	3302
895.161	3412
895.283	3405
895.405	3310
895.526	3389
895.648	3412
895.769	3401
895.891	3515
896.012	3466
896.134	3488
896.255	3424
896.376	3435
896.498	3363
896.619	3466
896.74	3386
896.861	3420
896.982	3690
897.103	3850
897.224	3595
897.345	3515
897.466	3416
897.587	3507
897.708	3671
897.828	3561
897.949	3477
898.07	3344
898.19	3462
898.311	3610
898.431	3458
898.552	3557
898.672	3606
898.792	3576
898.913	3553
899.033	3405
899.153	3313
899.273	3207
899.393	3321
899.513	3355
899.633	3302
899.753	3325
899.873	3344
899.993	3386
900.113	3321
900.232	3416
900.352	3382
900.472	3241
900.591	3211
900.711	3310
900.83	3264
900.95	3428
901.069	3545
901.189	3355
901.308	3192
901.427	3161
901.546	3169
901.665	3302
901.784	3378
901.904	3218
902.023	3138
902.141	3062
902.26	3017
902.379	3161
902.498	3062
902.617	3074
902.735	3184
902.854	3272
902.973	3203
903.091	3043
903.21	3116
903.328	3173
903.446	3089
903.565	3135
903.683	3169
903.801	3165
903.919	3287
904.038	3302
904.156	3169
904.274	3287
904.392	3279
904.51	3344
904.627	3355
904.745	3492
904.863	3519
904.981	3298
905.098	3173
905.216	3291
905.334	3317
905.451	3313
905.569	3389
905.686	3454
905.803	3481
905.921	3325
906.038	3431
906.155	3359
906.272	3268
906.389	3367
906.506	3260
906.623	3279
906.74	3317
906.857	3188
906.974	3294
907.091	3462
907.208	3587
907.324	3507
907.441	3401
907.557	3230
907.674	3249
907.79	3230
907.907	3298
908.023	3416
908.139	3424
908.256	3370
908.372	3409
908.488	3374
908.604	3253
908.72	3264
908.836	3294
908.952	3310
909.068	3359
909.184	3492
909.3	3401
909.415	3504
909.531	3496
909.647	3306
909.762	3325
909.878	3245
909.993	3351
910.108	3310
910.224	3363
910.339	3428
910.454	3389
910.57	3317
910.685	3253
910.8	3591
910.915	3553
911.03	3431
911.145	3275
911.259	3287
911.374	3340
911.489	3268
911.604	3218
911.718	3131
911.833	3180
911.947	3032
912.062	3001
912.176	3192
912.291	3218
912.405	3188
912.519	3473
912.633	3496
912.748	3359
912.862	3287
912.976	3188
913.09	3074
913.204	3165
913.318	3226
913.431	3348
913.545	3355
913.659	3439
913.772	3351
913.886	3233
914	3226
914.113	3370
914.226	3439
914.34	3374
914.453	3233
914.566	3443
914.68	3279
914.793	3310
914.906	3138
915.019	3138
915.132	3077
915.245	3188
915.358	3211
915.47	3218
915.583	3279
915.696	3287
915.809	3416
915.921	3454
916.034	3268
916.146	3275
916.259	3245
916.371	3389
916.483	3382
916.595	3291
916.708	3313
916.82	3313
916.932	3355
917.044	3363
917.156	3348
917.268	3256
917.38	3348
917.491	3313
917.603	3420
917.715	3466
917.826	3488
917.938	3378
918.049	3302
918.161	3469
918.272	3587
918.384	3595
918.495	3496
918.606	3355
918.717	3264
918.828	3393
918.939	3447
919.05	3306
919.161	3397
919.272	3203
919.383	3264
919.494	3538
919.604	3660
919.715	3481
919.826	3435
919.936	3488
920.047	3595
920.157	3599
920.267	3804
920.378	3618
920.488	3538
920.598	3781
920.708	3972
920.818	3842
920.928	3816
921.038	4071
921.148	4013
921.258	3743
921.368	3679
921.477	3614
921.587	3553
921.697	3458
921.806	3610
921.916	3534
922.025	3363
922.134	3382
922.244	3306
922.353	3481
922.462	3241
922.571	3249
922.68	3135
922.789	3093
922.898	3157
923.007	3131
923.116	3233
923.224	3192
923.333	3184
923.442	3157
923.55	3070
923.659	3161
923.767	3233
923.876	3154
923.984	3294
924.092	3119
924.201	3222
924.309	3291
924.417	3256
924.525	3226
924.633	3264
924.741	4185
924.849	3036
924.956	3279
925.064	3055
925.172	3081
925.279	3150
925.387	3199
925.494	3245
925.602	3378
925.709	3359
925.816	3184
925.924	3306
926.031	3458
926.138	3374
926.245	3401
926.352	3260
926.459	3397
926.566	3485
926.673	3336
926.779	3249
926.886	3222
926.993	3180
927.099	3142
927.206	3104
927.312	3116
927.419	3241
927.525	3237
927.631	3302
927.737	3184
927.843	3169
927.95	3043
928.056	3154
928.162	3180
928.267	3287
928.373	3911
928.479	3363
928.585	3108
928.69	3260
928.796	3302
928.901	3192
929.007	3051
929.112	3203
929.218	3199
929.323	3203
929.428	3131
929.533	3336
929.638	3169
929.743	3180
929.848	3245
929.953	3272
930.058	3138
930.163	2975
930.267	3100
930.372	3214
930.477	3051
930.581	3336
930.685	3226
930.79	3066
930.894	3108
930.998	3116
931.103	3264
931.207	3005
931.311	2944
931.415	2941
931.519	2788
931.623	2857
