Data from test_V78500241_399.txt Node
Date: Fri Mar 25 16:17:58 CST 2022
User: usil
Spectrometer: V785-0024
Trigger mode: 0
Integration Time (sec): 4.000000E-1
Scans to average: 1
Nonlinearity correction enabled: false
Boxcar width: 0
Storing dark spectrum: false
XAxis mode: Wavelengths
Number of Pixels in Spectrum: 1024
>>>>>Begin Spectral Data<<<<<
801.071	2880
801.214	2956
801.356	2876
801.499	2857
801.641	2849
801.783	2902
801.926	3062
802.068	2960
802.211	3043
802.353	3013
802.496	2982
802.638	3009
802.78	3032
802.923	3074
803.065	3001
803.208	2944
803.35	2895
803.492	2929
803.635	2925
803.777	2735
803.919	2853
804.061	3173
804.204	2922
804.346	2910
804.488	2838
804.63	2967
804.773	2880
804.915	2925
805.057	3085
805.199	2918
805.341	2933
805.483	3062
805.626	2960
805.768	2948
805.91	3074
806.052	3108
806.194	3055
806.336	3230
806.478	3028
806.62	2944
806.762	2960
806.904	3028
807.046	3154
807.188	3001
807.33	2910
807.472	2960
807.614	2914
807.756	2941
807.898	2883
808.04	2861
808.182	2975
808.324	2982
808.465	2883
808.607	2819
808.749	2746
808.891	2842
809.033	2971
809.174	2982
809.316	2891
809.458	2861
809.6	2762
809.741	2804
809.883	2766
810.025	2830
810.166	2857
810.308	2842
810.45	2834
810.591	2781
810.733	2750
810.875	2826
811.016	2800
811.158	2746
811.299	2811
811.441	2918
811.582	2887
811.724	2845
811.865	2834
812.007	2925
812.148	2861
812.29	2834
812.431	2868
812.573	2937
812.714	2952
812.855	3028
812.997	3051
813.138	3135
813.279	2990
813.421	2971
813.562	2956
813.703	2887
813.845	2887
813.986	2758
814.127	2731
814.268	2826
814.41	2853
814.551	2811
814.692	2872
814.833	2788
814.974	2899
815.115	2956
815.256	2823
815.397	2811
815.539	2853
815.68	2773
815.821	2788
815.962	2956
816.103	2914
816.244	2887
816.385	2864
816.526	2963
816.666	2910
816.807	2746
816.948	2895
817.089	2910
817.23	2864
817.371	2727
817.512	2807
817.653	2853
817.793	2819
817.934	2899
818.075	2971
818.216	2986
818.356	2998
818.497	2925
818.638	2773
818.778	2792
818.919	2792
819.06	2758
819.2	2872
819.341	2834
819.481	2769
819.622	2944
819.762	3047
819.903	3009
820.043	2914
820.184	2906
820.324	2887
820.465	3017
820.605	2998
820.746	3017
820.886	2914
821.026	3112
821.167	3116
821.307	3222
821.447	3272
821.588	3237
821.728	3207
821.868	3195
822.008	3036
822.149	3176
822.289	3222
822.429	3093
822.569	3058
822.709	3199
822.849	2994
822.99	3097
823.13	3150
823.27	3173
823.41	3097
823.55	3119
823.69	3157
823.83	3230
823.97	3097
824.11	2986
824.25	3013
824.389	3036
824.529	3119
824.669	3070
824.809	3176
824.949	3214
825.089	3260
825.228	3157
825.368	2994
825.508	2944
825.648	2971
825.787	3001
825.927	2979
826.067	2933
826.206	2944
826.346	3036
826.485	3081
826.625	3081
826.765	3279
826.904	3203
827.044	2998
827.183	2922
827.323	2902
827.462	2971
827.601	2895
827.741	2944
827.88	2933
828.02	2849
828.159	3001
828.298	3020
828.437	3116
828.577	3039
828.716	3237
828.855	3077
828.994	2914
829.134	2872
829.273	2948
829.412	2883
829.551	2853
829.69	2899
829.829	3017
829.968	3119
830.107	3020
830.246	3005
830.385	2906
830.524	2864
830.663	2819
830.802	2705
830.941	2606
831.08	2636
831.219	2750
831.357	2727
831.496	2922
831.635	2705
831.774	2648
831.913	2682
832.051	2564
832.19	2560
832.329	2678
832.467	2530
832.606	2454
832.744	2579
832.883	2575
833.022	2571
833.16	2610
833.299	2708
833.437	2670
833.576	2678
833.714	2682
833.852	2735
833.991	2724
834.129	2811
834.267	2826
834.406	2754
834.544	2876
834.682	2853
834.821	2830
834.959	3066
835.097	2902
835.235	3055
835.373	3001
835.511	3009
835.65	2948
835.788	2990
835.926	2811
836.064	2788
836.202	2830
836.34	3097
836.478	3127
836.615	3055
836.753	3150
836.891	3176
837.029	3138
837.167	3058
837.305	3047
837.443	3017
837.58	2963
837.718	3100
837.856	3066
837.993	3020
838.131	3142
838.269	3116
838.406	3058
838.544	3089
838.681	2910
838.819	2906
838.956	2807
839.094	2838
839.231	2918
839.369	3017
839.506	3359
839.643	3214
839.781	3028
839.918	2956
840.055	3024
840.193	3074
840.33	3062
840.467	3119
840.604	3138
840.742	3397
840.879	3028
841.016	3058
841.153	3081
841.29	3325
841.427	3245
841.564	3226
841.701	3264
841.838	3211
841.975	3214
842.112	3180
842.249	3077
842.385	3001
842.522	3226
842.659	3036
842.796	3074
842.933	3081
843.069	3017
843.206	3009
843.343	3192
843.479	3089
843.616	3135
843.752	2891
843.889	2876
844.025	3116
844.162	2876
844.298	3089
844.435	2922
844.571	2906
844.708	3074
844.844	3138
844.98	3222
845.117	3176
845.253	3036
845.389	3001
845.525	3116
845.661	3104
845.798	2979
845.934	3093
846.07	3077
846.206	3203
846.342	3260
846.478	3222
846.614	3066
846.75	3036
846.886	3017
847.022	3233
847.158	3165
847.294	3195
847.429	3245
847.565	3207
847.701	3466
847.837	3009
847.972	2998
848.108	3154
848.244	3135
848.379	2956
848.515	2902
848.65	2948
848.786	2941
848.921	2986
849.057	3108
849.192	3135
849.328	3081
849.463	3089
849.598	3062
849.734	3024
849.869	2960
850.004	2914
850.14	2952
850.275	2910
850.41	2823
850.545	2872
850.68	2914
850.815	2906
850.95	2937
851.085	3161
851.22	3058
851.355	3017
851.49	2975
851.625	2979
851.76	3001
851.895	2895
852.03	2918
852.165	3032
852.299	3066
852.434	3173
852.569	3135
852.703	3112
852.838	3237
852.973	3332
853.107	3325
853.242	3135
853.376	3024
853.511	2948
853.645	3009
853.78	3218
853.914	3123
854.048	3081
854.183	3055
854.317	3112
854.451	3283
854.585	3116
854.72	3085
854.854	3165
854.988	3085
855.122	3074
855.256	2982
855.39	3135
855.524	3241
855.658	3176
855.792	3135
855.926	3214
856.06	3245
856.194	3253
856.327	3108
856.461	3074
856.595	3077
856.729	3047
856.862	3237
856.996	3127
857.13	3203
857.263	3188
857.397	3256
857.53	3116
857.664	3161
857.797	3211
857.931	3264
858.064	3146
858.197	3237
858.331	3100
858.464	3127
858.597	3001
858.731	3104
858.864	3116
858.997	3085
859.13	3085
859.263	3157
859.396	3169
859.529	3070
859.662	3077
859.795	3039
859.928	3157
860.061	3272
860.194	3260
860.327	3146
860.46	3108
860.592	3214
860.725	3222
860.858	3241
860.99	3123
861.123	3066
861.256	3051
861.388	3154
861.521	3857
861.653	3009
861.786	2979
861.918	3005
862.05	3070
862.183	3112
862.315	3184
862.447	3207
862.58	3112
862.712	2937
862.844	2876
862.976	3074
863.108	3058
863.24	3412
863.372	2876
863.504	3013
863.636	2982
863.768	3039
863.9	3024
864.032	2902
864.164	3005
864.296	3070
864.428	3100
864.559	3131
864.691	3104
864.823	3097
864.954	3043
865.086	3085
865.217	3032
865.349	2998
865.48	3009
865.612	3028
865.743	3180
865.875	3032
866.006	2982
866.137	2994
866.269	2952
866.4	2952
866.531	2952
866.662	2941
866.793	2899
866.924	2956
867.055	3009
867.186	2998
867.317	2933
867.448	2872
867.579	2849
867.71	2872
867.841	2834
867.972	2948
868.103	2956
868.233	2933
868.364	2914
868.495	2941
868.625	3138
868.756	3199
868.886	2998
869.017	3081
869.147	3214
869.278	3233
869.408	3066
869.539	3047
869.669	3123
869.799	3074
869.929	3161
870.06	3165
870.19	3363
870.32	3302
870.45	3367
870.58	3409
870.71	3488
870.84	3481
870.97	3321
871.1	3287
871.23	3492
871.36	3504
871.489	3412
871.619	3458
871.749	3447
871.879	3473
872.008	3526
872.138	3397
872.267	3268
872.397	3173
872.526	3173
872.656	3024
872.785	3146
872.915	3268
873.044	3374
873.173	3268
873.303	3283
873.432	3268
873.561	3272
873.69	3226
873.819	3146
873.948	3260
874.077	3138
874.206	3077
874.335	3104
874.464	3245
874.593	3363
874.722	3253
874.851	3412
874.979	3389
875.108	3355
875.237	3222
875.365	3218
875.494	3173
875.623	3268
875.751	3135
875.88	3135
876.008	3203
876.136	3237
876.265	3382
876.393	3553
876.521	3416
876.65	3458
876.778	3389
876.906	3275
877.034	3253
877.162	3264
877.29	3188
877.418	3268
877.546	3256
877.674	3264
877.802	3287
877.93	3283
878.058	3146
878.185	3135
878.313	3237
878.441	3237
878.568	3104
878.696	3161
878.824	3283
878.951	3329
879.079	3477
879.206	3618
879.333	3431
879.461	3344
879.588	3374
879.715	3515
879.842	3614
879.97	3389
880.097	3184
880.224	3169
880.351	3207
880.478	3241
880.605	3245
880.732	3218
880.859	3549
880.986	3336
881.112	3325
881.239	3237
881.366	3108
881.493	3074
881.619	3051
881.746	3138
881.872	3127
881.999	3131
882.125	3150
882.252	3321
882.378	3313
882.505	3435
882.631	3332
882.757	3173
882.883	3268
883.01	3230
883.136	3195
883.262	3146
883.388	3116
883.514	3351
883.64	3374
883.766	3332
883.892	3203
884.018	3260
884.143	3389
884.269	3614
884.395	3245
884.52	3203
884.646	3203
884.772	3165
884.897	3161
885.023	3207
885.148	3344
885.274	3439
885.399	3405
885.524	3302
885.65	3279
885.775	3283
885.9	3317
886.025	3431
886.15	3386
886.275	3351
886.4	3291
886.525	3317
886.65	3283
886.775	3325
886.9	3477
887.025	3663
887.149	3439
887.274	3287
887.399	3211
887.523	3264
887.648	3230
887.773	3233
887.897	3382
888.021	3424
888.146	3340
888.27	3485
888.395	3538
888.519	3447
888.643	3481
888.767	3473
888.891	3355
889.015	3241
889.139	3329
889.263	3298
889.387	3435
889.511	3545
889.635	3439
889.759	3313
889.883	3294
890.006	3405
890.13	3504
890.254	3329
890.377	3397
890.501	3218
890.624	3199
890.748	3321
890.871	3161
890.995	3131
891.118	3093
891.241	3230
891.364	3275
891.488	3374
891.611	3233
891.734	3268
891.857	3291
891.98	3283
892.103	3348
892.226	3317
892.349	3249
892.471	3138
892.594	3260
892.717	3325
892.839	3310
892.962	3310
893.085	3374
893.207	3348
893.33	3173
893.452	3241
893.575	3344
893.697	3264
893.819	3500
893.941	3542
894.064	3511
894.186	3279
894.308	3283
894.43	3488
894.552	3568
894.674	3469
894.796	3344
894.918	3325
895.04	3279
895.161	3443
895.283	3405
895.405	3332
895.526	3424
895.648	3447
895.769	3431
895.891	3492
896.012	3519
896.134	3454
896.255	3462
896.376	3355
896.498	3401
896.619	3439
896.74	3428
896.861	3435
896.982	3713
897.103	3854
897.224	3656
897.345	3568
897.466	3431
897.587	3530
897.708	3667
897.828	3610
897.949	3469
898.07	3351
898.19	3473
898.311	3622
898.431	3473
898.552	3542
898.672	3572
898.792	3633
898.913	3553
899.033	3405
899.153	3340
899.273	3230
899.393	3302
899.513	3340
899.633	3329
899.753	3355
899.873	3329
899.993	3386
900.113	3363
900.232	3443
900.352	3374
900.472	3313
900.591	3256
900.711	3336
900.83	3249
900.95	3412
901.069	3526
901.189	3336
901.308	3180
901.427	3169
901.546	3211
901.665	3294
901.784	3378
901.904	3230
902.023	3165
902.141	3036
902.26	2994
902.379	3173
902.498	3127
902.617	3085
902.735	3230
902.854	3283
902.973	3230
903.091	3058
903.21	3108
903.328	3173
903.446	3154
903.565	3127
903.683	3176
903.801	3127
903.919	3249
904.038	3283
904.156	3176
904.274	3283
904.392	3294
904.51	3294
904.627	3344
904.745	3428
904.863	3511
904.981	3256
905.098	3188
905.216	3249
905.334	3336
905.451	3302
905.569	3332
905.686	3435
905.803	3492
905.921	3344
906.038	3500
906.155	3405
906.272	3294
906.389	3332
906.506	3222
906.623	3272
906.74	3287
906.857	3214
906.974	3287
907.091	3511
907.208	3584
907.324	3488
907.441	3412
907.557	3268
907.674	3245
907.79	3249
907.907	3306
908.023	3405
908.139	3397
908.256	3351
908.372	3389
908.488	3348
908.604	3253
908.72	3256
908.836	3325
908.952	3272
909.068	3332
909.184	3519
909.3	3431
909.415	3492
909.531	3496
909.647	3283
909.762	3310
909.878	3253
909.993	3370
910.108	3321
910.224	3325
910.339	3424
910.454	3374
910.57	3298
910.685	3275
910.8	3595
910.915	3526
911.03	3473
911.145	3298
911.259	3321
911.374	3325
911.489	3249
911.604	3275
911.718	3180
911.833	3203
911.947	3039
912.062	3024
912.176	3222
912.291	3241
912.405	3230
912.519	3458
912.633	3447
912.748	3344
912.862	3294
912.976	3211
913.09	3070
913.204	3207
913.318	3272
913.431	3348
913.545	3382
913.659	3412
913.772	3370
913.886	3237
914	3184
914.113	3416
914.226	3416
914.34	3405
914.453	3237
914.566	3416
914.68	3283
914.793	3329
914.906	3154
915.019	3138
915.132	3074
915.245	3173
915.358	3214
915.47	3275
915.583	3287
915.696	3302
915.809	3424
915.921	3416
916.034	3298
916.146	3275
916.259	3230
916.371	3401
916.483	3374
916.595	3260
916.708	3325
916.82	3363
916.932	3405
917.044	3340
917.156	3359
917.268	3241
917.38	3310
917.491	3313
917.603	3405
917.715	3428
917.826	3485
917.938	3397
918.049	3287
918.161	3431
918.272	3584
918.384	3549
918.495	3549
918.606	3332
918.717	3298
918.828	3374
918.939	3405
919.05	3355
919.161	3397
919.272	3199
919.383	3359
919.494	3530
919.604	3675
919.715	3523
919.826	3409
919.936	3466
920.047	3584
920.157	3530
920.267	3823
920.378	3644
920.488	3576
920.598	3762
920.708	3953
920.818	3850
920.928	3816
921.038	3979
921.148	4029
921.258	3690
921.368	3625
921.477	3580
921.587	3542
921.697	3481
921.806	3644
921.916	3507
922.025	3355
922.134	3355
922.244	3302
922.353	3424
922.462	3256
922.571	3241
922.68	3119
922.789	3066
922.898	3131
923.007	3116
923.116	3233
923.224	3176
923.333	3165
923.442	3097
923.55	3123
923.659	3131
923.767	3241
923.876	3123
923.984	3218
924.092	3123
924.201	3222
924.309	3207
924.417	3241
924.525	3192
924.633	3237
924.741	4188
924.849	3058
924.956	3241
925.064	3131
925.172	3085
925.279	3112
925.387	3211
925.494	3214
925.602	3363
925.709	3313
925.816	3192
925.924	3275
926.031	3359
926.138	3302
926.245	3363
926.352	3245
926.459	3431
926.566	3523
926.673	3329
926.779	3230
926.886	3256
926.993	3135
927.099	3119
927.206	3127
927.312	3116
927.419	3237
927.525	3230
927.631	3294
927.737	3165
927.843	3142
927.95	3058
928.056	3146
928.162	3180
928.267	3253
928.373	3915
928.479	3313
928.585	3116
928.69	3218
928.796	3313
928.901	3226
929.007	3074
929.112	3237
929.218	3233
929.323	3169
929.428	3142
929.533	3355
929.638	3131
929.743	3184
929.848	3336
929.953	3268
930.058	3161
930.163	3070
930.267	3142
930.372	3233
930.477	3085
930.581	3378
930.685	3226
930.79	3066
930.894	3146
930.998	3123
931.103	3336
931.207	3017
931.311	2990
931.415	2941
931.519	2800
931.623	2853
