Data from test_V78500241_276.txt Node
Date: Fri Mar 25 16:17:06 CST 2022
User: usil
Spectrometer: V785-0024
Trigger mode: 0
Integration Time (sec): 4.000000E-1
Scans to average: 1
Nonlinearity correction enabled: false
Boxcar width: 0
Storing dark spectrum: false
XAxis mode: Wavelengths
Number of Pixels in Spectrum: 1024
>>>>>Begin Spectral Data<<<<<
801.071	2906
801.214	2929
801.356	2853
801.499	2902
801.641	2899
801.783	2891
801.926	3032
802.068	2960
802.211	3024
802.353	3062
802.496	2986
802.638	3005
802.78	3039
802.923	3077
803.065	3005
803.208	2883
803.35	2906
803.492	2941
803.635	2914
803.777	2731
803.919	2853
804.061	3199
804.204	2918
804.346	2902
804.488	2838
804.63	2979
804.773	2895
804.915	2891
805.057	3077
805.199	2933
805.341	2975
805.483	3020
805.626	2982
805.768	2952
805.91	3097
806.052	3146
806.194	3070
806.336	3207
806.478	2986
806.62	2929
806.762	2979
806.904	3055
807.046	3176
807.188	3001
807.33	2895
807.472	2963
807.614	2891
807.756	2960
807.898	2918
808.04	2906
808.182	2967
808.324	2967
808.465	2887
808.607	2887
808.749	2773
808.891	2849
809.033	2998
809.174	2994
809.316	2899
809.458	2883
809.6	2777
809.741	2781
809.883	2754
810.025	2800
810.166	2811
810.308	2853
810.45	2864
810.591	2766
810.733	2788
810.875	2811
811.016	2830
811.158	2769
811.299	2811
811.441	2906
811.582	2899
811.724	2830
811.865	2845
812.007	2895
812.148	2872
812.29	2853
812.431	2899
812.573	2948
812.714	2971
812.855	3066
812.997	3036
813.138	3142
813.279	3001
813.421	3005
813.562	2948
813.703	2857
813.845	2910
813.986	2781
814.127	2724
814.268	2792
814.41	2838
814.551	2815
814.692	2872
814.833	2845
814.974	2910
815.115	2956
815.256	2807
815.397	2796
815.539	2838
815.68	2788
815.821	2807
815.962	2944
816.103	2937
816.244	2857
816.385	2857
816.526	2979
816.666	2960
816.807	2754
816.948	2880
817.089	2876
817.23	2861
817.371	2746
817.512	2811
817.653	2861
817.793	2804
817.934	2868
818.075	2971
818.216	2990
818.356	3028
818.497	2845
818.638	2762
818.778	2796
818.919	2796
819.06	2769
819.2	2899
819.341	2815
819.481	2785
819.622	2929
819.762	3081
819.903	3036
820.043	2906
820.184	2887
820.324	2902
820.465	3028
820.605	3009
820.746	3039
820.886	2948
821.026	3081
821.167	3165
821.307	3233
821.447	3275
821.588	3233
821.728	3233
821.868	3176
822.008	3089
822.149	3199
822.289	3180
822.429	3062
822.569	3097
822.709	3165
822.849	3039
822.99	3070
823.13	3169
823.27	3195
823.41	3112
823.55	3142
823.69	3146
823.83	3184
823.97	3100
824.11	2982
824.25	2956
824.389	3066
824.529	3108
824.669	3039
824.809	3192
824.949	3249
825.089	3245
825.228	3157
825.368	2982
825.508	2975
825.648	2963
825.787	3013
825.927	3009
826.067	3009
826.206	2960
826.346	3020
826.485	3077
826.625	3127
826.765	3275
826.904	3211
827.044	2982
827.183	2941
827.323	2842
827.462	2941
827.601	2868
827.741	2956
827.88	2944
828.02	2853
828.159	2971
828.298	3036
828.437	3119
828.577	3024
828.716	3226
828.855	3097
828.994	2910
829.134	2883
829.273	2918
829.412	2864
829.551	2864
829.69	2872
829.829	3001
829.968	3119
830.107	3032
830.246	3009
830.385	2933
830.524	2876
830.663	2830
830.802	2693
830.941	2663
831.08	2644
831.219	2781
831.357	2743
831.496	2929
831.635	2781
831.774	2610
831.913	2640
832.051	2545
832.19	2583
832.329	2678
832.467	2545
832.606	2465
832.744	2564
832.883	2590
833.022	2579
833.16	2640
833.299	2667
833.437	2705
833.576	2682
833.714	2754
833.852	2735
833.991	2769
834.129	2838
834.267	2849
834.406	2811
834.544	2876
834.682	2876
834.821	2845
834.959	3100
835.097	2906
835.235	3077
835.373	3013
835.511	3032
835.65	2929
835.788	2922
835.926	2807
836.064	2792
836.202	2823
836.34	3104
836.478	3123
836.615	3039
836.753	3154
836.891	3214
837.029	3157
837.167	3104
837.305	3081
837.443	3070
837.58	2944
837.718	3131
837.856	3116
837.993	3028
838.131	3100
838.269	3135
838.406	3100
838.544	3104
838.681	2918
838.819	2914
838.956	2800
839.094	2826
839.231	2868
839.369	3017
839.506	3336
839.643	3188
839.781	3036
839.918	2971
840.055	3062
840.193	3036
840.33	3062
840.467	3070
840.604	3142
840.742	3447
840.879	3058
841.016	3051
841.153	3131
841.29	3336
841.427	3294
841.564	3272
841.701	3317
841.838	3222
841.975	3150
842.112	3260
842.249	3051
842.385	3074
842.522	3226
842.659	3085
842.796	3051
842.933	3112
843.069	3036
843.206	3036
843.343	3161
843.479	3089
843.616	3146
843.752	2857
843.889	2899
844.025	3097
844.162	2910
844.298	3085
844.435	2906
844.571	2914
844.708	3043
844.844	3142
844.98	3230
845.117	3188
845.253	3020
845.389	2956
845.525	3100
845.661	3062
845.798	3020
845.934	3108
846.07	3070
846.206	3203
846.342	3332
846.478	3260
846.614	3066
846.75	3058
846.886	3017
847.022	3249
847.158	3116
847.294	3214
847.429	3218
847.565	3180
847.701	3473
847.837	3028
847.972	2994
848.108	3142
848.244	3157
848.379	3001
848.515	2941
848.65	2925
848.786	2979
848.921	3013
849.057	3085
849.192	3112
849.328	3058
849.463	3070
849.598	3108
849.734	3013
849.869	2979
850.004	2868
850.14	3001
850.275	2891
850.41	2849
850.545	2906
850.68	2918
850.815	2990
850.95	2979
851.085	3165
851.22	3131
851.355	3036
851.49	2963
851.625	2982
851.76	3009
851.895	2925
852.03	2902
852.165	3028
852.299	3104
852.434	3222
852.569	3138
852.703	3135
852.838	3230
852.973	3344
853.107	3325
853.242	3142
853.376	3047
853.511	2963
853.645	3001
853.78	3260
853.914	3135
854.048	3119
854.183	3085
854.317	3100
854.451	3294
854.585	3100
854.72	3093
854.854	3192
854.988	2998
855.122	3055
855.256	2937
855.39	3085
855.524	3203
855.658	3173
855.792	3169
855.926	3173
856.06	3203
856.194	3249
856.327	3135
856.461	3032
856.595	3070
856.729	3085
856.862	3188
856.996	3154
857.13	3173
857.263	3214
857.397	3294
857.53	3138
857.664	3214
857.797	3222
857.931	3230
858.064	3150
858.197	3218
858.331	3127
858.464	3085
858.597	2994
858.731	3100
858.864	3104
858.997	3062
859.13	3142
859.263	3184
859.396	3207
859.529	3062
859.662	3081
859.795	3009
859.928	3138
860.061	3279
860.194	3272
860.327	3131
860.46	3074
860.592	3222
860.725	3230
860.858	3272
860.99	3093
861.123	3020
861.256	3028
861.388	3097
861.521	3869
861.653	2998
861.786	2975
861.918	2998
862.05	3085
862.183	3093
862.315	3165
862.447	3192
862.58	3070
862.712	2960
862.844	2864
862.976	3013
863.108	2975
863.24	3310
863.372	2857
863.504	2960
863.636	2967
863.768	3009
863.9	2937
864.032	2906
864.164	2960
864.296	2982
864.428	3100
864.559	3066
864.691	3066
864.823	3085
864.954	3005
865.086	3055
865.217	2975
865.349	2937
865.48	2979
865.612	3032
865.743	3142
865.875	2998
866.006	2922
866.137	2982
866.269	2952
866.4	2963
866.531	2906
866.662	2883
866.793	2922
866.924	2914
867.055	2982
867.186	2963
867.317	2902
867.448	2861
867.579	2899
867.71	2872
867.841	2823
867.972	2937
868.103	2941
868.233	2891
868.364	2861
868.495	2918
868.625	3100
868.756	3211
868.886	2971
869.017	3058
869.147	3184
869.278	3195
869.408	3100
869.539	3074
869.669	3104
869.799	3070
869.929	3176
870.06	3161
870.19	3382
870.32	3340
870.45	3325
870.58	3405
870.71	3485
870.84	3431
870.97	3321
871.1	3268
871.23	3523
871.36	3443
871.489	3389
871.619	3443
871.749	3431
871.879	3500
872.008	3534
872.138	3386
872.267	3317
872.397	3161
872.526	3127
872.656	3055
872.785	3131
872.915	3256
873.044	3348
873.173	3253
873.303	3294
873.432	3283
873.561	3275
873.69	3203
873.819	3176
873.948	3241
874.077	3169
874.206	3097
874.335	3123
874.464	3256
874.593	3393
874.722	3294
874.851	3469
874.979	3378
875.108	3378
875.237	3291
875.365	3249
875.494	3188
875.623	3264
875.751	3127
875.88	3138
876.008	3203
876.136	3272
876.265	3420
876.393	3538
876.521	3454
876.65	3424
876.778	3424
876.906	3298
877.034	3233
877.162	3291
877.29	3226
877.418	3260
877.546	3294
877.674	3275
877.802	3291
877.93	3253
878.058	3173
878.185	3104
878.313	3260
878.441	3253
878.568	3116
878.696	3169
878.824	3291
878.951	3329
879.079	3469
879.206	3656
879.333	3466
879.461	3378
879.588	3389
879.715	3519
879.842	3656
879.97	3462
880.097	3245
880.224	3173
880.351	3207
880.478	3272
880.605	3226
880.732	3222
880.859	3515
880.986	3359
881.112	3359
881.239	3230
881.366	3093
881.493	3055
881.619	3081
881.746	3093
881.872	3119
881.999	3123
882.125	3176
882.252	3302
882.378	3306
882.505	3473
882.631	3325
882.757	3199
882.883	3260
883.01	3264
883.136	3184
883.262	3131
883.388	3146
883.514	3329
883.64	3389
883.766	3355
883.892	3249
884.018	3310
884.143	3412
884.269	3584
884.395	3241
884.52	3192
884.646	3184
884.772	3169
884.897	3135
885.023	3195
885.148	3348
885.274	3435
885.399	3412
885.524	3302
885.65	3287
885.775	3340
885.9	3329
886.025	3454
886.15	3405
886.275	3321
886.4	3256
886.525	3336
886.65	3348
886.775	3310
886.9	3534
887.025	3690
887.149	3416
887.274	3260
887.399	3207
887.523	3237
887.648	3211
887.773	3226
887.897	3454
888.021	3443
888.146	3310
888.27	3447
888.395	3534
888.519	3454
888.643	3500
888.767	3534
888.891	3378
889.015	3272
889.139	3382
889.263	3279
889.387	3435
889.511	3561
889.635	3511
889.759	3325
889.883	3348
890.006	3428
890.13	3515
890.254	3317
890.377	3336
890.501	3256
890.624	3203
890.748	3310
890.871	3214
890.995	3157
891.118	3119
891.241	3241
891.364	3264
891.488	3336
891.611	3218
891.734	3230
891.857	3321
891.98	3268
892.103	3397
892.226	3283
892.349	3241
892.471	3150
892.594	3313
892.717	3317
892.839	3294
892.962	3355
893.085	3447
893.207	3351
893.33	3199
893.452	3272
893.575	3355
893.697	3291
893.819	3488
893.941	3504
894.064	3492
894.186	3256
894.308	3298
894.43	3443
894.552	3557
894.674	3500
894.796	3325
894.918	3348
895.04	3329
895.161	3458
895.283	3435
895.405	3386
895.526	3405
895.648	3469
895.769	3477
895.891	3507
896.012	3504
896.134	3477
896.255	3462
896.376	3424
896.498	3351
896.619	3443
896.74	3382
896.861	3443
896.982	3751
897.103	3915
897.224	3644
897.345	3549
897.466	3435
897.587	3504
897.708	3686
897.828	3580
897.949	3473
898.07	3359
898.19	3439
898.311	3641
898.431	3507
898.552	3580
898.672	3618
898.792	3591
898.913	3568
899.033	3492
899.153	3332
899.273	3272
899.393	3313
899.513	3351
899.633	3344
899.753	3348
899.873	3367
899.993	3409
900.113	3374
900.232	3473
900.352	3382
900.472	3344
900.591	3249
900.711	3336
900.83	3313
900.95	3454
901.069	3515
901.189	3355
901.308	3207
901.427	3154
901.546	3237
901.665	3306
901.784	3367
901.904	3203
902.023	3188
902.141	3028
902.26	3005
902.379	3180
902.498	3066
902.617	3081
902.735	3222
902.854	3249
902.973	3222
903.091	3104
903.21	3089
903.328	3192
903.446	3119
903.565	3161
903.683	3230
903.801	3180
903.919	3291
904.038	3302
904.156	3180
904.274	3306
904.392	3272
904.51	3283
904.627	3336
904.745	3443
904.863	3488
904.981	3287
905.098	3218
905.216	3275
905.334	3302
905.451	3310
905.569	3374
905.686	3477
905.803	3435
905.921	3310
906.038	3469
906.155	3420
906.272	3291
906.389	3382
906.506	3245
906.623	3336
906.74	3310
906.857	3188
906.974	3283
907.091	3431
907.208	3610
907.324	3519
907.441	3420
907.557	3264
907.674	3256
907.79	3253
907.907	3340
908.023	3382
908.139	3428
908.256	3325
908.372	3420
908.488	3389
908.604	3325
908.72	3245
908.836	3283
908.952	3287
909.068	3367
909.184	3519
909.3	3401
909.415	3515
909.531	3515
909.647	3298
909.762	3298
909.878	3306
909.993	3409
910.108	3329
910.224	3378
910.339	3401
910.454	3409
910.57	3348
910.685	3264
910.8	3622
910.915	3564
911.03	3462
911.145	3306
911.259	3294
911.374	3344
911.489	3272
911.604	3279
911.718	3180
911.833	3154
911.947	3074
912.062	3005
912.176	3192
912.291	3218
912.405	3214
912.519	3458
912.633	3481
912.748	3363
912.862	3294
912.976	3230
913.09	3112
913.204	3173
913.318	3199
913.431	3359
913.545	3355
913.659	3450
913.772	3370
913.886	3245
914	3237
914.113	3382
914.226	3420
914.34	3416
914.453	3222
914.566	3447
914.68	3329
914.793	3351
914.906	3169
915.019	3146
915.132	3127
915.245	3218
915.358	3268
915.47	3260
915.583	3272
915.696	3355
915.809	3435
915.921	3469
916.034	3256
916.146	3298
916.259	3275
916.371	3424
916.483	3420
916.595	3253
916.708	3405
916.82	3355
916.932	3340
917.044	3378
917.156	3374
917.268	3275
917.38	3298
917.491	3325
917.603	3370
917.715	3462
917.826	3469
917.938	3405
918.049	3310
918.161	3466
918.272	3587
918.384	3595
918.495	3515
918.606	3351
918.717	3325
918.828	3416
918.939	3405
919.05	3313
919.161	3397
919.272	3214
919.383	3340
919.494	3564
919.604	3709
919.715	3515
919.826	3412
919.936	3454
920.047	3595
920.157	3572
920.267	3774
920.378	3648
920.488	3549
920.598	3800
920.708	3964
920.818	3865
920.928	3850
921.038	4071
921.148	4021
921.258	3713
921.368	3663
921.477	3599
921.587	3545
921.697	3507
921.806	3629
921.916	3545
922.025	3378
922.134	3401
922.244	3389
922.353	3431
922.462	3272
922.571	3249
922.68	3131
922.789	3116
922.898	3173
923.007	3089
923.116	3279
923.224	3192
923.333	3233
923.442	3100
923.55	3127
923.659	3169
923.767	3253
923.876	3154
923.984	3245
924.092	3108
924.201	3207
924.309	3218
924.417	3241
924.525	3264
924.633	3256
924.741	4166
924.849	3077
924.956	3268
925.064	3093
925.172	3104
925.279	3100
925.387	3233
925.494	3218
925.602	3374
925.709	3351
925.816	3203
925.924	3291
926.031	3412
926.138	3329
926.245	3378
926.352	3264
926.459	3424
926.566	3500
926.673	3374
926.779	3287
926.886	3249
926.993	3199
927.099	3169
927.206	3089
927.312	3138
927.419	3245
927.525	3195
927.631	3272
927.737	3161
927.843	3157
927.95	2990
928.056	3157
928.162	3230
928.267	3264
928.373	3937
928.479	3298
928.585	3100
928.69	3241
928.796	3310
928.901	3169
929.007	3055
929.112	3214
929.218	3207
929.323	3192
929.428	3203
929.533	3329
929.638	3123
929.743	3157
929.848	3241
929.953	3222
930.058	3157
930.163	2982
930.267	3047
930.372	3214
930.477	3066
930.581	3348
930.685	3184
930.79	3077
930.894	3108
930.998	3100
931.103	3253
931.207	2963
931.311	2975
931.415	2925
931.519	2804
931.623	2819
