Data from test_V78500241_1752.txt Node
Date: Fri Mar 25 16:27:20 CST 2022
User: usil
Spectrometer: V785-0024
Trigger mode: 0
Integration Time (sec): 4.000000E-1
Scans to average: 1
Nonlinearity correction enabled: false
Boxcar width: 0
Storing dark spectrum: false
XAxis mode: Wavelengths
Number of Pixels in Spectrum: 1024
>>>>>Begin Spectral Data<<<<<
801.071	2922
801.214	2975
801.356	2910
801.499	2895
801.641	2918
801.783	3005
801.926	3085
802.068	2990
802.211	3017
802.353	3062
802.496	2971
802.638	3047
802.78	3062
802.923	3081
803.065	3020
803.208	2899
803.35	2956
803.492	2967
803.635	2956
803.777	2758
803.919	2914
804.061	3226
804.204	2956
804.346	2910
804.488	2849
804.63	3005
804.773	2906
804.915	2929
805.057	3074
805.199	2956
805.341	3009
805.483	3081
805.626	3009
805.768	2975
805.91	3104
806.052	3138
806.194	3043
806.336	3256
806.478	3013
806.62	2986
806.762	2956
806.904	3058
807.046	3173
807.188	2994
807.33	2979
807.472	2998
807.614	2918
807.756	3001
807.898	2990
808.04	2910
808.182	3017
808.324	2948
808.465	2861
808.607	2891
808.749	2830
808.891	2842
809.033	2986
809.174	2960
809.316	2952
809.458	2895
809.6	2769
809.741	2777
809.883	2785
810.025	2872
810.166	2883
810.308	2861
810.45	2872
810.591	2807
810.733	2769
810.875	2857
811.016	2792
811.158	2785
811.299	2830
811.441	2948
811.582	2887
811.724	2857
811.865	2834
812.007	2906
812.148	2902
812.29	2880
812.431	2933
812.573	2933
812.714	2967
812.855	3062
812.997	3097
813.138	3127
813.279	3009
813.421	2998
813.562	2982
813.703	2918
813.845	2899
813.986	2777
814.127	2769
814.268	2826
814.41	2853
814.551	2849
814.692	2849
814.833	2845
814.974	2899
815.115	2994
815.256	2838
815.397	2804
815.539	2864
815.68	2796
815.821	2792
815.962	2925
816.103	2906
816.244	2857
816.385	2887
816.526	2979
816.666	2910
816.807	2739
816.948	2899
817.089	2929
817.23	2845
817.371	2785
817.512	2792
817.653	2826
817.793	2792
817.934	2868
818.075	2967
818.216	3036
818.356	3043
818.497	2899
818.638	2792
818.778	2849
818.919	2807
819.06	2773
819.2	2864
819.341	2785
819.481	2826
819.622	2956
819.762	3108
819.903	3032
820.043	2960
820.184	2948
820.324	2925
820.465	2994
820.605	3013
820.746	3020
820.886	2933
821.026	3119
821.167	3188
821.307	3283
821.447	3310
821.588	3249
821.728	3222
821.868	3169
822.008	3097
822.149	3203
822.289	3230
822.429	3131
822.569	3100
822.709	3241
822.849	3077
822.99	3070
823.13	3169
823.27	3214
823.41	3119
823.55	3176
823.69	3192
823.83	3233
823.97	3127
824.11	3028
824.25	2990
824.389	3077
824.529	3116
824.669	3066
824.809	3203
824.949	3275
825.089	3207
825.228	3180
825.368	3028
825.508	2975
825.648	2986
825.787	3005
825.927	3039
826.067	2971
826.206	2986
826.346	3058
826.485	3062
826.625	3112
826.765	3283
826.904	3264
827.044	3005
827.183	2944
827.323	2883
827.462	3009
827.601	2872
827.741	2929
827.88	2941
828.02	2872
828.159	2960
828.298	3009
828.437	3104
828.577	3039
828.716	3249
828.855	3043
828.994	2918
829.134	2918
829.273	2922
829.412	2902
829.551	2838
829.69	2861
829.829	2960
829.968	3116
830.107	3024
830.246	3024
830.385	2937
830.524	2899
830.663	2830
830.802	2739
830.941	2636
831.08	2632
831.219	2777
831.357	2777
831.496	2982
831.635	2739
831.774	2655
831.913	2670
832.051	2530
832.19	2606
832.329	2689
832.467	2545
832.606	2499
832.744	2587
832.883	2598
833.022	2564
833.16	2659
833.299	2682
833.437	2724
833.576	2731
833.714	2754
833.852	2735
833.991	2769
834.129	2842
834.267	2861
834.406	2800
834.544	2861
834.682	2891
834.821	2891
834.959	3089
835.097	2891
835.235	3070
835.373	2963
835.511	2998
835.65	2956
835.788	2929
835.926	2842
836.064	2785
836.202	2849
836.34	3097
836.478	3119
836.615	3043
836.753	3165
836.891	3264
837.029	3135
837.167	3104
837.305	3051
837.443	3062
837.58	2967
837.718	3161
837.856	3089
837.993	3047
838.131	3135
838.269	3123
838.406	3100
838.544	3070
838.681	2971
838.819	2910
838.956	2800
839.094	2838
839.231	2929
839.369	3005
839.506	3405
839.643	3218
839.781	3043
839.918	2979
840.055	3074
840.193	3036
840.33	3070
840.467	3116
840.604	3165
840.742	3389
840.879	3055
841.016	3081
841.153	3123
841.29	3291
841.427	3279
841.564	3287
841.701	3306
841.838	3203
841.975	3180
842.112	3241
842.249	3066
842.385	3013
842.522	3233
842.659	3146
842.796	3074
842.933	3081
843.069	3028
843.206	3058
843.343	3176
843.479	3138
843.616	3154
843.752	2899
843.889	2849
844.025	3066
844.162	2902
844.298	3074
844.435	2952
844.571	2910
844.708	3062
844.844	3203
844.98	3218
845.117	3173
845.253	3062
845.389	3028
845.525	3070
845.661	3116
845.798	3024
845.934	3142
846.07	3074
846.206	3226
846.342	3306
846.478	3268
846.614	3100
846.75	3055
846.886	2982
847.022	3214
847.158	3146
847.294	3188
847.429	3241
847.565	3211
847.701	3458
847.837	3024
847.972	3005
848.108	3176
848.244	3176
848.379	3001
848.515	2944
848.65	2925
848.786	2975
848.921	3009
849.057	3127
849.192	3176
849.328	3066
849.463	3119
849.598	3058
849.734	3036
849.869	2971
850.004	2925
850.14	2952
850.275	2937
850.41	2864
850.545	2914
850.68	2948
850.815	2910
850.95	2994
851.085	3161
851.22	3093
851.355	3039
851.49	3001
851.625	2998
851.76	3036
851.895	2918
852.03	2895
852.165	3062
852.299	3123
852.434	3188
852.569	3169
852.703	3192
852.838	3272
852.973	3348
853.107	3325
853.242	3157
853.376	3097
853.511	2937
853.645	3051
853.78	3237
853.914	3093
854.048	3097
854.183	3093
854.317	3127
854.451	3291
854.585	3161
854.72	3100
854.854	3207
854.988	3089
855.122	3097
855.256	2948
855.39	3127
855.524	3241
855.658	3138
855.792	3154
855.926	3192
856.06	3214
856.194	3264
856.327	3146
856.461	3085
856.595	3074
856.729	3089
856.862	3260
856.996	3192
857.13	3188
857.263	3180
857.397	3260
857.53	3097
857.664	3211
857.797	3264
857.931	3256
858.064	3161
858.197	3253
858.331	3112
858.464	3093
858.597	2998
858.731	3127
858.864	3100
858.997	3085
859.13	3154
859.263	3180
859.396	3214
859.529	3070
859.662	3066
859.795	3013
859.928	3157
860.061	3279
860.194	3283
860.327	3135
860.46	3097
860.592	3237
860.725	3253
860.858	3283
860.99	3127
861.123	3036
861.256	3047
861.388	3154
861.521	3998
861.653	3005
861.786	2982
861.918	3009
862.05	3074
862.183	3081
862.315	3161
862.447	3199
862.58	3097
862.712	2937
862.844	2861
862.976	3005
863.108	2952
863.24	3344
863.372	2872
863.504	2986
863.636	2933
863.768	3032
863.9	2963
864.032	2967
864.164	2952
864.296	3024
864.428	3077
864.559	3055
864.691	3047
864.823	3081
864.954	3047
865.086	3074
865.217	3009
865.349	2952
865.48	2960
865.612	3017
865.743	3119
865.875	3013
866.006	2937
866.137	2971
866.269	2937
866.4	2933
866.531	2944
866.662	2864
866.793	2849
866.924	2906
867.055	3001
867.186	2933
867.317	2868
867.448	2853
867.579	2823
867.71	2853
867.841	2823
867.972	2895
868.103	2887
868.233	2914
868.364	2899
868.495	2918
868.625	3058
868.756	3176
868.886	2975
869.017	3005
869.147	3135
869.278	3184
869.408	3032
869.539	3028
869.669	3058
869.799	3043
869.929	3161
870.06	3085
870.19	3321
870.32	3287
870.45	3287
870.58	3386
870.71	3439
870.84	3466
870.97	3298
871.1	3253
871.23	3473
871.36	3485
871.489	3344
871.619	3393
871.749	3428
871.879	3443
872.008	3481
872.138	3405
872.267	3260
872.397	3138
872.526	3081
872.656	3001
872.785	3085
872.915	3192
873.044	3317
873.173	3184
873.303	3260
873.432	3256
873.561	3237
873.69	3176
873.819	3123
873.948	3173
874.077	3108
874.206	3085
874.335	3127
874.464	3203
874.593	3351
874.722	3260
874.851	3378
874.979	3321
875.108	3256
875.237	3161
875.365	3161
875.494	3180
875.623	3245
875.751	3077
875.88	3104
876.008	3176
876.136	3245
876.265	3344
876.393	3523
876.521	3450
876.65	3416
876.778	3363
876.906	3249
877.034	3203
877.162	3214
877.29	3203
877.418	3222
877.546	3203
877.674	3237
877.802	3211
877.93	3222
878.058	3146
878.185	3108
878.313	3203
878.441	3173
878.568	3047
878.696	3165
878.824	3275
878.951	3283
879.079	3447
879.206	3641
879.333	3447
879.461	3317
879.588	3321
879.715	3477
879.842	3625
879.97	3397
880.097	3157
880.224	3127
880.351	3195
880.478	3222
880.605	3237
880.732	3211
880.859	3458
880.986	3268
881.112	3344
881.239	3188
881.366	3066
881.493	3089
881.619	3013
881.746	3089
881.872	3081
881.999	3089
882.125	3146
882.252	3272
882.378	3253
882.505	3424
882.631	3302
882.757	3142
882.883	3211
883.01	3195
883.136	3119
883.262	3104
883.388	3116
883.514	3294
883.64	3367
883.766	3317
883.892	3180
884.018	3214
884.143	3439
884.269	3542
884.395	3214
884.52	3169
884.646	3203
884.772	3097
884.897	3097
885.023	3180
885.148	3329
885.274	3420
885.399	3351
885.524	3291
885.65	3211
885.775	3325
885.9	3306
886.025	3412
886.15	3370
886.275	3306
886.4	3245
886.525	3287
886.65	3272
886.775	3294
886.9	3469
887.025	3614
887.149	3428
887.274	3272
887.399	3233
887.523	3184
887.648	3195
887.773	3192
887.897	3370
888.021	3409
888.146	3279
888.27	3412
888.395	3530
888.519	3412
888.643	3409
888.767	3424
888.891	3329
889.015	3222
889.139	3279
889.263	3268
889.387	3386
889.511	3538
889.635	3435
889.759	3306
889.883	3317
890.006	3374
890.13	3473
890.254	3264
890.377	3374
890.501	3237
890.624	3165
890.748	3306
890.871	3211
890.995	3058
891.118	3081
891.241	3146
891.364	3203
891.488	3306
891.611	3169
891.734	3264
891.857	3245
891.98	3241
892.103	3336
892.226	3298
892.349	3195
892.471	3081
892.594	3207
892.717	3317
892.839	3241
892.962	3294
893.085	3310
893.207	3298
893.33	3135
893.452	3214
893.575	3291
893.697	3237
893.819	3447
893.941	3557
894.064	3447
894.186	3279
894.308	3256
894.43	3466
894.552	3557
894.674	3454
894.796	3321
894.918	3275
895.04	3283
895.161	3412
895.283	3405
895.405	3298
895.526	3340
895.648	3420
895.769	3401
895.891	3454
896.012	3424
896.134	3458
896.255	3393
896.376	3374
896.498	3378
896.619	3386
896.74	3336
896.861	3416
896.982	3713
897.103	3804
897.224	3584
897.345	3507
897.466	3439
897.587	3492
897.708	3633
897.828	3576
897.949	3389
898.07	3306
898.19	3431
898.311	3584
898.431	3439
898.552	3519
898.672	3542
898.792	3530
898.913	3428
899.033	3386
899.153	3291
899.273	3214
899.393	3245
899.513	3283
899.633	3351
899.753	3306
899.873	3298
899.993	3424
900.113	3306
900.232	3389
900.352	3283
900.472	3279
900.591	3199
900.711	3218
900.83	3226
900.95	3420
901.069	3473
901.189	3359
901.308	3165
901.427	3104
901.546	3169
901.665	3302
901.784	3367
901.904	3188
902.023	3154
902.141	3070
902.26	3013
902.379	3131
902.498	3116
902.617	3036
902.735	3180
902.854	3245
902.973	3165
903.091	3036
903.21	3062
903.328	3138
903.446	3123
903.565	3112
903.683	3188
903.801	3127
903.919	3249
904.038	3287
904.156	3131
904.274	3287
904.392	3233
904.51	3233
904.627	3332
904.745	3439
904.863	3507
904.981	3245
905.098	3142
905.216	3237
905.334	3268
905.451	3336
905.569	3310
905.686	3393
905.803	3488
905.921	3279
906.038	3428
906.155	3340
906.272	3264
906.389	3317
906.506	3233
906.623	3256
906.74	3253
906.857	3184
906.974	3264
907.091	3420
907.208	3538
907.324	3454
907.441	3378
907.557	3226
907.674	3207
907.79	3222
907.907	3268
908.023	3359
908.139	3386
908.256	3329
908.372	3370
908.488	3310
908.604	3245
908.72	3237
908.836	3245
908.952	3310
909.068	3344
909.184	3481
909.3	3397
909.415	3466
909.531	3450
909.647	3233
909.762	3294
909.878	3249
909.993	3370
910.108	3310
910.224	3336
910.339	3435
910.454	3332
910.57	3336
910.685	3241
910.8	3599
910.915	3534
911.03	3412
911.145	3268
911.259	3275
911.374	3287
911.489	3188
911.604	3218
911.718	3089
911.833	3157
911.947	3005
912.062	3001
912.176	3165
912.291	3192
912.405	3218
912.519	3435
912.633	3481
912.748	3317
912.862	3272
912.976	3131
913.09	3062
913.204	3142
913.318	3211
913.431	3363
913.545	3355
913.659	3409
913.772	3332
913.886	3233
914	3203
914.113	3359
914.226	3386
914.34	3355
914.453	3222
914.566	3389
914.68	3272
914.793	3321
914.906	3127
915.019	3138
915.132	3058
915.245	3192
915.358	3203
915.47	3256
915.583	3275
915.696	3287
915.809	3401
915.921	3397
916.034	3249
916.146	3230
916.259	3214
916.371	3393
916.483	3348
916.595	3279
916.708	3370
916.82	3336
916.932	3359
917.044	3306
917.156	3370
917.268	3211
917.38	3298
917.491	3294
917.603	3336
917.715	3443
917.826	3462
917.938	3370
918.049	3260
918.161	3458
918.272	3587
918.384	3572
918.495	3454
918.606	3298
918.717	3260
918.828	3367
918.939	3458
919.05	3294
919.161	3370
919.272	3180
919.383	3264
919.494	3473
919.604	3656
919.715	3450
919.826	3393
919.936	3469
920.047	3625
920.157	3572
920.267	3740
920.378	3557
920.488	3542
920.598	3785
920.708	3964
920.818	3846
920.928	3812
921.038	4021
921.148	3983
921.258	3686
921.368	3633
921.477	3568
921.587	3549
921.697	3477
921.806	3614
921.916	3553
922.025	3378
922.134	3313
922.244	3332
922.353	3431
922.462	3294
922.571	3237
922.68	3093
922.789	3074
922.898	3154
923.007	3123
923.116	3211
923.224	3165
923.333	3173
923.442	3081
923.55	3047
923.659	3135
923.767	3222
923.876	3142
923.984	3214
924.092	3097
924.201	3195
924.309	3222
924.417	3241
924.525	3192
924.633	3211
924.741	4025
924.849	3043
924.956	3264
925.064	3066
925.172	3051
925.279	3116
925.387	3199
925.494	3203
925.602	3313
925.709	3313
925.816	3184
925.924	3298
926.031	3386
926.138	3313
926.245	3393
926.352	3233
926.459	3397
926.566	3450
926.673	3344
926.779	3237
926.886	3253
926.993	3154
927.099	3146
927.206	3131
927.312	3097
927.419	3207
927.525	3180
927.631	3287
927.737	3127
927.843	3104
927.95	3032
928.056	3127
928.162	3173
928.267	3264
928.373	3911
928.479	3317
928.585	3055
928.69	3180
928.796	3313
928.901	3180
929.007	3074
929.112	3211
929.218	3188
929.323	3180
929.428	3169
929.533	3294
929.638	3112
929.743	3195
929.848	3249
929.953	3214
930.058	3161
930.163	2986
930.267	3055
930.372	3192
930.477	3058
930.581	3310
930.685	3165
930.79	3036
930.894	3112
930.998	3116
931.103	3245
931.207	2994
931.311	2944
931.415	2914
931.519	2781
931.623	2819
