Data from test_V78500241_360.txt Node
Date: Fri Mar 25 16:17:41 CST 2022
User: usil
Spectrometer: V785-0024
Trigger mode: 0
Integration Time (sec): 4.000000E-1
Scans to average: 1
Nonlinearity correction enabled: false
Boxcar width: 0
Storing dark spectrum: false
XAxis mode: Wavelengths
Number of Pixels in Spectrum: 1024
>>>>>Begin Spectral Data<<<<<
801.071	2914
801.214	2933
801.356	2899
801.499	2952
801.641	2891
801.783	2971
801.926	3005
802.068	3001
802.211	3036
802.353	3051
802.496	2967
802.638	3017
802.78	3100
802.923	3100
803.065	3047
803.208	2918
803.35	2922
803.492	3001
803.635	2963
803.777	2796
803.919	2906
804.061	3264
804.204	2971
804.346	2948
804.488	2872
804.63	2975
804.773	2834
804.915	2956
805.057	3135
805.199	2933
805.341	3009
805.483	3062
805.626	3036
805.768	2979
805.91	3051
806.052	3119
806.194	3028
806.336	3233
806.478	3047
806.62	2975
806.762	3005
806.904	3081
807.046	3154
807.188	2979
807.33	2918
807.472	3001
807.614	2906
807.756	2998
807.898	2902
808.04	2880
808.182	2963
808.324	2956
808.465	2899
808.607	2929
808.749	2811
808.891	2823
809.033	2960
809.174	2956
809.316	2872
809.458	2925
809.6	2830
809.741	2773
809.883	2758
810.025	2861
810.166	2842
810.308	2826
810.45	2845
810.591	2804
810.733	2777
810.875	2857
811.016	2769
811.158	2746
811.299	2845
811.441	2929
811.582	2880
811.724	2838
811.865	2826
812.007	2944
812.148	2895
812.29	2849
812.431	2895
812.573	2910
812.714	2960
812.855	3036
812.997	3077
813.138	3100
813.279	2975
813.421	2967
813.562	2960
813.703	2887
813.845	2895
813.986	2800
814.127	2743
814.268	2861
814.41	2914
814.551	2830
814.692	2891
814.833	2785
814.974	2876
815.115	2971
815.256	2861
815.397	2823
815.539	2876
815.68	2758
815.821	2796
815.962	2979
816.103	2944
816.244	2899
816.385	2891
816.526	2979
816.666	2922
816.807	2746
816.948	2883
817.089	2910
817.23	2876
817.371	2845
817.512	2777
817.653	2845
817.793	2849
817.934	2895
818.075	2944
818.216	2960
818.356	3001
818.497	2902
818.638	2804
818.778	2834
818.919	2785
819.06	2762
819.2	2887
819.341	2826
819.481	2796
819.622	2960
819.762	3081
819.903	3074
820.043	2982
820.184	2876
820.324	2864
820.465	3036
820.605	2998
820.746	3039
820.886	2952
821.026	3135
821.167	3157
821.307	3268
821.447	3294
821.588	3233
821.728	3195
821.868	3222
822.008	3089
822.149	3176
822.289	3233
822.429	3093
822.569	3081
822.709	3154
822.849	3043
822.99	3043
823.13	3165
823.27	3214
823.41	3119
823.55	3188
823.69	3138
823.83	3199
823.97	3070
824.11	3058
824.25	2994
824.389	3100
824.529	3112
824.669	3081
824.809	3203
824.949	3230
825.089	3233
825.228	3154
825.368	2986
825.508	2948
825.648	2982
825.787	2998
825.927	3028
826.067	2960
826.206	2960
826.346	3051
826.485	3100
826.625	3123
826.765	3302
826.904	3214
827.044	2967
827.183	2944
827.323	2887
827.462	2956
827.601	2925
827.741	2941
827.88	2941
828.02	2834
828.159	2960
828.298	3066
828.437	3108
828.577	3051
828.716	3245
828.855	3104
828.994	2899
829.134	2891
829.273	2929
829.412	2895
829.551	2906
829.69	2914
829.829	2956
829.968	3100
830.107	3009
830.246	3001
830.385	2918
830.524	2906
830.663	2792
830.802	2735
830.941	2644
831.08	2659
831.219	2712
831.357	2823
831.496	2944
831.635	2716
831.774	2629
831.913	2663
832.051	2545
832.19	2587
832.329	2686
832.467	2533
832.606	2507
832.744	2579
832.883	2568
833.022	2590
833.16	2678
833.299	2682
833.437	2678
833.576	2705
833.714	2727
833.852	2731
833.991	2769
834.129	2838
834.267	2800
834.406	2777
834.544	2902
834.682	2902
834.821	2857
834.959	3093
835.097	2891
835.235	3062
835.373	2963
835.511	3036
835.65	2922
835.788	2948
835.926	2830
836.064	2838
836.202	2819
836.34	3089
836.478	3135
836.615	3020
836.753	3127
836.891	3207
837.029	3169
837.167	3135
837.305	3055
837.443	3039
837.58	2960
837.718	3093
837.856	3043
837.993	3039
838.131	3119
838.269	3070
838.406	3100
838.544	3051
838.681	2960
838.819	2929
838.956	2819
839.094	2842
839.231	2929
839.369	2975
839.506	3409
839.643	3237
839.781	3013
839.918	2963
840.055	3028
840.193	3028
840.33	3039
840.467	3104
840.604	3119
840.742	3428
840.879	3058
841.016	3055
841.153	3112
841.29	3351
841.427	3310
841.564	3253
841.701	3310
841.838	3241
841.975	3161
842.112	3203
842.249	3077
842.385	3062
842.522	3268
842.659	3100
842.796	3055
842.933	3100
843.069	3017
843.206	3036
843.343	3154
843.479	3051
843.616	3157
843.752	2880
843.889	2868
844.025	3097
844.162	2910
844.298	3032
844.435	2990
844.571	2925
844.708	3104
844.844	3218
844.98	3241
845.117	3180
845.253	3024
845.389	3009
845.525	3138
845.661	3097
845.798	3028
845.934	3104
846.07	3036
846.206	3241
846.342	3279
846.478	3192
846.614	3070
846.75	3028
846.886	3020
847.022	3237
847.158	3150
847.294	3218
847.429	3253
847.565	3176
847.701	3492
847.837	3017
847.972	3028
848.108	3169
848.244	3104
848.379	2998
848.515	2960
848.65	2902
848.786	2956
848.921	2998
849.057	3100
849.192	3150
849.328	3039
849.463	3112
849.598	3036
849.734	3028
849.869	2982
850.004	2948
850.14	2948
850.275	2918
850.41	2849
850.545	2895
850.68	2914
850.815	2960
850.95	2971
851.085	3188
851.22	3123
851.355	3017
851.49	2941
851.625	3036
851.76	3005
851.895	2948
852.03	2891
852.165	3039
852.299	3108
852.434	3195
852.569	3154
852.703	3173
852.838	3233
852.973	3329
853.107	3325
853.242	3146
853.376	3074
853.511	2937
853.645	3020
853.78	3233
853.914	3138
854.048	3112
854.183	3085
854.317	3180
854.451	3275
854.585	3100
854.72	3089
854.854	3188
854.988	3028
855.122	3089
855.256	2956
855.39	3123
855.524	3287
855.658	3142
855.792	3180
855.926	3256
856.06	3237
856.194	3268
856.327	3150
856.461	3039
856.595	3058
856.729	3066
856.862	3207
856.996	3131
857.13	3176
857.263	3260
857.397	3275
857.53	3097
857.664	3180
857.797	3264
857.931	3218
858.064	3165
858.197	3230
858.331	3131
858.464	3085
858.597	2967
858.731	3112
858.864	3085
858.997	3100
859.13	3138
859.263	3207
859.396	3188
859.529	3100
859.662	3055
859.795	3028
859.928	3119
860.061	3306
860.194	3256
860.327	3116
860.46	3097
860.592	3241
860.725	3241
860.858	3237
860.99	3100
861.123	3039
861.256	3039
861.388	3104
861.521	3705
861.653	3028
861.786	2982
861.918	3005
862.05	3032
862.183	3100
862.315	3150
862.447	3222
862.58	3104
862.712	2960
862.844	2891
862.976	3036
863.108	3024
863.24	3409
863.372	2899
863.504	2956
863.636	2975
863.768	3013
863.9	2975
864.032	2948
864.164	2975
864.296	3024
864.428	3123
864.559	3066
864.691	3070
864.823	3047
864.954	3039
865.086	3062
865.217	2937
865.349	2906
865.48	2952
865.612	3077
865.743	3157
865.875	2963
866.006	2918
866.137	2998
866.269	2933
866.4	2918
866.531	2880
866.662	2864
866.793	2883
866.924	2887
867.055	2960
867.186	2910
867.317	2876
867.448	2830
867.579	2861
867.71	2838
867.841	2785
867.972	2929
868.103	2914
868.233	2887
868.364	2868
868.495	2948
868.625	3077
868.756	3165
868.886	3001
869.017	3001
869.147	3146
869.278	3165
869.408	3066
869.539	3017
869.669	3116
869.799	3036
869.929	3108
870.06	3093
870.19	3321
870.32	3268
870.45	3310
870.58	3359
870.71	3401
870.84	3496
870.97	3275
871.1	3207
871.23	3496
871.36	3439
871.489	3382
871.619	3389
871.749	3405
871.879	3443
872.008	3458
872.138	3382
872.267	3245
872.397	3161
872.526	3108
872.656	3013
872.785	3074
872.915	3203
873.044	3306
873.173	3207
873.303	3256
873.432	3241
873.561	3214
873.69	3150
873.819	3093
873.948	3207
874.077	3074
874.206	3070
874.335	3077
874.464	3192
874.593	3302
874.722	3237
874.851	3378
874.979	3348
875.108	3329
875.237	3203
875.365	3176
875.494	3142
875.623	3245
875.751	3032
875.88	3108
876.008	3150
876.136	3245
876.265	3348
876.393	3515
876.521	3424
876.65	3374
876.778	3313
876.906	3222
877.034	3184
877.162	3169
877.29	3207
877.418	3268
877.546	3241
877.674	3256
877.802	3245
877.93	3211
878.058	3146
878.185	3077
878.313	3218
878.441	3150
878.568	3062
878.696	3146
878.824	3222
878.951	3294
879.079	3409
879.206	3587
879.333	3431
879.461	3382
879.588	3313
879.715	3488
879.842	3538
879.97	3359
880.097	3154
880.224	3093
880.351	3199
880.478	3218
880.605	3214
880.732	3203
880.859	3504
880.986	3291
881.112	3302
881.239	3184
881.366	3097
881.493	3058
881.619	3032
881.746	3089
881.872	3116
881.999	3097
882.125	3150
882.252	3272
882.378	3218
882.505	3355
882.631	3287
882.757	3188
882.883	3249
883.01	3226
883.136	3146
883.262	3108
883.388	3119
883.514	3340
883.64	3351
883.766	3268
883.892	3169
884.018	3237
884.143	3420
884.269	3561
884.395	3226
884.52	3157
884.646	3180
884.772	3112
884.897	3119
885.023	3214
885.148	3306
885.274	3405
885.399	3386
885.524	3272
885.65	3264
885.775	3302
885.9	3245
886.025	3420
886.15	3340
886.275	3279
886.4	3237
886.525	3291
886.65	3256
886.775	3275
886.9	3500
887.025	3629
887.149	3382
887.274	3287
887.399	3188
887.523	3218
887.648	3180
887.773	3173
887.897	3393
888.021	3409
888.146	3298
888.27	3428
888.395	3538
888.519	3481
888.643	3439
888.767	3428
888.891	3325
889.015	3222
889.139	3287
889.263	3268
889.387	3382
889.511	3485
889.635	3435
889.759	3264
889.883	3329
890.006	3374
890.13	3458
890.254	3294
890.377	3317
890.501	3241
890.624	3203
890.748	3317
890.871	3157
890.995	3089
891.118	3066
891.241	3214
891.364	3184
891.488	3336
891.611	3150
891.734	3207
891.857	3283
891.98	3245
892.103	3336
892.226	3287
892.349	3188
892.471	3138
892.594	3260
892.717	3268
892.839	3264
892.962	3321
893.085	3367
893.207	3291
893.33	3161
893.452	3169
893.575	3340
893.697	3203
893.819	3450
893.941	3447
894.064	3447
894.186	3241
894.308	3268
894.43	3420
894.552	3538
894.674	3439
894.796	3291
894.918	3272
895.04	3317
895.161	3409
895.283	3367
895.405	3344
895.526	3344
895.648	3424
895.769	3370
895.891	3431
896.012	3454
896.134	3428
896.255	3412
896.376	3382
896.498	3382
896.619	3443
896.74	3325
896.861	3443
896.982	3633
897.103	3823
897.224	3610
897.345	3496
897.466	3428
897.587	3466
897.708	3599
897.828	3591
897.949	3389
898.07	3336
898.19	3374
898.311	3591
898.431	3443
898.552	3485
898.672	3629
898.792	3580
898.913	3519
899.033	3386
899.153	3310
899.273	3192
899.393	3302
899.513	3321
899.633	3260
899.753	3336
899.873	3302
899.993	3424
900.113	3321
900.232	3363
900.352	3332
900.472	3291
900.591	3211
900.711	3294
900.83	3264
900.95	3443
901.069	3466
901.189	3344
901.308	3154
901.427	3138
901.546	3173
901.665	3268
901.784	3336
901.904	3203
902.023	3104
902.141	3020
902.26	2982
902.379	3108
902.498	3036
902.617	3051
902.735	3256
902.854	3226
902.973	3199
903.091	3051
903.21	3032
903.328	3112
903.446	3074
903.565	3127
903.683	3188
903.801	3161
903.919	3256
904.038	3272
904.156	3165
904.274	3264
904.392	3256
904.51	3302
904.627	3306
904.745	3428
904.863	3481
904.981	3268
905.098	3188
905.216	3233
905.334	3302
905.451	3275
905.569	3302
905.686	3401
905.803	3450
905.921	3298
906.038	3389
906.155	3367
906.272	3291
906.389	3332
906.506	3226
906.623	3241
906.74	3260
906.857	3184
906.974	3268
907.091	3393
907.208	3576
907.324	3416
907.441	3393
907.557	3230
907.674	3211
907.79	3218
907.907	3298
908.023	3313
908.139	3393
908.256	3340
908.372	3344
908.488	3355
908.604	3245
908.72	3207
908.836	3249
908.952	3283
909.068	3374
909.184	3492
909.3	3382
909.415	3488
909.531	3469
909.647	3241
909.762	3279
909.878	3256
909.993	3351
910.108	3317
910.224	3348
910.339	3405
910.454	3340
910.57	3302
910.685	3214
910.8	3557
910.915	3507
911.03	3443
911.145	3249
911.259	3294
911.374	3321
911.489	3256
911.604	3218
911.718	3100
911.833	3161
911.947	2967
912.062	2967
912.176	3154
912.291	3203
912.405	3199
912.519	3424
912.633	3481
912.748	3329
912.862	3279
912.976	3157
913.09	3047
913.204	3119
913.318	3188
913.431	3325
913.545	3298
913.659	3420
913.772	3355
913.886	3192
914	3169
914.113	3348
914.226	3367
914.34	3370
914.453	3214
914.566	3386
914.68	3207
914.793	3283
914.906	3131
915.019	3081
915.132	3089
915.245	3138
915.358	3184
915.47	3214
915.583	3283
915.696	3256
915.809	3374
915.921	3382
916.034	3230
916.146	3245
916.259	3237
916.371	3355
916.483	3374
916.595	3253
916.708	3340
916.82	3287
916.932	3306
917.044	3340
917.156	3325
917.268	3211
917.38	3264
917.491	3268
917.603	3351
917.715	3458
917.826	3466
917.938	3359
918.049	3256
918.161	3401
918.272	3618
918.384	3511
918.495	3454
918.606	3279
918.717	3264
918.828	3367
918.939	3412
919.05	3291
919.161	3359
919.272	3203
919.383	3253
919.494	3507
919.604	3713
919.715	3469
919.826	3412
919.936	3466
920.047	3584
920.157	3561
920.267	3785
920.378	3606
920.488	3591
920.598	3819
920.708	3964
920.818	3838
920.928	3865
921.038	4025
921.148	3979
921.258	3717
921.368	3603
921.477	3603
921.587	3591
921.697	3458
921.806	3656
921.916	3572
922.025	3374
922.134	3370
922.244	3359
922.353	3507
922.462	3279
922.571	3241
922.68	3138
922.789	3085
922.898	3161
923.007	3104
923.116	3253
923.224	3192
923.333	3211
923.442	3165
923.55	3131
923.659	3199
923.767	3222
923.876	3169
923.984	3268
924.092	3138
924.201	3222
924.309	3264
924.417	3272
924.525	3207
924.633	3287
924.741	4242
924.849	3081
924.956	3283
925.064	3097
925.172	3104
925.279	3146
925.387	3222
925.494	3249
925.602	3401
925.709	3348
925.816	3226
925.924	3355
926.031	3435
926.138	3363
926.245	3409
926.352	3268
926.459	3431
926.566	3488
926.673	3359
926.779	3310
926.886	3348
926.993	3195
927.099	3150
927.206	3142
927.312	3184
927.419	3302
927.525	3245
927.631	3336
927.737	3169
927.843	3150
927.95	3089
928.056	3203
928.162	3207
928.267	3272
928.373	3869
928.479	3325
928.585	3093
928.69	3256
928.796	3336
928.901	3222
929.007	3085
929.112	3253
929.218	3245
929.323	3180
929.428	3211
929.533	3340
929.638	3192
929.743	3222
929.848	3260
929.953	3222
930.058	3188
930.163	3051
930.267	3100
930.372	3253
930.477	3093
930.581	3336
930.685	3199
930.79	3093
930.894	3195
930.998	3131
931.103	3310
931.207	3001
931.311	3028
931.415	2963
931.519	2792
931.623	2849
