Data from test_V78500241_1248.txt Node
Date: Fri Mar 25 16:23:50 CST 2022
User: usil
Spectrometer: V785-0024
Trigger mode: 0
Integration Time (sec): 4.000000E-1
Scans to average: 1
Nonlinearity correction enabled: false
Boxcar width: 0
Storing dark spectrum: false
XAxis mode: Wavelengths
Number of Pixels in Spectrum: 1024
>>>>>Begin Spectral Data<<<<<
801.071	2925
801.214	2933
801.356	2880
801.499	2876
801.641	2880
801.783	2918
801.926	3001
802.068	2979
802.211	3009
802.353	2994
802.496	2948
802.638	2975
802.78	3017
802.923	3062
803.065	3017
803.208	2902
803.35	2891
803.492	2925
803.635	2933
803.777	2762
803.919	2845
804.061	3180
804.204	2960
804.346	2941
804.488	2842
804.63	2971
804.773	2842
804.915	2891
805.057	3047
805.199	2922
805.341	3005
805.483	3066
805.626	2982
805.768	2967
805.91	3119
806.052	3108
806.194	3013
806.336	3233
806.478	3020
806.62	2937
806.762	2956
806.904	3047
807.046	3180
807.188	2975
807.33	2902
807.472	2975
807.614	2887
807.756	2986
807.898	2933
808.04	2887
808.182	2982
808.324	2971
808.465	2853
808.607	2899
808.749	2800
808.891	2815
809.033	2971
809.174	2990
809.316	2880
809.458	2899
809.6	2815
809.741	2781
809.883	2769
810.025	2883
810.166	2849
810.308	2792
810.45	2857
810.591	2777
810.733	2781
810.875	2823
811.016	2781
811.158	2731
811.299	2811
811.441	2929
811.582	2899
811.724	2887
811.865	2800
812.007	2922
812.148	2864
812.29	2861
812.431	2864
812.573	2933
812.714	2929
812.855	3062
812.997	3066
813.138	3093
813.279	3001
813.421	3013
813.562	2963
813.703	2838
813.845	2876
813.986	2807
814.127	2769
814.268	2819
814.41	2845
814.551	2819
814.692	2849
814.833	2845
814.974	2857
815.115	2956
815.256	2853
815.397	2796
815.539	2872
815.68	2773
815.821	2823
815.962	2956
816.103	2902
816.244	2899
816.385	2880
816.526	2990
816.666	2933
816.807	2766
816.948	2895
817.089	2914
817.23	2834
817.371	2788
817.512	2758
817.653	2842
817.793	2811
817.934	2883
818.075	2941
818.216	2982
818.356	2998
818.497	2842
818.638	2769
818.778	2769
818.919	2758
819.06	2731
819.2	2845
819.341	2834
819.481	2788
819.622	2914
819.762	3051
819.903	3055
820.043	2925
820.184	2895
820.324	2876
820.465	2994
820.605	2990
820.746	3020
820.886	2906
821.026	3097
821.167	3169
821.307	3245
821.447	3298
821.588	3230
821.728	3188
821.868	3226
822.008	3108
822.149	3192
822.289	3195
822.429	3093
822.569	3104
822.709	3169
822.849	3005
822.99	3020
823.13	3127
823.27	3161
823.41	3108
823.55	3119
823.69	3154
823.83	3154
823.97	3085
824.11	2990
824.25	2979
824.389	3058
824.529	3077
824.669	3055
824.809	3207
824.949	3226
825.089	3203
825.228	3146
825.368	3024
825.508	2944
825.648	2956
825.787	2990
825.927	3001
826.067	3009
826.206	2937
826.346	3058
826.485	3051
826.625	3081
826.765	3253
826.904	3184
827.044	2967
827.183	2914
827.323	2868
827.462	3005
827.601	2918
827.741	2929
827.88	2937
828.02	2853
828.159	2948
828.298	3032
828.437	3154
828.577	3051
828.716	3230
828.855	3100
828.994	2929
829.134	2883
829.273	2910
829.412	2842
829.551	2834
829.69	2891
829.829	2990
829.968	3077
830.107	3036
830.246	3001
830.385	2899
830.524	2864
830.663	2845
830.802	2727
830.941	2644
831.08	2602
831.219	2758
831.357	2781
831.496	2933
831.635	2663
831.774	2629
831.913	2663
832.051	2533
832.19	2545
832.329	2670
832.467	2522
832.606	2522
832.744	2583
832.883	2556
833.022	2587
833.16	2621
833.299	2678
833.437	2663
833.576	2724
833.714	2712
833.852	2693
833.991	2781
834.129	2834
834.267	2830
834.406	2830
834.544	2842
834.682	2883
834.821	2845
834.959	3066
835.097	2918
835.235	3020
835.373	2986
835.511	2994
835.65	2952
835.788	2971
835.926	2777
836.064	2777
836.202	2853
836.34	3089
836.478	3146
836.615	3066
836.753	3097
836.891	3192
837.029	3192
837.167	3081
837.305	3062
837.443	3017
837.58	2982
837.718	3131
837.856	3066
837.993	3028
838.131	3108
838.269	3081
838.406	3089
838.544	3093
838.681	2910
838.819	2902
838.956	2811
839.094	2830
839.231	2941
839.369	3020
839.506	3370
839.643	3214
839.781	2975
839.918	2967
840.055	3062
840.193	3062
840.33	3066
840.467	3081
840.604	3161
840.742	3405
840.879	3009
841.016	3024
841.153	3100
841.29	3336
841.427	3279
841.564	3230
841.701	3302
841.838	3207
841.975	3165
842.112	3173
842.249	3062
842.385	3020
842.522	3233
842.659	3116
842.796	3020
842.933	3127
843.069	3043
843.206	3020
843.343	3199
843.479	3077
843.616	3104
843.752	2899
843.889	2845
844.025	3097
844.162	2887
844.298	3058
844.435	2914
844.571	2902
844.708	3066
844.844	3146
844.98	3241
845.117	3154
845.253	3047
845.389	2998
845.525	3100
845.661	3074
845.798	2982
845.934	3135
846.07	3089
846.206	3203
846.342	3287
846.478	3218
846.614	3097
846.75	3066
846.886	3005
847.022	3222
847.158	3123
847.294	3233
847.429	3253
847.565	3222
847.701	3477
847.837	3039
847.972	3013
848.108	3157
848.244	3119
848.379	2986
848.515	2944
848.65	2922
848.786	2910
848.921	2982
849.057	3100
849.192	3123
849.328	3058
849.463	3074
849.598	3085
849.734	3039
849.869	3001
850.004	2876
850.14	2967
850.275	2933
850.41	2853
850.545	2891
850.68	2910
850.815	2979
850.95	2933
851.085	3188
851.22	3097
851.355	2986
851.49	2975
851.625	3005
851.76	3036
851.895	2937
852.03	2910
852.165	3047
852.299	3119
852.434	3135
852.569	3161
852.703	3188
852.838	3249
852.973	3317
853.107	3302
853.242	3135
853.376	3070
853.511	2948
853.645	3024
853.78	3279
853.914	3138
854.048	3123
854.183	3058
854.317	3150
854.451	3264
854.585	3116
854.72	3074
854.854	3199
854.988	3055
855.122	3077
855.256	2975
855.39	3093
855.524	3241
855.658	3161
855.792	3131
855.926	3192
856.06	3207
856.194	3253
856.327	3131
856.461	3036
856.595	3066
856.729	3097
856.862	3241
856.996	3184
857.13	3161
857.263	3203
857.397	3249
857.53	3104
857.664	3146
857.797	3199
857.931	3230
858.064	3142
858.197	3195
858.331	3138
858.464	3127
858.597	2990
858.731	3138
858.864	3135
858.997	3070
859.13	3165
859.263	3188
859.396	3211
859.529	3089
859.662	3051
859.795	3009
859.928	3112
860.061	3302
860.194	3256
860.327	3119
860.46	3077
860.592	3233
860.725	3218
860.858	3211
860.99	3093
861.123	3028
861.256	3039
861.388	3112
861.521	3667
861.653	3036
861.786	3013
861.918	2982
862.05	3028
862.183	3100
862.315	3138
862.447	3192
862.58	3097
862.712	2937
862.844	2872
862.976	3013
863.108	3005
863.24	3321
863.372	2872
863.504	2956
863.636	2941
863.768	2979
863.9	2994
864.032	2902
864.164	2925
864.296	3020
864.428	3108
864.559	3089
864.691	3077
864.823	3066
864.954	3051
865.086	3039
865.217	2990
865.349	2971
865.48	2975
865.612	3020
865.743	3123
865.875	3017
866.006	2922
866.137	2960
866.269	2960
866.4	2899
866.531	2929
866.662	2914
866.793	2861
866.924	2895
867.055	2979
867.186	2895
867.317	2899
867.448	2849
867.579	2811
867.71	2845
867.841	2845
867.972	2910
868.103	2876
868.233	2864
868.364	2864
868.495	2910
868.625	3058
868.756	3184
868.886	2971
869.017	2994
869.147	3180
869.278	3127
869.408	3039
869.539	3009
869.669	3055
869.799	3017
869.929	3138
870.06	3131
870.19	3287
870.32	3275
870.45	3283
870.58	3355
870.71	3428
870.84	3439
870.97	3310
871.1	3249
871.23	3473
871.36	3485
871.489	3355
871.619	3409
871.749	3382
871.879	3412
872.008	3477
872.138	3313
872.267	3310
872.397	3138
872.526	3062
872.656	3005
872.785	3116
872.915	3245
873.044	3264
873.173	3237
873.303	3264
873.432	3218
873.561	3207
873.69	3169
873.819	3104
873.948	3173
874.077	3100
874.206	3070
874.335	3108
874.464	3180
874.593	3348
874.722	3233
874.851	3336
874.979	3367
875.108	3336
875.237	3169
875.365	3127
875.494	3154
875.623	3230
875.751	3058
875.88	3123
876.008	3165
876.136	3169
876.265	3389
876.393	3492
876.521	3409
876.65	3435
876.778	3325
876.906	3256
877.034	3157
877.162	3253
877.29	3169
877.418	3264
877.546	3256
877.674	3195
877.802	3245
877.93	3199
878.058	3146
878.185	3119
878.313	3211
878.441	3169
878.568	3051
878.696	3123
878.824	3214
878.951	3275
879.079	3454
879.206	3603
879.333	3428
879.461	3310
879.588	3344
879.715	3481
879.842	3591
879.97	3370
880.097	3169
880.224	3154
880.351	3165
880.478	3199
880.605	3203
880.732	3180
880.859	3485
880.986	3310
881.112	3340
881.239	3192
881.366	3085
881.493	3028
881.619	3009
881.746	3089
881.872	3081
881.999	3089
882.125	3138
882.252	3264
882.378	3283
882.505	3424
882.631	3268
882.757	3165
882.883	3241
883.01	3211
883.136	3169
883.262	3074
883.388	3085
883.514	3302
883.64	3374
883.766	3253
883.892	3150
884.018	3218
884.143	3420
884.269	3530
884.395	3188
884.52	3157
884.646	3142
884.772	3119
884.897	3089
885.023	3184
885.148	3317
885.274	3420
885.399	3344
885.524	3294
885.65	3275
885.775	3332
885.9	3268
886.025	3424
886.15	3389
886.275	3313
886.4	3188
886.525	3329
886.65	3275
886.775	3233
886.9	3462
887.025	3599
887.149	3435
887.274	3256
887.399	3165
887.523	3211
887.648	3207
887.773	3230
887.897	3378
888.021	3370
888.146	3279
888.27	3477
888.395	3515
888.519	3424
888.643	3454
888.767	3412
888.891	3298
889.015	3260
889.139	3298
889.263	3207
889.387	3386
889.511	3523
889.635	3439
889.759	3294
889.883	3241
890.006	3393
890.13	3488
890.254	3256
890.377	3329
890.501	3180
890.624	3207
890.748	3233
890.871	3142
890.995	3085
891.118	3085
891.241	3176
891.364	3249
891.488	3294
891.611	3135
891.734	3195
891.857	3253
891.98	3214
892.103	3325
892.226	3249
892.349	3218
892.471	3116
892.594	3195
892.717	3287
892.839	3313
892.962	3298
893.085	3378
893.207	3291
893.33	3173
893.452	3218
893.575	3313
893.697	3245
893.819	3450
893.941	3477
894.064	3458
894.186	3291
894.308	3260
894.43	3458
894.552	3545
894.674	3485
894.796	3268
894.918	3313
895.04	3241
895.161	3393
895.283	3401
895.405	3272
895.526	3367
895.648	3481
895.769	3420
895.891	3439
896.012	3469
896.134	3443
896.255	3382
896.376	3370
896.498	3325
896.619	3424
896.74	3370
896.861	3348
896.982	3705
897.103	3816
897.224	3606
897.345	3530
897.466	3424
897.587	3447
897.708	3618
897.828	3530
897.949	3412
898.07	3321
898.19	3382
898.311	3587
898.431	3389
898.552	3507
898.672	3580
898.792	3530
898.913	3500
899.033	3409
899.153	3237
899.273	3184
899.393	3302
899.513	3294
899.633	3294
899.753	3348
899.873	3283
899.993	3374
900.113	3367
900.232	3378
900.352	3351
900.472	3287
900.591	3207
900.711	3298
900.83	3245
900.95	3409
901.069	3485
901.189	3306
901.308	3127
901.427	3108
901.546	3192
901.665	3287
901.784	3291
901.904	3207
902.023	3154
902.141	3005
902.26	2986
902.379	3154
902.498	3089
902.617	3055
902.735	3192
902.854	3241
902.973	3195
903.091	3047
903.21	3032
903.328	3077
903.446	3112
903.565	3085
903.683	3176
903.801	3123
903.919	3214
904.038	3260
904.156	3142
904.274	3306
904.392	3222
904.51	3275
904.627	3378
904.745	3416
904.863	3439
904.981	3298
905.098	3176
905.216	3241
905.334	3256
905.451	3336
905.569	3317
905.686	3409
905.803	3435
905.921	3272
906.038	3450
906.155	3359
906.272	3275
906.389	3302
906.506	3203
906.623	3275
906.74	3268
906.857	3230
906.974	3256
907.091	3416
907.208	3553
907.324	3500
907.441	3393
907.557	3237
907.674	3184
907.79	3230
907.907	3283
908.023	3397
908.139	3374
908.256	3302
908.372	3378
908.488	3348
908.604	3268
908.72	3218
908.836	3268
908.952	3298
909.068	3313
909.184	3500
909.3	3382
909.415	3511
909.531	3466
909.647	3272
909.762	3275
909.878	3264
909.993	3348
910.108	3321
910.224	3325
910.339	3397
910.454	3329
910.57	3287
910.685	3245
910.8	3614
910.915	3534
911.03	3397
911.145	3233
911.259	3275
911.374	3317
911.489	3222
911.604	3230
911.718	3131
911.833	3165
911.947	3024
912.062	2975
912.176	3138
912.291	3233
912.405	3192
912.519	3416
912.633	3466
912.748	3351
912.862	3272
912.976	3169
913.09	3051
913.204	3154
913.318	3188
913.431	3294
913.545	3332
913.659	3409
913.772	3302
913.886	3199
914	3176
914.113	3348
914.226	3412
914.34	3370
914.453	3203
914.566	3370
914.68	3302
914.793	3329
914.906	3146
915.019	3108
915.132	3062
915.245	3146
915.358	3161
915.47	3222
915.583	3279
915.696	3291
915.809	3443
915.921	3435
916.034	3222
916.146	3245
916.259	3192
916.371	3389
916.483	3393
916.595	3233
916.708	3313
916.82	3351
916.932	3359
917.044	3332
917.156	3378
917.268	3233
917.38	3275
917.491	3291
917.603	3351
917.715	3443
917.826	3435
917.938	3424
918.049	3310
918.161	3431
918.272	3538
918.384	3568
918.495	3454
918.606	3321
918.717	3291
918.828	3351
918.939	3409
919.05	3287
919.161	3332
919.272	3154
919.383	3298
919.494	3500
919.604	3675
919.715	3454
919.826	3401
919.936	3431
920.047	3564
920.157	3557
920.267	3740
920.378	3587
920.488	3553
920.598	3797
920.708	3968
920.818	3827
920.928	3827
921.038	4074
921.148	4010
921.258	3732
921.368	3584
921.477	3606
921.587	3538
921.697	3454
921.806	3603
921.916	3511
922.025	3344
922.134	3374
922.244	3332
922.353	3435
922.462	3264
922.571	3249
922.68	3089
922.789	3043
922.898	3127
923.007	3097
923.116	3230
923.224	3199
923.333	3165
923.442	3100
923.55	3093
923.659	3154
923.767	3218
923.876	3097
923.984	3283
924.092	3081
924.201	3180
924.309	3249
924.417	3233
924.525	3184
924.633	3230
924.741	4048
924.849	3066
924.956	3260
925.064	3104
925.172	3032
925.279	3062
925.387	3222
925.494	3173
925.602	3397
925.709	3317
925.816	3169
925.924	3291
926.031	3363
926.138	3310
926.245	3370
926.352	3233
926.459	3401
926.566	3420
926.673	3306
926.779	3241
926.886	3249
926.993	3142
927.099	3119
927.206	3123
927.312	3123
927.419	3260
927.525	3188
927.631	3306
927.737	3127
927.843	3097
927.95	3020
928.056	3131
928.162	3165
928.267	3279
928.373	3892
928.479	3306
928.585	3085
928.69	3218
928.796	3279
928.901	3195
929.007	3077
929.112	3214
929.218	3169
929.323	3180
929.428	3138
929.533	3298
929.638	3108
929.743	3165
929.848	3291
929.953	3218
930.058	3150
930.163	3017
930.267	3043
930.372	3214
930.477	3062
930.581	3283
930.685	3142
930.79	3089
930.894	3112
930.998	3108
931.103	3283
931.207	2967
931.311	2906
931.415	2918
931.519	2750
931.623	2804
