Data from test_V78500241_1333.txt Node
Date: Fri Mar 25 16:24:26 CST 2022
User: usil
Spectrometer: V785-0024
Trigger mode: 0
Integration Time (sec): 4.000000E-1
Scans to average: 1
Nonlinearity correction enabled: false
Boxcar width: 0
Storing dark spectrum: false
XAxis mode: Wavelengths
Number of Pixels in Spectrum: 1024
>>>>>Begin Spectral Data<<<<<
801.071	2941
801.214	2994
801.356	2902
801.499	2937
801.641	2902
801.783	2948
801.926	3074
802.068	3005
802.211	3020
802.353	3089
802.496	2971
802.638	3062
802.78	3028
802.923	3104
803.065	3028
803.208	2891
803.35	2952
803.492	2922
803.635	2956
803.777	2773
803.919	2918
804.061	3188
804.204	2956
804.346	2925
804.488	2807
804.63	2998
804.773	2902
804.915	2910
805.057	3097
805.199	2944
805.341	2971
805.483	3051
805.626	3043
805.768	2960
805.91	3066
806.052	3123
806.194	3001
806.336	3268
806.478	3039
806.62	2952
806.762	3032
806.904	3055
807.046	3146
807.188	2990
807.33	2944
807.472	3017
807.614	2967
807.756	3028
807.898	2918
808.04	2895
808.182	2986
808.324	2971
808.465	2944
808.607	2883
808.749	2838
808.891	2868
809.033	2979
809.174	3009
809.316	2925
809.458	2914
809.6	2804
809.741	2800
809.883	2800
810.025	2880
810.166	2861
810.308	2906
810.45	2910
810.591	2834
810.733	2811
810.875	2849
811.016	2819
811.158	2807
811.299	2826
811.441	2952
811.582	2937
811.724	2819
811.865	2838
812.007	2929
812.148	2887
812.29	2857
812.431	2906
812.573	2963
812.714	2967
812.855	3089
812.997	3051
813.138	3108
813.279	3017
813.421	2994
813.562	2960
813.703	2868
813.845	2918
813.986	2804
814.127	2735
814.268	2830
814.41	2876
814.551	2842
814.692	2883
814.833	2842
814.974	2933
815.115	2952
815.256	2804
815.397	2845
815.539	2902
815.68	2792
815.821	2819
815.962	2956
816.103	2963
816.244	2883
816.385	2899
816.526	3005
816.666	2925
816.807	2788
816.948	2895
817.089	2937
817.23	2845
817.371	2785
817.512	2830
817.653	2864
817.793	2838
817.934	2891
818.075	3005
818.216	2994
818.356	3036
818.497	2929
818.638	2807
818.778	2838
818.919	2826
819.06	2781
819.2	2883
819.341	2815
819.481	2838
819.622	2933
819.762	3104
819.903	3089
820.043	2922
820.184	2883
820.324	2895
820.465	3055
820.605	3013
820.746	3043
820.886	2925
821.026	3093
821.167	3192
821.307	3253
821.447	3302
821.588	3256
821.728	3218
821.868	3233
822.008	3081
822.149	3173
822.289	3214
822.429	3112
822.569	3100
822.709	3192
822.849	3028
822.99	3089
823.13	3161
823.27	3218
823.41	3169
823.55	3195
823.69	3192
823.83	3154
823.97	3112
824.11	3043
824.25	2982
824.389	3112
824.529	3146
824.669	3089
824.809	3237
824.949	3275
825.089	3256
825.228	3184
825.368	3051
825.508	2952
825.648	2986
825.787	3028
825.927	3043
826.067	2963
826.206	3001
826.346	3062
826.485	3142
826.625	3119
826.765	3249
826.904	3203
827.044	3001
827.183	2937
827.323	2883
827.462	2979
827.601	2914
827.741	2986
827.88	2971
828.02	2842
828.159	2952
828.298	3039
828.437	3169
828.577	3070
828.716	3249
828.855	3108
828.994	2910
829.134	2925
829.273	2948
829.412	2864
829.551	2876
829.69	2929
829.829	3020
829.968	3135
830.107	2998
830.246	3017
830.385	2952
830.524	2910
830.663	2872
830.802	2731
830.941	2648
831.08	2648
831.219	2777
831.357	2743
831.496	2967
831.635	2773
831.774	2655
831.913	2655
832.051	2571
832.19	2575
832.329	2682
832.467	2518
832.606	2507
832.744	2575
832.883	2571
833.022	2579
833.16	2659
833.299	2689
833.437	2743
833.576	2712
833.714	2708
833.852	2762
833.991	2777
834.129	2880
834.267	2826
834.406	2773
834.544	2876
834.682	2872
834.821	2849
834.959	3077
835.097	2952
835.235	3043
835.373	2975
835.511	3009
835.65	2937
835.788	2952
835.926	2838
836.064	2834
836.202	2853
836.34	3142
836.478	3119
836.615	3070
836.753	3176
836.891	3195
837.029	3138
837.167	3119
837.305	3062
837.443	3032
837.58	2986
837.718	3116
837.856	3036
837.993	3024
838.131	3104
838.269	3112
838.406	3097
838.544	3100
838.681	2963
838.819	2933
838.956	2838
839.094	2883
839.231	2960
839.369	3036
839.506	3397
839.643	3218
839.781	3036
839.918	2963
840.055	3081
840.193	3104
840.33	3070
840.467	3093
840.604	3161
840.742	3389
840.879	3062
841.016	3047
841.153	3131
841.29	3329
841.427	3340
841.564	3260
841.701	3275
841.838	3233
841.975	3195
842.112	3203
842.249	3093
842.385	3058
842.522	3226
842.659	3066
842.796	3058
842.933	3108
843.069	3047
843.206	3024
843.343	3226
843.479	3112
843.616	3173
843.752	2902
843.889	2895
844.025	3097
844.162	2899
844.298	3097
844.435	2933
844.571	2902
844.708	3062
844.844	3188
844.98	3233
845.117	3157
845.253	3077
845.389	2994
845.525	3108
845.661	3112
845.798	3001
845.934	3138
846.07	3047
846.206	3230
846.342	3359
846.478	3222
846.614	3123
846.75	3093
846.886	3036
847.022	3230
847.158	3131
847.294	3176
847.429	3233
847.565	3222
847.701	3504
847.837	3036
847.972	3020
848.108	3176
848.244	3161
848.379	2994
848.515	2948
848.65	2956
848.786	3001
848.921	3024
849.057	3100
849.192	3150
849.328	3085
849.463	3150
849.598	3081
849.734	3024
849.869	3009
850.004	2933
850.14	2971
850.275	2929
850.41	2864
850.545	2918
850.68	2929
850.815	2937
850.95	2979
851.085	3222
851.22	3112
851.355	3058
851.49	3020
851.625	3020
851.76	3032
851.895	2952
852.03	2944
852.165	3089
852.299	3157
852.434	3195
852.569	3188
852.703	3207
852.838	3264
852.973	3344
853.107	3378
853.242	3184
853.376	3119
853.511	3005
853.645	3127
853.78	3283
853.914	3138
854.048	3176
854.183	3116
854.317	3142
854.451	3340
854.585	3154
854.72	3176
854.854	3260
854.988	3051
855.122	3135
855.256	3047
855.39	3138
855.524	3279
855.658	3211
855.792	3188
855.926	3233
856.06	3272
856.194	3279
856.327	3192
856.461	3138
856.595	3074
856.729	3142
856.862	3249
856.996	3165
857.13	3211
857.263	3272
857.397	3294
857.53	3211
857.664	3207
857.797	3237
857.931	3237
858.064	3199
858.197	3264
858.331	3195
858.464	3142
858.597	3028
858.731	3154
858.864	3154
858.997	3116
859.13	3233
859.263	3226
859.396	3226
859.529	3138
859.662	3112
859.795	3074
859.928	3154
860.061	3313
860.194	3317
860.327	3131
860.46	3112
860.592	3272
860.725	3268
860.858	3283
860.99	3135
861.123	3097
861.256	3062
861.388	3180
861.521	3759
861.653	3020
861.786	2986
861.918	3043
862.05	3085
862.183	3104
862.315	3233
862.447	3245
862.58	3119
862.712	2971
862.844	2891
862.976	3055
863.108	3055
863.24	3332
863.372	2906
863.504	2994
863.636	2937
863.768	3077
863.9	2971
864.032	2925
864.164	2982
864.296	3039
864.428	3123
864.559	3119
864.691	3070
864.823	3058
864.954	3077
865.086	3066
865.217	3036
865.349	2975
865.48	2994
865.612	3051
865.743	3176
865.875	3017
866.006	2994
866.137	3009
866.269	2944
866.4	2960
866.531	2960
866.662	2933
866.793	2906
866.924	2910
867.055	2979
867.186	2982
867.317	2948
867.448	2887
867.579	2895
867.71	2891
867.841	2849
867.972	2918
868.103	2929
868.233	2899
868.364	2922
868.495	2998
868.625	3097
868.756	3207
868.886	2971
869.017	3043
869.147	3169
869.278	3176
869.408	3074
869.539	3032
869.669	3097
869.799	3100
869.929	3176
870.06	3123
870.19	3336
870.32	3275
870.45	3359
870.58	3378
870.71	3488
870.84	3500
870.97	3325
871.1	3306
871.23	3504
871.36	3492
871.489	3382
871.619	3412
871.749	3458
871.879	3492
872.008	3481
872.138	3382
872.267	3325
872.397	3195
872.526	3119
872.656	3036
872.785	3127
872.915	3313
873.044	3313
873.173	3237
873.303	3272
873.432	3272
873.561	3294
873.69	3180
873.819	3184
873.948	3218
874.077	3108
874.206	3055
874.335	3108
874.464	3268
874.593	3386
874.722	3283
874.851	3424
874.979	3370
875.108	3310
875.237	3226
875.365	3173
875.494	3165
875.623	3298
875.751	3131
875.88	3161
876.008	3222
876.136	3256
876.265	3409
876.393	3580
876.521	3389
876.65	3454
876.778	3363
876.906	3275
877.034	3214
877.162	3275
877.29	3214
877.418	3264
877.546	3272
877.674	3306
877.802	3207
877.93	3249
878.058	3184
878.185	3154
878.313	3272
878.441	3253
878.568	3081
878.696	3161
878.824	3241
878.951	3325
879.079	3450
879.206	3652
879.333	3447
879.461	3351
879.588	3401
879.715	3488
879.842	3660
879.97	3420
880.097	3230
880.224	3119
880.351	3203
880.478	3287
880.605	3253
880.732	3218
880.859	3507
880.986	3344
881.112	3359
881.239	3218
881.366	3131
881.493	3028
881.619	3093
881.746	3062
881.872	3135
881.999	3112
882.125	3195
882.252	3264
882.378	3321
882.505	3515
882.631	3325
882.757	3192
882.883	3245
883.01	3237
883.136	3222
883.262	3108
883.388	3135
883.514	3321
883.64	3389
883.766	3351
883.892	3218
884.018	3291
884.143	3416
884.269	3595
884.395	3207
884.52	3176
884.646	3192
884.772	3146
884.897	3116
885.023	3241
885.148	3351
885.274	3412
885.399	3363
885.524	3310
885.65	3279
885.775	3336
885.9	3321
886.025	3435
886.15	3409
886.275	3310
886.4	3260
886.525	3329
886.65	3306
886.775	3294
886.9	3504
887.025	3652
887.149	3439
887.274	3256
887.399	3169
887.523	3203
887.648	3214
887.773	3192
887.897	3378
888.021	3409
888.146	3348
888.27	3462
888.395	3530
888.519	3435
888.643	3458
888.767	3507
888.891	3340
889.015	3264
889.139	3329
889.263	3291
889.387	3420
889.511	3496
889.635	3454
889.759	3344
889.883	3313
890.006	3424
890.13	3542
890.254	3272
890.377	3321
890.501	3199
890.624	3184
890.748	3317
890.871	3222
890.995	3127
891.118	3097
891.241	3188
891.364	3253
891.488	3310
891.611	3188
891.734	3222
891.857	3302
891.98	3275
892.103	3344
892.226	3291
892.349	3218
892.471	3161
892.594	3268
892.717	3306
892.839	3336
892.962	3332
893.085	3401
893.207	3325
893.33	3146
893.452	3264
893.575	3359
893.697	3313
893.819	3504
893.941	3568
894.064	3477
894.186	3272
894.308	3272
894.43	3485
894.552	3530
894.674	3492
894.796	3287
894.918	3321
895.04	3298
895.161	3443
895.283	3431
895.405	3340
895.526	3382
895.648	3458
895.769	3462
895.891	3492
896.012	3473
896.134	3488
896.255	3466
896.376	3378
896.498	3393
896.619	3492
896.74	3389
896.861	3435
896.982	3686
897.103	3861
897.224	3599
897.345	3523
897.466	3412
897.587	3485
897.708	3629
897.828	3568
897.949	3523
898.07	3355
898.19	3462
898.311	3629
898.431	3454
898.552	3534
898.672	3599
898.792	3561
898.913	3564
899.033	3454
899.153	3294
899.273	3253
899.393	3283
899.513	3351
899.633	3351
899.753	3332
899.873	3306
899.993	3367
900.113	3351
900.232	3348
900.352	3302
900.472	3264
900.591	3294
900.711	3336
900.83	3253
900.95	3420
901.069	3507
901.189	3378
901.308	3214
901.427	3135
901.546	3180
901.665	3325
901.784	3351
901.904	3237
902.023	3176
902.141	3024
902.26	3024
902.379	3089
902.498	3074
902.617	3077
902.735	3207
902.854	3264
902.973	3222
903.091	3100
903.21	3070
903.328	3135
903.446	3127
903.565	3116
903.683	3283
903.801	3135
903.919	3279
904.038	3348
904.156	3180
904.274	3336
904.392	3294
904.51	3294
904.627	3370
904.745	3443
904.863	3519
904.981	3287
905.098	3176
905.216	3233
905.334	3298
905.451	3355
905.569	3329
905.686	3439
905.803	3439
905.921	3302
906.038	3435
906.155	3397
906.272	3306
906.389	3367
906.506	3260
906.623	3233
906.74	3245
906.857	3192
906.974	3260
907.091	3431
907.208	3587
907.324	3481
907.441	3466
907.557	3260
907.674	3245
907.79	3233
907.907	3310
908.023	3397
908.139	3405
908.256	3351
908.372	3386
908.488	3367
908.604	3279
908.72	3249
908.836	3313
908.952	3279
909.068	3378
909.184	3530
909.3	3382
909.415	3496
909.531	3500
909.647	3298
909.762	3329
909.878	3272
909.993	3397
910.108	3351
910.224	3310
910.339	3412
910.454	3321
910.57	3306
910.685	3287
910.8	3603
910.915	3553
911.03	3431
911.145	3291
911.259	3230
911.374	3329
911.489	3256
911.604	3214
911.718	3142
911.833	3138
911.947	3013
912.062	2998
912.176	3188
912.291	3214
912.405	3222
912.519	3416
912.633	3439
912.748	3336
912.862	3310
912.976	3188
913.09	3077
913.204	3138
913.318	3245
913.431	3302
913.545	3355
913.659	3424
913.772	3340
913.886	3214
914	3222
914.113	3367
914.226	3428
914.34	3382
914.453	3233
914.566	3405
914.68	3294
914.793	3329
914.906	3138
915.019	3161
915.132	3089
915.245	3176
915.358	3253
915.47	3214
915.583	3264
915.696	3298
915.809	3416
915.921	3431
916.034	3253
916.146	3253
916.259	3226
916.371	3397
916.483	3405
916.595	3302
916.708	3344
916.82	3313
916.932	3313
917.044	3351
917.156	3355
917.268	3287
917.38	3310
917.491	3283
917.603	3378
917.715	3488
917.826	3443
917.938	3378
918.049	3298
918.161	3473
918.272	3591
918.384	3584
918.495	3485
918.606	3332
918.717	3275
918.828	3401
918.939	3447
919.05	3298
919.161	3416
919.272	3165
919.383	3298
919.494	3542
919.604	3690
919.715	3511
919.826	3416
919.936	3450
920.047	3599
920.157	3523
920.267	3842
920.378	3648
920.488	3549
920.598	3812
920.708	3972
920.818	3835
920.928	3831
921.038	4063
921.148	4006
921.258	3724
921.368	3652
921.477	3538
921.587	3576
921.697	3462
921.806	3656
921.916	3519
922.025	3344
922.134	3378
922.244	3287
922.353	3393
922.462	3298
922.571	3226
922.68	3116
922.789	3077
922.898	3131
923.007	3051
923.116	3203
923.224	3146
923.333	3184
923.442	3112
923.55	3104
923.659	3173
923.767	3241
923.876	3097
923.984	3230
924.092	3112
924.201	3199
924.309	3241
924.417	3249
924.525	3188
924.633	3241
924.741	4025
924.849	3028
924.956	3279
925.064	3127
925.172	3077
925.279	3127
925.387	3211
925.494	3184
925.602	3367
925.709	3329
925.816	3218
925.924	3302
926.031	3416
926.138	3283
926.245	3393
926.352	3207
926.459	3424
926.566	3431
926.673	3336
926.779	3291
926.886	3253
926.993	3161
927.099	3146
927.206	3138
927.312	3146
927.419	3272
927.525	3180
927.631	3294
927.737	3173
927.843	3116
927.95	3028
928.056	3146
928.162	3173
928.267	3256
928.373	3850
928.479	3329
928.585	3058
928.69	3260
928.796	3287
928.901	3203
929.007	3039
929.112	3184
929.218	3214
929.323	3146
929.428	3150
929.533	3332
929.638	3138
929.743	3169
929.848	3264
929.953	3241
930.058	3127
930.163	3005
930.267	3070
930.372	3230
930.477	3058
930.581	3325
930.685	3169
930.79	3066
930.894	3093
930.998	3116
931.103	3287
931.207	3013
931.311	2929
931.415	2914
931.519	2769
931.623	2819
