Data from test_V78500241_219.txt Node
Date: Fri Mar 25 16:16:43 CST 2022
User: usil
Spectrometer: V785-0024
Trigger mode: 0
Integration Time (sec): 4.000000E-1
Scans to average: 1
Nonlinearity correction enabled: false
Boxcar width: 0
Storing dark spectrum: false
XAxis mode: Wavelengths
Number of Pixels in Spectrum: 1024
>>>>>Begin Spectral Data<<<<<
801.071	2929
801.214	2918
801.356	2872
801.499	2876
801.641	2880
801.783	2902
801.926	3020
802.068	2963
802.211	2990
802.353	3028
802.496	2982
802.638	3005
802.78	3055
802.923	3104
803.065	3024
803.208	2918
803.35	2887
803.492	2982
803.635	2941
803.777	2777
803.919	2868
804.061	3207
804.204	2963
804.346	2925
804.488	2868
804.63	2971
804.773	2887
804.915	2902
805.057	3097
805.199	2895
805.341	2952
805.483	3039
805.626	3009
805.768	2944
805.91	3104
806.052	3138
806.194	3055
806.336	3237
806.478	3024
806.62	2944
806.762	2990
806.904	3043
807.046	3161
807.188	2948
807.33	2918
807.472	2986
807.614	2952
807.756	3020
807.898	2971
808.04	2876
808.182	2982
808.324	2944
808.465	2857
808.607	2899
808.749	2796
808.891	2914
809.033	2994
809.174	2956
809.316	2891
809.458	2849
809.6	2766
809.741	2754
809.883	2788
810.025	2845
810.166	2845
810.308	2868
810.45	2868
810.591	2746
810.733	2750
810.875	2838
811.016	2815
811.158	2735
811.299	2823
811.441	2929
811.582	2883
811.724	2838
811.865	2853
812.007	2925
812.148	2906
812.29	2857
812.431	2918
812.573	2948
812.714	2937
812.855	3051
812.997	3024
813.138	3165
813.279	3043
813.421	3001
813.562	2971
813.703	2899
813.845	2861
813.986	2739
814.127	2754
814.268	2842
814.41	2826
814.551	2819
814.692	2899
814.833	2823
814.974	2880
815.115	2975
815.256	2819
815.397	2815
815.539	2868
815.68	2826
815.821	2781
815.962	2914
816.103	2952
816.244	2849
816.385	2872
816.526	2990
816.666	2933
816.807	2735
816.948	2910
817.089	2906
817.23	2872
817.371	2811
817.512	2815
817.653	2823
817.793	2861
817.934	2902
818.075	2982
818.216	3032
818.356	3062
818.497	2895
818.638	2788
818.778	2834
818.919	2788
819.06	2769
819.2	2868
819.341	2819
819.481	2781
819.622	2929
819.762	3074
819.903	3036
820.043	2933
820.184	2925
820.324	2918
820.465	3005
820.605	3043
820.746	3020
820.886	2952
821.026	3089
821.167	3173
821.307	3272
821.447	3291
821.588	3253
821.728	3272
821.868	3230
822.008	3104
822.149	3211
822.289	3233
822.429	3085
822.569	3081
822.709	3165
822.849	3047
822.99	3077
823.13	3146
823.27	3173
823.41	3112
823.55	3161
823.69	3176
823.83	3214
823.97	3100
824.11	2998
824.25	3009
824.389	3066
824.529	3100
824.669	3066
824.809	3192
824.949	3272
825.089	3237
825.228	3150
825.368	3024
825.508	2948
825.648	2948
825.787	2967
825.927	3036
826.067	2982
826.206	2952
826.346	3070
826.485	3070
826.625	3116
826.765	3291
826.904	3207
827.044	3001
827.183	2929
827.323	2845
827.462	2982
827.601	2914
827.741	2929
827.88	2971
828.02	2838
828.159	2979
828.298	3028
828.437	3142
828.577	3020
828.716	3230
828.855	3077
828.994	2864
829.134	2880
829.273	2914
829.412	2891
829.551	2876
829.69	2868
829.829	3005
829.968	3150
830.107	3017
830.246	3017
830.385	2952
830.524	2880
830.663	2823
830.802	2720
830.941	2651
831.08	2651
831.219	2785
831.357	2746
831.496	2944
831.635	2712
831.774	2640
831.913	2659
832.051	2545
832.19	2571
832.329	2682
832.467	2530
832.606	2522
832.744	2583
832.883	2621
833.022	2602
833.16	2621
833.299	2667
833.437	2701
833.576	2724
833.714	2712
833.852	2724
833.991	2773
834.129	2838
834.267	2811
834.406	2842
834.544	2868
834.682	2845
834.821	2880
834.959	3066
835.097	2895
835.235	3081
835.373	3013
835.511	3020
835.65	2941
835.788	2960
835.926	2845
836.064	2834
836.202	2861
836.34	3051
836.478	3161
836.615	3081
836.753	3135
836.891	3211
837.029	3176
837.167	3119
837.305	3039
837.443	3039
837.58	2956
837.718	3116
837.856	3058
837.993	3024
838.131	3135
838.269	3093
838.406	3142
838.544	3077
838.681	2960
838.819	2910
838.956	2804
839.094	2845
839.231	2861
839.369	3013
839.506	3355
839.643	3245
839.781	3055
839.918	2971
840.055	3047
840.193	3024
840.33	3055
840.467	3127
840.604	3176
840.742	3393
840.879	3070
841.016	3032
841.153	3138
841.29	3340
841.427	3287
841.564	3264
841.701	3348
841.838	3237
841.975	3184
842.112	3195
842.249	3062
842.385	3058
842.522	3253
842.659	3100
842.796	3047
842.933	3104
843.069	3074
843.206	3055
843.343	3180
843.479	3089
843.616	3138
843.752	2883
843.889	2864
844.025	3108
844.162	2902
844.298	3062
844.435	2941
844.571	2922
844.708	3093
844.844	3188
844.98	3237
845.117	3195
845.253	3066
845.389	3024
845.525	3138
845.661	3123
845.798	2990
845.934	3142
846.07	3047
846.206	3195
846.342	3325
846.478	3241
846.614	3070
846.75	3062
846.886	3036
847.022	3268
847.158	3173
847.294	3192
847.429	3253
847.565	3203
847.701	3439
847.837	3032
847.972	3005
848.108	3150
848.244	3157
848.379	2971
848.515	2967
848.65	2902
848.786	2948
848.921	3020
849.057	3074
849.192	3142
849.328	3070
849.463	3081
849.598	3081
849.734	3051
849.869	2937
850.004	2925
850.14	2975
850.275	2910
850.41	2853
850.545	2864
850.68	2948
850.815	2963
850.95	2963
851.085	3173
851.22	3085
851.355	3039
851.49	3017
851.625	2998
851.76	3013
851.895	2971
852.03	2918
852.165	3058
852.299	3150
852.434	3203
852.569	3173
852.703	3157
852.838	3233
852.973	3351
853.107	3313
853.242	3184
853.376	3123
853.511	2937
853.645	3020
853.78	3275
853.914	3116
854.048	3097
854.183	3093
854.317	3142
854.451	3294
854.585	3142
854.72	3047
854.854	3207
854.988	3081
855.122	3081
855.256	2990
855.39	3093
855.524	3222
855.658	3211
855.792	3150
855.926	3184
856.06	3222
856.194	3272
856.327	3188
856.461	3085
856.595	3123
856.729	3131
856.862	3226
856.996	3165
857.13	3214
857.263	3195
857.397	3279
857.53	3112
857.664	3195
857.797	3233
857.931	3230
858.064	3192
858.197	3249
858.331	3135
858.464	3085
858.597	2990
858.731	3165
858.864	3154
858.997	3097
859.13	3150
859.263	3207
859.396	3218
859.529	3085
859.662	3047
859.795	3074
859.928	3112
860.061	3272
860.194	3241
860.327	3108
860.46	3119
860.592	3218
860.725	3230
860.858	3260
860.99	3093
861.123	3058
861.256	3085
861.388	3195
861.521	3793
861.653	3032
861.786	2975
861.918	3024
862.05	3085
862.183	3081
862.315	3146
862.447	3195
862.58	3081
862.712	2948
862.844	2906
862.976	3043
863.108	3001
863.24	3344
863.372	2887
863.504	2948
863.636	2986
863.768	3036
863.9	2971
864.032	2925
864.164	2948
864.296	2986
864.428	3104
864.559	3116
864.691	3104
864.823	3089
864.954	3005
865.086	3024
865.217	2998
865.349	2941
865.48	2990
865.612	3043
865.743	3146
865.875	2990
866.006	2944
866.137	2948
866.269	2937
866.4	2948
866.531	2910
866.662	2876
866.793	2925
866.924	2906
867.055	2956
867.186	2906
867.317	2902
867.448	2811
867.579	2838
867.71	2872
867.841	2815
867.972	2941
868.103	2910
868.233	2902
868.364	2883
868.495	2899
868.625	3081
868.756	3184
868.886	2994
869.017	3013
869.147	3169
869.278	3146
869.408	3066
869.539	3066
869.669	3089
869.799	3047
869.929	3142
870.06	3131
870.19	3370
870.32	3253
870.45	3272
870.58	3393
870.71	3431
870.84	3443
870.97	3287
871.1	3272
871.23	3473
871.36	3469
871.489	3370
871.619	3386
871.749	3405
871.879	3450
872.008	3496
872.138	3363
872.267	3249
872.397	3119
872.526	3077
872.656	3017
872.785	3081
872.915	3256
873.044	3310
873.173	3233
873.303	3241
873.432	3253
873.561	3260
873.69	3138
873.819	3180
873.948	3165
874.077	3066
874.206	3032
874.335	3135
874.464	3253
874.593	3370
874.722	3237
874.851	3378
874.979	3382
875.108	3310
875.237	3211
875.365	3226
875.494	3173
875.623	3214
875.751	3077
875.88	3127
876.008	3154
876.136	3245
876.265	3340
876.393	3523
876.521	3393
876.65	3378
876.778	3329
876.906	3256
877.034	3222
877.162	3249
877.29	3157
877.418	3237
877.546	3211
877.674	3256
877.802	3264
877.93	3195
878.058	3161
878.185	3146
878.313	3222
878.441	3230
878.568	3112
878.696	3176
878.824	3218
878.951	3325
879.079	3424
879.206	3625
879.333	3435
879.461	3374
879.588	3370
879.715	3466
879.842	3591
879.97	3374
880.097	3165
880.224	3112
880.351	3188
880.478	3176
880.605	3180
880.732	3211
880.859	3492
880.986	3336
881.112	3332
881.239	3211
881.366	3119
881.493	3036
881.619	3017
881.746	3085
881.872	3146
881.999	3081
882.125	3142
882.252	3233
882.378	3298
882.505	3389
882.631	3310
882.757	3150
882.883	3218
883.01	3226
883.136	3138
883.262	3112
883.388	3123
883.514	3313
883.64	3344
883.766	3302
883.892	3218
884.018	3249
884.143	3389
884.269	3557
884.395	3222
884.52	3195
884.646	3226
884.772	3089
884.897	3135
885.023	3214
885.148	3310
885.274	3409
885.399	3409
885.524	3302
885.65	3253
885.775	3340
885.9	3275
886.025	3424
886.15	3340
886.275	3298
886.4	3230
886.525	3302
886.65	3272
886.775	3287
886.9	3496
887.025	3641
887.149	3409
887.274	3211
887.399	3203
887.523	3226
887.648	3188
887.773	3188
887.897	3374
888.021	3428
888.146	3260
888.27	3447
888.395	3545
888.519	3431
888.643	3416
888.767	3454
888.891	3336
889.015	3230
889.139	3279
889.263	3249
889.387	3405
889.511	3462
889.635	3447
889.759	3306
889.883	3279
890.006	3386
890.13	3511
890.254	3272
890.377	3382
890.501	3207
890.624	3207
890.748	3268
890.871	3214
890.995	3100
891.118	3077
891.241	3169
891.364	3230
891.488	3294
891.611	3165
891.734	3233
891.857	3275
891.98	3203
892.103	3359
892.226	3279
892.349	3192
892.471	3157
892.594	3211
892.717	3298
892.839	3272
892.962	3253
893.085	3348
893.207	3313
893.33	3176
893.452	3173
893.575	3325
893.697	3256
893.819	3469
893.941	3477
894.064	3450
894.186	3287
894.308	3256
894.43	3462
894.552	3530
894.674	3477
894.796	3287
894.918	3317
895.04	3268
895.161	3443
895.283	3416
895.405	3340
895.526	3332
895.648	3447
895.769	3401
895.891	3477
896.012	3435
896.134	3496
896.255	3397
896.376	3382
896.498	3344
896.619	3507
896.74	3336
896.861	3405
896.982	3671
897.103	3888
897.224	3637
897.345	3530
897.466	3481
897.587	3530
897.708	3656
897.828	3576
897.949	3424
898.07	3351
898.19	3397
898.311	3652
898.431	3481
898.552	3515
898.672	3644
898.792	3629
898.913	3545
899.033	3450
899.153	3306
899.273	3279
899.393	3298
899.513	3389
899.633	3370
899.753	3355
899.873	3329
899.993	3435
900.113	3351
900.232	3424
900.352	3405
900.472	3374
900.591	3264
900.711	3382
900.83	3329
900.95	3428
901.069	3534
901.189	3405
901.308	3233
901.427	3138
901.546	3218
901.665	3329
901.784	3420
901.904	3283
902.023	3157
902.141	3058
902.26	3074
902.379	3195
902.498	3142
902.617	3135
902.735	3249
902.854	3283
902.973	3264
903.091	3085
903.21	3169
903.328	3173
903.446	3112
903.565	3135
903.683	3245
903.801	3180
903.919	3294
904.038	3332
904.156	3233
904.274	3313
904.392	3249
904.51	3325
904.627	3405
904.745	3488
904.863	3561
904.981	3317
905.098	3233
905.216	3253
905.334	3321
905.451	3325
905.569	3306
905.686	3428
905.803	3519
905.921	3359
906.038	3504
906.155	3374
906.272	3321
906.389	3378
906.506	3294
906.623	3340
906.74	3363
906.857	3237
906.974	3306
907.091	3534
907.208	3614
907.324	3515
907.441	3439
907.557	3268
907.674	3306
907.79	3268
907.907	3291
908.023	3458
908.139	3401
908.256	3386
908.372	3450
908.488	3424
908.604	3340
908.72	3245
908.836	3348
908.952	3321
909.068	3382
909.184	3534
909.3	3409
909.415	3496
909.531	3492
909.647	3302
909.762	3344
909.878	3340
909.993	3397
910.108	3386
910.224	3359
910.339	3431
910.454	3344
910.57	3359
910.685	3272
910.8	3694
910.915	3595
911.03	3500
911.145	3332
911.259	3291
911.374	3386
911.489	3325
911.604	3272
911.718	3157
911.833	3203
911.947	3081
912.062	3001
912.176	3211
912.291	3237
912.405	3275
912.519	3424
912.633	3526
912.748	3389
912.862	3313
912.976	3192
913.09	3085
913.204	3195
913.318	3256
913.431	3409
913.545	3348
913.659	3443
913.772	3363
913.886	3260
914	3226
914.113	3405
914.226	3469
914.34	3416
914.453	3298
914.566	3424
914.68	3317
914.793	3340
914.906	3150
915.019	3123
915.132	3077
915.245	3222
915.358	3249
915.47	3302
915.583	3272
915.696	3317
915.809	3428
915.921	3500
916.034	3325
916.146	3302
916.259	3222
916.371	3450
916.483	3439
916.595	3283
916.708	3401
916.82	3378
916.932	3382
917.044	3405
917.156	3431
917.268	3291
917.38	3351
917.491	3374
917.603	3439
917.715	3496
917.826	3496
917.938	3420
918.049	3302
918.161	3477
918.272	3610
918.384	3622
918.495	3549
918.606	3397
918.717	3317
918.828	3378
918.939	3466
919.05	3370
919.161	3435
919.272	3253
919.383	3340
919.494	3584
919.604	3755
919.715	3511
919.826	3466
919.936	3500
920.047	3595
920.157	3603
920.267	3785
920.378	3641
920.488	3648
920.598	3797
920.708	4002
920.818	3876
920.928	3865
921.038	4044
921.148	4055
921.258	3762
921.368	3679
921.477	3599
921.587	3561
921.697	3515
921.806	3682
921.916	3572
922.025	3431
922.134	3412
922.244	3382
922.353	3488
922.462	3313
922.571	3268
922.68	3165
922.789	3157
922.898	3214
923.007	3112
923.116	3245
923.224	3207
923.333	3241
923.442	3135
923.55	3131
923.659	3161
923.767	3256
923.876	3157
923.984	3298
924.092	3138
924.201	3241
924.309	3275
924.417	3279
924.525	3211
924.633	3294
924.741	4215
924.849	3074
924.956	3298
925.064	3142
925.172	3066
925.279	3127
925.387	3230
925.494	3268
925.602	3370
925.709	3420
925.816	3214
925.924	3363
926.031	3401
926.138	3344
926.245	3382
926.352	3264
926.459	3428
926.566	3492
926.673	3359
926.779	3302
926.886	3310
926.993	3161
927.099	3173
927.206	3154
927.312	3154
927.419	3302
927.525	3253
927.631	3340
927.737	3192
927.843	3184
927.95	3039
928.056	3173
928.162	3211
928.267	3306
928.373	3930
928.479	3294
928.585	3081
928.69	3241
928.796	3298
928.901	3226
929.007	3066
929.112	3249
929.218	3245
929.323	3203
929.428	3214
929.533	3336
929.638	3176
929.743	3233
929.848	3306
929.953	3233
930.058	3222
930.163	3062
930.267	3100
930.372	3245
930.477	3089
930.581	3348
930.685	3207
930.79	3058
930.894	3161
930.998	3116
931.103	3294
931.207	2960
931.311	2948
931.415	2952
931.519	2800
931.623	2800
