Data from test_V78500241_512.txt Node
Date: Fri Mar 25 16:18:45 CST 2022
User: usil
Spectrometer: V785-0024
Trigger mode: 0
Integration Time (sec): 4.000000E-1
Scans to average: 1
Nonlinearity correction enabled: false
Boxcar width: 0
Storing dark spectrum: false
XAxis mode: Wavelengths
Number of Pixels in Spectrum: 1024
>>>>>Begin Spectral Data<<<<<
801.071	2910
801.214	2914
801.356	2880
801.499	2876
801.641	2895
801.783	2967
801.926	3036
802.068	3009
802.211	2952
802.353	3032
802.496	2933
802.638	2998
802.78	3055
802.923	3081
803.065	3017
803.208	2887
803.35	2918
803.492	2914
803.635	2910
803.777	2743
803.919	2853
804.061	3150
804.204	2994
804.346	2876
804.488	2823
804.63	2971
804.773	2842
804.915	2944
805.057	3062
805.199	2899
805.341	2963
805.483	3062
805.626	2971
805.768	2941
805.91	3051
806.052	3131
806.194	3062
806.336	3214
806.478	3020
806.62	2914
806.762	2979
806.904	3032
807.046	3176
807.188	2990
807.33	2895
807.472	2963
807.614	2880
807.756	2975
807.898	2925
808.04	2861
808.182	2956
808.324	2937
808.465	2906
808.607	2868
808.749	2777
808.891	2864
809.033	2963
809.174	2960
809.316	2902
809.458	2868
809.6	2766
809.741	2758
809.883	2720
810.025	2853
810.166	2845
810.308	2834
810.45	2872
810.591	2754
810.733	2800
810.875	2872
811.016	2743
811.158	2727
811.299	2777
811.441	2937
811.582	2895
811.724	2868
811.865	2815
812.007	2906
812.148	2887
812.29	2849
812.431	2906
812.573	2929
812.714	2933
812.855	3058
812.997	3055
813.138	3127
813.279	3005
813.421	2998
813.562	2914
813.703	2910
813.845	2880
813.986	2735
814.127	2731
814.268	2811
814.41	2819
814.551	2807
814.692	2887
814.833	2823
814.974	2887
815.115	2929
815.256	2845
815.397	2819
815.539	2853
815.68	2758
815.821	2796
815.962	2933
816.103	2944
816.244	2857
816.385	2876
816.526	2971
816.666	2918
816.807	2739
816.948	2902
817.089	2899
817.23	2857
817.371	2781
817.512	2788
817.653	2830
817.793	2819
817.934	2891
818.075	2944
818.216	2956
818.356	2994
818.497	2826
818.638	2766
818.778	2819
818.919	2781
819.06	2762
819.2	2857
819.341	2842
819.481	2792
819.622	2914
819.762	3089
819.903	3032
820.043	2922
820.184	2933
820.324	2902
820.465	2998
820.605	3017
820.746	3020
820.886	2922
821.026	3085
821.167	3161
821.307	3211
821.447	3241
821.588	3253
821.728	3169
821.868	3249
822.008	3070
822.149	3192
822.289	3226
822.429	3058
822.569	3081
822.709	3192
822.849	2994
822.99	3062
823.13	3165
823.27	3157
823.41	3077
823.55	3180
823.69	3135
823.83	3184
823.97	3127
824.11	2986
824.25	3001
824.389	3093
824.529	3112
824.669	3100
824.809	3214
824.949	3230
825.089	3161
825.228	3123
825.368	2952
825.508	2944
825.648	2971
825.787	3020
825.927	3013
826.067	2986
826.206	2986
826.346	3043
826.485	3070
826.625	3093
826.765	3279
826.904	3161
827.044	2994
827.183	2902
827.323	2864
827.462	2971
827.601	2910
827.741	2922
827.88	2929
828.02	2796
828.159	2982
828.298	3005
828.437	3081
828.577	2998
828.716	3218
828.855	3097
828.994	2918
829.134	2838
829.273	2880
829.412	2872
829.551	2880
829.69	2861
829.829	3036
829.968	3112
830.107	3001
830.246	3028
830.385	2937
830.524	2864
830.663	2792
830.802	2678
830.941	2629
831.08	2640
831.219	2758
831.357	2743
831.496	2944
831.635	2701
831.774	2613
831.913	2640
832.051	2526
832.19	2571
832.329	2678
832.467	2507
832.606	2465
832.744	2537
832.883	2575
833.022	2594
833.16	2636
833.299	2655
833.437	2663
833.576	2712
833.714	2746
833.852	2727
833.991	2781
834.129	2804
834.267	2815
834.406	2777
834.544	2834
834.682	2872
834.821	2857
834.959	3081
835.097	2922
835.235	3066
835.373	2971
835.511	3032
835.65	2948
835.788	2933
835.926	2842
836.064	2830
836.202	2899
836.34	3051
836.478	3199
836.615	3028
836.753	3142
836.891	3192
837.029	3157
837.167	3058
837.305	3039
837.443	3039
837.58	2967
837.718	3116
837.856	3062
837.993	2967
838.131	3116
838.269	3066
838.406	3077
838.544	3097
838.681	2929
838.819	2857
838.956	2811
839.094	2849
839.231	2861
839.369	3005
839.506	3348
839.643	3195
839.781	3028
839.918	2971
840.055	3062
840.193	3047
840.33	3085
840.467	3100
840.604	3138
840.742	3397
840.879	3089
841.016	3058
841.153	3108
841.29	3294
841.427	3302
841.564	3237
841.701	3272
841.838	3207
841.975	3161
842.112	3230
842.249	3085
842.385	3009
842.522	3245
842.659	3119
842.796	3062
842.933	3093
843.069	3039
843.206	3028
843.343	3211
843.479	3074
843.616	3173
843.752	2872
843.889	2845
844.025	3097
844.162	2872
844.298	3066
844.435	2960
844.571	2910
844.708	3093
844.844	3192
844.98	3222
845.117	3184
845.253	3043
845.389	2982
845.525	3066
845.661	3097
845.798	3020
845.934	3127
846.07	3017
846.206	3188
846.342	3294
846.478	3203
846.614	3112
846.75	2982
846.886	3032
847.022	3203
847.158	3119
847.294	3173
847.429	3214
847.565	3233
847.701	3443
847.837	2971
847.972	2963
848.108	3169
848.244	3142
848.379	2967
848.515	2956
848.65	2918
848.786	2925
848.921	3017
849.057	3119
849.192	3150
849.328	3051
849.463	3074
849.598	3032
849.734	2986
849.869	2971
850.004	2914
850.14	2990
850.275	2914
850.41	2823
850.545	2914
850.68	2902
850.815	2895
850.95	2967
851.085	3218
851.22	3100
851.355	3028
851.49	2986
851.625	2990
851.76	3005
851.895	2918
852.03	2887
852.165	3009
852.299	3100
852.434	3195
852.569	3119
852.703	3203
852.838	3230
852.973	3306
853.107	3340
853.242	3127
853.376	3062
853.511	2952
853.645	3013
853.78	3211
853.914	3131
854.048	3070
854.183	3058
854.317	3123
854.451	3272
854.585	3081
854.72	3089
854.854	3192
854.988	3036
855.122	3058
855.256	2986
855.39	3146
855.524	3211
855.658	3138
855.792	3165
855.926	3131
856.06	3230
856.194	3253
856.327	3150
856.461	3062
856.595	3051
856.729	3055
856.862	3195
856.996	3150
857.13	3157
857.263	3161
857.397	3283
857.53	3138
857.664	3176
857.797	3218
857.931	3249
858.064	3138
858.197	3188
858.331	3108
858.464	3100
858.597	3005
858.731	3108
858.864	3119
858.997	3051
859.13	3131
859.263	3157
859.396	3195
859.529	3062
859.662	3077
859.795	3020
859.928	3100
860.061	3237
860.194	3256
860.327	3123
860.46	3077
860.592	3203
860.725	3165
860.858	3245
860.99	3112
861.123	3036
861.256	3051
861.388	3100
861.521	3793
861.653	2994
861.786	2982
861.918	2971
862.05	3028
862.183	3074
862.315	3142
862.447	3188
862.58	3043
862.712	2910
862.844	2861
862.976	3024
863.108	2990
863.24	3412
863.372	2838
863.504	2944
863.636	2933
863.768	3013
863.9	2933
864.032	2868
864.164	2933
864.296	2971
864.428	3066
864.559	3070
864.691	3074
864.823	3028
864.954	3043
865.086	3024
865.217	2948
865.349	2937
865.48	2975
865.612	2994
865.743	3154
865.875	2971
866.006	2956
866.137	2952
866.269	2948
866.4	2956
866.531	2937
866.662	2899
866.793	2918
866.924	2887
867.055	2979
867.186	2918
867.317	2925
867.448	2826
867.579	2826
867.71	2891
867.841	2849
867.972	2887
868.103	2899
868.233	2925
868.364	2902
868.495	2925
868.625	3104
868.756	3176
868.886	3028
869.017	3020
869.147	3203
869.278	3195
869.408	3074
869.539	3077
869.669	3165
869.799	3047
869.929	3173
870.06	3165
870.19	3382
870.32	3306
870.45	3332
870.58	3412
870.71	3488
870.84	3473
870.97	3348
871.1	3230
871.23	3526
871.36	3500
871.489	3389
871.619	3420
871.749	3439
871.879	3485
872.008	3511
872.138	3401
872.267	3325
872.397	3176
872.526	3154
872.656	3070
872.785	3116
872.915	3275
873.044	3332
873.173	3256
873.303	3325
873.432	3283
873.561	3313
873.69	3203
873.819	3192
873.948	3188
874.077	3119
874.206	3062
874.335	3116
874.464	3253
874.593	3447
874.722	3268
874.851	3462
874.979	3386
875.108	3359
875.237	3211
875.365	3192
875.494	3195
875.623	3272
875.751	3135
875.88	3176
876.008	3233
876.136	3256
876.265	3393
876.393	3549
876.521	3450
876.65	3424
876.778	3359
876.906	3283
877.034	3245
877.162	3256
877.29	3230
877.418	3279
877.546	3260
877.674	3294
877.802	3272
877.93	3253
878.058	3154
878.185	3127
878.313	3253
878.441	3245
878.568	3077
878.696	3188
878.824	3291
878.951	3363
879.079	3405
879.206	3637
879.333	3458
879.461	3344
879.588	3382
879.715	3473
879.842	3606
879.97	3447
880.097	3211
880.224	3146
880.351	3241
880.478	3230
880.605	3230
880.732	3233
880.859	3534
880.986	3321
881.112	3344
881.239	3195
881.366	3089
881.493	3093
881.619	3009
881.746	3097
881.872	3123
881.999	3131
882.125	3176
882.252	3287
882.378	3317
882.505	3473
882.631	3294
882.757	3173
882.883	3268
883.01	3287
883.136	3207
883.262	3116
883.388	3142
883.514	3363
883.64	3389
883.766	3367
883.892	3218
884.018	3256
884.143	3439
884.269	3591
884.395	3211
884.52	3188
884.646	3199
884.772	3150
884.897	3138
885.023	3241
885.148	3359
885.274	3428
885.399	3378
885.524	3329
885.65	3294
885.775	3355
885.9	3291
886.025	3450
886.15	3386
886.275	3348
886.4	3249
886.525	3313
886.65	3310
886.775	3340
886.9	3530
887.025	3675
887.149	3469
887.274	3298
887.399	3199
887.523	3226
887.648	3203
887.773	3241
887.897	3393
888.021	3409
888.146	3325
888.27	3485
888.395	3545
888.519	3450
888.643	3466
888.767	3481
888.891	3317
889.015	3249
889.139	3332
889.263	3302
889.387	3431
889.511	3557
889.635	3485
889.759	3321
889.883	3298
890.006	3389
890.13	3526
890.254	3317
890.377	3367
890.501	3249
890.624	3199
890.748	3329
890.871	3211
890.995	3127
891.118	3127
891.241	3230
891.364	3233
891.488	3340
891.611	3192
891.734	3253
891.857	3306
891.98	3249
892.103	3367
892.226	3317
892.349	3241
892.471	3180
892.594	3230
892.717	3291
892.839	3313
892.962	3302
893.085	3389
893.207	3298
893.33	3157
893.452	3249
893.575	3374
893.697	3287
893.819	3481
893.941	3507
894.064	3477
894.186	3287
894.308	3321
894.43	3481
894.552	3507
894.674	3477
894.796	3317
894.918	3306
895.04	3291
895.161	3492
895.283	3412
895.405	3363
895.526	3363
895.648	3462
895.769	3466
895.891	3519
896.012	3469
896.134	3504
896.255	3443
896.376	3412
896.498	3397
896.619	3469
896.74	3386
896.861	3412
896.982	3679
897.103	3835
897.224	3622
897.345	3549
897.466	3443
897.587	3526
897.708	3667
897.828	3599
897.949	3462
898.07	3321
898.19	3443
898.311	3637
898.431	3500
898.552	3530
898.672	3614
898.792	3587
898.913	3534
899.033	3454
899.153	3332
899.273	3237
899.393	3306
899.513	3378
899.633	3397
899.753	3351
899.873	3329
899.993	3393
900.113	3329
900.232	3401
900.352	3367
900.472	3321
900.591	3226
900.711	3313
900.83	3287
900.95	3416
901.069	3538
901.189	3332
901.308	3199
901.427	3138
901.546	3226
901.665	3313
901.784	3363
901.904	3230
902.023	3176
902.141	3070
902.26	3017
902.379	3165
902.498	3142
902.617	3070
902.735	3275
902.854	3241
902.973	3233
903.091	3039
903.21	3085
903.328	3154
903.446	3138
903.565	3135
903.683	3249
903.801	3119
903.919	3245
904.038	3298
904.156	3157
904.274	3321
904.392	3256
904.51	3340
904.627	3317
904.745	3500
904.863	3530
904.981	3302
905.098	3169
905.216	3241
905.334	3317
905.451	3325
905.569	3321
905.686	3435
905.803	3450
905.921	3313
906.038	3428
906.155	3386
906.272	3287
906.389	3355
906.506	3253
906.623	3260
906.74	3291
906.857	3222
906.974	3287
907.091	3420
907.208	3591
907.324	3504
907.441	3386
907.557	3260
907.674	3249
907.79	3249
907.907	3313
908.023	3416
908.139	3393
908.256	3355
908.372	3359
908.488	3382
908.604	3275
908.72	3279
908.836	3294
908.952	3310
909.068	3344
909.184	3504
909.3	3428
909.415	3526
909.531	3511
909.647	3317
909.762	3332
909.878	3313
909.993	3355
910.108	3340
910.224	3355
910.339	3389
910.454	3332
910.57	3310
910.685	3275
910.8	3625
910.915	3500
911.03	3454
911.145	3283
911.259	3279
911.374	3291
911.489	3264
911.604	3310
911.718	3138
911.833	3180
911.947	3074
912.062	2990
912.176	3180
912.291	3241
912.405	3233
912.519	3462
912.633	3412
912.748	3348
912.862	3344
912.976	3203
913.09	3108
913.204	3195
913.318	3237
913.431	3370
913.545	3355
913.659	3420
913.772	3344
913.886	3222
914	3218
914.113	3370
914.226	3462
914.34	3355
914.453	3256
914.566	3386
914.68	3340
914.793	3313
914.906	3146
915.019	3119
915.132	3074
915.245	3211
915.358	3180
915.47	3245
915.583	3291
915.696	3332
915.809	3466
915.921	3466
916.034	3264
916.146	3264
916.259	3218
916.371	3431
916.483	3363
916.595	3321
916.708	3317
916.82	3359
916.932	3329
917.044	3355
917.156	3336
917.268	3272
917.38	3298
917.491	3313
917.603	3428
917.715	3443
917.826	3466
917.938	3393
918.049	3298
918.161	3443
918.272	3599
918.384	3614
918.495	3561
918.606	3329
918.717	3264
918.828	3420
918.939	3416
919.05	3329
919.161	3386
919.272	3203
919.383	3336
919.494	3530
919.604	3667
919.715	3500
919.826	3393
919.936	3481
920.047	3622
920.157	3606
920.267	3778
920.378	3606
920.488	3603
920.598	3823
920.708	3964
920.818	3892
920.928	3842
921.038	4063
921.148	4036
921.258	3720
921.368	3625
921.477	3557
921.587	3557
921.697	3458
921.806	3618
921.916	3523
922.025	3405
922.134	3370
922.244	3313
922.353	3431
922.462	3291
922.571	3272
922.68	3146
922.789	3112
922.898	3173
923.007	3093
923.116	3218
923.224	3195
923.333	3173
923.442	3093
923.55	3074
923.659	3142
923.767	3241
923.876	3116
923.984	3253
924.092	3119
924.201	3207
924.309	3222
924.417	3283
924.525	3184
924.633	3241
924.741	4188
924.849	3070
924.956	3363
925.064	3108
925.172	3020
925.279	3093
925.387	3222
925.494	3226
925.602	3386
925.709	3363
925.816	3176
925.924	3329
926.031	3378
926.138	3321
926.245	3405
926.352	3245
926.459	3370
926.566	3504
926.673	3302
926.779	3256
926.886	3237
926.993	3169
927.099	3157
927.206	3097
927.312	3123
927.419	3222
927.525	3184
927.631	3325
927.737	3165
927.843	3119
927.95	3024
928.056	3116
928.162	3188
928.267	3264
928.373	3743
928.479	3313
928.585	3062
928.69	3233
928.796	3287
928.901	3165
929.007	3081
929.112	3195
929.218	3176
929.323	3150
929.428	3142
929.533	3332
929.638	3142
929.743	3173
929.848	3264
929.953	3203
930.058	3150
930.163	3009
930.267	3066
930.372	3192
930.477	3077
930.581	3325
930.685	3207
930.79	3055
930.894	3146
930.998	3108
931.103	3291
931.207	2979
931.311	2929
931.415	2941
931.519	2785
931.623	2826
