Data from test_V78500241_318.txt Node
Date: Fri Mar 25 16:17:24 CST 2022
User: usil
Spectrometer: V785-0024
Trigger mode: 0
Integration Time (sec): 4.000000E-1
Scans to average: 1
Nonlinearity correction enabled: false
Boxcar width: 0
Storing dark spectrum: false
XAxis mode: Wavelengths
Number of Pixels in Spectrum: 1024
>>>>>Begin Spectral Data<<<<<
801.071	2902
801.214	2952
801.356	2895
801.499	2872
801.641	2880
801.783	2941
801.926	3036
802.068	2960
802.211	2994
802.353	3051
802.496	2948
802.638	3032
802.78	3043
802.923	3066
803.065	2994
803.208	2899
803.35	2887
803.492	2956
803.635	2922
803.777	2746
803.919	2830
804.061	3203
804.204	2944
804.346	2902
804.488	2838
804.63	2994
804.773	2899
804.915	2922
805.057	3089
805.199	2960
805.341	2960
805.483	3051
805.626	2998
805.768	2952
805.91	3039
806.052	3081
806.194	3024
806.336	3253
806.478	3020
806.62	2925
806.762	2990
806.904	3081
807.046	3165
807.188	2971
807.33	2941
807.472	2967
807.614	2925
807.756	2998
807.898	2941
808.04	2922
808.182	2948
808.324	2979
808.465	2887
808.607	2849
808.749	2826
808.891	2826
809.033	2956
809.174	2922
809.316	2899
809.458	2883
809.6	2773
809.741	2811
809.883	2785
810.025	2826
810.166	2872
810.308	2830
810.45	2845
810.591	2758
810.733	2746
810.875	2842
811.016	2766
811.158	2781
811.299	2815
811.441	2918
811.582	2899
811.724	2807
811.865	2823
812.007	2910
812.148	2891
812.29	2864
812.431	2906
812.573	2948
812.714	2948
812.855	3039
812.997	3074
813.138	3112
813.279	2990
813.421	2967
813.562	2986
813.703	2906
813.845	2883
813.986	2746
814.127	2724
814.268	2811
814.41	2811
814.551	2800
814.692	2887
814.833	2834
814.974	2891
815.115	2952
815.256	2815
815.397	2842
815.539	2861
815.68	2777
815.821	2792
815.962	2906
816.103	2914
816.244	2899
816.385	2845
816.526	2944
816.666	2902
816.807	2762
816.948	2895
817.089	2895
817.23	2857
817.371	2766
817.512	2804
817.653	2834
817.793	2864
817.934	2880
818.075	2944
818.216	2986
818.356	3039
818.497	2925
818.638	2785
818.778	2815
818.919	2811
819.06	2743
819.2	2899
819.341	2773
819.481	2819
819.622	2914
819.762	3112
819.903	3028
820.043	2960
820.184	2899
820.324	2948
820.465	3036
820.605	2986
820.746	3005
820.886	2918
821.026	3108
821.167	3161
821.307	3241
821.447	3249
821.588	3245
821.728	3195
821.868	3199
822.008	3077
822.149	3199
822.289	3230
822.429	3081
822.569	3089
822.709	3211
822.849	3036
822.99	3085
823.13	3180
823.27	3176
823.41	3119
823.55	3127
823.69	3154
823.83	3211
823.97	3104
824.11	2963
824.25	3013
824.389	3074
824.529	3108
824.669	3089
824.809	3207
824.949	3218
825.089	3233
825.228	3154
825.368	2982
825.508	2982
825.648	2956
825.787	2990
825.927	3020
826.067	2990
826.206	2971
826.346	3036
826.485	3028
826.625	3116
826.765	3275
826.904	3176
827.044	2963
827.183	2952
827.323	2868
827.462	2998
827.601	2952
827.741	2906
827.88	2960
828.02	2868
828.159	2963
828.298	3055
828.437	3093
828.577	3058
828.716	3256
828.855	3066
828.994	2914
829.134	2925
829.273	2922
829.412	2845
829.551	2891
829.69	2899
829.829	2941
829.968	3108
830.107	3024
830.246	3020
830.385	2918
830.524	2880
830.663	2853
830.802	2716
830.941	2663
831.08	2625
831.219	2754
831.357	2746
831.496	2941
831.635	2731
831.774	2636
831.913	2644
832.051	2564
832.19	2575
832.329	2667
832.467	2541
832.606	2492
832.744	2598
832.883	2583
833.022	2564
833.16	2606
833.299	2663
833.437	2670
833.576	2686
833.714	2743
833.852	2746
833.991	2754
834.129	2826
834.267	2853
834.406	2781
834.544	2872
834.682	2891
834.821	2853
834.959	3062
835.097	2899
835.235	3123
835.373	2967
835.511	3028
835.65	2967
835.788	2960
835.926	2857
836.064	2781
836.202	2842
836.34	3085
836.478	3138
836.615	3070
836.753	3157
836.891	3207
837.029	3173
837.167	3100
837.305	3074
837.443	3066
837.58	2918
837.718	3131
837.856	3077
837.993	3039
838.131	3138
838.269	3097
838.406	3146
838.544	3085
838.681	2952
838.819	2899
838.956	2800
839.094	2842
839.231	2933
839.369	2982
839.506	3389
839.643	3192
839.781	3001
839.918	2952
840.055	3032
840.193	3043
840.33	3047
840.467	3116
840.604	3146
840.742	3336
840.879	3051
841.016	3039
841.153	3127
841.29	3351
841.427	3294
841.564	3291
841.701	3302
841.838	3188
841.975	3176
842.112	3230
842.249	3077
842.385	3036
842.522	3272
842.659	3074
842.796	3055
842.933	3093
843.069	3032
843.206	3024
843.343	3173
843.479	3100
843.616	3127
843.752	2899
843.889	2864
844.025	3074
844.162	2864
844.298	3062
844.435	2929
844.571	2891
844.708	3100
844.844	3180
844.98	3237
845.117	3188
845.253	3028
845.389	2994
845.525	3108
845.661	3062
845.798	3024
845.934	3104
846.07	3047
846.206	3222
846.342	3310
846.478	3192
846.614	3039
846.75	3032
846.886	2986
847.022	3272
847.158	3146
847.294	3157
847.429	3249
847.565	3249
847.701	3473
847.837	3058
847.972	3009
848.108	3119
848.244	3146
848.379	3009
848.515	2944
848.65	2929
848.786	2986
848.921	3005
849.057	3112
849.192	3150
849.328	3070
849.463	3089
849.598	3043
849.734	3047
849.869	2971
850.004	2914
850.14	2956
850.275	2910
850.41	2853
850.545	2872
850.68	2910
850.815	2944
850.95	2971
851.085	3169
851.22	3116
851.355	3017
851.49	2960
851.625	2979
851.76	3017
851.895	2933
852.03	2922
852.165	3036
852.299	3119
852.434	3173
852.569	3165
852.703	3161
852.838	3233
852.973	3355
853.107	3317
853.242	3131
853.376	3154
853.511	2956
853.645	3055
853.78	3230
853.914	3100
854.048	3089
854.183	3066
854.317	3161
854.451	3291
854.585	3135
854.72	3081
854.854	3226
854.988	3055
855.122	3089
855.256	2982
855.39	3112
855.524	3275
855.658	3207
855.792	3135
855.926	3211
856.06	3203
856.194	3245
856.327	3169
856.461	3085
856.595	3081
856.729	3081
856.862	3180
856.996	3173
857.13	3203
857.263	3226
857.397	3275
857.53	3100
857.664	3176
857.797	3230
857.931	3241
858.064	3192
858.197	3233
858.331	3116
858.464	3100
858.597	2994
858.731	3127
858.864	3127
858.997	3036
859.13	3119
859.263	3195
859.396	3226
859.529	3028
859.662	3062
859.795	3020
859.928	3157
860.061	3310
860.194	3249
860.327	3093
860.46	3123
860.592	3226
860.725	3218
860.858	3237
860.99	3089
861.123	3047
861.256	3070
861.388	3142
861.521	3861
861.653	3005
861.786	2998
861.918	2979
862.05	3077
862.183	3108
862.315	3127
862.447	3173
862.58	3100
862.712	2944
862.844	2891
862.976	2998
863.108	2994
863.24	3310
863.372	2902
863.504	2952
863.636	2967
863.768	3024
863.9	2956
864.032	2895
864.164	2922
864.296	3013
864.428	3097
864.559	3074
864.691	3070
864.823	3066
864.954	2990
865.086	3062
865.217	3017
865.349	2963
865.48	2979
865.612	3032
865.743	3161
865.875	2986
866.006	2948
866.137	2967
866.269	2937
866.4	2956
866.531	2933
866.662	2925
866.793	2922
866.924	2887
867.055	2948
867.186	2918
867.317	2876
867.448	2811
867.579	2849
867.71	2849
867.841	2815
867.972	2876
868.103	2891
868.233	2910
868.364	2883
868.495	2899
868.625	3089
868.756	3161
868.886	2960
869.017	3020
869.147	3188
869.278	3146
869.408	3058
869.539	3009
869.669	3093
869.799	3043
869.929	3104
870.06	3093
870.19	3310
870.32	3294
870.45	3237
870.58	3359
870.71	3435
870.84	3466
870.97	3291
871.1	3264
871.23	3519
871.36	3431
871.489	3332
871.619	3378
871.749	3405
871.879	3439
872.008	3511
872.138	3332
872.267	3294
872.397	3138
872.526	3097
872.656	3039
872.785	3058
872.915	3237
873.044	3283
873.173	3249
873.303	3264
873.432	3260
873.561	3264
873.69	3112
873.819	3173
873.948	3157
874.077	3108
874.206	3058
874.335	3089
874.464	3207
874.593	3393
874.722	3195
874.851	3355
874.979	3389
875.108	3332
875.237	3199
875.365	3100
875.494	3188
875.623	3230
875.751	3108
875.88	3127
876.008	3192
876.136	3192
876.265	3359
876.393	3511
876.521	3401
876.65	3382
876.778	3351
876.906	3249
877.034	3203
877.162	3211
877.29	3173
877.418	3241
877.546	3211
877.674	3256
877.802	3211
877.93	3245
878.058	3165
878.185	3108
878.313	3214
878.441	3173
878.568	3062
878.696	3146
878.824	3214
878.951	3287
879.079	3401
879.206	3561
879.333	3412
879.461	3355
879.588	3344
879.715	3492
879.842	3622
879.97	3386
880.097	3184
880.224	3135
880.351	3211
880.478	3207
880.605	3211
880.732	3192
880.859	3454
880.986	3298
881.112	3336
881.239	3192
881.366	3100
881.493	3036
881.619	3051
881.746	3093
881.872	3100
881.999	3089
882.125	3135
882.252	3272
882.378	3294
882.505	3386
882.631	3260
882.757	3169
882.883	3176
883.01	3188
883.136	3188
883.262	3081
883.388	3055
883.514	3287
883.64	3386
883.766	3332
883.892	3199
884.018	3279
884.143	3428
884.269	3500
884.395	3184
884.52	3176
884.646	3184
884.772	3100
884.897	3077
885.023	3195
885.148	3329
885.274	3420
885.399	3359
885.524	3279
885.65	3226
885.775	3298
885.9	3264
886.025	3424
886.15	3378
886.275	3317
886.4	3222
886.525	3306
886.65	3249
886.775	3294
886.9	3477
887.025	3656
887.149	3412
887.274	3268
887.399	3195
887.523	3192
887.648	3169
887.773	3188
887.897	3378
888.021	3412
888.146	3298
888.27	3405
888.395	3553
888.519	3420
888.643	3466
888.767	3466
888.891	3298
889.015	3283
889.139	3321
889.263	3245
889.387	3389
889.511	3488
889.635	3428
889.759	3272
889.883	3306
890.006	3378
890.13	3488
890.254	3249
890.377	3336
890.501	3192
890.624	3192
890.748	3313
890.871	3199
890.995	3112
891.118	3051
891.241	3184
891.364	3195
891.488	3294
891.611	3157
891.734	3226
891.857	3298
891.98	3195
892.103	3329
892.226	3283
892.349	3241
892.471	3150
892.594	3199
892.717	3283
892.839	3264
892.962	3268
893.085	3348
893.207	3298
893.33	3135
893.452	3199
893.575	3313
893.697	3310
893.819	3492
893.941	3507
894.064	3447
894.186	3256
894.308	3272
894.43	3420
894.552	3485
894.674	3469
894.796	3233
894.918	3336
895.04	3272
895.161	3439
895.283	3374
895.405	3302
895.526	3363
895.648	3439
895.769	3435
895.891	3469
896.012	3469
896.134	3462
896.255	3401
896.376	3412
896.498	3367
896.619	3409
896.74	3348
896.861	3382
896.982	3675
897.103	3827
897.224	3610
897.345	3504
897.466	3477
897.587	3511
897.708	3606
897.828	3488
897.949	3424
898.07	3340
898.19	3405
898.311	3610
898.431	3428
898.552	3488
898.672	3576
898.792	3576
898.913	3473
899.033	3386
899.153	3272
899.273	3195
899.393	3268
899.513	3302
899.633	3332
899.753	3351
899.873	3344
899.993	3367
900.113	3310
900.232	3443
900.352	3367
900.472	3260
900.591	3184
900.711	3268
900.83	3195
900.95	3389
901.069	3477
901.189	3344
901.308	3184
901.427	3108
901.546	3218
901.665	3302
901.784	3291
901.904	3218
902.023	3097
902.141	3032
902.26	2975
902.379	3188
902.498	3066
902.617	3039
902.735	3214
902.854	3226
902.973	3233
903.091	3024
903.21	3047
903.328	3104
903.446	3104
903.565	3100
903.683	3154
903.801	3108
903.919	3310
904.038	3268
904.156	3157
904.274	3268
904.392	3268
904.51	3260
904.627	3272
904.745	3412
904.863	3466
904.981	3256
905.098	3203
905.216	3203
905.334	3321
905.451	3306
905.569	3283
905.686	3412
905.803	3416
905.921	3279
906.038	3378
906.155	3359
906.272	3253
906.389	3279
906.506	3218
906.623	3256
906.74	3264
906.857	3218
906.974	3253
907.091	3454
907.208	3584
907.324	3469
907.441	3393
907.557	3218
907.674	3226
907.79	3218
907.907	3264
908.023	3332
908.139	3367
908.256	3306
908.372	3374
908.488	3370
908.604	3233
908.72	3207
908.836	3256
908.952	3245
909.068	3310
909.184	3500
909.3	3393
909.415	3488
909.531	3477
909.647	3268
909.762	3268
909.878	3268
909.993	3359
910.108	3325
910.224	3321
910.339	3359
910.454	3310
910.57	3317
910.685	3249
910.8	3587
910.915	3530
911.03	3405
911.145	3211
911.259	3230
911.374	3344
911.489	3207
911.604	3233
911.718	3112
911.833	3146
911.947	3005
912.062	2982
912.176	3157
912.291	3199
912.405	3192
912.519	3401
912.633	3466
912.748	3351
912.862	3260
912.976	3211
913.09	3047
913.204	3104
913.318	3199
913.431	3386
913.545	3359
913.659	3466
913.772	3344
913.886	3199
914	3222
914.113	3351
914.226	3428
914.34	3431
914.453	3264
914.566	3409
914.68	3321
914.793	3313
914.906	3150
915.019	3097
915.132	3108
915.245	3237
915.358	3230
915.47	3233
915.583	3279
915.696	3291
915.809	3447
915.921	3416
916.034	3256
916.146	3268
916.259	3230
916.371	3439
916.483	3416
916.595	3275
916.708	3378
916.82	3393
916.932	3351
917.044	3359
917.156	3378
917.268	3264
917.38	3355
917.491	3374
917.603	3420
917.715	3481
917.826	3496
917.938	3462
918.049	3336
918.161	3469
918.272	3542
918.384	3622
918.495	3542
918.606	3412
918.717	3355
918.828	3382
918.939	3492
919.05	3298
919.161	3389
919.272	3233
919.383	3340
919.494	3549
919.604	3717
919.715	3526
919.826	3435
919.936	3496
920.047	3599
920.157	3595
920.267	3781
920.378	3660
920.488	3606
920.598	3804
920.708	3983
920.818	3827
920.928	3896
921.038	4067
921.148	4006
921.258	3732
921.368	3652
921.477	3663
921.587	3606
921.697	3507
921.806	3663
921.916	3580
922.025	3416
922.134	3405
922.244	3325
922.353	3477
922.462	3317
922.571	3256
922.68	3138
922.789	3097
922.898	3165
923.007	3100
923.116	3237
923.224	3207
923.333	3230
923.442	3146
923.55	3150
923.659	3154
923.767	3256
923.876	3184
923.984	3268
924.092	3112
924.201	3260
924.309	3310
924.417	3283
924.525	3245
924.633	3279
924.741	4188
924.849	3093
924.956	3321
925.064	3093
925.172	3074
925.279	3119
925.387	3237
925.494	3245
925.602	3401
925.709	3409
925.816	3249
925.924	3313
926.031	3431
926.138	3382
926.245	3405
926.352	3260
926.459	3488
926.566	3530
926.673	3359
926.779	3283
926.886	3306
926.993	3199
927.099	3169
927.206	3142
927.312	3169
927.419	3264
927.525	3275
927.631	3332
927.737	3192
927.843	3161
927.95	3070
928.056	3207
928.162	3199
928.267	3279
928.373	3922
928.479	3310
928.585	3089
928.69	3268
928.796	3291
928.901	3195
929.007	3097
929.112	3245
929.218	3218
929.323	3169
929.428	3127
929.533	3313
929.638	3165
929.743	3192
929.848	3268
929.953	3237
930.058	3184
930.163	3009
930.267	3066
930.372	3226
930.477	3055
930.581	3374
930.685	3184
930.79	3085
930.894	3123
930.998	3127
931.103	3279
931.207	2979
931.311	2986
931.415	2971
931.519	2800
931.623	2838
