Data from test_V78500241_800.txt Node
Date: Fri Mar 25 16:20:44 CST 2022
User: usil
Spectrometer: V785-0024
Trigger mode: 0
Integration Time (sec): 4.000000E-1
Scans to average: 1
Nonlinearity correction enabled: false
Boxcar width: 0
Storing dark spectrum: false
XAxis mode: Wavelengths
Number of Pixels in Spectrum: 1024
>>>>>Begin Spectral Data<<<<<
801.071	2887
801.214	2944
801.356	2887
801.499	2948
801.641	2861
801.783	2925
801.926	3043
802.068	2960
802.211	2956
802.353	3020
802.496	2990
802.638	3028
802.78	3032
802.923	3089
803.065	3036
803.208	2895
803.35	2948
803.492	2929
803.635	2937
803.777	2762
803.919	2883
804.061	3157
804.204	2982
804.346	2944
804.488	2815
804.63	3009
804.773	2864
804.915	2906
805.057	3058
805.199	2933
805.341	3013
805.483	3058
805.626	3013
805.768	2990
805.91	3074
806.052	3104
806.194	3058
806.336	3233
806.478	3028
806.62	2967
806.762	2994
806.904	3062
807.046	3150
807.188	3001
807.33	2925
807.472	2941
807.614	2910
807.756	2979
807.898	2922
808.04	2868
808.182	2982
808.324	2918
808.465	2887
808.607	2819
808.749	2804
808.891	2838
809.033	3001
809.174	2963
809.316	2876
809.458	2880
809.6	2739
809.741	2781
809.883	2781
810.025	2811
810.166	2826
810.308	2838
810.45	2845
810.591	2773
810.733	2792
810.875	2853
811.016	2804
811.158	2766
811.299	2823
811.441	2902
811.582	2914
811.724	2800
811.865	2811
812.007	2864
812.148	2891
812.29	2849
812.431	2868
812.573	2906
812.714	2941
812.855	3051
812.997	3062
813.138	3135
813.279	3032
813.421	2944
813.562	2925
813.703	2861
813.845	2864
813.986	2800
814.127	2716
814.268	2849
814.41	2815
814.551	2804
814.692	2842
814.833	2811
814.974	2864
815.115	2933
815.256	2815
815.397	2800
815.539	2842
815.68	2773
815.821	2823
815.962	2952
816.103	2933
816.244	2887
816.385	2883
816.526	2963
816.666	2910
816.807	2754
816.948	2883
817.089	2880
817.23	2826
817.371	2785
817.512	2762
817.653	2811
817.793	2792
817.934	2864
818.075	2925
818.216	2994
818.356	3005
818.497	2849
818.638	2807
818.778	2811
818.919	2777
819.06	2796
819.2	2861
819.341	2800
819.481	2815
819.622	2933
819.762	3100
819.903	3032
820.043	2922
820.184	2887
820.324	2880
820.465	3036
820.605	3020
820.746	3005
820.886	2922
821.026	3085
821.167	3127
821.307	3233
821.447	3321
821.588	3222
821.728	3192
821.868	3173
822.008	3085
822.149	3211
822.289	3211
822.429	3097
822.569	3085
822.709	3146
822.849	3066
822.99	3020
823.13	3165
823.27	3237
823.41	3142
823.55	3150
823.69	3150
823.83	3188
823.97	3089
824.11	2986
824.25	3001
824.389	3039
824.529	3119
824.669	3051
824.809	3150
824.949	3237
825.089	3173
825.228	3169
825.368	2990
825.508	2990
825.648	2963
825.787	3032
825.927	3020
826.067	2971
826.206	2963
826.346	3028
826.485	3074
826.625	3085
826.765	3279
826.904	3211
827.044	2986
827.183	2914
827.323	2849
827.462	3009
827.601	2925
827.741	2929
827.88	2952
828.02	2845
828.159	2982
828.298	3055
828.437	3097
828.577	3039
828.716	3245
828.855	3089
828.994	2891
829.134	2887
829.273	2914
829.412	2868
829.551	2845
829.69	2902
829.829	2990
829.968	3108
830.107	3036
830.246	3039
830.385	2933
830.524	2902
830.663	2815
830.802	2689
830.941	2659
831.08	2629
831.219	2739
831.357	2746
831.496	2910
831.635	2720
831.774	2670
831.913	2678
832.051	2549
832.19	2564
832.329	2716
832.467	2526
832.606	2469
832.744	2564
832.883	2583
833.022	2594
833.16	2648
833.299	2678
833.437	2724
833.576	2689
833.714	2720
833.852	2735
833.991	2758
834.129	2811
834.267	2823
834.406	2807
834.544	2868
834.682	2849
834.821	2838
834.959	3077
835.097	2887
835.235	3066
835.373	3013
835.511	2986
835.65	2956
835.788	2925
835.926	2804
836.064	2819
836.202	2792
836.34	3097
836.478	3135
836.615	3043
836.753	3131
836.891	3207
837.029	3138
837.167	3089
837.305	3066
837.443	3043
837.58	2960
837.718	3108
837.856	3066
837.993	2982
838.131	3089
838.269	3089
838.406	3119
838.544	3074
838.681	2937
838.819	2899
838.956	2792
839.094	2792
839.231	2895
839.369	3020
839.506	3351
839.643	3192
839.781	3020
839.918	2941
840.055	3058
840.193	3036
840.33	3058
840.467	3074
840.604	3116
840.742	3378
840.879	3051
841.016	3055
841.153	3119
841.29	3310
841.427	3275
841.564	3268
841.701	3313
841.838	3176
841.975	3157
842.112	3211
842.249	3066
842.385	3020
842.522	3218
842.659	3081
842.796	3043
842.933	3112
843.069	3043
843.206	3036
843.343	3165
843.479	3085
843.616	3135
843.752	2868
843.889	2899
844.025	3032
844.162	2857
844.298	3074
844.435	2922
844.571	2902
844.708	3066
844.844	3165
844.98	3264
845.117	3180
845.253	3062
845.389	3013
845.525	3089
845.661	3112
845.798	2990
845.934	3131
846.07	3028
846.206	3211
846.342	3321
846.478	3233
846.614	3104
846.75	3036
846.886	3032
847.022	3218
847.158	3112
847.294	3203
847.429	3211
847.565	3214
847.701	3466
847.837	3028
847.972	2979
848.108	3157
848.244	3169
848.379	2971
848.515	2918
848.65	2941
848.786	2971
848.921	2998
849.057	3093
849.192	3157
849.328	3104
849.463	3077
849.598	3085
849.734	3009
849.869	2986
850.004	2906
850.14	2952
850.275	2944
850.41	2868
850.545	2849
850.68	2941
850.815	2929
850.95	2937
851.085	3218
851.22	3081
851.355	3032
851.49	2994
851.625	2979
851.76	3043
851.895	2914
852.03	2899
852.165	2979
852.299	3085
852.434	3173
852.569	3131
852.703	3184
852.838	3272
852.973	3329
853.107	3291
853.242	3119
853.376	3074
853.511	2929
853.645	3013
853.78	3230
853.914	3116
854.048	3089
854.183	3032
854.317	3119
854.451	3272
854.585	3131
854.72	3089
854.854	3192
854.988	3032
855.122	3077
855.256	2937
855.39	3138
855.524	3230
855.658	3131
855.792	3165
855.926	3157
856.06	3207
856.194	3226
856.327	3123
856.461	3051
856.595	3081
856.729	3104
856.862	3218
856.996	3176
857.13	3195
857.263	3241
857.397	3329
857.53	3100
857.664	3218
857.797	3222
857.931	3218
858.064	3150
858.197	3249
858.331	3112
858.464	3112
858.597	3009
858.731	3108
858.864	3104
858.997	3062
859.13	3135
859.263	3165
859.396	3169
859.529	3043
859.662	3070
859.795	3028
859.928	3123
860.061	3256
860.194	3268
860.327	3119
860.46	3127
860.592	3233
860.725	3287
860.858	3237
860.99	3089
861.123	3047
861.256	3047
861.388	3116
861.521	3953
861.653	3009
861.786	2971
861.918	3005
862.05	3043
862.183	3123
862.315	3165
862.447	3195
862.58	3097
862.712	2948
862.844	2880
862.976	3051
863.108	3005
863.24	3291
863.372	2853
863.504	2967
863.636	2914
863.768	2998
863.9	2963
864.032	2922
864.164	2963
864.296	3005
864.428	3081
864.559	3093
864.691	3097
864.823	3043
864.954	3055
865.086	3032
865.217	2990
865.349	2986
865.48	3001
865.612	2971
865.743	3119
865.875	2960
866.006	2910
866.137	2960
866.269	2941
866.4	2887
866.531	2944
866.662	2891
866.793	2876
866.924	2883
867.055	2975
867.186	2925
867.317	2906
867.448	2838
867.579	2815
867.71	2845
867.841	2773
867.972	2891
868.103	2895
868.233	2883
868.364	2857
868.495	2895
868.625	3062
868.756	3146
868.886	2956
869.017	3013
869.147	3161
869.278	3135
869.408	3058
869.539	2994
869.669	3085
869.799	3036
869.929	3100
870.06	3066
870.19	3287
870.32	3279
870.45	3294
870.58	3370
870.71	3477
870.84	3450
870.97	3275
871.1	3199
871.23	3416
871.36	3447
871.489	3325
871.619	3412
871.749	3355
871.879	3443
872.008	3492
872.138	3355
872.267	3253
872.397	3150
872.526	3119
872.656	3005
872.785	3108
872.915	3199
873.044	3306
873.173	3222
873.303	3207
873.432	3222
873.561	3180
873.69	3112
873.819	3127
873.948	3180
874.077	3081
874.206	3039
874.335	3058
874.464	3192
874.593	3317
874.722	3226
874.851	3351
874.979	3340
875.108	3298
875.237	3203
875.365	3142
875.494	3199
875.623	3184
875.751	3085
875.88	3108
876.008	3207
876.136	3199
876.265	3310
876.393	3466
876.521	3401
876.65	3321
876.778	3321
876.906	3207
877.034	3165
877.162	3188
877.29	3173
877.418	3195
877.546	3249
877.674	3245
877.802	3226
877.93	3214
878.058	3089
878.185	3097
878.313	3176
878.441	3207
878.568	3070
878.696	3089
878.824	3233
878.951	3222
879.079	3424
879.206	3618
879.333	3458
879.461	3313
879.588	3329
879.715	3462
879.842	3572
879.97	3363
880.097	3119
880.224	3112
880.351	3180
880.478	3184
880.605	3180
880.732	3176
880.859	3492
880.986	3294
881.112	3344
881.239	3184
881.366	3051
881.493	3043
881.619	3001
881.746	3051
881.872	3058
881.999	3097
882.125	3119
882.252	3237
882.378	3268
882.505	3428
882.631	3211
882.757	3135
882.883	3180
883.01	3233
883.136	3135
883.262	3085
883.388	3093
883.514	3344
883.64	3351
883.766	3291
883.892	3165
884.018	3230
884.143	3428
884.269	3526
884.395	3207
884.52	3138
884.646	3150
884.772	3135
884.897	3119
885.023	3199
885.148	3336
885.274	3397
885.399	3409
885.524	3283
885.65	3291
885.775	3321
885.9	3283
886.025	3374
886.15	3359
886.275	3325
886.4	3214
886.525	3302
886.65	3310
886.775	3264
886.9	3488
887.025	3603
887.149	3424
887.274	3291
887.399	3184
887.523	3230
887.648	3176
887.773	3207
887.897	3378
888.021	3431
888.146	3313
888.27	3401
888.395	3515
888.519	3450
888.643	3447
888.767	3534
888.891	3355
889.015	3294
889.139	3355
889.263	3256
889.387	3412
889.511	3534
889.635	3443
889.759	3298
889.883	3283
890.006	3431
890.13	3485
890.254	3302
890.377	3355
890.501	3233
890.624	3241
890.748	3321
890.871	3203
890.995	3135
891.118	3161
891.241	3241
891.364	3291
891.488	3355
891.611	3218
891.734	3253
891.857	3310
891.98	3264
892.103	3359
892.226	3340
892.349	3260
892.471	3104
892.594	3294
892.717	3291
892.839	3298
892.962	3336
893.085	3367
893.207	3329
893.33	3192
893.452	3233
893.575	3340
893.697	3272
893.819	3504
893.941	3545
894.064	3473
894.186	3294
894.308	3298
894.43	3488
894.552	3610
894.674	3523
894.796	3291
894.918	3321
895.04	3306
895.161	3469
895.283	3450
895.405	3344
895.526	3382
895.648	3454
895.769	3450
895.891	3488
896.012	3496
896.134	3492
896.255	3450
896.376	3439
896.498	3389
896.619	3481
896.74	3409
896.861	3428
896.982	3701
897.103	3865
897.224	3675
897.345	3564
897.466	3500
897.587	3511
897.708	3656
897.828	3568
897.949	3439
898.07	3351
898.19	3458
898.311	3591
898.431	3500
898.552	3576
898.672	3618
898.792	3656
898.913	3580
899.033	3443
899.153	3329
899.273	3195
899.393	3272
899.513	3370
899.633	3359
899.753	3393
899.873	3344
899.993	3367
900.113	3397
900.232	3393
900.352	3374
900.472	3279
900.591	3241
900.711	3302
900.83	3253
900.95	3488
901.069	3523
901.189	3382
901.308	3199
901.427	3135
901.546	3173
901.665	3298
901.784	3386
901.904	3260
902.023	3169
902.141	3043
902.26	3043
902.379	3154
902.498	3066
902.617	3077
902.735	3226
902.854	3214
902.973	3237
903.091	3070
903.21	3074
903.328	3184
903.446	3142
903.565	3089
903.683	3256
903.801	3157
903.919	3256
904.038	3329
904.156	3192
904.274	3294
904.392	3268
904.51	3313
904.627	3367
904.745	3496
904.863	3523
904.981	3306
905.098	3230
905.216	3302
905.334	3340
905.451	3321
905.569	3310
905.686	3458
905.803	3447
905.921	3317
906.038	3481
906.155	3386
906.272	3272
906.389	3405
906.506	3249
906.623	3268
906.74	3310
906.857	3230
906.974	3249
907.091	3511
907.208	3564
907.324	3526
907.441	3431
907.557	3264
907.674	3230
907.79	3241
907.907	3306
908.023	3405
908.139	3416
908.256	3386
908.372	3382
908.488	3389
908.604	3317
908.72	3283
908.836	3306
908.952	3351
909.068	3386
909.184	3504
909.3	3416
909.415	3545
909.531	3466
909.647	3302
909.762	3256
909.878	3283
909.993	3401
910.108	3386
910.224	3378
910.339	3462
910.454	3325
910.57	3298
910.685	3275
910.8	3622
910.915	3557
911.03	3428
911.145	3283
911.259	3302
911.374	3336
911.489	3264
911.604	3268
911.718	3150
911.833	3192
911.947	3032
912.062	3024
912.176	3176
912.291	3260
912.405	3214
912.519	3477
912.633	3496
912.748	3382
912.862	3306
912.976	3184
913.09	3089
913.204	3150
913.318	3260
913.431	3329
913.545	3325
913.659	3458
913.772	3348
913.886	3245
914	3275
914.113	3359
914.226	3458
914.34	3397
914.453	3222
914.566	3454
914.68	3294
914.793	3348
914.906	3150
915.019	3131
915.132	3100
915.245	3211
915.358	3233
915.47	3245
915.583	3291
915.696	3325
915.809	3424
915.921	3477
916.034	3283
916.146	3291
916.259	3233
916.371	3393
916.483	3363
916.595	3275
916.708	3351
916.82	3351
916.932	3386
917.044	3340
917.156	3374
917.268	3291
917.38	3332
917.491	3306
917.603	3389
917.715	3485
917.826	3500
917.938	3428
918.049	3264
918.161	3450
918.272	3545
918.384	3622
918.495	3492
918.606	3401
918.717	3302
918.828	3393
918.939	3435
919.05	3321
919.161	3378
919.272	3237
919.383	3291
919.494	3561
919.604	3717
919.715	3504
919.826	3405
919.936	3462
920.047	3637
920.157	3538
920.267	3812
920.378	3644
920.488	3587
920.598	3808
920.708	4017
920.818	3831
920.928	3854
921.038	4063
921.148	4013
921.258	3701
921.368	3656
921.477	3633
921.587	3584
921.697	3481
921.806	3660
921.916	3519
922.025	3386
922.134	3370
922.244	3317
922.353	3454
922.462	3253
922.571	3264
922.68	3150
922.789	3081
922.898	3169
923.007	3100
923.116	3222
923.224	3218
923.333	3226
923.442	3119
923.55	3108
923.659	3138
923.767	3237
923.876	3112
923.984	3230
924.092	3135
924.201	3230
924.309	3233
924.417	3264
924.525	3226
924.633	3272
924.741	4219
924.849	3047
924.956	3291
925.064	3161
925.172	3077
925.279	3112
925.387	3230
925.494	3222
925.602	3393
925.709	3348
925.816	3199
925.924	3298
926.031	3435
926.138	3321
926.245	3389
926.352	3264
926.459	3409
926.566	3485
926.673	3355
926.779	3283
926.886	3256
926.993	3173
927.099	3180
927.206	3150
927.312	3157
927.419	3241
927.525	3222
927.631	3294
927.737	3146
927.843	3142
927.95	3013
928.056	3180
928.162	3184
928.267	3268
928.373	3789
928.479	3340
928.585	3077
928.69	3233
928.796	3245
928.901	3192
929.007	3074
929.112	3283
929.218	3154
929.323	3184
929.428	3173
929.533	3325
929.638	3157
929.743	3180
929.848	3245
929.953	3230
930.058	3154
930.163	3005
930.267	3074
930.372	3249
930.477	3066
930.581	3329
930.685	3184
930.79	3108
930.894	3100
930.998	3108
931.103	3329
931.207	2990
931.311	3001
931.415	2956
931.519	2815
931.623	2853
