Data from test_V78500241_394.txt Node
Date: Fri Mar 25 16:17:55 CST 2022
User: usil
Spectrometer: V785-0024
Trigger mode: 0
Integration Time (sec): 4.000000E-1
Scans to average: 1
Nonlinearity correction enabled: false
Boxcar width: 0
Storing dark spectrum: false
XAxis mode: Wavelengths
Number of Pixels in Spectrum: 1024
>>>>>Begin Spectral Data<<<<<
801.071	2918
801.214	2941
801.356	2864
801.499	2895
801.641	2857
801.783	2895
801.926	3043
802.068	2998
802.211	2975
802.353	3028
802.496	2963
802.638	3024
802.78	3047
802.923	3017
803.065	3017
803.208	2887
803.35	2883
803.492	2937
803.635	2891
803.777	2758
803.919	2876
804.061	3173
804.204	2963
804.346	2906
804.488	2826
804.63	2971
804.773	2857
804.915	2914
805.057	3070
805.199	2929
805.341	2979
805.483	3062
805.626	2990
805.768	2937
805.91	3070
806.052	3093
806.194	3032
806.336	3199
806.478	3032
806.62	2963
806.762	2982
806.904	3051
807.046	3146
807.188	2960
807.33	2891
807.472	2963
807.614	2914
807.756	2979
807.898	2880
808.04	2868
808.182	2986
808.324	2967
808.465	2914
808.607	2819
808.749	2804
808.891	2872
809.033	2960
809.174	2963
809.316	2891
809.458	2853
809.6	2735
809.741	2796
809.883	2758
810.025	2845
810.166	2834
810.308	2815
810.45	2845
810.591	2773
810.733	2758
810.875	2838
811.016	2804
811.158	2777
811.299	2834
811.441	2941
811.582	2864
811.724	2819
811.865	2845
812.007	2906
812.148	2876
812.29	2838
812.431	2857
812.573	2922
812.714	2956
812.855	3032
812.997	3051
813.138	3142
813.279	3024
813.421	2990
813.562	2944
813.703	2868
813.845	2864
813.986	2788
814.127	2705
814.268	2811
814.41	2861
814.551	2804
814.692	2880
814.833	2849
814.974	2929
815.115	2933
815.256	2815
815.397	2849
815.539	2853
815.68	2769
815.821	2777
815.962	2948
816.103	2922
816.244	2876
816.385	2853
816.526	2986
816.666	2929
816.807	2754
816.948	2887
817.089	2929
817.23	2864
817.371	2773
817.512	2773
817.653	2777
817.793	2815
817.934	2899
818.075	2941
818.216	3020
818.356	3032
818.497	2864
818.638	2773
818.778	2823
818.919	2788
819.06	2800
819.2	2876
819.341	2800
819.481	2792
819.622	2887
819.762	3116
819.903	3062
820.043	2925
820.184	2937
820.324	2872
820.465	3001
820.605	3039
820.746	3017
820.886	2963
821.026	3093
821.167	3146
821.307	3226
821.447	3287
821.588	3237
821.728	3184
821.868	3192
822.008	3062
822.149	3207
822.289	3241
822.429	3116
822.569	3097
822.709	3192
822.849	3043
822.99	3055
823.13	3127
823.27	3184
823.41	3081
823.55	3150
823.69	3146
823.83	3199
823.97	3104
824.11	2986
824.25	3009
824.389	3089
824.529	3093
824.669	3047
824.809	3199
824.949	3226
825.089	3207
825.228	3165
825.368	3028
825.508	2914
825.648	2979
825.787	2990
825.927	3013
826.067	2979
826.206	2933
826.346	3093
826.485	3062
826.625	3135
826.765	3237
826.904	3218
827.044	2990
827.183	2941
827.323	2857
827.462	2960
827.601	2937
827.741	2906
827.88	2971
828.02	2853
828.159	2979
828.298	3005
828.437	3070
828.577	3043
828.716	3241
828.855	3062
828.994	2880
829.134	2876
829.273	2925
829.412	2788
829.551	2876
829.69	2910
829.829	2982
829.968	3119
830.107	2994
830.246	3028
830.385	2941
830.524	2868
830.663	2815
830.802	2705
830.941	2659
831.08	2613
831.219	2777
831.357	2762
831.496	2948
831.635	2701
831.774	2655
831.913	2640
832.051	2526
832.19	2575
832.329	2689
832.467	2552
832.606	2492
832.744	2583
832.883	2583
833.022	2610
833.16	2674
833.299	2663
833.437	2705
833.576	2693
833.714	2735
833.852	2720
833.991	2754
834.129	2838
834.267	2804
834.406	2773
834.544	2868
834.682	2880
834.821	2849
834.959	3062
835.097	2899
835.235	3058
835.373	3009
835.511	3032
835.65	2956
835.788	2933
835.926	2819
836.064	2777
836.202	2823
836.34	3089
836.478	3131
836.615	3005
836.753	3150
836.891	3192
837.029	3150
837.167	3070
837.305	3051
837.443	3039
837.58	2937
837.718	3146
837.856	3074
837.993	3017
838.131	3077
838.269	3089
838.406	3077
838.544	3074
838.681	2956
838.819	2933
838.956	2807
839.094	2838
839.231	2933
839.369	3001
839.506	3424
839.643	3195
839.781	3009
839.918	2960
840.055	3070
840.193	3028
840.33	3043
840.467	3093
840.604	3146
840.742	3401
840.879	3074
841.016	3070
841.153	3123
841.29	3317
841.427	3336
841.564	3241
841.701	3298
841.838	3230
841.975	3192
842.112	3203
842.249	3119
842.385	3039
842.522	3207
842.659	3093
842.796	3104
842.933	3093
843.069	3055
843.206	3051
843.343	3180
843.479	3081
843.616	3123
843.752	2895
843.889	2830
844.025	3077
844.162	2883
844.298	3070
844.435	2902
844.571	2910
844.708	3051
844.844	3180
844.98	3233
845.117	3207
845.253	3009
845.389	3005
845.525	3123
845.661	3104
845.798	2998
845.934	3119
846.07	3081
846.206	3211
846.342	3310
846.478	3165
846.614	3077
846.75	3062
846.886	3039
847.022	3256
847.158	3131
847.294	3207
847.429	3230
847.565	3222
847.701	3488
847.837	3005
847.972	3036
848.108	3165
848.244	3142
848.379	2990
848.515	2914
848.65	2925
848.786	2971
848.921	2998
849.057	3093
849.192	3112
849.328	3062
849.463	3138
849.598	3070
849.734	3009
849.869	2979
850.004	2902
850.14	2986
850.275	2891
850.41	2834
850.545	2895
850.68	2952
850.815	2967
850.95	2944
851.085	3138
851.22	3074
851.355	3039
851.49	3001
851.625	3047
851.76	3020
851.895	2929
852.03	2895
852.165	3005
852.299	3138
852.434	3176
852.569	3138
852.703	3154
852.838	3253
852.973	3329
853.107	3374
853.242	3157
853.376	3055
853.511	2929
853.645	3028
853.78	3218
853.914	3097
854.048	3138
854.183	3104
854.317	3116
854.451	3294
854.585	3093
854.72	3097
854.854	3241
854.988	3032
855.122	3081
855.256	2941
855.39	3104
855.524	3233
855.658	3180
855.792	3146
855.926	3146
856.06	3226
856.194	3230
856.327	3150
856.461	3074
856.595	3074
856.729	3112
856.862	3241
856.996	3188
857.13	3180
857.263	3245
857.397	3287
857.53	3127
857.664	3150
857.797	3230
857.931	3245
858.064	3142
858.197	3195
858.331	3150
858.464	3055
858.597	2967
858.731	3108
858.864	3108
858.997	3047
859.13	3127
859.263	3192
859.396	3176
859.529	3051
859.662	3070
859.795	3043
859.928	3138
860.061	3218
860.194	3283
860.327	3161
860.46	3062
860.592	3230
860.725	3264
860.858	3222
860.99	3127
861.123	3032
861.256	3047
861.388	3154
861.521	3854
861.653	3017
861.786	2967
861.918	3020
862.05	3024
862.183	3081
862.315	3131
862.447	3180
862.58	3097
862.712	2944
862.844	2902
862.976	2998
863.108	3032
863.24	3405
863.372	2895
863.504	2975
863.636	2967
863.768	3058
863.9	2956
864.032	2914
864.164	2971
864.296	2994
864.428	3070
864.559	3089
864.691	3074
864.823	3081
864.954	3001
865.086	2998
865.217	3036
865.349	2963
865.48	2948
865.612	2967
865.743	3131
865.875	2944
866.006	2952
866.137	2967
866.269	2994
866.4	2891
866.531	2899
866.662	2891
866.793	2823
866.924	2906
867.055	2967
867.186	2914
867.317	2895
867.448	2853
867.579	2864
867.71	2826
867.841	2823
867.972	2868
868.103	2914
868.233	2861
868.364	2845
868.495	2922
868.625	3039
868.756	3154
868.886	2960
869.017	2998
869.147	3161
869.278	3123
869.408	3100
869.539	3043
869.669	3104
869.799	3039
869.929	3135
870.06	3112
870.19	3279
870.32	3287
870.45	3272
870.58	3382
870.71	3462
870.84	3397
870.97	3275
871.1	3230
871.23	3485
871.36	3447
871.489	3325
871.619	3401
871.749	3397
871.879	3405
872.008	3526
872.138	3325
872.267	3283
872.397	3154
872.526	3093
872.656	3013
872.785	3108
872.915	3241
873.044	3386
873.173	3237
873.303	3260
873.432	3241
873.561	3237
873.69	3116
873.819	3138
873.948	3146
874.077	3135
874.206	3017
874.335	3058
874.464	3211
874.593	3340
874.722	3218
874.851	3397
874.979	3332
875.108	3317
875.237	3169
875.365	3176
875.494	3165
875.623	3241
875.751	3062
875.88	3081
876.008	3222
876.136	3192
876.265	3393
876.393	3488
876.521	3412
876.65	3378
876.778	3332
876.906	3275
877.034	3199
877.162	3218
877.29	3207
877.418	3237
877.546	3253
877.674	3249
877.802	3245
877.93	3230
878.058	3127
878.185	3104
878.313	3184
878.441	3199
878.568	3070
878.696	3154
878.824	3230
878.951	3306
879.079	3477
879.206	3622
879.333	3450
879.461	3344
879.588	3325
879.715	3469
879.842	3576
879.97	3412
880.097	3146
880.224	3131
880.351	3180
880.478	3237
880.605	3214
880.732	3184
880.859	3485
880.986	3317
881.112	3298
881.239	3195
881.366	3116
881.493	3005
881.619	2979
881.746	3024
881.872	3055
881.999	3085
882.125	3142
882.252	3268
882.378	3294
882.505	3397
882.631	3253
882.757	3127
882.883	3230
883.01	3218
883.136	3142
883.262	3127
883.388	3123
883.514	3321
883.64	3336
883.766	3279
883.892	3184
884.018	3230
884.143	3401
884.269	3526
884.395	3195
884.52	3104
884.646	3161
884.772	3097
884.897	3089
885.023	3222
885.148	3306
885.274	3409
885.399	3374
885.524	3275
885.65	3245
885.775	3332
885.9	3298
886.025	3416
886.15	3351
886.275	3298
886.4	3230
886.525	3294
886.65	3260
886.775	3291
886.9	3500
887.025	3614
887.149	3420
887.274	3260
887.399	3138
887.523	3176
887.648	3142
887.773	3226
887.897	3355
888.021	3389
888.146	3287
888.27	3431
888.395	3492
888.519	3405
888.643	3428
888.767	3458
888.891	3287
889.015	3260
889.139	3306
889.263	3256
889.387	3412
889.511	3504
889.635	3435
889.759	3275
889.883	3291
890.006	3359
890.13	3515
890.254	3306
890.377	3363
890.501	3214
890.624	3173
890.748	3249
890.871	3184
890.995	3085
891.118	3036
891.241	3188
891.364	3226
891.488	3310
891.611	3180
891.734	3214
891.857	3260
891.98	3218
892.103	3340
892.226	3283
892.349	3195
892.471	3100
892.594	3237
892.717	3272
892.839	3241
892.962	3241
893.085	3389
893.207	3317
893.33	3214
893.452	3222
893.575	3344
893.697	3237
893.819	3481
893.941	3485
894.064	3488
894.186	3310
894.308	3260
894.43	3454
894.552	3530
894.674	3447
894.796	3264
894.918	3325
895.04	3260
895.161	3405
895.283	3370
895.405	3264
895.526	3344
895.648	3450
895.769	3382
895.891	3450
896.012	3496
896.134	3458
896.255	3401
896.376	3370
896.498	3359
896.619	3443
896.74	3329
896.861	3367
896.982	3694
897.103	3869
897.224	3572
897.345	3511
897.466	3401
897.587	3488
897.708	3595
897.828	3519
897.949	3450
898.07	3351
898.19	3397
898.311	3564
898.431	3447
898.552	3492
898.672	3530
898.792	3599
898.913	3504
899.033	3401
899.153	3260
899.273	3226
899.393	3264
899.513	3310
899.633	3313
899.753	3344
899.873	3306
899.993	3344
900.113	3310
900.232	3412
900.352	3332
900.472	3321
900.591	3203
900.711	3310
900.83	3264
900.95	3393
901.069	3469
901.189	3344
901.308	3157
901.427	3104
901.546	3218
901.665	3256
901.784	3351
901.904	3268
902.023	3165
902.141	3020
902.26	3043
902.379	3097
902.498	3093
902.617	3051
902.735	3195
902.854	3222
902.973	3176
903.091	2986
903.21	3074
903.328	3135
903.446	3116
903.565	3127
903.683	3192
903.801	3154
903.919	3245
904.038	3272
904.156	3157
904.274	3294
904.392	3264
904.51	3294
904.627	3348
904.745	3458
904.863	3496
904.981	3237
905.098	3218
905.216	3233
905.334	3302
905.451	3325
905.569	3321
905.686	3378
905.803	3412
905.921	3317
906.038	3412
906.155	3340
906.272	3268
906.389	3310
906.506	3169
906.623	3260
906.74	3245
906.857	3169
906.974	3245
907.091	3397
907.208	3572
907.324	3496
907.441	3370
907.557	3249
907.674	3203
907.79	3184
907.907	3275
908.023	3389
908.139	3336
908.256	3321
908.372	3367
908.488	3367
908.604	3245
908.72	3214
908.836	3325
908.952	3302
909.068	3340
909.184	3500
909.3	3382
909.415	3507
909.531	3466
909.647	3253
909.762	3283
909.878	3249
909.993	3351
910.108	3363
910.224	3325
910.339	3389
910.454	3336
910.57	3268
910.685	3214
910.8	3587
910.915	3523
911.03	3405
911.145	3222
911.259	3256
911.374	3310
911.489	3245
911.604	3207
911.718	3119
911.833	3146
911.947	3051
912.062	2986
912.176	3173
912.291	3199
912.405	3211
912.519	3447
912.633	3481
912.748	3306
912.862	3310
912.976	3165
913.09	3074
913.204	3135
913.318	3218
913.431	3351
913.545	3306
913.659	3416
913.772	3329
913.886	3214
914	3226
914.113	3332
914.226	3401
914.34	3389
914.453	3203
914.566	3382
914.68	3283
914.793	3302
914.906	3165
915.019	3112
915.132	3093
915.245	3157
915.358	3214
915.47	3184
915.583	3291
915.696	3275
915.809	3412
915.921	3405
916.034	3268
916.146	3253
916.259	3207
916.371	3397
916.483	3359
916.595	3298
916.708	3359
916.82	3340
916.932	3332
917.044	3325
917.156	3416
917.268	3245
917.38	3298
917.491	3237
917.603	3401
917.715	3420
917.826	3485
917.938	3393
918.049	3264
918.161	3397
918.272	3603
918.384	3549
918.495	3462
918.606	3336
918.717	3291
918.828	3367
918.939	3405
919.05	3253
919.161	3351
919.272	3157
919.383	3272
919.494	3504
919.604	3679
919.715	3515
919.826	3370
919.936	3454
920.047	3568
920.157	3526
920.267	3774
920.378	3599
920.488	3530
920.598	3774
920.708	3926
920.818	3804
920.928	3823
921.038	4032
921.148	4010
921.258	3743
921.368	3603
921.477	3568
921.587	3526
921.697	3488
921.806	3644
921.916	3477
922.025	3363
922.134	3363
922.244	3275
922.353	3435
922.462	3256
922.571	3241
922.68	3085
922.789	3055
922.898	3116
923.007	3077
923.116	3169
923.224	3173
923.333	3154
923.442	3100
923.55	3074
923.659	3154
923.767	3173
923.876	3108
923.984	3222
924.092	3123
924.201	3253
924.309	3207
924.417	3275
924.525	3169
924.633	3233
924.741	4188
924.849	3062
924.956	3245
925.064	3055
925.172	3039
925.279	3097
925.387	3249
925.494	3237
925.602	3317
925.709	3310
925.816	3199
925.924	3302
926.031	3386
926.138	3302
926.245	3370
926.352	3218
926.459	3435
926.566	3454
926.673	3348
926.779	3218
926.886	3279
926.993	3176
927.099	3142
927.206	3135
927.312	3131
927.419	3184
927.525	3222
927.631	3313
927.737	3146
927.843	3146
927.95	3039
928.056	3154
928.162	3192
928.267	3233
928.373	3873
928.479	3302
928.585	3077
928.69	3222
928.796	3283
928.901	3230
929.007	3020
929.112	3173
929.218	3207
929.323	3169
929.428	3154
929.533	3275
929.638	3165
929.743	3154
929.848	3256
929.953	3195
930.058	3131
930.163	2994
930.267	3062
930.372	3173
930.477	3032
930.581	3332
930.685	3138
930.79	3047
930.894	3135
930.998	3077
931.103	3287
931.207	2963
931.311	2982
931.415	2937
931.519	2785
931.623	2830
