Data from test_V78500241_1379.txt Node
Date: Fri Mar 25 16:24:45 CST 2022
User: usil
Spectrometer: V785-0024
Trigger mode: 0
Integration Time (sec): 4.000000E-1
Scans to average: 1
Nonlinearity correction enabled: false
Boxcar width: 0
Storing dark spectrum: false
XAxis mode: Wavelengths
Number of Pixels in Spectrum: 1024
>>>>>Begin Spectral Data<<<<<
801.071	2902
801.214	2948
801.356	2830
801.499	2910
801.641	2876
801.783	2929
801.926	3028
802.068	2986
802.211	3009
802.353	3001
802.496	2937
802.638	3028
802.78	3024
802.923	3062
803.065	3009
803.208	2899
803.35	2887
803.492	2944
803.635	2922
803.777	2746
803.919	2838
804.061	3207
804.204	2971
804.346	2895
804.488	2842
804.63	2990
804.773	2872
804.915	2891
805.057	3074
805.199	2895
805.341	2956
805.483	3001
805.626	2990
805.768	2956
805.91	3058
806.052	3138
806.194	3032
806.336	3222
806.478	3001
806.62	2918
806.762	2979
806.904	3062
807.046	3176
807.188	2982
807.33	2937
807.472	2998
807.614	2918
807.756	3013
807.898	2956
808.04	2872
808.182	2986
808.324	2960
808.465	2864
808.607	2880
808.749	2811
808.891	2811
809.033	2956
809.174	2937
809.316	2899
809.458	2887
809.6	2796
809.741	2750
809.883	2785
810.025	2823
810.166	2849
810.308	2861
810.45	2868
810.591	2823
810.733	2739
810.875	2849
811.016	2815
811.158	2762
811.299	2845
811.441	2948
811.582	2864
811.724	2838
811.865	2864
812.007	2933
812.148	2906
812.29	2853
812.431	2899
812.573	2944
812.714	2994
812.855	3009
812.997	3070
813.138	3127
813.279	2975
813.421	3009
813.562	2952
813.703	2899
813.845	2864
813.986	2750
814.127	2735
814.268	2796
814.41	2826
814.551	2830
814.692	2853
814.833	2864
814.974	2895
815.115	2952
815.256	2819
815.397	2823
815.539	2842
815.68	2781
815.821	2815
815.962	2906
816.103	2948
816.244	2880
816.385	2899
816.526	2960
816.666	2861
816.807	2743
816.948	2853
817.089	2925
817.23	2864
817.371	2800
817.512	2777
817.653	2842
817.793	2804
817.934	2872
818.075	2963
818.216	2994
818.356	3020
818.497	2899
818.638	2788
818.778	2819
818.919	2815
819.06	2705
819.2	2914
819.341	2785
819.481	2773
819.622	2944
819.762	3097
819.903	3047
820.043	2929
820.184	2910
820.324	2872
820.465	2994
820.605	2998
820.746	3024
820.886	2937
821.026	3077
821.167	3119
821.307	3249
821.447	3287
821.588	3233
821.728	3188
821.868	3176
822.008	3070
822.149	3180
822.289	3230
822.429	3089
822.569	3066
822.709	3150
822.849	3017
822.99	3047
823.13	3127
823.27	3226
823.41	3085
823.55	3188
823.69	3138
823.83	3165
823.97	3100
824.11	2986
824.25	2975
824.389	3043
824.529	3112
824.669	3062
824.809	3237
824.949	3272
825.089	3226
825.228	3127
825.368	2990
825.508	2963
825.648	2971
825.787	3017
825.927	3024
826.067	2952
826.206	2944
826.346	3074
826.485	3097
826.625	3112
826.765	3233
826.904	3184
827.044	2948
827.183	2922
827.323	2819
827.462	3020
827.601	2895
827.741	2899
827.88	2956
828.02	2883
828.159	2941
828.298	3001
828.437	3097
828.577	3085
828.716	3253
828.855	3093
828.994	2929
829.134	2857
829.273	2891
829.412	2849
829.551	2864
829.69	2883
829.829	2956
829.968	3157
830.107	3036
830.246	3024
830.385	2933
830.524	2895
830.663	2826
830.802	2724
830.941	2640
831.08	2640
831.219	2743
831.357	2766
831.496	2941
831.635	2701
831.774	2651
831.913	2640
832.051	2545
832.19	2564
832.329	2708
832.467	2522
832.606	2488
832.744	2541
832.883	2583
833.022	2617
833.16	2648
833.299	2705
833.437	2693
833.576	2697
833.714	2682
833.852	2708
833.991	2762
834.129	2788
834.267	2849
834.406	2766
834.544	2880
834.682	2868
834.821	2883
834.959	3074
835.097	2872
835.235	3062
835.373	2971
835.511	3009
835.65	2960
835.788	2952
835.926	2823
836.064	2811
836.202	2811
836.34	3077
836.478	3119
836.615	3089
836.753	3116
836.891	3260
837.029	3154
837.167	3055
837.305	3062
837.443	3039
837.58	2967
837.718	3135
837.856	3020
837.993	3028
838.131	3066
838.269	3112
838.406	3062
838.544	3047
838.681	2929
838.819	2933
838.956	2788
839.094	2864
839.231	2868
839.369	3036
839.506	3355
839.643	3199
839.781	3039
839.918	2925
840.055	3077
840.193	3058
840.33	3070
840.467	3097
840.604	3165
840.742	3348
840.879	3032
841.016	3043
841.153	3100
841.29	3332
841.427	3302
841.564	3256
841.701	3302
841.838	3203
841.975	3180
842.112	3199
842.249	3055
842.385	3036
842.522	3256
842.659	3085
842.796	3051
842.933	3119
843.069	3020
843.206	3039
843.343	3173
843.479	3116
843.616	3112
843.752	2887
843.889	2830
844.025	3081
844.162	2883
844.298	3100
844.435	2925
844.571	2925
844.708	3062
844.844	3180
844.98	3199
845.117	3154
845.253	3024
845.389	2979
845.525	3077
845.661	3062
845.798	3020
845.934	3150
846.07	3047
846.206	3211
846.342	3294
846.478	3256
846.614	3047
846.75	3036
846.886	2994
847.022	3222
847.158	3119
847.294	3226
847.429	3249
847.565	3192
847.701	3439
847.837	3020
847.972	2990
848.108	3146
848.244	3138
848.379	2990
848.515	2948
848.65	2891
848.786	2990
848.921	3036
849.057	3097
849.192	3142
849.328	3074
849.463	3085
849.598	3077
849.734	3036
849.869	2948
850.004	2902
850.14	2975
850.275	2914
850.41	2792
850.545	2857
850.68	2941
850.815	2956
850.95	2971
851.085	3150
851.22	3081
851.355	3039
851.49	2998
851.625	2994
851.76	3001
851.895	2925
852.03	2902
852.165	3047
852.299	3089
852.434	3195
852.569	3108
852.703	3131
852.838	3222
852.973	3325
853.107	3332
853.242	3135
853.376	3108
853.511	2975
853.645	3062
853.78	3275
853.914	3131
854.048	3119
854.183	3062
854.317	3127
854.451	3249
854.585	3104
854.72	3062
854.854	3199
854.988	3051
855.122	3058
855.256	2998
855.39	3097
855.524	3272
855.658	3192
855.792	3161
855.926	3146
856.06	3226
856.194	3253
856.327	3165
856.461	3089
856.595	3108
856.729	3089
856.862	3195
856.996	3131
857.13	3218
857.263	3195
857.397	3298
857.53	3112
857.664	3184
857.797	3218
857.931	3237
858.064	3173
858.197	3233
858.331	3108
858.464	3081
858.597	2990
858.731	3104
858.864	3135
858.997	3085
859.13	3154
859.263	3184
859.396	3222
859.529	3032
859.662	3093
859.795	3043
859.928	3165
860.061	3310
860.194	3279
860.327	3146
860.46	3066
860.592	3226
860.725	3256
860.858	3245
860.99	3112
861.123	3020
861.256	3047
861.388	3100
861.521	3755
861.653	3036
861.786	2979
861.918	3001
862.05	3070
862.183	3077
862.315	3135
862.447	3184
862.58	3077
862.712	2937
862.844	2910
862.976	3028
863.108	3028
863.24	3287
863.372	2868
863.504	2929
863.636	2971
863.768	3047
863.9	2941
864.032	2899
864.164	2925
864.296	3009
864.428	3089
864.559	3135
864.691	3081
864.823	3058
864.954	3013
865.086	3036
865.217	2971
865.349	2956
865.48	2933
865.612	3017
865.743	3138
865.875	2937
866.006	2963
866.137	2982
866.269	2948
866.4	2914
866.531	2933
866.662	2868
866.793	2895
866.924	2910
867.055	2952
867.186	2918
867.317	2868
867.448	2815
867.579	2830
867.71	2815
867.841	2823
867.972	2864
868.103	2868
868.233	2876
868.364	2849
868.495	2895
868.625	3055
868.756	3169
868.886	2963
869.017	3062
869.147	3169
869.278	3161
869.408	3020
869.539	3013
869.669	3085
869.799	3043
869.929	3131
870.06	3138
870.19	3294
870.32	3268
870.45	3279
870.58	3386
870.71	3435
870.84	3466
870.97	3283
871.1	3279
871.23	3469
871.36	3439
871.489	3374
871.619	3370
871.749	3424
871.879	3439
872.008	3450
872.138	3363
872.267	3249
872.397	3112
872.526	3119
872.656	3005
872.785	3074
872.915	3237
873.044	3370
873.173	3222
873.303	3214
873.432	3275
873.561	3211
873.69	3157
873.819	3131
873.948	3184
874.077	3097
874.206	3047
874.335	3077
874.464	3207
874.593	3321
874.722	3260
874.851	3370
874.979	3340
875.108	3294
875.237	3188
875.365	3157
875.494	3127
875.623	3207
875.751	3062
875.88	3058
876.008	3169
876.136	3199
876.265	3310
876.393	3515
876.521	3416
876.65	3405
876.778	3359
876.906	3214
877.034	3188
877.162	3207
877.29	3169
877.418	3222
877.546	3226
877.674	3230
877.802	3203
877.93	3226
878.058	3176
878.185	3077
878.313	3237
878.441	3169
878.568	3043
878.696	3157
878.824	3226
878.951	3287
879.079	3416
879.206	3587
879.333	3447
879.461	3397
879.588	3409
879.715	3488
879.842	3584
879.97	3329
880.097	3192
880.224	3108
880.351	3173
880.478	3218
880.605	3211
880.732	3150
880.859	3492
880.986	3291
881.112	3306
881.239	3188
881.366	3112
881.493	3024
881.619	3005
881.746	3058
881.872	3066
881.999	3055
882.125	3123
882.252	3218
882.378	3275
882.505	3450
882.631	3233
882.757	3150
882.883	3233
883.01	3211
883.136	3165
883.262	3100
883.388	3085
883.514	3310
883.64	3363
883.766	3279
883.892	3230
884.018	3260
884.143	3401
884.269	3507
884.395	3214
884.52	3146
884.646	3195
884.772	3157
884.897	3112
885.023	3207
885.148	3359
885.274	3435
885.399	3351
885.524	3294
885.65	3211
885.775	3283
885.9	3268
886.025	3420
886.15	3389
886.275	3287
886.4	3230
886.525	3325
886.65	3272
886.775	3256
886.9	3504
887.025	3618
887.149	3428
887.274	3230
887.399	3135
887.523	3188
887.648	3161
887.773	3203
887.897	3359
888.021	3370
888.146	3283
888.27	3389
888.395	3542
888.519	3412
888.643	3462
888.767	3405
888.891	3272
889.015	3207
889.139	3336
889.263	3264
889.387	3424
889.511	3469
889.635	3462
889.759	3287
889.883	3313
890.006	3348
890.13	3473
890.254	3218
890.377	3336
890.501	3169
890.624	3180
890.748	3310
890.871	3154
890.995	3089
891.118	3058
891.241	3180
891.364	3230
891.488	3302
891.611	3176
891.734	3230
891.857	3310
891.98	3184
892.103	3294
892.226	3241
892.349	3199
892.471	3108
892.594	3253
892.717	3283
892.839	3283
892.962	3275
893.085	3370
893.207	3313
893.33	3116
893.452	3211
893.575	3325
893.697	3241
893.819	3435
893.941	3488
894.064	3462
894.186	3218
894.308	3268
894.43	3401
894.552	3542
894.674	3515
894.796	3245
894.918	3306
895.04	3264
895.161	3416
895.283	3409
895.405	3302
895.526	3378
895.648	3454
895.769	3450
895.891	3412
896.012	3458
896.134	3485
896.255	3420
896.376	3397
896.498	3344
896.619	3405
896.74	3351
896.861	3374
896.982	3679
897.103	3846
897.224	3568
897.345	3511
897.466	3386
897.587	3473
897.708	3641
897.828	3523
897.949	3420
898.07	3321
898.19	3374
898.311	3564
898.431	3450
898.552	3492
898.672	3622
898.792	3545
898.913	3500
899.033	3409
899.153	3291
899.273	3222
899.393	3253
899.513	3344
899.633	3294
899.753	3325
899.873	3321
899.993	3378
900.113	3344
900.232	3393
900.352	3367
900.472	3279
900.591	3173
900.711	3283
900.83	3203
900.95	3359
901.069	3469
901.189	3378
901.308	3184
901.427	3146
901.546	3173
901.665	3317
901.784	3306
901.904	3199
902.023	3135
902.141	3013
902.26	2982
902.379	3116
902.498	3066
902.617	3013
902.735	3169
902.854	3230
902.973	3184
903.091	3020
903.21	3043
903.328	3146
903.446	3085
903.565	3123
903.683	3180
903.801	3131
903.919	3260
904.038	3256
904.156	3195
904.274	3287
904.392	3260
904.51	3298
904.627	3298
904.745	3431
904.863	3462
904.981	3260
905.098	3135
905.216	3264
905.334	3283
905.451	3313
905.569	3294
905.686	3447
905.803	3401
905.921	3287
906.038	3386
906.155	3359
906.272	3237
906.389	3336
906.506	3241
906.623	3245
906.74	3329
906.857	3218
906.974	3245
907.091	3447
907.208	3545
907.324	3450
907.441	3405
907.557	3233
907.674	3253
907.79	3233
907.907	3253
908.023	3363
908.139	3374
908.256	3287
908.372	3359
908.488	3382
908.604	3272
908.72	3192
908.836	3279
908.952	3279
909.068	3298
909.184	3462
909.3	3435
909.415	3504
909.531	3488
909.647	3310
909.762	3310
909.878	3211
909.993	3325
910.108	3317
910.224	3332
910.339	3389
910.454	3317
910.57	3291
910.685	3256
910.8	3576
910.915	3519
911.03	3443
911.145	3268
911.259	3260
911.374	3325
911.489	3214
911.604	3195
911.718	3108
911.833	3142
911.947	3043
912.062	2990
912.176	3142
912.291	3150
912.405	3176
912.519	3397
912.633	3443
912.748	3329
912.862	3264
912.976	3135
913.09	3074
913.204	3127
913.318	3214
913.431	3302
913.545	3321
913.659	3401
913.772	3332
913.886	3218
914	3241
914.113	3351
914.226	3401
914.34	3363
914.453	3207
914.566	3405
914.68	3310
914.793	3287
914.906	3146
915.019	3093
915.132	3070
915.245	3154
915.358	3230
915.47	3192
915.583	3256
915.696	3306
915.809	3367
915.921	3424
916.034	3260
916.146	3272
916.259	3249
916.371	3332
916.483	3389
916.595	3275
916.708	3344
916.82	3325
916.932	3313
917.044	3336
917.156	3359
917.268	3253
917.38	3298
917.491	3279
917.603	3378
917.715	3450
917.826	3488
917.938	3378
918.049	3306
918.161	3428
918.272	3580
918.384	3576
918.495	3485
918.606	3340
918.717	3287
918.828	3363
918.939	3405
919.05	3291
919.161	3378
919.272	3207
919.383	3256
919.494	3504
919.604	3701
919.715	3462
919.826	3424
919.936	3450
920.047	3572
920.157	3564
920.267	3740
920.378	3591
920.488	3526
920.598	3812
920.708	3968
920.818	3797
920.928	3854
921.038	3991
921.148	3991
921.258	3667
921.368	3614
921.477	3580
921.587	3557
921.697	3443
921.806	3603
921.916	3511
922.025	3363
922.134	3302
922.244	3332
922.353	3378
922.462	3226
922.571	3218
922.68	3097
922.789	3081
922.898	3127
923.007	3066
923.116	3207
923.224	3192
923.333	3176
923.442	3135
923.55	3070
923.659	3138
923.767	3199
923.876	3146
923.984	3222
924.092	3116
924.201	3165
924.309	3195
924.417	3237
924.525	3154
924.633	3241
924.741	3983
924.849	3032
924.956	3291
925.064	3108
925.172	3055
925.279	3108
925.387	3154
925.494	3188
925.602	3332
925.709	3359
925.816	3165
925.924	3313
926.031	3363
926.138	3287
926.245	3321
926.352	3260
926.459	3420
926.566	3462
926.673	3306
926.779	3253
926.886	3218
926.993	3165
927.099	3116
927.206	3127
927.312	3100
927.419	3256
927.525	3211
927.631	3275
927.737	3150
927.843	3123
927.95	3032
928.056	3150
928.162	3188
928.267	3241
928.373	3854
928.479	3294
928.585	3066
928.69	3241
928.796	3268
928.901	3150
929.007	3039
929.112	3180
929.218	3180
929.323	3173
929.428	3104
929.533	3321
929.638	3112
929.743	3135
929.848	3272
929.953	3233
930.058	3142
930.163	2994
930.267	3051
930.372	3203
930.477	3062
930.581	3325
930.685	3157
930.79	3055
930.894	3108
930.998	3077
931.103	3302
931.207	2963
931.311	2956
931.415	2914
931.519	2781
931.623	2815
