Data from test_V78500241_1387.txt Node
Date: Fri Mar 25 16:24:48 CST 2022
User: usil
Spectrometer: V785-0024
Trigger mode: 0
Integration Time (sec): 4.000000E-1
Scans to average: 1
Nonlinearity correction enabled: false
Boxcar width: 0
Storing dark spectrum: false
XAxis mode: Wavelengths
Number of Pixels in Spectrum: 1024
>>>>>Begin Spectral Data<<<<<
801.071	2887
801.214	2937
801.356	2861
801.499	2891
801.641	2868
801.783	2899
801.926	3051
802.068	2952
802.211	2982
802.353	3009
802.496	2994
802.638	3013
802.78	3100
802.923	3077
803.065	2998
803.208	2853
803.35	2906
803.492	2925
803.635	2929
803.777	2754
803.919	2861
804.061	3165
804.204	2922
804.346	2895
804.488	2830
804.63	2948
804.773	2853
804.915	2910
805.057	3055
805.199	2937
805.341	2937
805.483	3028
805.626	3013
805.768	2944
805.91	3104
806.052	3135
806.194	3020
806.336	3195
806.478	2990
806.62	2933
806.762	2975
806.904	3070
807.046	3138
807.188	2956
807.33	2910
807.472	2994
807.614	2910
807.756	2982
807.898	2937
808.04	2902
808.182	2960
808.324	2944
808.465	2864
808.607	2891
808.749	2766
808.891	2838
809.033	2952
809.174	2982
809.316	2876
809.458	2902
809.6	2739
809.741	2773
809.883	2750
810.025	2834
810.166	2864
810.308	2811
810.45	2895
810.591	2758
810.733	2762
810.875	2819
811.016	2777
811.158	2762
811.299	2815
811.441	2891
811.582	2880
811.724	2819
811.865	2815
812.007	2910
812.148	2895
812.29	2807
812.431	2872
812.573	2944
812.714	2933
812.855	3047
812.997	3055
813.138	3112
813.279	3013
813.421	2956
813.562	2925
813.703	2876
813.845	2902
813.986	2788
814.127	2701
814.268	2826
814.41	2838
814.551	2792
814.692	2864
814.833	2861
814.974	2902
815.115	2952
815.256	2834
815.397	2815
815.539	2838
815.68	2762
815.821	2807
815.962	2975
816.103	2933
816.244	2902
816.385	2864
816.526	2956
816.666	2891
816.807	2739
816.948	2906
817.089	2914
817.23	2880
817.371	2796
817.512	2804
817.653	2826
817.793	2804
817.934	2861
818.075	2941
818.216	2986
818.356	3009
818.497	2842
818.638	2800
818.778	2819
818.919	2746
819.06	2727
819.2	2872
819.341	2811
819.481	2807
819.622	2956
819.762	3097
819.903	3062
820.043	2933
820.184	2891
820.324	2864
820.465	3039
820.605	2998
820.746	2990
820.886	2925
821.026	3116
821.167	3116
821.307	3241
821.447	3268
821.588	3226
821.728	3173
821.868	3203
822.008	3074
822.149	3188
822.289	3222
822.429	3055
822.569	3070
822.709	3214
822.849	3001
822.99	3085
823.13	3173
823.27	3203
823.41	3112
823.55	3131
823.69	3127
823.83	3192
823.97	3077
824.11	2990
824.25	2971
824.389	3085
824.529	3097
824.669	3070
824.809	3165
824.949	3233
825.089	3222
825.228	3135
825.368	3039
825.508	2994
825.648	2967
825.787	3017
825.927	2986
826.067	2948
826.206	2937
826.346	3036
826.485	3081
826.625	3085
826.765	3275
826.904	3211
827.044	3001
827.183	2948
827.323	2887
827.462	3005
827.601	2914
827.741	2895
827.88	2952
828.02	2845
828.159	2960
828.298	3039
828.437	3119
828.577	3036
828.716	3233
828.855	3093
828.994	2937
829.134	2918
829.273	2883
829.412	2830
829.551	2807
829.69	2880
829.829	2979
829.968	3112
830.107	3005
830.246	3020
830.385	2914
830.524	2883
830.663	2800
830.802	2731
830.941	2629
831.08	2632
831.219	2754
831.357	2743
831.496	2960
831.635	2693
831.774	2636
831.913	2659
832.051	2522
832.19	2590
832.329	2689
832.467	2503
832.606	2473
832.744	2571
832.883	2575
833.022	2575
833.16	2636
833.299	2659
833.437	2682
833.576	2712
833.714	2705
833.852	2716
833.991	2777
834.129	2815
834.267	2853
834.406	2769
834.544	2864
834.682	2857
834.821	2899
834.959	3032
835.097	2853
835.235	3043
835.373	2994
835.511	2971
835.65	2929
835.788	2948
835.926	2819
836.064	2800
836.202	2823
836.34	3062
836.478	3104
836.615	3032
836.753	3165
836.891	3211
837.029	3116
837.167	3066
837.305	3043
837.443	3017
837.58	2952
837.718	3138
837.856	3085
837.993	2990
838.131	3074
838.269	3123
838.406	3104
838.544	3070
838.681	2971
838.819	2948
838.956	2781
839.094	2845
839.231	2922
839.369	3024
839.506	3348
839.643	3230
839.781	2994
839.918	2929
840.055	3039
840.193	3081
840.33	3051
840.467	3108
840.604	3116
840.742	3420
840.879	3062
841.016	3013
841.153	3119
841.29	3294
841.427	3298
841.564	3268
841.701	3294
841.838	3184
841.975	3127
842.112	3192
842.249	3119
842.385	3043
842.522	3256
842.659	3024
842.796	3077
842.933	3089
843.069	3043
843.206	3043
843.343	3184
843.479	3058
843.616	3116
843.752	2929
843.889	2868
844.025	3055
844.162	2845
844.298	3081
844.435	2967
844.571	2895
844.708	3028
844.844	3188
844.98	3237
845.117	3146
845.253	3032
845.389	2990
845.525	3070
845.661	3123
845.798	3001
845.934	3097
846.07	3047
846.206	3203
846.342	3291
846.478	3233
846.614	3055
846.75	3055
846.886	3017
847.022	3222
847.158	3142
847.294	3195
847.429	3279
847.565	3203
847.701	3412
847.837	3020
847.972	2986
848.108	3157
848.244	3112
848.379	2994
848.515	2937
848.65	2887
848.786	2971
848.921	3005
849.057	3089
849.192	3157
849.328	3066
849.463	3070
849.598	3013
849.734	3020
849.869	2971
850.004	2929
850.14	2963
850.275	2906
850.41	2861
850.545	2872
850.68	2925
850.815	2937
850.95	2944
851.085	3131
851.22	3085
851.355	3051
851.49	2952
851.625	2998
851.76	3009
851.895	2899
852.03	2887
852.165	3032
852.299	3116
852.434	3165
852.569	3123
852.703	3199
852.838	3249
852.973	3317
853.107	3298
853.242	3085
853.376	3066
853.511	2967
853.645	3017
853.78	3256
853.914	3131
854.048	3119
854.183	3077
854.317	3150
854.451	3294
854.585	3100
854.72	3097
854.854	3218
854.988	3047
855.122	3077
855.256	2937
855.39	3119
855.524	3218
855.658	3192
855.792	3146
855.926	3195
856.06	3161
856.194	3245
856.327	3150
856.461	3055
856.595	3100
856.729	3112
856.862	3176
856.996	3165
857.13	3176
857.263	3237
857.397	3249
857.53	3089
857.664	3192
857.797	3237
857.931	3218
858.064	3169
858.197	3241
858.331	3123
858.464	3112
858.597	3013
858.731	3108
858.864	3131
858.997	3074
859.13	3157
859.263	3138
859.396	3192
859.529	3066
859.662	3070
859.795	2998
859.928	3093
860.061	3298
860.194	3260
860.327	3127
860.46	3104
860.592	3199
860.725	3211
860.858	3237
860.99	3112
861.123	3024
861.256	3062
861.388	3173
861.521	3705
861.653	3005
861.786	3001
861.918	2963
862.05	3020
862.183	3100
862.315	3104
862.447	3195
862.58	3081
862.712	2941
862.844	2868
862.976	3028
863.108	3009
863.24	3310
863.372	2857
863.504	2990
863.636	2994
863.768	3005
863.9	2925
864.032	2891
864.164	2914
864.296	2979
864.428	3089
864.559	3089
864.691	3070
864.823	3062
864.954	3043
865.086	3039
865.217	2990
865.349	2967
865.48	2979
865.612	3005
865.743	3119
865.875	2971
866.006	2979
866.137	2979
866.269	2944
866.4	2975
866.531	2910
866.662	2922
866.793	2895
866.924	2929
867.055	2963
867.186	2902
867.317	2895
867.448	2830
867.579	2826
867.71	2849
867.841	2815
867.972	2906
868.103	2880
868.233	2902
868.364	2868
868.495	2902
868.625	3062
868.756	3123
868.886	2960
869.017	3009
869.147	3176
869.278	3157
869.408	3070
869.539	3013
869.669	3108
869.799	3032
869.929	3127
870.06	3074
870.19	3283
870.32	3291
870.45	3245
870.58	3340
870.71	3454
870.84	3401
870.97	3279
871.1	3256
871.23	3466
871.36	3462
871.489	3336
871.619	3424
871.749	3386
871.879	3439
872.008	3469
872.138	3359
872.267	3260
872.397	3123
872.526	3070
872.656	3017
872.785	3104
872.915	3218
873.044	3253
873.173	3203
873.303	3233
873.432	3237
873.561	3214
873.69	3150
873.819	3138
873.948	3180
874.077	3116
874.206	3020
874.335	3104
874.464	3214
874.593	3340
874.722	3241
874.851	3363
874.979	3321
875.108	3294
875.237	3211
875.365	3161
875.494	3150
875.623	3233
875.751	3024
875.88	3127
876.008	3188
876.136	3241
876.265	3382
876.393	3496
876.521	3370
876.65	3397
876.778	3313
876.906	3241
877.034	3218
877.162	3211
877.29	3154
877.418	3214
877.546	3241
877.674	3222
877.802	3222
877.93	3245
878.058	3138
878.185	3097
878.313	3176
878.441	3199
878.568	3062
878.696	3154
878.824	3249
878.951	3283
879.079	3496
879.206	3618
879.333	3397
879.461	3340
879.588	3344
879.715	3492
879.842	3545
879.97	3355
880.097	3161
880.224	3089
880.351	3165
880.478	3253
880.605	3176
880.732	3203
880.859	3485
880.986	3287
881.112	3302
881.239	3184
881.366	3108
881.493	2994
881.619	3028
881.746	3043
881.872	3093
881.999	3058
882.125	3108
882.252	3249
882.378	3302
882.505	3416
882.631	3287
882.757	3108
882.883	3218
883.01	3218
883.136	3154
883.262	3093
883.388	3131
883.514	3298
883.64	3363
883.766	3291
883.892	3207
884.018	3211
884.143	3378
884.269	3481
884.395	3195
884.52	3142
884.646	3173
884.772	3146
884.897	3062
885.023	3203
885.148	3336
885.274	3389
885.399	3344
885.524	3203
885.65	3268
885.775	3283
885.9	3249
886.025	3447
886.15	3370
886.275	3253
886.4	3264
886.525	3344
886.65	3237
886.775	3253
886.9	3420
887.025	3606
887.149	3393
887.274	3226
887.399	3203
887.523	3192
887.648	3203
887.773	3192
887.897	3332
888.021	3367
888.146	3287
888.27	3435
888.395	3564
888.519	3378
888.643	3416
888.767	3473
888.891	3306
889.015	3272
889.139	3321
889.263	3241
889.387	3428
889.511	3485
889.635	3409
889.759	3268
889.883	3279
890.006	3382
890.13	3485
890.254	3256
890.377	3348
890.501	3207
890.624	3157
890.748	3310
890.871	3222
890.995	3062
891.118	3047
891.241	3150
891.364	3245
891.488	3302
891.611	3176
891.734	3230
891.857	3264
891.98	3249
892.103	3294
892.226	3287
892.349	3226
892.471	3123
892.594	3260
892.717	3249
892.839	3279
892.962	3291
893.085	3370
893.207	3298
893.33	3192
893.452	3184
893.575	3332
893.697	3256
893.819	3458
893.941	3526
894.064	3458
894.186	3241
894.308	3268
894.43	3401
894.552	3515
894.674	3450
894.796	3260
894.918	3283
895.04	3268
895.161	3469
895.283	3393
895.405	3287
895.526	3393
895.648	3420
895.769	3416
895.891	3447
896.012	3450
896.134	3420
896.255	3405
896.376	3363
896.498	3348
896.619	3431
896.74	3355
896.861	3386
896.982	3660
897.103	3838
897.224	3580
897.345	3500
897.466	3447
897.587	3515
897.708	3595
897.828	3496
897.949	3412
898.07	3351
898.19	3378
898.311	3564
898.431	3435
898.552	3485
898.672	3564
898.792	3542
898.913	3523
899.033	3439
899.153	3260
899.273	3207
899.393	3260
899.513	3329
899.633	3332
899.753	3359
899.873	3332
899.993	3370
900.113	3317
900.232	3363
900.352	3332
900.472	3279
900.591	3192
900.711	3294
900.83	3268
900.95	3401
901.069	3462
901.189	3310
901.308	3233
901.427	3157
901.546	3173
901.665	3264
901.784	3351
901.904	3165
902.023	3100
902.141	2994
902.26	2967
902.379	3081
902.498	3058
902.617	3039
902.735	3195
902.854	3222
902.973	3184
903.091	3047
903.21	3062
903.328	3123
903.446	3097
903.565	3097
903.683	3180
903.801	3089
903.919	3249
904.038	3253
904.156	3157
904.274	3237
904.392	3283
904.51	3264
904.627	3302
904.745	3435
904.863	3462
904.981	3264
905.098	3150
905.216	3207
905.334	3294
905.451	3310
905.569	3313
905.686	3405
905.803	3409
905.921	3317
906.038	3435
906.155	3355
906.272	3253
906.389	3348
906.506	3226
906.623	3272
906.74	3283
906.857	3192
906.974	3249
907.091	3439
907.208	3534
907.324	3500
907.441	3389
907.557	3260
907.674	3199
907.79	3184
907.907	3310
908.023	3367
908.139	3393
908.256	3325
908.372	3409
908.488	3351
908.604	3302
908.72	3279
908.836	3325
908.952	3306
909.068	3382
909.184	3488
909.3	3374
909.415	3488
909.531	3466
909.647	3344
909.762	3348
909.878	3237
909.993	3393
910.108	3382
910.224	3393
910.339	3435
910.454	3412
910.57	3378
910.685	3272
910.8	3629
910.915	3564
911.03	3485
911.145	3317
911.259	3332
911.374	3344
911.489	3298
911.604	3268
911.718	3142
911.833	3188
911.947	3062
912.062	3089
912.176	3218
912.291	3233
912.405	3226
912.519	3447
912.633	3458
912.748	3325
912.862	3359
912.976	3195
913.09	3123
913.204	3203
913.318	3275
913.431	3409
913.545	3359
913.659	3466
913.772	3386
913.886	3272
914	3222
914.113	3393
914.226	3431
914.34	3428
914.453	3283
914.566	3469
914.68	3329
914.793	3378
914.906	3203
915.019	3165
915.132	3093
915.245	3199
915.358	3211
915.47	3245
915.583	3313
915.696	3355
915.809	3454
915.921	3439
916.034	3310
916.146	3298
916.259	3272
916.371	3412
916.483	3428
916.595	3287
916.708	3348
916.82	3382
916.932	3370
917.044	3370
917.156	3348
917.268	3275
917.38	3317
917.491	3317
917.603	3431
917.715	3466
917.826	3545
917.938	3412
918.049	3332
918.161	3473
918.272	3603
918.384	3564
918.495	3523
918.606	3351
918.717	3313
918.828	3405
918.939	3412
919.05	3329
919.161	3435
919.272	3218
919.383	3287
919.494	3542
919.604	3698
919.715	3507
919.826	3450
919.936	3492
920.047	3618
920.157	3530
920.267	3751
920.378	3625
920.488	3576
920.598	3766
920.708	4013
920.818	3865
920.928	3869
921.038	4044
921.148	4013
921.258	3747
921.368	3682
921.477	3622
921.587	3542
921.697	3496
921.806	3663
921.916	3561
922.025	3409
922.134	3382
922.244	3332
922.353	3469
922.462	3336
922.571	3279
922.68	3173
922.789	3062
922.898	3176
923.007	3093
923.116	3233
923.224	3211
923.333	3192
923.442	3173
923.55	3127
923.659	3173
923.767	3279
923.876	3138
923.984	3287
924.092	3161
924.201	3203
924.309	3237
924.417	3283
924.525	3211
924.633	3233
924.741	4036
924.849	3051
924.956	3317
925.064	3112
925.172	3081
925.279	3097
925.387	3222
925.494	3233
925.602	3382
925.709	3329
925.816	3203
925.924	3332
926.031	3389
926.138	3386
926.245	3397
926.352	3268
926.459	3477
926.566	3477
926.673	3351
926.779	3275
926.886	3283
926.993	3180
927.099	3211
927.206	3157
927.312	3142
927.419	3279
927.525	3260
927.631	3336
927.737	3142
927.843	3123
927.95	3055
928.056	3195
928.162	3211
928.267	3260
928.373	3934
928.479	3317
928.585	3097
928.69	3230
928.796	3291
928.901	3180
929.007	3097
929.112	3214
929.218	3226
929.323	3180
929.428	3180
929.533	3306
929.638	3146
929.743	3207
929.848	3298
929.953	3245
930.058	3188
930.163	2998
930.267	3077
930.372	3199
930.477	3089
930.581	3325
930.685	3188
930.79	3100
930.894	3150
930.998	3142
931.103	3260
931.207	3001
931.311	2986
931.415	2963
931.519	2800
931.623	2853
