Data from test_V78500241_1941.txt Node
Date: Fri Mar 25 16:28:38 CST 2022
User: usil
Spectrometer: V785-0024
Trigger mode: 0
Integration Time (sec): 4.000000E-1
Scans to average: 1
Nonlinearity correction enabled: false
Boxcar width: 0
Storing dark spectrum: false
XAxis mode: Wavelengths
Number of Pixels in Spectrum: 1024
>>>>>Begin Spectral Data<<<<<
801.071	2876
801.214	2971
801.356	2845
801.499	2887
801.641	2849
801.783	2918
801.926	3062
802.068	2990
802.211	2990
802.353	3020
802.496	2982
802.638	2994
802.78	3043
802.923	3043
803.065	3032
803.208	2929
803.35	2899
803.492	2937
803.635	2937
803.777	2766
803.919	2876
804.061	3203
804.204	2975
804.346	2906
804.488	2864
804.63	2998
804.773	2887
804.915	2929
805.057	3066
805.199	2948
805.341	2937
805.483	3051
805.626	3028
805.768	2963
805.91	3112
806.052	3104
806.194	3020
806.336	3207
806.478	3020
806.62	2963
806.762	2941
806.904	3085
807.046	3173
807.188	2994
807.33	2895
807.472	2994
807.614	2941
807.756	3024
807.898	2941
808.04	2895
808.182	2979
808.324	2963
808.465	2872
808.607	2876
808.749	2819
808.891	2845
809.033	2975
809.174	2986
809.316	2914
809.458	2883
809.6	2746
809.741	2746
809.883	2792
810.025	2857
810.166	2864
810.308	2861
810.45	2861
810.591	2796
810.733	2754
810.875	2872
811.016	2766
811.158	2743
811.299	2849
811.441	2952
811.582	2895
811.724	2830
811.865	2857
812.007	2895
812.148	2891
812.29	2857
812.431	2880
812.573	2967
812.714	2952
812.855	3051
812.997	3070
813.138	3116
813.279	3020
813.421	2971
813.562	2982
813.703	2834
813.845	2887
813.986	2785
814.127	2727
814.268	2796
814.41	2883
814.551	2804
814.692	2864
814.833	2830
814.974	2880
815.115	2952
815.256	2834
815.397	2849
815.539	2872
815.68	2773
815.821	2804
815.962	2925
816.103	2902
816.244	2880
816.385	2880
816.526	2971
816.666	2906
816.807	2766
816.948	2887
817.089	2906
817.23	2883
817.371	2788
817.512	2792
817.653	2845
817.793	2842
817.934	2887
818.075	2971
818.216	2967
818.356	3039
818.497	2895
818.638	2842
818.778	2819
818.919	2781
819.06	2781
819.2	2864
819.341	2823
819.481	2796
819.622	2963
819.762	3108
819.903	3028
820.043	2891
820.184	2872
820.324	2929
820.465	2998
820.605	2994
820.746	3039
820.886	2922
821.026	3077
821.167	3173
821.307	3272
821.447	3272
821.588	3226
821.728	3253
821.868	3199
822.008	3058
822.149	3169
822.289	3214
822.429	3077
822.569	3066
822.709	3154
822.849	3055
822.99	3058
823.13	3161
823.27	3195
823.41	3116
823.55	3157
823.69	3138
823.83	3207
823.97	3116
824.11	2971
824.25	2941
824.389	3093
824.529	3116
824.669	3093
824.809	3161
824.949	3237
825.089	3230
825.228	3199
825.368	2982
825.508	2994
825.648	2967
825.787	3024
825.927	3020
826.067	2960
826.206	2994
826.346	3058
826.485	3074
826.625	3127
826.765	3226
826.904	3180
827.044	2982
827.183	2929
827.323	2819
827.462	3001
827.601	2956
827.741	2910
827.88	2918
828.02	2857
828.159	2975
828.298	3043
828.437	3146
828.577	3047
828.716	3211
828.855	3093
828.994	2868
829.134	2845
829.273	2902
829.412	2880
829.551	2895
829.69	2883
829.829	2986
829.968	3108
830.107	3020
830.246	3024
830.385	2910
830.524	2853
830.663	2800
830.802	2731
830.941	2610
831.08	2644
831.219	2746
831.357	2766
831.496	2925
831.635	2701
831.774	2667
831.913	2621
832.051	2495
832.19	2556
832.329	2678
832.467	2537
832.606	2507
832.744	2568
832.883	2571
833.022	2541
833.16	2625
833.299	2678
833.437	2697
833.576	2701
833.714	2708
833.852	2701
833.991	2788
834.129	2807
834.267	2834
834.406	2788
834.544	2864
834.682	2842
834.821	2864
834.959	3043
835.097	2933
835.235	3077
835.373	2960
835.511	3020
835.65	2929
835.788	2941
835.926	2785
836.064	2773
836.202	2819
836.34	3097
836.478	3104
836.615	3020
836.753	3135
836.891	3188
837.029	3157
837.167	3077
837.305	3013
837.443	3039
837.58	2982
837.718	3123
837.856	3077
837.993	3017
838.131	3123
838.269	3104
838.406	3112
838.544	3085
838.681	2929
838.819	2906
838.956	2769
839.094	2804
839.231	2941
839.369	3028
839.506	3386
839.643	3184
839.781	2967
839.918	2941
840.055	3047
840.193	3047
840.33	3081
840.467	3100
840.604	3119
840.742	3378
840.879	3017
841.016	3074
841.153	3089
841.29	3336
841.427	3306
841.564	3275
841.701	3317
841.838	3237
841.975	3127
842.112	3222
842.249	3104
842.385	3032
842.522	3272
842.659	3070
842.796	3013
842.933	3070
843.069	3047
843.206	3005
843.343	3192
843.479	3100
843.616	3142
843.752	2899
843.889	2868
844.025	3070
844.162	2868
844.298	3108
844.435	2906
844.571	2902
844.708	3097
844.844	3173
844.98	3253
845.117	3161
845.253	3058
845.389	3032
845.525	3116
845.661	3089
845.798	2979
845.934	3119
846.07	3055
846.206	3226
846.342	3370
846.478	3237
846.614	3116
846.75	3058
846.886	3036
847.022	3222
847.158	3123
847.294	3188
847.429	3214
847.565	3199
847.701	3477
847.837	3043
847.972	2979
848.108	3188
848.244	3157
848.379	3005
848.515	2952
848.65	2952
848.786	2941
848.921	2963
849.057	3070
849.192	3116
849.328	3055
849.463	3081
849.598	3066
849.734	3020
849.869	2941
850.004	2891
850.14	2952
850.275	2937
850.41	2823
850.545	2895
850.68	2937
850.815	2956
850.95	2982
851.085	3211
851.22	3066
851.355	3020
851.49	3001
851.625	3005
851.76	3036
851.895	2960
852.03	2925
852.165	3043
852.299	3135
852.434	3203
852.569	3123
852.703	3146
852.838	3268
852.973	3313
853.107	3344
853.242	3150
853.376	3066
853.511	2998
853.645	3039
853.78	3192
853.914	3097
854.048	3043
854.183	3074
854.317	3127
854.451	3275
854.585	3104
854.72	3081
854.854	3241
854.988	3081
855.122	3119
855.256	2960
855.39	3146
855.524	3268
855.658	3211
855.792	3116
855.926	3237
856.06	3226
856.194	3253
856.327	3150
856.461	3032
856.595	3062
856.729	3123
856.862	3188
856.996	3180
857.13	3180
857.263	3218
857.397	3275
857.53	3146
857.664	3176
857.797	3233
857.931	3256
858.064	3138
858.197	3253
858.331	3150
858.464	3123
858.597	3024
858.731	3135
858.864	3154
858.997	3081
859.13	3138
859.263	3154
859.396	3169
859.529	3112
859.662	3104
859.795	3032
859.928	3138
860.061	3306
860.194	3313
860.327	3142
860.46	3077
860.592	3241
860.725	3218
860.858	3283
860.99	3058
861.123	3047
861.256	3058
861.388	3135
861.521	3869
861.653	3039
861.786	2986
861.918	3001
862.05	3055
862.183	3055
862.315	3154
862.447	3192
862.58	3116
862.712	2937
862.844	2880
862.976	3055
863.108	2994
863.24	3302
863.372	2861
863.504	2952
863.636	2941
863.768	3024
863.9	2971
864.032	2910
864.164	2925
864.296	2998
864.428	3043
864.559	3070
864.691	3104
864.823	3074
864.954	2979
865.086	3036
865.217	3013
865.349	2979
865.48	2960
865.612	3005
865.743	3169
865.875	2952
866.006	2941
866.137	2975
866.269	2944
866.4	2914
866.531	2891
866.662	2899
866.793	2906
866.924	2944
867.055	2941
867.186	2922
867.317	2853
867.448	2800
867.579	2804
867.71	2842
867.841	2834
867.972	2891
868.103	2887
868.233	2876
868.364	2883
868.495	2899
868.625	3062
868.756	3161
868.886	2971
869.017	3028
869.147	3173
869.278	3150
869.408	3043
869.539	2986
869.669	3070
869.799	3055
869.929	3142
870.06	3089
870.19	3321
870.32	3283
870.45	3279
870.58	3370
870.71	3443
870.84	3416
870.97	3283
871.1	3218
871.23	3496
871.36	3439
871.489	3370
871.619	3355
871.749	3389
871.879	3431
872.008	3492
872.138	3363
872.267	3291
872.397	3100
872.526	3100
872.656	3024
872.785	3077
872.915	3218
873.044	3306
873.173	3226
873.303	3207
873.432	3230
873.561	3260
873.69	3169
873.819	3146
873.948	3211
874.077	3116
874.206	3043
874.335	3112
874.464	3245
874.593	3355
874.722	3256
874.851	3412
874.979	3325
875.108	3310
875.237	3157
875.365	3188
875.494	3093
875.623	3245
875.751	3100
875.88	3119
876.008	3192
876.136	3230
876.265	3389
876.393	3515
876.521	3431
876.65	3363
876.778	3359
876.906	3253
877.034	3169
877.162	3184
877.29	3180
877.418	3226
877.546	3241
877.674	3264
877.802	3203
877.93	3199
878.058	3173
878.185	3100
878.313	3184
878.441	3192
878.568	3058
878.696	3116
878.824	3272
878.951	3294
879.079	3466
879.206	3576
879.333	3469
879.461	3344
879.588	3298
879.715	3488
879.842	3553
879.97	3409
880.097	3173
880.224	3138
880.351	3203
880.478	3203
880.605	3203
880.732	3165
880.859	3496
880.986	3283
881.112	3329
881.239	3195
881.366	3077
881.493	3001
881.619	3047
881.746	3036
881.872	3077
881.999	3097
882.125	3131
882.252	3245
882.378	3256
882.505	3443
882.631	3260
882.757	3154
882.883	3203
883.01	3176
883.136	3150
883.262	3097
883.388	3116
883.514	3329
883.64	3409
883.766	3298
883.892	3161
884.018	3226
884.143	3405
884.269	3564
884.395	3233
884.52	3176
884.646	3195
884.772	3108
884.897	3093
885.023	3199
885.148	3363
885.274	3424
885.399	3386
885.524	3272
885.65	3253
885.775	3272
885.9	3298
886.025	3420
886.15	3340
886.275	3310
886.4	3218
886.525	3272
886.65	3268
886.775	3256
886.9	3462
887.025	3625
887.149	3363
887.274	3245
887.399	3218
887.523	3184
887.648	3184
887.773	3165
887.897	3389
888.021	3401
888.146	3317
888.27	3443
888.395	3530
888.519	3405
888.643	3431
888.767	3443
888.891	3302
889.015	3253
889.139	3275
889.263	3268
889.387	3393
889.511	3492
889.635	3458
889.759	3275
889.883	3317
890.006	3370
890.13	3492
890.254	3291
890.377	3340
890.501	3154
890.624	3180
890.748	3310
890.871	3176
890.995	3097
891.118	3017
891.241	3188
891.364	3237
891.488	3287
891.611	3161
891.734	3218
891.857	3279
891.98	3253
892.103	3336
892.226	3245
892.349	3195
892.471	3116
892.594	3211
892.717	3283
892.839	3226
892.962	3287
893.085	3363
893.207	3237
893.33	3127
893.452	3226
893.575	3325
893.697	3241
893.819	3439
893.941	3496
894.064	3447
894.186	3294
894.308	3279
894.43	3439
894.552	3496
894.674	3469
894.796	3306
894.918	3325
895.04	3275
895.161	3428
895.283	3370
895.405	3294
895.526	3367
895.648	3424
895.769	3412
895.891	3435
896.012	3481
896.134	3473
896.255	3409
896.376	3401
896.498	3351
896.619	3374
896.74	3363
896.861	3401
896.982	3663
897.103	3857
897.224	3549
897.345	3511
897.466	3401
897.587	3469
897.708	3587
897.828	3526
897.949	3473
898.07	3321
898.19	3424
898.311	3599
898.431	3428
898.552	3523
898.672	3595
898.792	3603
898.913	3488
899.033	3401
899.153	3268
899.273	3245
899.393	3268
899.513	3336
899.633	3306
899.753	3374
899.873	3279
899.993	3374
900.113	3329
900.232	3393
900.352	3351
900.472	3272
900.591	3199
900.711	3256
900.83	3256
900.95	3424
901.069	3496
901.189	3348
901.308	3157
901.427	3135
901.546	3203
901.665	3306
901.784	3302
901.904	3184
902.023	3138
902.141	3009
902.26	2982
902.379	3150
902.498	3100
902.617	3058
902.735	3192
902.854	3260
902.973	3218
903.091	3020
903.21	3085
903.328	3161
903.446	3089
903.565	3081
903.683	3214
903.801	3097
903.919	3245
904.038	3272
904.156	3135
904.274	3283
904.392	3275
904.51	3313
904.627	3321
904.745	3386
904.863	3507
904.981	3279
905.098	3146
905.216	3233
905.334	3241
905.451	3306
905.569	3340
905.686	3420
905.803	3435
905.921	3233
906.038	3439
906.155	3325
906.272	3249
906.389	3313
906.506	3245
906.623	3253
906.74	3287
906.857	3154
906.974	3294
907.091	3443
907.208	3568
907.324	3492
907.441	3393
907.557	3207
907.674	3237
907.79	3226
907.907	3260
908.023	3370
908.139	3431
908.256	3344
908.372	3370
908.488	3332
908.604	3233
908.72	3222
908.836	3279
908.952	3294
909.068	3359
909.184	3515
909.3	3409
909.415	3454
909.531	3469
909.647	3268
909.762	3291
909.878	3237
909.993	3378
910.108	3355
910.224	3336
910.339	3424
910.454	3378
910.57	3306
910.685	3211
910.8	3545
910.915	3553
911.03	3439
911.145	3283
911.259	3268
911.374	3310
911.489	3279
911.604	3237
911.718	3081
911.833	3176
911.947	3039
912.062	2967
912.176	3192
912.291	3192
912.405	3203
912.519	3439
912.633	3466
912.748	3317
912.862	3241
912.976	3161
913.09	3047
913.204	3150
913.318	3203
913.431	3351
913.545	3348
913.659	3382
913.772	3313
913.886	3207
914	3237
914.113	3344
914.226	3420
914.34	3359
914.453	3192
914.566	3409
914.68	3294
914.793	3306
914.906	3135
915.019	3112
915.132	3077
915.245	3173
915.358	3195
915.47	3241
915.583	3260
915.696	3325
915.809	3393
915.921	3454
916.034	3260
916.146	3264
916.259	3253
916.371	3389
916.483	3374
916.595	3272
916.708	3340
916.82	3321
916.932	3351
917.044	3382
917.156	3348
917.268	3230
917.38	3313
917.491	3321
917.603	3382
917.715	3443
917.826	3443
917.938	3386
918.049	3294
918.161	3412
918.272	3587
918.384	3538
918.495	3496
918.606	3332
918.717	3245
918.828	3382
918.939	3389
919.05	3306
919.161	3351
919.272	3161
919.383	3272
919.494	3526
919.604	3675
919.715	3462
919.826	3435
919.936	3420
920.047	3580
920.157	3515
920.267	3804
920.378	3618
920.488	3553
920.598	3736
920.708	3983
920.818	3812
920.928	3846
921.038	4078
921.148	3994
921.258	3720
921.368	3652
921.477	3576
921.587	3553
921.697	3447
921.806	3629
921.916	3530
922.025	3344
922.134	3325
922.244	3298
922.353	3428
922.462	3279
922.571	3241
922.68	3104
922.789	3024
922.898	3116
923.007	3108
923.116	3199
923.224	3180
923.333	3173
923.442	3089
923.55	3116
923.659	3131
923.767	3230
923.876	3089
923.984	3268
924.092	3093
924.201	3180
924.309	3264
924.417	3253
924.525	3192
924.633	3214
924.741	4162
924.849	3058
924.956	3279
925.064	3081
925.172	3074
925.279	3077
925.387	3184
925.494	3207
925.602	3348
925.709	3336
925.816	3195
925.924	3241
926.031	3340
926.138	3329
926.245	3321
926.352	3264
926.459	3409
926.566	3462
926.673	3310
926.779	3233
926.886	3233
926.993	3157
927.099	3108
927.206	3112
927.312	3089
927.419	3207
927.525	3173
927.631	3298
927.737	3131
927.843	3138
927.95	3013
928.056	3169
928.162	3157
928.267	3237
928.373	3831
928.479	3321
928.585	3077
928.69	3233
928.796	3298
928.901	3180
929.007	3043
929.112	3188
929.218	3245
929.323	3169
929.428	3169
929.533	3317
929.638	3127
929.743	3142
929.848	3245
929.953	3211
930.058	3142
930.163	3032
930.267	3066
930.372	3176
930.477	3043
930.581	3294
930.685	3169
930.79	3066
930.894	3104
930.998	3093
931.103	3275
931.207	2952
931.311	2975
931.415	2941
931.519	2777
931.623	2777
