Data from test_V78500241_374.txt Node
Date: Fri Mar 25 16:17:47 CST 2022
User: usil
Spectrometer: V785-0024
Trigger mode: 0
Integration Time (sec): 4.000000E-1
Scans to average: 1
Nonlinearity correction enabled: false
Boxcar width: 0
Storing dark spectrum: false
XAxis mode: Wavelengths
Number of Pixels in Spectrum: 1024
>>>>>Begin Spectral Data<<<<<
801.071	2880
801.214	2963
801.356	2872
801.499	2880
801.641	2864
801.783	2902
801.926	3081
802.068	2922
802.211	2979
802.353	3005
802.496	2979
802.638	2990
802.78	3077
802.923	3093
803.065	3005
803.208	2899
803.35	2891
803.492	2922
803.635	2956
803.777	2739
803.919	2849
804.061	3195
804.204	2925
804.346	2933
804.488	2842
804.63	2994
804.773	2876
804.915	2876
805.057	3062
805.199	2925
805.341	2948
805.483	3001
805.626	3020
805.768	2982
805.91	3066
806.052	3093
806.194	3001
806.336	3245
806.478	3028
806.62	2963
806.762	2982
806.904	3055
807.046	3199
807.188	2990
807.33	2925
807.472	2963
807.614	2952
807.756	2937
807.898	2910
808.04	2902
808.182	2937
808.324	2944
808.465	2876
808.607	2887
808.749	2792
808.891	2834
809.033	2937
809.174	2952
809.316	2857
809.458	2895
809.6	2762
809.741	2788
809.883	2769
810.025	2853
810.166	2842
810.308	2834
810.45	2849
810.591	2804
810.733	2758
810.875	2861
811.016	2769
811.158	2708
811.299	2792
811.441	2925
811.582	2883
811.724	2811
811.865	2845
812.007	2918
812.148	2883
812.29	2853
812.431	2895
812.573	2967
812.714	2933
812.855	3058
812.997	3074
813.138	3112
813.279	2986
813.421	2979
813.562	2952
813.703	2849
813.845	2861
813.986	2773
814.127	2727
814.268	2819
814.41	2830
814.551	2807
814.692	2864
814.833	2788
814.974	2845
815.115	2944
815.256	2826
815.397	2826
815.539	2857
815.68	2796
815.821	2762
815.962	2925
816.103	2922
816.244	2849
816.385	2834
816.526	2948
816.666	2902
816.807	2758
816.948	2910
817.089	2895
817.23	2826
817.371	2777
817.512	2758
817.653	2853
817.793	2857
817.934	2876
818.075	2971
818.216	3005
818.356	3020
818.497	2857
818.638	2823
818.778	2804
818.919	2785
819.06	2758
819.2	2861
819.341	2811
819.481	2788
819.622	2891
819.762	3104
819.903	3032
820.043	2895
820.184	2902
820.324	2887
820.465	3028
820.605	2990
820.746	3039
820.886	2922
821.026	3077
821.167	3127
821.307	3268
821.447	3294
821.588	3226
821.728	3226
821.868	3169
822.008	3077
822.149	3131
822.289	3195
822.429	3062
822.569	3142
822.709	3203
822.849	3070
822.99	3093
823.13	3131
823.27	3195
823.41	3097
823.55	3150
823.69	3161
823.83	3180
823.97	3104
824.11	2982
824.25	2986
824.389	3032
824.529	3112
824.669	3066
824.809	3180
824.949	3249
825.089	3199
825.228	3146
825.368	2967
825.508	2967
825.648	2956
825.787	2994
825.927	3009
826.067	2971
826.206	2975
826.346	3005
826.485	3077
826.625	3119
826.765	3264
826.904	3214
827.044	2956
827.183	2941
827.323	2830
827.462	2994
827.601	2906
827.741	2902
827.88	2937
828.02	2830
828.159	2971
828.298	3005
828.437	3097
828.577	3062
828.716	3195
828.855	3085
828.994	2887
829.134	2880
829.273	2918
829.412	2842
829.551	2883
829.69	2899
829.829	2975
829.968	3089
830.107	3001
830.246	2994
830.385	2918
830.524	2864
830.663	2819
830.802	2689
830.941	2648
831.08	2602
831.219	2746
831.357	2724
831.496	2914
831.635	2754
831.774	2610
831.913	2644
832.051	2545
832.19	2568
832.329	2678
832.467	2530
832.606	2454
832.744	2594
832.883	2610
833.022	2583
833.16	2606
833.299	2689
833.437	2674
833.576	2682
833.714	2724
833.852	2693
833.991	2766
834.129	2819
834.267	2800
834.406	2781
834.544	2868
834.682	2842
834.821	2876
834.959	3017
835.097	2887
835.235	3055
835.373	2990
835.511	3024
835.65	2941
835.788	2929
835.926	2815
836.064	2788
836.202	2838
836.34	3085
836.478	3142
836.615	3055
836.753	3119
836.891	3180
837.029	3142
837.167	3062
837.305	3070
837.443	3032
837.58	2937
837.718	3119
837.856	3055
837.993	3028
838.131	3100
838.269	3077
838.406	3062
838.544	3108
838.681	2941
838.819	2933
838.956	2807
839.094	2842
839.231	2906
839.369	3055
839.506	3340
839.643	3192
839.781	2990
839.918	2975
840.055	3017
840.193	2998
840.33	3062
840.467	3112
840.604	3135
840.742	3355
840.879	3047
841.016	3039
841.153	3085
841.29	3313
841.427	3272
841.564	3275
841.701	3332
841.838	3188
841.975	3146
842.112	3192
842.249	3066
842.385	3032
842.522	3230
842.659	3104
842.796	3043
842.933	3093
843.069	3047
843.206	3047
843.343	3165
843.479	3085
843.616	3176
843.752	2887
843.889	2872
844.025	3062
844.162	2842
844.298	3055
844.435	2922
844.571	2918
844.708	3062
844.844	3188
844.98	3226
845.117	3184
845.253	3024
845.389	2963
845.525	3100
845.661	3077
845.798	2990
845.934	3112
846.07	3024
846.206	3214
846.342	3306
846.478	3241
846.614	3085
846.75	3020
846.886	3020
847.022	3268
847.158	3135
847.294	3199
847.429	3233
847.565	3176
847.701	3469
847.837	3043
847.972	2975
848.108	3165
848.244	3135
848.379	2963
848.515	2933
848.65	2922
848.786	2982
848.921	2986
849.057	3081
849.192	3131
849.328	3039
849.463	3089
849.598	3058
849.734	3036
849.869	2963
850.004	2922
850.14	2933
850.275	2922
850.41	2842
850.545	2857
850.68	2914
850.815	2929
850.95	2967
851.085	3150
851.22	3093
851.355	3024
851.49	2956
851.625	3009
851.76	2990
851.895	2948
852.03	2883
852.165	3020
852.299	3093
852.434	3154
852.569	3142
852.703	3142
852.838	3256
852.973	3298
853.107	3313
853.242	3138
853.376	3058
853.511	2944
853.645	3055
853.78	3218
853.914	3131
854.048	3100
854.183	3066
854.317	3146
854.451	3298
854.585	3142
854.72	3058
854.854	3180
854.988	3036
855.122	3135
855.256	2944
855.39	3112
855.524	3222
855.658	3169
855.792	3169
855.926	3192
856.06	3203
856.194	3237
856.327	3138
856.461	3077
856.595	3081
856.729	3085
856.862	3214
856.996	3138
857.13	3165
857.263	3211
857.397	3241
857.53	3135
857.664	3218
857.797	3275
857.931	3256
858.064	3150
858.197	3211
858.331	3116
858.464	3058
858.597	2979
858.731	3116
858.864	3127
858.997	3085
859.13	3173
859.263	3207
859.396	3176
859.529	3093
859.662	3047
859.795	3066
859.928	3142
860.061	3260
860.194	3321
860.327	3192
860.46	3116
860.592	3249
860.725	3298
860.858	3253
860.99	3112
861.123	3036
861.256	3116
861.388	3173
861.521	3896
861.653	3070
861.786	3024
861.918	2994
862.05	3116
862.183	3123
862.315	3199
862.447	3192
862.58	3138
862.712	2967
862.844	2922
862.976	3074
863.108	3043
863.24	3481
863.372	2906
863.504	3009
863.636	2975
863.768	3077
863.9	3020
864.032	2982
864.164	3001
864.296	3051
864.428	3081
864.559	3138
864.691	3077
864.823	3077
864.954	3062
865.086	3062
865.217	3036
865.349	2990
865.48	3017
865.612	3070
865.743	3199
865.875	3032
866.006	2979
866.137	3036
866.269	3017
866.4	3009
866.531	2948
866.662	2941
866.793	2929
866.924	2933
867.055	3020
867.186	2967
867.317	2941
867.448	2845
867.579	2876
867.71	2887
867.841	2826
867.972	2929
868.103	2941
868.233	2906
868.364	2902
868.495	2914
868.625	3131
868.756	3207
868.886	2979
869.017	3043
869.147	3218
869.278	3188
869.408	3119
869.539	3017
869.669	3161
869.799	3081
869.929	3192
870.06	3119
870.19	3374
870.32	3287
870.45	3344
870.58	3393
870.71	3466
870.84	3504
870.97	3298
871.1	3287
871.23	3511
871.36	3454
871.489	3409
871.619	3428
871.749	3454
871.879	3428
872.008	3523
872.138	3382
872.267	3317
872.397	3135
872.526	3135
872.656	3074
872.785	3116
872.915	3253
873.044	3351
873.173	3245
873.303	3256
873.432	3249
873.561	3256
873.69	3199
873.819	3138
873.948	3241
874.077	3138
874.206	3039
874.335	3146
874.464	3226
874.593	3359
874.722	3249
874.851	3439
874.979	3348
875.108	3348
875.237	3222
875.365	3222
875.494	3195
875.623	3264
875.751	3074
875.88	3161
876.008	3249
876.136	3226
876.265	3386
876.393	3500
876.521	3492
876.65	3443
876.778	3382
876.906	3218
877.034	3237
877.162	3268
877.29	3192
877.418	3283
877.546	3222
877.674	3260
877.802	3249
877.93	3241
878.058	3180
878.185	3089
878.313	3207
878.441	3233
878.568	3104
878.696	3184
878.824	3245
878.951	3298
879.079	3481
879.206	3614
879.333	3428
879.461	3336
879.588	3389
879.715	3500
879.842	3614
879.97	3420
880.097	3211
880.224	3165
880.351	3207
880.478	3218
880.605	3214
880.732	3195
880.859	3526
880.986	3329
881.112	3363
881.239	3233
881.366	3119
881.493	3089
881.619	3062
881.746	3119
881.872	3097
881.999	3135
882.125	3184
882.252	3264
882.378	3332
882.505	3466
882.631	3332
882.757	3199
882.883	3253
883.01	3283
883.136	3173
883.262	3127
883.388	3138
883.514	3344
883.64	3374
883.766	3340
883.892	3226
884.018	3253
884.143	3462
884.269	3603
884.395	3249
884.52	3203
884.646	3207
884.772	3165
884.897	3169
885.023	3211
885.148	3344
885.274	3504
885.399	3393
885.524	3291
885.65	3310
885.775	3363
885.9	3344
886.025	3469
886.15	3386
886.275	3313
886.4	3260
886.525	3382
886.65	3294
886.775	3317
886.9	3504
887.025	3652
887.149	3454
887.274	3268
887.399	3218
887.523	3192
887.648	3199
887.773	3283
887.897	3416
888.021	3443
888.146	3302
888.27	3462
888.395	3557
888.519	3428
888.643	3500
888.767	3473
888.891	3329
889.015	3294
889.139	3348
889.263	3291
889.387	3439
889.511	3519
889.635	3469
889.759	3344
889.883	3325
890.006	3420
890.13	3507
890.254	3306
890.377	3409
890.501	3268
890.624	3207
890.748	3313
890.871	3233
890.995	3108
891.118	3081
891.241	3188
891.364	3283
891.488	3321
891.611	3230
891.734	3230
891.857	3283
891.98	3260
892.103	3332
892.226	3306
892.349	3233
892.471	3165
892.594	3287
892.717	3332
892.839	3298
892.962	3302
893.085	3382
893.207	3306
893.33	3154
893.452	3245
893.575	3370
893.697	3313
893.819	3481
893.941	3515
894.064	3500
894.186	3329
894.308	3253
894.43	3462
894.552	3538
894.674	3477
894.796	3287
894.918	3329
895.04	3298
895.161	3477
895.283	3458
895.405	3325
895.526	3401
895.648	3485
895.769	3443
895.891	3462
896.012	3519
896.134	3519
896.255	3431
896.376	3412
896.498	3401
896.619	3492
896.74	3382
896.861	3435
896.982	3728
897.103	3827
897.224	3595
897.345	3530
897.466	3443
897.587	3534
897.708	3637
897.828	3572
897.949	3473
898.07	3359
898.19	3439
898.311	3633
898.431	3435
898.552	3504
898.672	3629
898.792	3603
898.913	3496
899.033	3416
899.153	3321
899.273	3226
899.393	3336
899.513	3325
899.633	3287
899.753	3378
899.873	3340
899.993	3443
900.113	3344
900.232	3393
900.352	3351
900.472	3336
900.591	3180
900.711	3344
900.83	3253
900.95	3447
901.069	3519
901.189	3367
901.308	3176
901.427	3135
901.546	3245
901.665	3291
901.784	3348
901.904	3207
902.023	3161
902.141	3032
902.26	3017
902.379	3214
902.498	3062
902.617	3089
902.735	3253
902.854	3260
902.973	3230
903.091	3100
903.21	3081
903.328	3146
903.446	3123
903.565	3119
903.683	3218
903.801	3165
903.919	3253
904.038	3306
904.156	3192
904.274	3332
904.392	3291
904.51	3294
904.627	3378
904.745	3443
904.863	3523
904.981	3302
905.098	3192
905.216	3214
905.334	3283
905.451	3359
905.569	3329
905.686	3439
905.803	3496
905.921	3336
906.038	3401
906.155	3397
906.272	3287
906.389	3363
906.506	3283
906.623	3260
906.74	3264
906.857	3226
906.974	3249
907.091	3511
907.208	3549
907.324	3545
907.441	3409
907.557	3264
907.674	3241
907.79	3222
907.907	3291
908.023	3382
908.139	3348
908.256	3344
908.372	3359
908.488	3367
908.604	3287
908.72	3264
908.836	3306
908.952	3256
909.068	3325
909.184	3515
909.3	3401
909.415	3534
909.531	3523
909.647	3272
909.762	3294
909.878	3275
909.993	3401
910.108	3389
910.224	3336
910.339	3420
910.454	3317
910.57	3302
910.685	3283
910.8	3614
910.915	3557
911.03	3454
911.145	3298
911.259	3287
911.374	3321
911.489	3226
911.604	3264
911.718	3138
911.833	3154
911.947	3032
912.062	2998
912.176	3192
912.291	3214
912.405	3237
912.519	3443
912.633	3477
912.748	3359
912.862	3279
912.976	3188
913.09	3085
913.204	3146
913.318	3199
913.431	3317
913.545	3367
913.659	3428
913.772	3351
913.886	3245
914	3180
914.113	3355
914.226	3428
914.34	3363
914.453	3226
914.566	3397
914.68	3294
914.793	3313
914.906	3146
915.019	3161
915.132	3070
915.245	3180
915.358	3199
915.47	3192
915.583	3272
915.696	3275
915.809	3393
915.921	3435
916.034	3233
916.146	3268
916.259	3253
916.371	3374
916.483	3367
916.595	3268
916.708	3374
916.82	3344
916.932	3336
917.044	3378
917.156	3386
917.268	3275
917.38	3264
917.491	3336
917.603	3389
917.715	3450
917.826	3462
917.938	3409
918.049	3283
918.161	3454
918.272	3564
918.384	3564
918.495	3477
918.606	3310
918.717	3294
918.828	3382
918.939	3435
919.05	3310
919.161	3386
919.272	3173
919.383	3253
919.494	3515
919.604	3690
919.715	3519
919.826	3397
919.936	3507
920.047	3629
920.157	3542
920.267	3781
920.378	3584
920.488	3591
920.598	3793
920.708	3968
920.818	3835
920.928	3846
921.038	4044
921.148	3979
921.258	3740
921.368	3648
921.477	3561
921.587	3564
921.697	3473
921.806	3633
921.916	3515
922.025	3359
922.134	3351
922.244	3332
922.353	3412
922.462	3264
922.571	3249
922.68	3135
922.789	3051
922.898	3119
923.007	3077
923.116	3218
923.224	3157
923.333	3203
923.442	3119
923.55	3104
923.659	3157
923.767	3256
923.876	3150
923.984	3268
924.092	3119
924.201	3146
924.309	3230
924.417	3268
924.525	3207
924.633	3237
924.741	4173
924.849	3058
924.956	3256
925.064	3055
925.172	3055
925.279	3116
925.387	3233
925.494	3237
925.602	3359
925.709	3310
925.816	3222
925.924	3264
926.031	3355
926.138	3344
926.245	3405
926.352	3264
926.459	3435
926.566	3515
926.673	3336
926.779	3283
926.886	3283
926.993	3169
927.099	3127
927.206	3157
927.312	3184
927.419	3275
927.525	3226
927.631	3283
927.737	3192
927.843	3127
927.95	3051
928.056	3146
928.162	3176
928.267	3294
928.373	3884
928.479	3325
928.585	3089
928.69	3245
928.796	3279
928.901	3218
929.007	3108
929.112	3218
929.218	3195
929.323	3199
929.428	3180
929.533	3351
929.638	3154
929.743	3207
929.848	3283
929.953	3241
930.058	3203
930.163	3062
930.267	3085
930.372	3233
930.477	3077
930.581	3374
930.685	3237
930.79	3123
930.894	3173
930.998	3165
931.103	3317
931.207	3020
931.311	2990
931.415	2994
931.519	2819
931.623	2849
