Data from test_V78500241_86.txt Node
Date: Fri Mar 25 16:15:48 CST 2022
User: usil
Spectrometer: V785-0024
Trigger mode: 0
Integration Time (sec): 4.000000E-1
Scans to average: 1
Nonlinearity correction enabled: false
Boxcar width: 0
Storing dark spectrum: false
XAxis mode: Wavelengths
Number of Pixels in Spectrum: 1024
>>>>>Begin Spectral Data<<<<<
801.071	2914
801.214	2971
801.356	2902
801.499	2944
801.641	2887
801.783	2948
801.926	3066
802.068	3001
802.211	3001
802.353	3043
802.496	2990
802.638	3039
802.78	3047
802.923	3081
803.065	3005
803.208	2899
803.35	2941
803.492	2956
803.635	2956
803.777	2796
803.919	2933
804.061	3203
804.204	2986
804.346	2944
804.488	2895
804.63	2982
804.773	2902
804.915	2906
805.057	3116
805.199	2925
805.341	3009
805.483	3058
805.626	3036
805.768	2967
805.91	3077
806.052	3135
806.194	3062
806.336	3272
806.478	3009
806.62	2994
806.762	2975
806.904	3085
807.046	3161
807.188	2994
807.33	2948
807.472	3017
807.614	2899
807.756	3013
807.898	2918
808.04	2887
808.182	2998
808.324	2960
808.465	2883
808.607	2876
808.749	2819
808.891	2922
809.033	2982
809.174	3001
809.316	2899
809.458	2948
809.6	2823
809.741	2815
809.883	2766
810.025	2853
810.166	2868
810.308	2876
810.45	2868
810.591	2796
810.733	2800
810.875	2842
811.016	2815
811.158	2792
811.299	2815
811.441	2967
811.582	2944
811.724	2853
811.865	2815
812.007	2948
812.148	2906
812.29	2861
812.431	2902
812.573	3001
812.714	3017
812.855	3089
812.997	3077
813.138	3165
813.279	3043
813.421	2998
813.562	2986
813.703	2864
813.845	2910
813.986	2773
814.127	2735
814.268	2838
814.41	2849
814.551	2826
814.692	2906
814.833	2861
814.974	2941
815.115	2948
815.256	2838
815.397	2849
815.539	2868
815.68	2785
815.821	2800
815.962	3001
816.103	2963
816.244	2891
816.385	2895
816.526	2998
816.666	2933
816.807	2754
816.948	2929
817.089	2887
817.23	2914
817.371	2830
817.512	2804
817.653	2880
817.793	2853
817.934	2887
818.075	2998
818.216	3013
818.356	3074
818.497	2902
818.638	2819
818.778	2815
818.919	2834
819.06	2777
819.2	2899
819.341	2826
819.481	2826
819.622	2948
819.762	3127
819.903	3058
820.043	2952
820.184	2906
820.324	2929
820.465	2994
820.605	3043
820.746	3047
820.886	2944
821.026	3142
821.167	3214
821.307	3283
821.447	3310
821.588	3291
821.728	3207
821.868	3230
822.008	3108
822.149	3218
822.289	3260
822.429	3138
822.569	3169
822.709	3222
822.849	3058
822.99	3085
823.13	3203
823.27	3249
823.41	3154
823.55	3173
823.69	3173
823.83	3222
823.97	3108
824.11	3020
824.25	3005
824.389	3127
824.529	3135
824.669	3100
824.809	3245
824.949	3313
825.089	3256
825.228	3199
825.368	3020
825.508	3017
825.648	2982
825.787	2998
825.927	3047
826.067	2982
826.206	2967
826.346	3039
826.485	3100
826.625	3108
826.765	3256
826.904	3222
827.044	3009
827.183	2952
827.323	2864
827.462	3047
827.601	2914
827.741	2956
827.88	2986
828.02	2891
828.159	2982
828.298	3055
828.437	3135
828.577	3093
828.716	3256
828.855	3093
828.994	2971
829.134	2902
829.273	2914
829.412	2876
829.551	2876
829.69	2891
829.829	3062
829.968	3142
830.107	3005
830.246	3055
830.385	2956
830.524	2899
830.663	2834
830.802	2750
830.941	2651
831.08	2674
831.219	2758
831.357	2785
831.496	2979
831.635	2758
831.774	2655
831.913	2670
832.051	2541
832.19	2613
832.329	2686
832.467	2537
832.606	2495
832.744	2579
832.883	2583
833.022	2590
833.16	2689
833.299	2720
833.437	2716
833.576	2716
833.714	2727
833.852	2762
833.991	2785
834.129	2823
834.267	2826
834.406	2773
834.544	2906
834.682	2883
834.821	2880
834.959	3074
835.097	2910
835.235	3081
835.373	3043
835.511	3020
835.65	2979
835.788	2979
835.926	2861
836.064	2804
836.202	2868
836.34	3127
836.478	3165
836.615	3051
836.753	3138
836.891	3230
837.029	3214
837.167	3131
837.305	3093
837.443	3028
837.58	2963
837.718	3123
837.856	3081
837.993	3047
838.131	3097
838.269	3119
838.406	3123
838.544	3108
838.681	2975
838.819	2937
838.956	2830
839.094	2823
839.231	2922
839.369	2990
839.506	3374
839.643	3279
839.781	3047
839.918	2994
840.055	3070
840.193	3047
840.33	3108
840.467	3097
840.604	3173
840.742	3393
840.879	3074
841.016	3074
841.153	3127
841.29	3355
841.427	3321
841.564	3306
841.701	3298
841.838	3230
841.975	3180
842.112	3230
842.249	3093
842.385	3017
842.522	3317
842.659	3081
842.796	3085
842.933	3161
843.069	3089
843.206	3093
843.343	3188
843.479	3138
843.616	3184
843.752	2925
843.889	2914
844.025	3097
844.162	2906
844.298	3093
844.435	3013
844.571	2929
844.708	3085
844.844	3214
844.98	3272
845.117	3192
845.253	3097
845.389	3028
845.525	3104
845.661	3123
845.798	3032
845.934	3123
846.07	3100
846.206	3256
846.342	3332
846.478	3260
846.614	3112
846.75	3081
846.886	2979
847.022	3279
847.158	3176
847.294	3207
847.429	3283
847.565	3222
847.701	3488
847.837	3081
847.972	3001
848.108	3165
848.244	3154
848.379	2982
848.515	2941
848.65	2941
848.786	2982
848.921	3013
849.057	3077
849.192	3157
849.328	3093
849.463	3127
849.598	3081
849.734	3058
849.869	2979
850.004	2925
850.14	2979
850.275	2929
850.41	2887
850.545	2880
850.68	2933
850.815	2948
850.95	2967
851.085	3222
851.22	3127
851.355	3077
851.49	2963
851.625	3020
851.76	3028
851.895	2944
852.03	2971
852.165	3077
852.299	3100
852.434	3211
852.569	3150
852.703	3195
852.838	3264
852.973	3367
853.107	3363
853.242	3169
853.376	3093
853.511	3024
853.645	3077
853.78	3306
853.914	3146
854.048	3119
854.183	3104
854.317	3176
854.451	3370
854.585	3184
854.72	3097
854.854	3256
854.988	3108
855.122	3138
855.256	3024
855.39	3161
855.524	3310
855.658	3214
855.792	3203
855.926	3211
856.06	3275
856.194	3294
856.327	3222
856.461	3123
856.595	3108
856.729	3131
856.862	3264
856.996	3214
857.13	3241
857.263	3321
857.397	3329
857.53	3173
857.664	3260
857.797	3313
857.931	3283
858.064	3211
858.197	3279
858.331	3180
858.464	3119
858.597	3055
858.731	3195
858.864	3264
858.997	3169
859.13	3214
859.263	3233
859.396	3275
859.529	3123
859.662	3119
859.795	3116
859.928	3218
860.061	3344
860.194	3310
860.327	3226
860.46	3176
860.592	3317
860.725	3310
860.858	3340
860.99	3176
861.123	3127
861.256	3131
861.388	3256
861.521	3732
861.653	3051
861.786	3055
861.918	3058
862.05	3157
862.183	3180
862.315	3218
862.447	3245
862.58	3161
862.712	3036
862.844	2975
862.976	3093
863.108	3043
863.24	3488
863.372	2929
863.504	3032
863.636	3017
863.768	3081
863.9	3013
864.032	2990
864.164	3013
864.296	3112
864.428	3142
864.559	3157
864.691	3138
864.823	3146
864.954	3077
865.086	3089
865.217	3051
865.349	2994
865.48	3070
865.612	3097
865.743	3214
865.875	3074
866.006	2994
866.137	3017
866.269	3013
866.4	2979
866.531	2971
866.662	2929
866.793	2910
866.924	2956
867.055	3013
867.186	2975
867.317	2963
867.448	2883
867.579	2914
867.71	2933
867.841	2861
867.972	2975
868.103	2990
868.233	2963
868.364	2925
868.495	2952
868.625	3104
868.756	3203
868.886	3051
869.017	3108
869.147	3207
869.278	3253
869.408	3119
869.539	3062
869.669	3192
869.799	3093
869.929	3222
870.06	3131
870.19	3420
870.32	3317
870.45	3344
870.58	3431
870.71	3515
870.84	3488
870.97	3348
871.1	3279
871.23	3530
871.36	3519
871.489	3420
871.619	3431
871.749	3466
871.879	3488
872.008	3549
872.138	3443
872.267	3363
872.397	3180
872.526	3169
872.656	3058
872.785	3127
872.915	3260
873.044	3389
873.173	3275
873.303	3317
873.432	3332
873.561	3317
873.69	3207
873.819	3199
873.948	3214
874.077	3180
874.206	3093
874.335	3138
874.464	3275
874.593	3416
874.722	3298
874.851	3450
874.979	3412
875.108	3428
875.237	3321
875.365	3279
875.494	3230
875.623	3313
875.751	3112
875.88	3214
876.008	3272
876.136	3310
876.265	3458
876.393	3580
876.521	3481
876.65	3466
876.778	3393
876.906	3272
877.034	3268
877.162	3294
877.29	3279
877.418	3291
877.546	3306
877.674	3298
877.802	3283
877.93	3287
878.058	3233
878.185	3161
878.313	3283
878.441	3260
878.568	3135
878.696	3211
878.824	3302
878.951	3382
879.079	3500
879.206	3694
879.333	3492
879.461	3409
879.588	3424
879.715	3545
879.842	3637
879.97	3401
880.097	3260
880.224	3176
880.351	3313
880.478	3260
880.605	3249
880.732	3188
880.859	3519
880.986	3359
881.112	3332
881.239	3287
881.366	3138
881.493	3123
881.619	3085
881.746	3138
881.872	3138
881.999	3192
882.125	3245
882.252	3317
882.378	3359
882.505	3553
882.631	3332
882.757	3195
882.883	3279
883.01	3287
883.136	3218
883.262	3146
883.388	3173
883.514	3370
883.64	3424
883.766	3329
883.892	3272
884.018	3302
884.143	3462
884.269	3591
884.395	3275
884.52	3230
884.646	3268
884.772	3218
884.897	3138
885.023	3283
885.148	3382
885.274	3435
885.399	3431
885.524	3332
885.65	3329
885.775	3416
885.9	3363
886.025	3473
886.15	3447
886.275	3378
886.4	3294
886.525	3378
886.65	3344
886.775	3351
886.9	3557
887.025	3701
887.149	3462
887.274	3272
887.399	3249
887.523	3268
887.648	3230
887.773	3218
887.897	3401
888.021	3507
888.146	3336
888.27	3454
888.395	3599
888.519	3458
888.643	3507
888.767	3496
888.891	3344
889.015	3294
889.139	3351
889.263	3275
889.387	3473
889.511	3534
889.635	3557
889.759	3325
889.883	3382
890.006	3439
890.13	3542
890.254	3332
890.377	3397
890.501	3264
890.624	3260
890.748	3359
890.871	3222
890.995	3119
891.118	3104
891.241	3241
891.364	3302
891.488	3382
891.611	3245
891.734	3268
891.857	3325
891.98	3283
892.103	3439
892.226	3336
892.349	3256
892.471	3173
892.594	3291
892.717	3329
892.839	3310
892.962	3351
893.085	3393
893.207	3348
893.33	3180
893.452	3268
893.575	3374
893.697	3302
893.819	3466
893.941	3576
894.064	3561
894.186	3329
894.308	3344
894.43	3504
894.552	3576
894.674	3538
894.796	3336
894.918	3359
895.04	3310
895.161	3485
895.283	3485
895.405	3393
895.526	3405
895.648	3538
895.769	3488
895.891	3545
896.012	3519
896.134	3481
896.255	3485
896.376	3412
896.498	3439
896.619	3466
896.74	3416
896.861	3401
896.982	3720
897.103	3861
897.224	3705
897.345	3561
897.466	3473
897.587	3542
897.708	3686
897.828	3614
897.949	3466
898.07	3405
898.19	3439
898.311	3641
898.431	3523
898.552	3625
898.672	3694
898.792	3648
898.913	3545
899.033	3458
899.153	3325
899.273	3298
899.393	3363
899.513	3382
899.633	3370
899.753	3424
899.873	3409
899.993	3416
900.113	3374
900.232	3447
900.352	3393
900.472	3374
900.591	3253
900.711	3344
900.83	3298
900.95	3416
901.069	3523
901.189	3374
901.308	3207
901.427	3173
901.546	3211
901.665	3317
901.784	3393
901.904	3264
902.023	3199
902.141	3058
902.26	3032
902.379	3169
902.498	3093
902.617	3135
902.735	3264
902.854	3260
902.973	3264
903.091	3146
903.21	3150
903.328	3169
903.446	3176
903.565	3138
903.683	3249
903.801	3161
903.919	3313
904.038	3317
904.156	3233
904.274	3310
904.392	3325
904.51	3355
904.627	3363
904.745	3485
904.863	3568
904.981	3298
905.098	3180
905.216	3291
905.334	3363
905.451	3336
905.569	3344
905.686	3477
905.803	3507
905.921	3317
906.038	3477
906.155	3374
906.272	3325
906.389	3389
906.506	3268
906.623	3287
906.74	3279
906.857	3233
906.974	3310
907.091	3492
907.208	3603
907.324	3519
907.441	3409
907.557	3279
907.674	3310
907.79	3241
907.907	3351
908.023	3439
908.139	3428
908.256	3367
908.372	3450
908.488	3416
908.604	3283
908.72	3279
908.836	3348
908.952	3340
909.068	3397
909.184	3538
909.3	3466
909.415	3542
909.531	3515
909.647	3321
909.762	3359
909.878	3302
909.993	3431
910.108	3374
910.224	3367
910.339	3431
910.454	3374
910.57	3355
910.685	3287
910.8	3644
910.915	3576
911.03	3504
911.145	3340
911.259	3336
911.374	3370
911.489	3287
911.604	3294
911.718	3184
911.833	3157
911.947	3085
912.062	3017
912.176	3222
912.291	3222
912.405	3268
912.519	3492
912.633	3466
912.748	3447
912.862	3332
912.976	3184
913.09	3150
913.204	3192
913.318	3233
913.431	3412
913.545	3386
913.659	3454
913.772	3382
913.886	3233
914	3253
914.113	3409
914.226	3477
914.34	3397
914.453	3306
914.566	3481
914.68	3363
914.793	3336
914.906	3188
915.019	3176
915.132	3108
915.245	3241
915.358	3241
915.47	3275
915.583	3283
915.696	3325
915.809	3477
915.921	3454
916.034	3283
916.146	3298
916.259	3283
916.371	3420
916.483	3401
916.595	3332
916.708	3382
916.82	3370
916.932	3382
917.044	3382
917.156	3378
917.268	3317
917.38	3336
917.491	3348
917.603	3412
917.715	3450
917.826	3553
917.938	3424
918.049	3340
918.161	3450
918.272	3606
918.384	3591
918.495	3538
918.606	3439
918.717	3306
918.828	3454
918.939	3454
919.05	3348
919.161	3382
919.272	3218
919.383	3348
919.494	3545
919.604	3686
919.715	3534
919.826	3416
919.936	3500
920.047	3637
920.157	3584
920.267	3789
920.378	3713
920.488	3576
920.598	3816
920.708	4002
920.818	3869
920.928	3903
921.038	4082
921.148	4067
921.258	3736
921.368	3675
921.477	3671
921.587	3572
921.697	3534
921.806	3667
921.916	3591
922.025	3393
922.134	3431
922.244	3439
922.353	3504
922.462	3359
922.571	3253
922.68	3173
922.789	3119
922.898	3195
923.007	3173
923.116	3275
923.224	3253
923.333	3287
923.442	3135
923.55	3176
923.659	3237
923.767	3275
923.876	3131
923.984	3302
924.092	3188
924.201	3253
924.309	3302
924.417	3321
924.525	3256
924.633	3332
924.741	4306
924.849	3123
924.956	3359
925.064	3180
925.172	3123
925.279	3173
925.387	3287
925.494	3279
925.602	3428
925.709	3401
925.816	3268
925.924	3355
926.031	3435
926.138	3431
926.245	3435
926.352	3348
926.459	3500
926.566	3572
926.673	3454
926.779	3340
926.886	3325
926.993	3211
927.099	3253
927.206	3146
927.312	3199
927.419	3317
927.525	3294
927.631	3317
927.737	3214
927.843	3199
927.95	3112
928.056	3222
928.162	3272
928.267	3340
928.373	3884
928.479	3378
928.585	3127
928.69	3294
928.796	3359
928.901	3260
929.007	3097
929.112	3279
929.218	3253
929.323	3207
929.428	3199
929.533	3401
929.638	3157
929.743	3256
929.848	3329
929.953	3245
930.058	3264
930.163	3100
930.267	3161
930.372	3287
930.477	3081
930.581	3397
930.685	3272
930.79	3112
930.894	3192
930.998	3199
931.103	3370
931.207	3020
931.311	3009
931.415	2990
931.519	2861
931.623	2876
