Data from test_V78500241_878.txt Node
Date: Fri Mar 25 16:21:17 CST 2022
User: usil
Spectrometer: V785-0024
Trigger mode: 0
Integration Time (sec): 4.000000E-1
Scans to average: 1
Nonlinearity correction enabled: false
Boxcar width: 0
Storing dark spectrum: false
XAxis mode: Wavelengths
Number of Pixels in Spectrum: 1024
>>>>>Begin Spectral Data<<<<<
801.071	2891
801.214	2971
801.356	2876
801.499	2899
801.641	2895
801.783	2937
801.926	3077
802.068	3005
802.211	3032
802.353	3043
802.496	2967
802.638	3024
802.78	2994
802.923	3039
803.065	3009
803.208	2925
803.35	2929
803.492	2948
803.635	2918
803.777	2815
803.919	2868
804.061	3203
804.204	2948
804.346	2906
804.488	2868
804.63	2990
804.773	2876
804.915	2891
805.057	3077
805.199	2929
805.341	2941
805.483	3013
805.626	2994
805.768	2971
805.91	3112
806.052	3173
806.194	3055
806.336	3249
806.478	3039
806.62	2929
806.762	2956
806.904	3024
807.046	3142
807.188	2971
807.33	2891
807.472	2986
807.614	2918
807.756	2982
807.898	2948
808.04	2876
808.182	3001
808.324	2952
808.465	2887
808.607	2887
808.749	2781
808.891	2845
809.033	2994
809.174	2986
809.316	2902
809.458	2883
809.6	2746
809.741	2796
809.883	2773
810.025	2815
810.166	2823
810.308	2819
810.45	2830
810.591	2762
810.733	2777
810.875	2845
811.016	2781
811.158	2746
811.299	2781
811.441	2883
811.582	2880
811.724	2823
811.865	2830
812.007	2914
812.148	2853
812.29	2826
812.431	2883
812.573	2933
812.714	2960
812.855	3036
812.997	3058
813.138	3085
813.279	3009
813.421	2979
813.562	2948
813.703	2880
813.845	2845
813.986	2796
814.127	2708
814.268	2788
814.41	2868
814.551	2826
814.692	2872
814.833	2785
814.974	2914
815.115	2941
815.256	2842
815.397	2823
815.539	2842
815.68	2754
815.821	2785
815.962	2906
816.103	2922
816.244	2849
816.385	2845
816.526	2952
816.666	2899
816.807	2739
816.948	2883
817.089	2861
817.23	2823
817.371	2762
817.512	2800
817.653	2819
817.793	2823
817.934	2864
818.075	2963
818.216	2963
818.356	3020
818.497	2899
818.638	2842
818.778	2815
818.919	2788
819.06	2785
819.2	2899
819.341	2823
819.481	2830
819.622	2918
819.762	3097
819.903	3032
820.043	2929
820.184	2883
820.324	2914
820.465	2994
820.605	2986
820.746	3036
820.886	2956
821.026	3108
821.167	3176
821.307	3237
821.447	3325
821.588	3226
821.728	3211
821.868	3245
822.008	3119
822.149	3211
822.289	3237
822.429	3138
822.569	3131
822.709	3211
822.849	3055
822.99	3119
823.13	3180
823.27	3218
823.41	3146
823.55	3222
823.69	3180
823.83	3230
823.97	3146
824.11	3017
824.25	3017
824.389	3097
824.529	3188
824.669	3112
824.809	3218
824.949	3256
825.089	3272
825.228	3203
825.368	3055
825.508	2952
825.648	3039
825.787	3074
825.927	3047
826.067	2994
826.206	2986
826.346	3119
826.485	3097
826.625	3157
826.765	3302
826.904	3218
827.044	3047
827.183	2960
827.323	2891
827.462	3066
827.601	2960
827.741	2994
827.88	3028
828.02	2883
828.159	3009
828.298	3028
828.437	3135
828.577	3108
828.716	3321
828.855	3123
828.994	2948
829.134	2952
829.273	2963
829.412	2883
829.551	2914
829.69	2937
829.829	3066
829.968	3154
830.107	3062
830.246	3043
830.385	2948
830.524	2944
830.663	2830
830.802	2811
830.941	2693
831.08	2686
831.219	2804
831.357	2834
831.496	2990
831.635	2773
831.774	2708
831.913	2697
832.051	2583
832.19	2629
832.329	2735
832.467	2552
832.606	2526
832.744	2640
832.883	2590
833.022	2613
833.16	2697
833.299	2724
833.437	2743
833.576	2750
833.714	2792
833.852	2777
833.991	2800
834.129	2864
834.267	2891
834.406	2819
834.544	2880
834.682	2880
834.821	2914
834.959	3081
835.097	2941
835.235	3138
835.373	3047
835.511	3055
835.65	3017
835.788	2994
835.926	2872
836.064	2838
836.202	2880
836.34	3097
836.478	3192
836.615	3089
836.753	3211
836.891	3203
837.029	3176
837.167	3119
837.305	3123
837.443	3089
837.58	2998
837.718	3146
837.856	3097
837.993	3070
838.131	3146
838.269	3150
838.406	3123
838.544	3116
838.681	2994
838.819	2960
838.956	2883
839.094	2880
839.231	2941
839.369	3036
839.506	3401
839.643	3226
839.781	3024
839.918	3009
840.055	3051
840.193	3108
840.33	3131
840.467	3142
840.604	3184
840.742	3428
840.879	3066
841.016	3089
841.153	3146
841.29	3359
841.427	3344
841.564	3317
841.701	3348
841.838	3291
841.975	3241
842.112	3268
842.249	3112
842.385	3097
842.522	3325
842.659	3112
842.796	3085
842.933	3142
843.069	3127
843.206	3077
843.343	3184
843.479	3131
843.616	3138
843.752	2910
843.889	2883
844.025	3119
844.162	2887
844.298	3112
844.435	2975
844.571	2967
844.708	3119
844.844	3195
844.98	3256
845.117	3207
845.253	3066
845.389	3024
845.525	3154
845.661	3108
845.798	3051
845.934	3161
846.07	3070
846.206	3275
846.342	3325
846.478	3260
846.614	3142
846.75	3093
846.886	3055
847.022	3237
847.158	3188
847.294	3256
847.429	3313
847.565	3268
847.701	3530
847.837	3077
847.972	3001
848.108	3195
848.244	3169
848.379	3043
848.515	3001
848.65	2929
848.786	2986
848.921	3047
849.057	3108
849.192	3176
849.328	3093
849.463	3116
849.598	3097
849.734	3066
849.869	3013
850.004	2914
850.14	2990
850.275	2918
850.41	2876
850.545	2895
850.68	2937
850.815	2986
850.95	2963
851.085	3260
851.22	3112
851.355	3055
851.49	3009
851.625	3028
851.76	3051
851.895	2979
852.03	2933
852.165	3047
852.299	3146
852.434	3233
852.569	3154
852.703	3192
852.838	3275
852.973	3370
853.107	3340
853.242	3211
853.376	3104
853.511	2990
853.645	3077
853.78	3283
853.914	3150
854.048	3176
854.183	3131
854.317	3165
854.451	3382
854.585	3154
854.72	3135
854.854	3207
854.988	3074
855.122	3085
855.256	2986
855.39	3135
855.524	3245
855.658	3241
855.792	3192
855.926	3203
856.06	3256
856.194	3279
856.327	3169
856.461	3119
856.595	3097
856.729	3108
856.862	3245
856.996	3184
857.13	3207
857.263	3245
857.397	3302
857.53	3112
857.664	3245
857.797	3226
857.931	3283
858.064	3207
858.197	3245
858.331	3157
858.464	3123
858.597	3020
858.731	3112
858.864	3161
858.997	3108
859.13	3157
859.263	3192
859.396	3214
859.529	3112
859.662	3100
859.795	3036
859.928	3150
860.061	3298
860.194	3272
860.327	3138
860.46	3077
860.592	3249
860.725	3264
860.858	3291
860.99	3127
861.123	3074
861.256	3093
861.388	3173
861.521	3850
861.653	3055
861.786	3013
861.918	3001
862.05	3085
862.183	3093
862.315	3157
862.447	3233
862.58	3138
862.712	2994
862.844	2883
862.976	3055
863.108	3005
863.24	3348
863.372	2883
863.504	3009
863.636	2960
863.768	3039
863.9	2986
864.032	2952
864.164	2944
864.296	3028
864.428	3100
864.559	3097
864.691	3081
864.823	3119
864.954	3043
865.086	3028
865.217	2990
865.349	2956
865.48	3039
865.612	3032
865.743	3184
865.875	2971
866.006	2967
866.137	2963
866.269	2967
866.4	2944
866.531	2952
866.662	2918
866.793	2937
866.924	2941
867.055	2975
867.186	2956
867.317	2937
867.448	2838
867.579	2872
867.71	2906
867.841	2838
867.972	2933
868.103	2963
868.233	2906
868.364	2864
868.495	2937
868.625	3093
868.756	3195
868.886	2963
869.017	3055
869.147	3161
869.278	3157
869.408	3047
869.539	3032
869.669	3108
869.799	3013
869.929	3135
870.06	3100
870.19	3378
870.32	3317
870.45	3344
870.58	3409
870.71	3466
870.84	3492
870.97	3329
871.1	3260
871.23	3500
871.36	3454
871.489	3412
871.619	3386
871.749	3401
871.879	3439
872.008	3447
872.138	3378
872.267	3321
872.397	3173
872.526	3131
872.656	3047
872.785	3119
872.915	3264
873.044	3348
873.173	3253
873.303	3256
873.432	3241
873.561	3230
873.69	3192
873.819	3165
873.948	3230
874.077	3135
874.206	3039
874.335	3116
874.464	3222
874.593	3359
874.722	3275
874.851	3374
874.979	3393
875.108	3344
875.237	3199
875.365	3169
875.494	3173
875.623	3253
875.751	3074
875.88	3127
876.008	3195
876.136	3237
876.265	3382
876.393	3526
876.521	3454
876.65	3439
876.778	3340
876.906	3233
877.034	3214
877.162	3306
877.29	3226
877.418	3253
877.546	3291
877.674	3321
877.802	3199
877.93	3241
878.058	3157
878.185	3135
878.313	3241
878.441	3241
878.568	3085
878.696	3150
878.824	3214
878.951	3287
879.079	3458
879.206	3625
879.333	3428
879.461	3344
879.588	3378
879.715	3477
879.842	3603
879.97	3359
880.097	3180
880.224	3157
880.351	3230
880.478	3241
880.605	3226
880.732	3230
880.859	3466
880.986	3348
881.112	3332
881.239	3188
881.366	3062
881.493	3013
881.619	3047
881.746	3051
881.872	3093
881.999	3119
882.125	3180
882.252	3260
882.378	3287
882.505	3431
882.631	3302
882.757	3146
882.883	3207
883.01	3237
883.136	3218
883.262	3119
883.388	3127
883.514	3332
883.64	3409
883.766	3306
883.892	3169
884.018	3256
884.143	3412
884.269	3553
884.395	3249
884.52	3192
884.646	3214
884.772	3112
884.897	3123
885.023	3233
885.148	3302
885.274	3435
885.399	3374
885.524	3283
885.65	3279
885.775	3348
885.9	3294
886.025	3431
886.15	3332
886.275	3310
886.4	3268
886.525	3321
886.65	3287
886.775	3279
886.9	3511
887.025	3641
887.149	3401
887.274	3256
887.399	3203
887.523	3199
887.648	3218
887.773	3173
887.897	3359
888.021	3424
888.146	3287
888.27	3458
888.395	3568
888.519	3462
888.643	3447
888.767	3473
888.891	3272
889.015	3313
889.139	3340
889.263	3321
889.387	3420
889.511	3500
889.635	3412
889.759	3260
889.883	3310
890.006	3420
890.13	3488
890.254	3283
890.377	3355
890.501	3203
890.624	3214
890.748	3332
890.871	3192
890.995	3108
891.118	3093
891.241	3214
891.364	3199
891.488	3317
891.611	3180
891.734	3302
891.857	3279
891.98	3218
892.103	3378
892.226	3279
892.349	3173
892.471	3123
892.594	3241
892.717	3264
892.839	3310
892.962	3291
893.085	3378
893.207	3329
893.33	3180
893.452	3211
893.575	3329
893.697	3249
893.819	3500
893.941	3481
894.064	3435
894.186	3268
894.308	3298
894.43	3439
894.552	3523
894.674	3473
894.796	3283
894.918	3310
895.04	3291
895.161	3458
895.283	3386
895.405	3313
895.526	3382
895.648	3443
895.769	3424
895.891	3450
896.012	3492
896.134	3454
896.255	3450
896.376	3378
896.498	3389
896.619	3462
896.74	3386
896.861	3431
896.982	3660
897.103	3865
897.224	3587
897.345	3519
897.466	3454
897.587	3496
897.708	3633
897.828	3553
897.949	3409
898.07	3310
898.19	3409
898.311	3595
898.431	3477
898.552	3519
898.672	3603
898.792	3591
898.913	3526
899.033	3443
899.153	3302
899.273	3233
899.393	3291
899.513	3336
899.633	3317
899.753	3348
899.873	3329
899.993	3420
900.113	3348
900.232	3386
900.352	3363
900.472	3287
900.591	3222
900.711	3302
900.83	3283
900.95	3409
901.069	3538
901.189	3355
901.308	3195
901.427	3085
901.546	3173
901.665	3332
901.784	3359
901.904	3211
902.023	3142
902.141	3020
902.26	2994
902.379	3161
902.498	3093
902.617	3077
902.735	3211
902.854	3230
902.973	3203
903.091	3062
903.21	3074
903.328	3154
903.446	3112
903.565	3081
903.683	3211
903.801	3116
903.919	3230
904.038	3294
904.156	3154
904.274	3264
904.392	3253
904.51	3317
904.627	3332
904.745	3424
904.863	3473
904.981	3279
905.098	3157
905.216	3188
905.334	3298
905.451	3317
905.569	3355
905.686	3416
905.803	3435
905.921	3249
906.038	3378
906.155	3386
906.272	3310
906.389	3332
906.506	3230
906.623	3233
906.74	3253
906.857	3211
906.974	3253
907.091	3443
907.208	3545
907.324	3477
907.441	3386
907.557	3226
907.674	3241
907.79	3283
907.907	3279
908.023	3359
908.139	3382
908.256	3367
908.372	3340
908.488	3355
908.604	3226
908.72	3233
908.836	3283
908.952	3294
909.068	3340
909.184	3492
909.3	3412
909.415	3511
909.531	3462
909.647	3306
909.762	3283
909.878	3306
909.993	3351
910.108	3332
910.224	3389
910.339	3435
910.454	3359
910.57	3294
910.685	3279
910.8	3599
910.915	3523
911.03	3473
911.145	3279
911.259	3283
911.374	3313
911.489	3249
911.604	3233
911.718	3180
911.833	3195
911.947	3058
912.062	2990
912.176	3157
912.291	3184
912.405	3214
912.519	3409
912.633	3477
912.748	3374
912.862	3275
912.976	3161
913.09	3104
913.204	3176
913.318	3237
913.431	3336
913.545	3332
913.659	3431
913.772	3329
913.886	3226
914	3180
914.113	3344
914.226	3397
914.34	3348
914.453	3211
914.566	3401
914.68	3306
914.793	3291
914.906	3138
915.019	3135
915.132	3039
915.245	3157
915.358	3199
915.47	3214
915.583	3230
915.696	3279
915.809	3420
915.921	3386
916.034	3264
916.146	3256
916.259	3222
916.371	3389
916.483	3374
916.595	3275
916.708	3332
916.82	3340
916.932	3332
917.044	3367
917.156	3291
917.268	3241
917.38	3306
917.491	3275
917.603	3351
917.715	3473
917.826	3462
917.938	3367
918.049	3272
918.161	3416
918.272	3580
918.384	3580
918.495	3545
918.606	3325
918.717	3268
918.828	3389
918.939	3447
919.05	3272
919.161	3389
919.272	3165
919.383	3272
919.494	3561
919.604	3705
919.715	3469
919.826	3401
919.936	3443
920.047	3572
920.157	3538
920.267	3759
920.378	3591
920.488	3557
920.598	3800
920.708	3915
920.818	3789
920.928	3861
921.038	4006
921.148	3998
921.258	3663
921.368	3625
921.477	3584
921.587	3526
921.697	3420
921.806	3599
921.916	3568
922.025	3359
922.134	3374
922.244	3302
922.353	3405
922.462	3283
922.571	3214
922.68	3093
922.789	3062
922.898	3131
923.007	3097
923.116	3226
923.224	3176
923.333	3195
923.442	3085
923.55	3100
923.659	3146
923.767	3207
923.876	3138
923.984	3226
924.092	3100
924.201	3207
924.309	3218
924.417	3245
924.525	3169
924.633	3245
924.741	4204
924.849	3036
924.956	3249
925.064	3070
925.172	3032
925.279	3100
925.387	3207
925.494	3214
925.602	3378
925.709	3302
925.816	3157
925.924	3268
926.031	3389
926.138	3340
926.245	3363
926.352	3253
926.459	3447
926.566	3519
926.673	3302
926.779	3268
926.886	3218
926.993	3157
927.099	3112
927.206	3112
927.312	3123
927.419	3264
927.525	3195
927.631	3264
927.737	3146
927.843	3119
927.95	3036
928.056	3131
928.162	3192
928.267	3218
928.373	3781
928.479	3348
928.585	3058
928.69	3230
928.796	3283
928.901	3127
929.007	3047
929.112	3180
929.218	3195
929.323	3142
929.428	3176
929.533	3313
929.638	3142
929.743	3169
929.848	3241
929.953	3249
930.058	3138
930.163	2982
930.267	3020
930.372	3222
930.477	3077
930.581	3279
930.685	3142
930.79	3062
930.894	3100
930.998	3142
931.103	3260
931.207	2967
931.311	2975
931.415	2944
931.519	2773
931.623	2819
