Data from test_V78500241_639.txt Node
Date: Fri Mar 25 16:19:37 CST 2022
User: usil
Spectrometer: V785-0024
Trigger mode: 0
Integration Time (sec): 4.000000E-1
Scans to average: 1
Nonlinearity correction enabled: false
Boxcar width: 0
Storing dark spectrum: false
XAxis mode: Wavelengths
Number of Pixels in Spectrum: 1024
>>>>>Begin Spectral Data<<<<<
801.071	2906
801.214	2929
801.356	2849
801.499	2899
801.641	2899
801.783	2876
801.926	3051
802.068	2982
802.211	3001
802.353	3005
802.496	2925
802.638	3017
802.78	3024
802.923	3108
803.065	2986
803.208	2914
803.35	2910
803.492	2925
803.635	2944
803.777	2766
803.919	2845
804.061	3195
804.204	2979
804.346	2929
804.488	2823
804.63	2963
804.773	2883
804.915	2895
805.057	3112
805.199	2937
805.341	2963
805.483	3032
805.626	2998
805.768	2960
805.91	3089
806.052	3108
806.194	3024
806.336	3211
806.478	3009
806.62	2937
806.762	2990
806.904	3039
807.046	3146
807.188	2982
807.33	2933
807.472	2941
807.614	2910
807.756	2967
807.898	2941
808.04	2914
808.182	2967
808.324	2925
808.465	2887
808.607	2868
808.749	2781
808.891	2834
809.033	2975
809.174	2956
809.316	2872
809.458	2922
809.6	2781
809.741	2766
809.883	2796
810.025	2849
810.166	2902
810.308	2819
810.45	2887
810.591	2766
810.733	2804
810.875	2819
811.016	2746
811.158	2750
811.299	2819
811.441	2952
811.582	2902
811.724	2842
811.865	2834
812.007	2883
812.148	2902
812.29	2861
812.431	2868
812.573	2933
812.714	2979
812.855	3020
812.997	3036
813.138	3112
813.279	2960
813.421	2982
813.562	2963
813.703	2872
813.845	2876
813.986	2781
814.127	2708
814.268	2842
814.41	2823
814.551	2792
814.692	2857
814.833	2788
814.974	2876
815.115	2929
815.256	2838
815.397	2826
815.539	2853
815.68	2792
815.821	2785
815.962	2941
816.103	2899
816.244	2880
816.385	2864
816.526	2990
816.666	2899
816.807	2705
816.948	2914
817.089	2880
817.23	2849
817.371	2796
817.512	2766
817.653	2811
817.793	2807
817.934	2861
818.075	2941
818.216	2986
818.356	3009
818.497	2891
818.638	2785
818.778	2796
818.919	2796
819.06	2758
819.2	2887
819.341	2792
819.481	2800
819.622	2910
819.762	3127
819.903	3089
820.043	2906
820.184	2902
820.324	2922
820.465	3032
820.605	2982
820.746	3043
820.886	2895
821.026	3077
821.167	3157
821.307	3260
821.447	3233
821.588	3226
821.728	3211
821.868	3173
822.008	3074
822.149	3180
822.289	3180
822.429	3043
822.569	3104
822.709	3207
822.849	3062
822.99	3100
823.13	3161
823.27	3199
823.41	3093
823.55	3142
823.69	3154
823.83	3165
823.97	3077
824.11	3024
824.25	2933
824.389	3085
824.529	3077
824.669	3070
824.809	3207
824.949	3218
825.089	3245
825.228	3161
825.368	2990
825.508	2956
825.648	2952
825.787	3020
825.927	3024
826.067	2925
826.206	2971
826.346	3051
826.485	3051
826.625	3119
826.765	3230
826.904	3161
827.044	2998
827.183	2914
827.323	2868
827.462	2986
827.601	2902
827.741	2948
827.88	2952
828.02	2845
828.159	2937
828.298	3013
828.437	3108
828.577	3017
828.716	3199
828.855	3070
828.994	2906
829.134	2853
829.273	2918
829.412	2849
829.551	2834
829.69	2857
829.829	3013
829.968	3142
830.107	2994
830.246	3024
830.385	2883
830.524	2868
830.663	2788
830.802	2731
830.941	2651
831.08	2644
831.219	2746
831.357	2754
831.496	2990
831.635	2731
831.774	2613
831.913	2606
832.051	2530
832.19	2568
832.329	2651
832.467	2560
832.606	2465
832.744	2568
832.883	2568
833.022	2590
833.16	2636
833.299	2697
833.437	2655
833.576	2674
833.714	2743
833.852	2724
833.991	2773
834.129	2857
834.267	2815
834.406	2773
834.544	2830
834.682	2864
834.821	2868
834.959	3051
835.097	2902
835.235	3001
835.373	3005
835.511	3024
835.65	2963
835.788	2937
835.926	2819
836.064	2807
836.202	2823
836.34	3074
836.478	3146
836.615	3032
836.753	3123
836.891	3184
837.029	3169
837.167	3119
837.305	3074
837.443	3051
837.58	2979
837.718	3116
837.856	3074
837.993	3047
838.131	3116
838.269	3089
838.406	3119
838.544	3058
838.681	2906
838.819	2922
838.956	2830
839.094	2849
839.231	2876
839.369	3005
839.506	3359
839.643	3195
839.781	3020
839.918	3020
840.055	3043
840.193	3062
840.33	3081
840.467	3104
840.604	3138
840.742	3359
840.879	2982
841.016	3028
841.153	3119
841.29	3313
841.427	3275
841.564	3245
841.701	3306
841.838	3207
841.975	3138
842.112	3188
842.249	3077
842.385	3001
842.522	3245
842.659	3074
842.796	3070
842.933	3112
843.069	3028
843.206	3036
843.343	3199
843.479	3119
843.616	3188
843.752	2906
843.889	2845
844.025	3047
844.162	2895
844.298	3077
844.435	2933
844.571	2948
844.708	3055
844.844	3161
844.98	3253
845.117	3173
845.253	3051
845.389	3001
845.525	3055
845.661	3108
845.798	3001
845.934	3135
846.07	3062
846.206	3207
846.342	3317
846.478	3218
846.614	3112
846.75	3036
846.886	3024
847.022	3249
847.158	3154
847.294	3184
847.429	3233
847.565	3268
847.701	3443
847.837	3017
847.972	2971
848.108	3176
848.244	3138
848.379	2952
848.515	2941
848.65	2925
848.786	2975
848.921	3032
849.057	3085
849.192	3157
849.328	3032
849.463	3112
849.598	3024
849.734	3047
849.869	2952
850.004	2895
850.14	2971
850.275	2948
850.41	2807
850.545	2922
850.68	2948
850.815	2967
850.95	2948
851.085	3173
851.22	3077
851.355	2975
851.49	2960
851.625	2975
851.76	2979
851.895	2902
852.03	2891
852.165	2998
852.299	3089
852.434	3188
852.569	3176
852.703	3184
852.838	3256
852.973	3325
853.107	3302
853.242	3169
853.376	3081
853.511	2994
853.645	3005
853.78	3211
853.914	3108
854.048	3119
854.183	3077
854.317	3127
854.451	3294
854.585	3116
854.72	3077
854.854	3165
854.988	3039
855.122	3062
855.256	2990
855.39	3093
855.524	3199
855.658	3165
855.792	3138
855.926	3195
856.06	3214
856.194	3256
856.327	3127
856.461	3077
856.595	3077
856.729	3104
856.862	3199
856.996	3157
857.13	3203
857.263	3203
857.397	3264
857.53	3135
857.664	3176
857.797	3199
857.931	3241
858.064	3154
858.197	3203
858.331	3146
858.464	3093
858.597	3001
858.731	3085
858.864	3116
858.997	3089
859.13	3146
859.263	3154
859.396	3188
859.529	3039
859.662	3089
859.795	3085
859.928	3100
860.061	3253
860.194	3279
860.327	3138
860.46	3074
860.592	3245
860.725	3241
860.858	3241
860.99	3112
861.123	3051
861.256	3074
861.388	3157
861.521	3934
861.653	2990
861.786	2971
861.918	2994
862.05	3028
862.183	3062
862.315	3131
862.447	3184
862.58	3058
862.712	2937
862.844	2864
862.976	3009
863.108	3024
863.24	3412
863.372	2868
863.504	2967
863.636	2967
863.768	3028
863.9	2944
864.032	2941
864.164	2952
864.296	3001
864.428	3089
864.559	3093
864.691	3070
864.823	3062
864.954	3039
865.086	3047
865.217	2922
865.349	2952
865.48	2960
865.612	3028
865.743	3119
865.875	2963
866.006	2895
866.137	2963
866.269	2910
866.4	2948
866.531	2918
866.662	2838
866.793	2868
866.924	2876
867.055	2944
867.186	2925
867.317	2826
867.448	2815
867.579	2849
867.71	2902
867.841	2796
867.972	2910
868.103	2902
868.233	2899
868.364	2906
868.495	2864
868.625	3077
868.756	3112
868.886	2963
869.017	2990
869.147	3176
869.278	3169
869.408	3058
869.539	3017
869.669	3112
869.799	3062
869.929	3097
870.06	3123
870.19	3298
870.32	3275
870.45	3291
870.58	3382
870.71	3420
870.84	3431
870.97	3294
871.1	3241
871.23	3488
871.36	3447
871.489	3332
871.619	3374
871.749	3412
871.879	3412
872.008	3462
872.138	3344
872.267	3272
872.397	3127
872.526	3116
872.656	3013
872.785	3077
872.915	3188
873.044	3283
873.173	3211
873.303	3203
873.432	3237
873.561	3253
873.69	3138
873.819	3161
873.948	3203
874.077	3085
874.206	3020
874.335	3058
874.464	3192
874.593	3302
874.722	3226
874.851	3363
874.979	3348
875.108	3294
875.237	3157
875.365	3157
875.494	3176
875.623	3233
875.751	3066
875.88	3089
876.008	3176
876.136	3184
876.265	3374
876.393	3504
876.521	3393
876.65	3416
876.778	3325
876.906	3264
877.034	3195
877.162	3230
877.29	3173
877.418	3237
877.546	3233
877.674	3264
877.802	3207
877.93	3214
878.058	3142
878.185	3062
878.313	3173
878.441	3176
878.568	3055
878.696	3116
878.824	3264
878.951	3283
879.079	3412
879.206	3614
879.333	3439
879.461	3348
879.588	3340
879.715	3454
879.842	3572
879.97	3374
880.097	3142
880.224	3131
880.351	3184
880.478	3218
880.605	3245
880.732	3157
880.859	3469
880.986	3279
881.112	3321
881.239	3222
881.366	3089
881.493	3039
881.619	3055
881.746	3066
881.872	3066
881.999	3146
882.125	3135
882.252	3256
882.378	3283
882.505	3401
882.631	3332
882.757	3135
882.883	3199
883.01	3192
883.136	3150
883.262	3116
883.388	3112
883.514	3325
883.64	3389
883.766	3325
883.892	3184
884.018	3222
884.143	3397
884.269	3557
884.395	3180
884.52	3131
884.646	3184
884.772	3104
884.897	3085
885.023	3188
885.148	3321
885.274	3401
885.399	3332
885.524	3287
885.65	3268
885.775	3313
885.9	3226
886.025	3409
886.15	3344
886.275	3302
886.4	3233
886.525	3241
886.65	3306
886.775	3275
886.9	3507
887.025	3576
887.149	3397
887.274	3237
887.399	3207
887.523	3203
887.648	3173
887.773	3214
887.897	3355
888.021	3439
888.146	3287
888.27	3420
888.395	3561
888.519	3431
888.643	3462
888.767	3405
888.891	3336
889.015	3233
889.139	3264
889.263	3226
889.387	3412
889.511	3523
889.635	3443
889.759	3283
889.883	3306
890.006	3386
890.13	3496
890.254	3279
890.377	3370
890.501	3176
890.624	3184
890.748	3321
890.871	3188
890.995	3104
891.118	3024
891.241	3226
891.364	3233
891.488	3313
891.611	3176
891.734	3188
891.857	3306
891.98	3237
892.103	3302
892.226	3275
892.349	3279
892.471	3093
892.594	3245
892.717	3287
892.839	3241
892.962	3279
893.085	3351
893.207	3310
893.33	3142
893.452	3169
893.575	3306
893.697	3249
893.819	3469
893.941	3511
894.064	3454
894.186	3279
894.308	3264
894.43	3447
894.552	3572
894.674	3454
894.796	3275
894.918	3260
895.04	3279
895.161	3435
895.283	3424
895.405	3294
895.526	3363
895.648	3424
895.769	3420
895.891	3469
896.012	3435
896.134	3477
896.255	3374
896.376	3382
896.498	3355
896.619	3428
896.74	3370
896.861	3435
896.982	3663
897.103	3808
897.224	3576
897.345	3515
897.466	3428
897.587	3443
897.708	3614
897.828	3587
897.949	3466
898.07	3332
898.19	3416
898.311	3629
898.431	3420
898.552	3477
898.672	3641
898.792	3519
898.913	3530
899.033	3412
899.153	3283
899.273	3241
899.393	3291
899.513	3275
899.633	3317
899.753	3325
899.873	3336
899.993	3351
900.113	3359
900.232	3443
900.352	3317
900.472	3291
900.591	3195
900.711	3317
900.83	3211
900.95	3405
901.069	3481
901.189	3348
901.308	3135
901.427	3131
901.546	3214
901.665	3291
901.784	3329
901.904	3192
902.023	3154
902.141	2998
902.26	2979
902.379	3127
902.498	3070
902.617	3047
902.735	3207
902.854	3203
902.973	3173
903.091	3013
903.21	3036
903.328	3116
903.446	3104
903.565	3085
903.683	3199
903.801	3146
903.919	3253
904.038	3272
904.156	3176
904.274	3264
904.392	3192
904.51	3253
904.627	3325
904.745	3409
904.863	3507
904.981	3245
905.098	3108
905.216	3233
905.334	3329
905.451	3279
905.569	3317
905.686	3428
905.803	3458
905.921	3298
906.038	3397
906.155	3370
906.272	3294
906.389	3306
906.506	3226
906.623	3287
906.74	3272
906.857	3207
906.974	3237
907.091	3431
907.208	3534
907.324	3477
907.441	3355
907.557	3222
907.674	3245
907.79	3188
907.907	3272
908.023	3393
908.139	3382
908.256	3294
908.372	3409
908.488	3367
908.604	3214
908.72	3275
908.836	3279
908.952	3272
909.068	3340
909.184	3469
909.3	3367
909.415	3488
909.531	3473
909.647	3249
909.762	3294
909.878	3260
909.993	3329
910.108	3310
910.224	3351
910.339	3397
910.454	3317
910.57	3321
910.685	3287
910.8	3587
910.915	3519
911.03	3443
911.145	3264
911.259	3275
911.374	3374
911.489	3203
911.604	3192
911.718	3093
911.833	3150
911.947	3005
912.062	2960
912.176	3199
912.291	3176
912.405	3173
912.519	3466
912.633	3496
912.748	3313
912.862	3256
912.976	3150
913.09	3047
913.204	3138
913.318	3241
913.431	3329
913.545	3306
913.659	3412
913.772	3306
913.886	3214
914	3211
914.113	3367
914.226	3389
914.34	3367
914.453	3230
914.566	3405
914.68	3291
914.793	3306
914.906	3138
915.019	3104
915.132	3074
915.245	3138
915.358	3176
915.47	3253
915.583	3237
915.696	3321
915.809	3401
915.921	3416
916.034	3272
916.146	3218
916.259	3222
916.371	3367
916.483	3332
916.595	3249
916.708	3321
916.82	3370
916.932	3310
917.044	3336
917.156	3355
917.268	3253
917.38	3306
917.491	3287
917.603	3348
917.715	3401
917.826	3469
917.938	3359
918.049	3253
918.161	3420
918.272	3584
918.384	3595
918.495	3466
918.606	3325
918.717	3260
918.828	3386
918.939	3405
919.05	3336
919.161	3374
919.272	3161
919.383	3294
919.494	3500
919.604	3663
919.715	3458
919.826	3386
919.936	3439
920.047	3587
920.157	3519
920.267	3770
920.378	3637
920.488	3526
920.598	3823
920.708	3960
920.818	3823
920.928	3797
921.038	4032
921.148	3953
921.258	3698
921.368	3599
921.477	3564
921.587	3545
921.697	3477
921.806	3622
921.916	3515
922.025	3359
922.134	3374
922.244	3313
922.353	3405
922.462	3260
922.571	3226
922.68	3097
922.789	3085
922.898	3176
923.007	3112
923.116	3207
923.224	3138
923.333	3165
923.442	3108
923.55	3066
923.659	3112
923.767	3237
923.876	3123
923.984	3249
924.092	3051
924.201	3184
924.309	3214
924.417	3291
924.525	3188
924.633	3260
924.741	4010
924.849	3051
924.956	3294
925.064	3150
925.172	3074
925.279	3055
925.387	3214
925.494	3180
925.602	3363
925.709	3329
925.816	3199
925.924	3260
926.031	3374
926.138	3325
926.245	3340
926.352	3264
926.459	3462
926.566	3454
926.673	3291
926.779	3275
926.886	3241
926.993	3119
927.099	3146
927.206	3097
927.312	3100
927.419	3241
927.525	3195
927.631	3283
927.737	3100
927.843	3074
927.95	3043
928.056	3138
928.162	3138
928.267	3249
928.373	3755
928.479	3298
928.585	3070
928.69	3161
928.796	3272
928.901	3138
929.007	3039
929.112	3203
929.218	3157
929.323	3142
929.428	3157
929.533	3294
929.638	3112
929.743	3180
929.848	3230
929.953	3195
930.058	3127
930.163	3013
930.267	3074
930.372	3214
930.477	3017
930.581	3317
930.685	3127
930.79	3051
930.894	3150
930.998	3100
931.103	3279
931.207	2960
931.311	2914
931.415	2918
931.519	2777
931.623	2800
