Data from test_V78500241_820.txt Node
Date: Fri Mar 25 16:20:53 CST 2022
User: usil
Spectrometer: V785-0024
Trigger mode: 0
Integration Time (sec): 4.000000E-1
Scans to average: 1
Nonlinearity correction enabled: false
Boxcar width: 0
Storing dark spectrum: false
XAxis mode: Wavelengths
Number of Pixels in Spectrum: 1024
>>>>>Begin Spectral Data<<<<<
801.071	2887
801.214	2944
801.356	2853
801.499	2891
801.641	2895
801.783	2929
801.926	3051
802.068	2941
802.211	2994
802.353	3039
802.496	2937
802.638	2986
802.78	3047
802.923	3085
803.065	3024
803.208	2887
803.35	2895
803.492	2933
803.635	2941
803.777	2766
803.919	2861
804.061	3165
804.204	2944
804.346	2883
804.488	2838
804.63	3024
804.773	2864
804.915	2941
805.057	3028
805.199	2891
805.341	2956
805.483	3036
805.626	3001
805.768	2944
805.91	3077
806.052	3138
806.194	3017
806.336	3230
806.478	3077
806.62	2956
806.762	2967
806.904	3020
807.046	3161
807.188	2956
807.33	2918
807.472	2982
807.614	2910
807.756	2990
807.898	2925
808.04	2872
808.182	2971
808.324	3005
808.465	2842
808.607	2861
808.749	2792
808.891	2823
809.033	3005
809.174	2971
809.316	2830
809.458	2902
809.6	2800
809.741	2743
809.883	2781
810.025	2853
810.166	2830
810.308	2823
810.45	2845
810.591	2746
810.733	2766
810.875	2811
811.016	2815
811.158	2739
811.299	2800
811.441	2914
811.582	2864
811.724	2830
811.865	2830
812.007	2922
812.148	2864
812.29	2823
812.431	2872
812.573	2986
812.714	2971
812.855	3020
812.997	3043
813.138	3150
813.279	2994
813.421	2956
813.562	2948
813.703	2823
813.845	2853
813.986	2754
814.127	2720
814.268	2792
814.41	2834
814.551	2792
814.692	2842
814.833	2834
814.974	2902
815.115	2956
815.256	2857
815.397	2826
815.539	2857
815.68	2762
815.821	2769
815.962	2914
816.103	2925
816.244	2891
816.385	2868
816.526	2982
816.666	2918
816.807	2746
816.948	2902
817.089	2864
817.23	2880
817.371	2792
817.512	2781
817.653	2830
817.793	2853
817.934	2857
818.075	2960
818.216	3005
818.356	3024
818.497	2868
818.638	2781
818.778	2800
818.919	2800
819.06	2743
819.2	2880
819.341	2792
819.481	2773
819.622	2902
819.762	3066
819.903	3028
820.043	2922
820.184	2887
820.324	2876
820.465	3047
820.605	3001
820.746	3013
820.886	2906
821.026	3081
821.167	3165
821.307	3249
821.447	3283
821.588	3226
821.728	3195
821.868	3199
822.008	3062
822.149	3157
822.289	3222
822.429	3104
822.569	3085
822.709	3192
822.849	2990
822.99	3062
823.13	3138
823.27	3222
823.41	3123
823.55	3131
823.69	3173
823.83	3188
823.97	3074
824.11	2975
824.25	3020
824.389	3055
824.529	3089
824.669	3051
824.809	3161
824.949	3245
825.089	3218
825.228	3154
825.368	2994
825.508	2960
825.648	2979
825.787	3024
825.927	3024
826.067	2963
826.206	2990
826.346	3020
826.485	3093
826.625	3074
826.765	3272
826.904	3214
827.044	2986
827.183	2914
827.323	2887
827.462	2960
827.601	2910
827.741	2967
827.88	2918
828.02	2823
828.159	2986
828.298	3066
828.437	3089
828.577	3024
828.716	3275
828.855	3119
828.994	2906
829.134	2887
829.273	2914
829.412	2872
829.551	2838
829.69	2872
829.829	2960
829.968	3112
830.107	2975
830.246	3005
830.385	2914
830.524	2868
830.663	2811
830.802	2739
830.941	2648
831.08	2648
831.219	2750
831.357	2762
831.496	2918
831.635	2697
831.774	2651
831.913	2632
832.051	2549
832.19	2560
832.329	2701
832.467	2499
832.606	2530
832.744	2583
832.883	2575
833.022	2571
833.16	2610
833.299	2689
833.437	2678
833.576	2701
833.714	2743
833.852	2720
833.991	2773
834.129	2815
834.267	2845
834.406	2815
834.544	2857
834.682	2906
834.821	2880
834.959	3047
835.097	2880
835.235	3055
835.373	2971
835.511	3028
835.65	2922
835.788	2971
835.926	2826
836.064	2807
836.202	2853
836.34	3100
836.478	3093
836.615	3028
836.753	3127
836.891	3195
837.029	3150
837.167	3112
837.305	3085
837.443	3020
837.58	2948
837.718	3157
837.856	3032
837.993	3005
838.131	3116
838.269	3036
838.406	3097
838.544	3093
838.681	2967
838.819	2914
838.956	2788
839.094	2815
839.231	2929
839.369	3009
839.506	3416
839.643	3184
839.781	3017
839.918	2960
840.055	3024
840.193	3032
840.33	3066
840.467	3127
840.604	3138
840.742	3405
840.879	3017
841.016	3043
841.153	3093
841.29	3344
841.427	3287
841.564	3241
841.701	3283
841.838	3226
841.975	3192
842.112	3211
842.249	3051
842.385	3043
842.522	3275
842.659	3081
842.796	3066
842.933	3074
843.069	3055
843.206	3055
843.343	3165
843.479	3123
843.616	3100
843.752	2895
843.889	2857
844.025	3077
844.162	2891
844.298	3108
844.435	2937
844.571	2925
844.708	3070
844.844	3173
844.98	3249
845.117	3188
845.253	3036
845.389	2967
845.525	3093
845.661	3062
845.798	3013
845.934	3123
846.07	3066
846.206	3161
846.342	3310
846.478	3245
846.614	3077
846.75	3077
846.886	3036
847.022	3249
847.158	3112
847.294	3169
847.429	3233
847.565	3218
847.701	3435
847.837	2998
847.972	2986
848.108	3169
848.244	3169
848.379	2990
848.515	2948
848.65	2918
848.786	2948
848.921	2990
849.057	3051
849.192	3119
849.328	3085
849.463	3116
849.598	3024
849.734	3047
849.869	2941
850.004	2925
850.14	2960
850.275	2929
850.41	2811
850.545	2906
850.68	2952
850.815	2937
850.95	2948
851.085	3150
851.22	3089
851.355	3001
851.49	2963
851.625	2971
851.76	3013
851.895	2929
852.03	2948
852.165	3039
852.299	3093
852.434	3161
852.569	3161
852.703	3169
852.838	3249
852.973	3310
853.107	3298
853.242	3161
853.376	3058
853.511	2979
853.645	3001
853.78	3180
853.914	3127
854.048	3123
854.183	3097
854.317	3169
854.451	3302
854.585	3085
854.72	3058
854.854	3237
854.988	3055
855.122	3066
855.256	2975
855.39	3089
855.524	3233
855.658	3104
855.792	3146
855.926	3203
856.06	3233
856.194	3279
856.327	3138
856.461	3097
856.595	3085
856.729	3112
856.862	3207
856.996	3169
857.13	3199
857.263	3245
857.397	3294
857.53	3116
857.664	3169
857.797	3230
857.931	3226
858.064	3150
858.197	3203
858.331	3135
858.464	3074
858.597	2998
858.731	3138
858.864	3085
858.997	3112
859.13	3173
859.263	3180
859.396	3233
859.529	3112
859.662	3085
859.795	3009
859.928	3112
860.061	3279
860.194	3306
860.327	3108
860.46	3062
860.592	3226
860.725	3253
860.858	3291
860.99	3089
861.123	3036
861.256	3013
861.388	3142
861.521	3915
861.653	3013
861.786	2986
861.918	2990
862.05	3036
862.183	3100
862.315	3142
862.447	3173
862.58	3070
862.712	2956
862.844	2861
862.976	3032
863.108	3013
863.24	3348
863.372	2868
863.504	2952
863.636	2952
863.768	3043
863.9	3009
864.032	2902
864.164	2956
864.296	3028
864.428	3066
864.559	3077
864.691	3070
864.823	3112
864.954	3047
865.086	3047
865.217	2982
865.349	2971
865.48	2998
865.612	3020
865.743	3146
865.875	2944
866.006	2914
866.137	2963
866.269	2922
866.4	2918
866.531	2910
866.662	2868
866.793	2914
866.924	2883
867.055	2975
867.186	2925
867.317	2895
867.448	2845
867.579	2830
867.71	2857
867.841	2807
867.972	2910
868.103	2910
868.233	2883
868.364	2845
868.495	2902
868.625	3077
868.756	3150
868.886	2941
869.017	2967
869.147	3195
869.278	3154
869.408	3028
869.539	3017
869.669	3047
869.799	3043
869.929	3138
870.06	3100
870.19	3332
870.32	3302
870.45	3310
870.58	3363
870.71	3462
870.84	3447
870.97	3272
871.1	3222
871.23	3420
871.36	3439
871.489	3325
871.619	3416
871.749	3405
871.879	3431
872.008	3466
872.138	3344
872.267	3268
872.397	3131
872.526	3097
872.656	3017
872.785	3085
872.915	3245
873.044	3310
873.173	3233
873.303	3233
873.432	3237
873.561	3218
873.69	3127
873.819	3135
873.948	3207
874.077	3100
874.206	3009
874.335	3039
874.464	3222
874.593	3336
874.722	3272
874.851	3344
874.979	3344
875.108	3313
875.237	3214
875.365	3173
875.494	3146
875.623	3214
875.751	3051
875.88	3093
876.008	3157
876.136	3222
876.265	3340
876.393	3466
876.521	3431
876.65	3393
876.778	3313
876.906	3233
877.034	3173
877.162	3195
877.29	3195
877.418	3226
877.546	3264
877.674	3245
877.802	3249
877.93	3241
878.058	3077
878.185	3081
878.313	3233
878.441	3207
878.568	3074
878.696	3161
878.824	3230
878.951	3294
879.079	3469
879.206	3610
879.333	3447
879.461	3310
879.588	3351
879.715	3488
879.842	3568
879.97	3386
880.097	3169
880.224	3112
880.351	3176
880.478	3222
880.605	3176
880.732	3233
880.859	3515
880.986	3283
881.112	3298
881.239	3184
881.366	3074
881.493	3055
881.619	3009
881.746	3108
881.872	3093
881.999	3100
882.125	3169
882.252	3245
882.378	3283
882.505	3416
882.631	3291
882.757	3157
882.883	3180
883.01	3192
883.136	3165
883.262	3081
883.388	3089
883.514	3340
883.64	3336
883.766	3310
883.892	3165
884.018	3237
884.143	3412
884.269	3553
884.395	3207
884.52	3150
884.646	3165
884.772	3108
884.897	3100
885.023	3199
885.148	3325
885.274	3401
885.399	3389
885.524	3207
885.65	3218
885.775	3348
885.9	3245
886.025	3450
886.15	3397
886.275	3298
886.4	3195
886.525	3325
886.65	3253
886.775	3287
886.9	3477
887.025	3641
887.149	3370
887.274	3211
887.399	3192
887.523	3214
887.648	3184
887.773	3192
887.897	3351
888.021	3370
888.146	3279
888.27	3428
888.395	3561
888.519	3458
888.643	3424
888.767	3428
888.891	3325
889.015	3214
889.139	3279
889.263	3222
889.387	3397
889.511	3504
889.635	3458
889.759	3294
889.883	3283
890.006	3317
890.13	3466
890.254	3264
890.377	3340
890.501	3188
890.624	3199
890.748	3291
890.871	3161
890.995	3112
891.118	3058
891.241	3184
891.364	3207
891.488	3287
891.611	3157
891.734	3195
891.857	3279
891.98	3253
892.103	3302
892.226	3279
892.349	3195
892.471	3108
892.594	3222
892.717	3275
892.839	3249
892.962	3306
893.085	3344
893.207	3272
893.33	3142
893.452	3199
893.575	3355
893.697	3237
893.819	3485
893.941	3507
894.064	3447
894.186	3268
894.308	3230
894.43	3454
894.552	3500
894.674	3458
894.796	3222
894.918	3321
895.04	3264
895.161	3431
895.283	3405
895.405	3275
895.526	3344
895.648	3409
895.769	3462
895.891	3443
896.012	3492
896.134	3496
896.255	3401
896.376	3397
896.498	3317
896.619	3473
896.74	3363
896.861	3389
896.982	3686
897.103	3888
897.224	3633
897.345	3496
897.466	3469
897.587	3496
897.708	3603
897.828	3549
897.949	3439
898.07	3329
898.19	3367
898.311	3587
898.431	3469
898.552	3469
898.672	3564
898.792	3549
898.913	3500
899.033	3420
899.153	3275
899.273	3233
899.393	3298
899.513	3321
899.633	3351
899.753	3317
899.873	3249
899.993	3378
900.113	3317
900.232	3378
900.352	3332
900.472	3272
900.591	3207
900.711	3256
900.83	3214
900.95	3409
901.069	3523
901.189	3351
901.308	3154
901.427	3138
901.546	3188
901.665	3272
901.784	3313
901.904	3207
902.023	3161
902.141	3028
902.26	2933
902.379	3150
902.498	3097
902.617	3032
902.735	3214
902.854	3207
902.973	3184
903.091	3039
903.21	3085
903.328	3123
903.446	3154
903.565	3081
903.683	3188
903.801	3150
903.919	3268
904.038	3283
904.156	3138
904.274	3317
904.392	3279
904.51	3253
904.627	3321
904.745	3424
904.863	3496
904.981	3256
905.098	3146
905.216	3233
905.334	3291
905.451	3283
905.569	3329
905.686	3420
905.803	3397
905.921	3275
906.038	3428
906.155	3329
906.272	3272
906.389	3325
906.506	3222
906.623	3256
906.74	3287
906.857	3184
906.974	3222
907.091	3439
907.208	3553
907.324	3409
907.441	3363
907.557	3237
907.674	3218
907.79	3188
907.907	3253
908.023	3386
908.139	3367
908.256	3325
908.372	3344
908.488	3374
908.604	3256
908.72	3218
908.836	3245
908.952	3291
909.068	3329
909.184	3488
909.3	3397
909.415	3500
909.531	3492
909.647	3279
909.762	3272
909.878	3283
909.993	3378
910.108	3329
910.224	3336
910.339	3401
910.454	3344
910.57	3294
910.685	3260
910.8	3599
910.915	3545
911.03	3424
911.145	3298
911.259	3264
911.374	3332
911.489	3268
911.604	3211
911.718	3085
911.833	3150
911.947	3024
912.062	2990
912.176	3176
912.291	3184
912.405	3195
912.519	3420
912.633	3447
912.748	3367
912.862	3302
912.976	3165
913.09	3024
913.204	3157
913.318	3218
913.431	3355
913.545	3298
913.659	3435
913.772	3287
913.886	3199
914	3180
914.113	3370
914.226	3443
914.34	3363
914.453	3218
914.566	3409
914.68	3294
914.793	3268
914.906	3123
915.019	3150
915.132	3085
915.245	3146
915.358	3192
915.47	3233
915.583	3279
915.696	3317
915.809	3431
915.921	3416
916.034	3237
916.146	3264
916.259	3218
916.371	3382
916.483	3317
916.595	3233
916.708	3306
916.82	3340
916.932	3332
917.044	3397
917.156	3306
917.268	3253
917.38	3275
917.491	3310
917.603	3363
917.715	3454
917.826	3447
917.938	3378
918.049	3291
918.161	3355
918.272	3599
918.384	3549
918.495	3447
918.606	3351
918.717	3279
918.828	3355
918.939	3370
919.05	3298
919.161	3393
919.272	3169
919.383	3302
919.494	3504
919.604	3660
919.715	3496
919.826	3386
919.936	3447
920.047	3564
920.157	3534
920.267	3800
920.378	3584
920.488	3545
920.598	3778
920.708	3907
920.818	3812
920.928	3804
921.038	4002
921.148	3960
921.258	3728
921.368	3641
921.477	3591
921.587	3526
921.697	3466
921.806	3618
921.916	3530
922.025	3355
922.134	3405
922.244	3321
922.353	3409
922.462	3272
922.571	3233
922.68	3116
922.789	3066
922.898	3161
923.007	3108
923.116	3230
923.224	3142
923.333	3173
923.442	3089
923.55	3093
923.659	3161
923.767	3214
923.876	3123
923.984	3226
924.092	3100
924.201	3211
924.309	3199
924.417	3268
924.525	3199
924.633	3214
924.741	4059
924.849	3032
924.956	3241
925.064	3116
925.172	3066
925.279	3112
925.387	3192
925.494	3180
925.602	3363
925.709	3351
925.816	3199
925.924	3249
926.031	3378
926.138	3294
926.245	3306
926.352	3218
926.459	3428
926.566	3481
926.673	3291
926.779	3268
926.886	3233
926.993	3146
927.099	3169
927.206	3131
927.312	3127
927.419	3230
927.525	3199
927.631	3264
927.737	3146
927.843	3112
927.95	2986
928.056	3154
928.162	3176
928.267	3279
928.373	3785
928.479	3302
928.585	3085
928.69	3184
928.796	3275
928.901	3157
929.007	3043
929.112	3207
929.218	3195
929.323	3127
929.428	3138
929.533	3340
929.638	3142
929.743	3188
929.848	3260
929.953	3218
930.058	3116
930.163	3020
930.267	3028
930.372	3211
930.477	3047
930.581	3340
930.685	3146
930.79	3085
930.894	3123
930.998	3070
931.103	3317
931.207	2998
931.311	2979
931.415	2918
931.519	2807
931.623	2792
