Data from test_V78500241_720.txt Node
Date: Fri Mar 25 16:20:11 CST 2022
User: usil
Spectrometer: V785-0024
Trigger mode: 0
Integration Time (sec): 4.000000E-1
Scans to average: 1
Nonlinearity correction enabled: false
Boxcar width: 0
Storing dark spectrum: false
XAxis mode: Wavelengths
Number of Pixels in Spectrum: 1024
>>>>>Begin Spectral Data<<<<<
801.071	2910
801.214	2925
801.356	2876
801.499	2902
801.641	2895
801.783	2922
801.926	3017
802.068	2948
802.211	2963
802.353	3039
802.496	2975
802.638	2986
802.78	3017
802.923	3066
803.065	2944
803.208	2918
803.35	2910
803.492	2929
803.635	2914
803.777	2773
803.919	2861
804.061	3161
804.204	2910
804.346	2891
804.488	2842
804.63	2979
804.773	2853
804.915	2883
805.057	3089
805.199	2895
805.341	2963
805.483	3043
805.626	2998
805.768	2971
805.91	3104
806.052	3104
806.194	3043
806.336	3245
806.478	3013
806.62	2956
806.762	2990
806.904	3070
807.046	3142
807.188	2986
807.33	2883
807.472	2986
807.614	2899
807.756	2990
807.898	2922
808.04	2887
808.182	2956
808.324	2956
808.465	2876
808.607	2887
808.749	2807
808.891	2849
809.033	2990
809.174	2994
809.316	2876
809.458	2899
809.6	2792
809.741	2727
809.883	2750
810.025	2849
810.166	2845
810.308	2861
810.45	2823
810.591	2766
810.733	2746
810.875	2842
811.016	2773
811.158	2750
811.299	2838
811.441	2922
811.582	2902
811.724	2819
811.865	2785
812.007	2899
812.148	2899
812.29	2838
812.431	2914
812.573	2910
812.714	2944
812.855	3036
812.997	3051
813.138	3077
813.279	3020
813.421	3001
813.562	2979
813.703	2842
813.845	2902
813.986	2750
814.127	2716
814.268	2796
814.41	2857
814.551	2830
814.692	2864
814.833	2819
814.974	2899
815.115	2944
815.256	2807
815.397	2766
815.539	2842
815.68	2769
815.821	2796
815.962	2948
816.103	2914
816.244	2872
816.385	2880
816.526	2967
816.666	2952
816.807	2750
816.948	2868
817.089	2876
817.23	2883
817.371	2758
817.512	2792
817.653	2830
817.793	2826
817.934	2883
818.075	2933
818.216	2963
818.356	3017
818.497	2868
818.638	2777
818.778	2788
818.919	2800
819.06	2731
819.2	2891
819.341	2853
819.481	2796
819.622	2925
819.762	3100
819.903	3005
820.043	2933
820.184	2906
820.324	2891
820.465	3024
820.605	3005
820.746	3009
820.886	2933
821.026	3112
821.167	3195
821.307	3230
821.447	3264
821.588	3207
821.728	3218
821.868	3192
822.008	3077
822.149	3199
822.289	3249
822.429	3074
822.569	3077
822.709	3176
822.849	2994
822.99	3104
823.13	3154
823.27	3180
823.41	3104
823.55	3116
823.69	3112
823.83	3173
823.97	3066
824.11	2967
824.25	2990
824.389	3070
824.529	3074
824.669	3085
824.809	3214
824.949	3260
825.089	3226
825.228	3154
825.368	2990
825.508	2956
825.648	2971
825.787	3001
825.927	3028
826.067	2944
826.206	2929
826.346	3051
826.485	3070
826.625	3138
826.765	3260
826.904	3207
827.044	2960
827.183	2937
827.323	2857
827.462	2963
827.601	2922
827.741	2937
827.88	2963
828.02	2872
828.159	2971
828.298	3024
828.437	3093
828.577	3043
828.716	3237
828.855	3077
828.994	2899
829.134	2891
829.273	2910
829.412	2864
829.551	2853
829.69	2883
829.829	2994
829.968	3093
830.107	3024
830.246	3032
830.385	2895
830.524	2876
830.663	2819
830.802	2712
830.941	2632
831.08	2640
831.219	2777
831.357	2762
831.496	2933
831.635	2705
831.774	2663
831.913	2640
832.051	2518
832.19	2587
832.329	2678
832.467	2560
832.606	2484
832.744	2545
832.883	2571
833.022	2594
833.16	2636
833.299	2689
833.437	2682
833.576	2686
833.714	2697
833.852	2743
833.991	2769
834.129	2823
834.267	2781
834.406	2781
834.544	2853
834.682	2891
834.821	2857
834.959	3066
835.097	2922
835.235	3043
835.373	2982
835.511	3020
835.65	2944
835.788	2971
835.926	2853
836.064	2845
836.202	2842
836.34	3074
836.478	3146
836.615	3039
836.753	3112
836.891	3169
837.029	3180
837.167	3062
837.305	3032
837.443	3051
837.58	2994
837.718	3112
837.856	3062
837.993	3039
838.131	3085
838.269	3104
838.406	3108
838.544	3074
838.681	2933
838.819	2910
838.956	2857
839.094	2796
839.231	2887
839.369	3028
839.506	3363
839.643	3203
839.781	3032
839.918	2975
840.055	3085
840.193	3074
840.33	3077
840.467	3081
840.604	3154
840.742	3374
840.879	3058
841.016	3013
841.153	3150
841.29	3336
841.427	3283
841.564	3237
841.701	3313
841.838	3214
841.975	3161
842.112	3173
842.249	3055
842.385	3032
842.522	3233
842.659	3066
842.796	3047
842.933	3097
843.069	3028
843.206	3043
843.343	3131
843.479	3100
843.616	3165
843.752	2918
843.889	2849
844.025	3062
844.162	2861
844.298	3066
844.435	2948
844.571	2864
844.708	3058
844.844	3180
844.98	3195
845.117	3176
845.253	3058
845.389	3017
845.525	3077
845.661	3074
845.798	2979
845.934	3138
846.07	3058
846.206	3211
846.342	3298
846.478	3233
846.614	3074
846.75	3036
846.886	2986
847.022	3226
847.158	3123
847.294	3154
847.429	3222
847.565	3249
847.701	3485
847.837	3020
847.972	3032
848.108	3135
848.244	3138
848.379	3001
848.515	2963
848.65	2925
848.786	2952
848.921	3043
849.057	3116
849.192	3169
849.328	3085
849.463	3112
849.598	3077
849.734	2990
849.869	2967
850.004	2910
850.14	2979
850.275	2922
850.41	2857
850.545	2861
850.68	2910
850.815	2975
850.95	2963
851.085	3176
851.22	3051
851.355	3036
851.49	2971
851.625	2998
851.76	3001
851.895	2944
852.03	2914
852.165	3001
852.299	3089
852.434	3192
852.569	3161
852.703	3165
852.838	3218
852.973	3313
853.107	3306
853.242	3161
853.376	3097
853.511	3001
853.645	3089
853.78	3199
853.914	3131
854.048	3100
854.183	3089
854.317	3116
854.451	3256
854.585	3123
854.72	3066
854.854	3253
854.988	3066
855.122	3089
855.256	2941
855.39	3085
855.524	3237
855.658	3218
855.792	3165
855.926	3195
856.06	3226
856.194	3279
856.327	3138
856.461	3058
856.595	3066
856.729	3070
856.862	3199
856.996	3135
857.13	3214
857.263	3195
857.397	3294
857.53	3127
857.664	3169
857.797	3256
857.931	3253
858.064	3138
858.197	3184
858.331	3119
858.464	3085
858.597	2994
858.731	3097
858.864	3142
858.997	3093
859.13	3131
859.263	3165
859.396	3218
859.529	3070
859.662	3051
859.795	2994
859.928	3146
860.061	3283
860.194	3294
860.327	3112
860.46	3100
860.592	3233
860.725	3241
860.858	3268
860.99	3104
861.123	3043
861.256	3032
861.388	3119
861.521	3907
861.653	3017
861.786	2998
861.918	2952
862.05	3036
862.183	3116
862.315	3142
862.447	3199
862.58	3097
862.712	2967
862.844	2876
862.976	2975
863.108	3024
863.24	3397
863.372	2842
863.504	2971
863.636	2952
863.768	3062
863.9	2982
864.032	2895
864.164	2933
864.296	3001
864.428	3074
864.559	3104
864.691	3097
864.823	3089
864.954	3051
865.086	3047
865.217	2982
865.349	2929
865.48	2960
865.612	2979
865.743	3161
865.875	3001
866.006	2956
866.137	2971
866.269	2925
866.4	2937
866.531	2933
866.662	2910
866.793	2876
866.924	2914
867.055	2960
867.186	2906
867.317	2834
867.448	2868
867.579	2834
867.71	2857
867.841	2845
867.972	2883
868.103	2895
868.233	2864
868.364	2868
868.495	2918
868.625	3108
868.756	3176
868.886	2948
869.017	3024
869.147	3150
869.278	3150
869.408	3001
869.539	3047
869.669	3058
869.799	3013
869.929	3138
870.06	3097
870.19	3313
870.32	3249
870.45	3310
870.58	3359
870.71	3485
870.84	3458
870.97	3291
871.1	3203
871.23	3420
871.36	3428
871.489	3344
871.619	3393
871.749	3401
871.879	3389
872.008	3469
872.138	3386
872.267	3275
872.397	3100
872.526	3093
872.656	3001
872.785	3062
872.915	3233
873.044	3283
873.173	3237
873.303	3233
873.432	3211
873.561	3249
873.69	3131
873.819	3169
873.948	3150
874.077	3112
874.206	3055
874.335	3081
874.464	3222
874.593	3310
874.722	3249
874.851	3351
874.979	3348
875.108	3332
875.237	3157
875.365	3142
875.494	3161
875.623	3218
875.751	3077
875.88	3135
876.008	3188
876.136	3192
876.265	3397
876.393	3500
876.521	3443
876.65	3355
876.778	3310
876.906	3233
877.034	3203
877.162	3233
877.29	3211
877.418	3268
877.546	3211
877.674	3275
877.802	3230
877.93	3184
878.058	3161
878.185	3070
878.313	3222
878.441	3218
878.568	3051
878.696	3146
878.824	3245
878.951	3294
879.079	3447
879.206	3606
879.333	3462
879.461	3351
879.588	3344
879.715	3477
879.842	3564
879.97	3393
880.097	3157
880.224	3146
880.351	3195
880.478	3207
880.605	3184
880.732	3138
880.859	3481
880.986	3264
881.112	3325
881.239	3161
881.366	3104
881.493	3043
881.619	3009
881.746	3077
881.872	3070
881.999	3085
882.125	3123
882.252	3241
882.378	3298
882.505	3378
882.631	3272
882.757	3112
882.883	3218
883.01	3211
883.136	3146
883.262	3108
883.388	3127
883.514	3275
883.64	3363
883.766	3275
883.892	3222
884.018	3218
884.143	3416
884.269	3580
884.395	3161
884.52	3150
884.646	3150
884.772	3077
884.897	3093
885.023	3199
885.148	3325
885.274	3401
885.399	3382
885.524	3294
885.65	3245
885.775	3332
885.9	3268
886.025	3420
886.15	3374
886.275	3294
886.4	3241
886.525	3279
886.65	3249
886.775	3294
886.9	3473
887.025	3648
887.149	3397
887.274	3260
887.399	3203
887.523	3218
887.648	3207
887.773	3169
887.897	3370
888.021	3382
888.146	3313
888.27	3405
888.395	3507
888.519	3458
888.643	3409
888.767	3435
888.891	3332
889.015	3264
889.139	3256
889.263	3264
889.387	3370
889.511	3523
889.635	3420
889.759	3241
889.883	3298
890.006	3363
890.13	3481
890.254	3287
890.377	3329
890.501	3169
890.624	3211
890.748	3275
890.871	3207
890.995	3112
891.118	3058
891.241	3176
891.364	3218
891.488	3291
891.611	3176
891.734	3218
891.857	3283
891.98	3214
892.103	3332
892.226	3306
892.349	3188
892.471	3116
892.594	3249
892.717	3313
892.839	3237
892.962	3306
893.085	3412
893.207	3336
893.33	3173
893.452	3211
893.575	3340
893.697	3264
893.819	3443
893.941	3492
894.064	3473
894.186	3245
894.308	3249
894.43	3420
894.552	3519
894.674	3450
894.796	3291
894.918	3321
895.04	3256
895.161	3431
895.283	3374
895.405	3317
895.526	3359
895.648	3454
895.769	3409
895.891	3416
896.012	3477
896.134	3485
896.255	3401
896.376	3344
896.498	3359
896.619	3424
896.74	3382
896.861	3397
896.982	3675
897.103	3838
897.224	3591
897.345	3481
897.466	3458
897.587	3515
897.708	3587
897.828	3545
897.949	3431
898.07	3336
898.19	3386
898.311	3622
898.431	3469
898.552	3511
898.672	3618
898.792	3599
898.913	3530
899.033	3359
899.153	3283
899.273	3241
899.393	3291
899.513	3336
899.633	3291
899.753	3355
899.873	3344
899.993	3363
900.113	3374
900.232	3363
900.352	3355
900.472	3298
900.591	3226
900.711	3313
900.83	3268
900.95	3397
901.069	3447
901.189	3386
901.308	3184
901.427	3119
901.546	3161
901.665	3298
901.784	3302
901.904	3218
902.023	3112
902.141	2986
902.26	2982
902.379	3131
902.498	3058
902.617	3043
902.735	3214
902.854	3253
902.973	3176
903.091	3089
903.21	3066
903.328	3100
903.446	3116
903.565	3077
903.683	3199
903.801	3131
903.919	3203
904.038	3275
904.156	3199
904.274	3294
904.392	3279
904.51	3253
904.627	3321
904.745	3454
904.863	3454
904.981	3237
905.098	3154
905.216	3207
905.334	3291
905.451	3294
905.569	3306
905.686	3447
905.803	3439
905.921	3302
906.038	3416
906.155	3340
906.272	3245
906.389	3370
906.506	3226
906.623	3245
906.74	3256
906.857	3150
906.974	3241
907.091	3416
907.208	3530
907.324	3431
907.441	3382
907.557	3230
907.674	3199
907.79	3195
907.907	3283
908.023	3409
908.139	3378
908.256	3351
908.372	3378
908.488	3344
908.604	3306
908.72	3226
908.836	3275
908.952	3272
909.068	3329
909.184	3473
909.3	3363
909.415	3519
909.531	3481
909.647	3279
909.762	3302
909.878	3272
909.993	3317
910.108	3298
910.224	3332
910.339	3397
910.454	3340
910.57	3275
910.685	3226
910.8	3587
910.915	3591
911.03	3401
911.145	3275
911.259	3317
911.374	3287
911.489	3233
911.604	3245
911.718	3108
911.833	3188
911.947	3024
912.062	3005
912.176	3123
912.291	3176
912.405	3249
912.519	3420
912.633	3462
912.748	3313
912.862	3275
912.976	3161
913.09	3077
913.204	3146
913.318	3211
913.431	3378
913.545	3306
913.659	3374
913.772	3329
913.886	3207
914	3199
914.113	3344
914.226	3409
914.34	3336
914.453	3207
914.566	3397
914.68	3313
914.793	3317
914.906	3123
915.019	3116
915.132	3085
915.245	3165
915.358	3176
915.47	3222
915.583	3256
915.696	3310
915.809	3447
915.921	3405
916.034	3237
916.146	3256
916.259	3222
916.371	3363
916.483	3409
916.595	3245
916.708	3344
916.82	3344
916.932	3317
917.044	3287
917.156	3329
917.268	3260
917.38	3272
917.491	3344
917.603	3355
917.715	3412
917.826	3443
917.938	3382
918.049	3313
918.161	3424
918.272	3545
918.384	3530
918.495	3477
918.606	3325
918.717	3253
918.828	3405
918.939	3439
919.05	3287
919.161	3382
919.272	3173
919.383	3268
919.494	3492
919.604	3675
919.715	3431
919.826	3397
919.936	3462
920.047	3557
920.157	3580
920.267	3762
920.378	3610
920.488	3511
920.598	3789
920.708	3930
920.818	3800
920.928	3823
921.038	4032
921.148	3987
921.258	3698
921.368	3633
921.477	3584
921.587	3553
921.697	3466
921.806	3599
921.916	3530
922.025	3386
922.134	3363
922.244	3302
922.353	3428
922.462	3272
922.571	3249
922.68	3085
922.789	3062
922.898	3116
923.007	3108
923.116	3214
923.224	3180
923.333	3192
923.442	3112
923.55	3085
923.659	3135
923.767	3207
923.876	3154
923.984	3184
924.092	3104
924.201	3192
924.309	3253
924.417	3260
924.525	3169
924.633	3233
924.741	4154
924.849	3032
924.956	3272
925.064	3093
925.172	3051
925.279	3097
925.387	3203
925.494	3184
925.602	3325
925.709	3329
925.816	3184
925.924	3283
926.031	3393
926.138	3313
926.245	3348
926.352	3249
926.459	3367
926.566	3500
926.673	3287
926.779	3256
926.886	3272
926.993	3165
927.099	3180
927.206	3135
927.312	3119
927.419	3249
927.525	3192
927.631	3260
927.737	3188
927.843	3154
927.95	3066
928.056	3104
928.162	3173
928.267	3233
928.373	3835
928.479	3332
928.585	3055
928.69	3237
928.796	3245
928.901	3184
929.007	3039
929.112	3218
929.218	3169
929.323	3138
929.428	3188
929.533	3306
929.638	3119
929.743	3154
929.848	3275
929.953	3199
930.058	3142
930.163	3020
930.267	3062
930.372	3192
930.477	3013
930.581	3329
930.685	3184
930.79	3043
930.894	3104
930.998	3089
931.103	3275
931.207	2956
931.311	2937
931.415	2906
931.519	2781
931.623	2766
