Data from test_V78500241_1586.txt Node
Date: Fri Mar 25 16:26:11 CST 2022
User: usil
Spectrometer: V785-0024
Trigger mode: 0
Integration Time (sec): 4.000000E-1
Scans to average: 1
Nonlinearity correction enabled: false
Boxcar width: 0
Storing dark spectrum: false
XAxis mode: Wavelengths
Number of Pixels in Spectrum: 1024
>>>>>Begin Spectral Data<<<<<
801.071	2982
801.214	2948
801.356	2872
801.499	2910
801.641	2895
801.783	2990
801.926	3077
802.068	3039
802.211	3032
802.353	3074
802.496	3020
802.638	3062
802.78	3066
802.923	3100
803.065	3028
803.208	2906
803.35	2956
803.492	2994
803.635	2975
803.777	2800
803.919	2883
804.061	3253
804.204	2975
804.346	2941
804.488	2872
804.63	3013
804.773	2937
804.915	2990
805.057	3112
805.199	2952
805.341	3055
805.483	3058
805.626	3028
805.768	2982
805.91	3119
806.052	3146
806.194	3074
806.336	3264
806.478	3032
806.62	2986
806.762	3020
806.904	3097
807.046	3180
807.188	3001
807.33	2990
807.472	3020
807.614	2975
807.756	3017
807.898	2971
808.04	2918
808.182	3009
808.324	3001
808.465	2952
808.607	2967
808.749	2800
808.891	2876
809.033	3020
809.174	2998
809.316	2922
809.458	2944
809.6	2804
809.741	2811
809.883	2758
810.025	2853
810.166	2918
810.308	2845
810.45	2887
810.591	2792
810.733	2766
810.875	2876
811.016	2800
811.158	2826
811.299	2838
811.441	2941
811.582	2941
811.724	2880
811.865	2838
812.007	2910
812.148	2883
812.29	2910
812.431	2902
812.573	2990
812.714	2944
812.855	3058
812.997	3066
813.138	3116
813.279	3043
813.421	2979
813.562	3001
813.703	2933
813.845	2937
813.986	2815
814.127	2750
814.268	2857
814.41	2842
814.551	2876
814.692	2914
814.833	2845
814.974	2914
815.115	2960
815.256	2918
815.397	2838
815.539	2876
815.68	2792
815.821	2853
815.962	2975
816.103	2967
816.244	2895
816.385	2861
816.526	2975
816.666	2914
816.807	2773
816.948	2937
817.089	2967
817.23	2902
817.371	2800
817.512	2845
817.653	2853
817.793	2902
817.934	2880
818.075	3013
818.216	3001
818.356	3036
818.497	2925
818.638	2823
818.778	2826
818.919	2826
819.06	2796
819.2	2891
819.341	2834
819.481	2842
819.622	2975
819.762	3146
819.903	3077
820.043	2960
820.184	2929
820.324	2906
820.465	3066
820.605	3043
820.746	3005
820.886	2967
821.026	3135
821.167	3195
821.307	3279
821.447	3306
821.588	3230
821.728	3253
821.868	3211
822.008	3138
822.149	3169
822.289	3272
822.429	3116
822.569	3077
822.709	3176
822.849	3058
822.99	3116
823.13	3199
823.27	3245
823.41	3169
823.55	3146
823.69	3203
823.83	3233
823.97	3085
824.11	3032
824.25	3047
824.389	3108
824.529	3127
824.669	3138
824.809	3222
824.949	3310
825.089	3237
825.228	3165
825.368	3039
825.508	2979
825.648	2990
825.787	3043
825.927	3020
826.067	2979
826.206	2971
826.346	3036
826.485	3100
826.625	3176
826.765	3264
826.904	3275
827.044	2994
827.183	2967
827.323	2906
827.462	3020
827.601	2941
827.741	2979
827.88	2986
828.02	2876
828.159	3001
828.298	3070
828.437	3127
828.577	3017
828.716	3241
828.855	3112
828.994	2922
829.134	2925
829.273	2963
829.412	2868
829.551	2872
829.69	2922
829.829	3009
829.968	3157
830.107	3013
830.246	3039
830.385	2925
830.524	2910
830.663	2853
830.802	2708
830.941	2705
831.08	2678
831.219	2792
831.357	2815
831.496	2948
831.635	2708
831.774	2689
831.913	2705
832.051	2587
832.19	2629
832.329	2682
832.467	2537
832.606	2499
832.744	2598
832.883	2632
833.022	2632
833.16	2705
833.299	2705
833.437	2727
833.576	2724
833.714	2754
833.852	2731
833.991	2785
834.129	2876
834.267	2849
834.406	2834
834.544	2880
834.682	2914
834.821	2902
834.959	3104
835.097	2937
835.235	3070
835.373	3032
835.511	3066
835.65	2971
835.788	2971
835.926	2819
836.064	2804
836.202	2864
836.34	3154
836.478	3188
836.615	3062
836.753	3154
836.891	3233
837.029	3207
837.167	3112
837.305	3108
837.443	3055
837.58	2979
837.718	3150
837.856	3081
837.993	3081
838.131	3154
838.269	3131
838.406	3123
838.544	3150
838.681	2956
838.819	2941
838.956	2830
839.094	2864
839.231	2941
839.369	3036
839.506	3370
839.643	3207
839.781	3039
839.918	2982
840.055	3043
840.193	3043
840.33	3119
840.467	3116
840.604	3150
840.742	3435
840.879	3039
841.016	3077
841.153	3131
841.29	3344
841.427	3310
841.564	3272
841.701	3313
841.838	3233
841.975	3192
842.112	3279
842.249	3089
842.385	3058
842.522	3222
842.659	3138
842.796	3119
842.933	3123
843.069	3089
843.206	3043
843.343	3218
843.479	3108
843.616	3199
843.752	2922
843.889	2891
844.025	3070
844.162	2887
844.298	3093
844.435	2986
844.571	2918
844.708	3123
844.844	3199
844.98	3249
845.117	3222
845.253	3097
845.389	3058
845.525	3112
845.661	3127
845.798	3043
845.934	3165
846.07	3066
846.206	3226
846.342	3336
846.478	3230
846.614	3127
846.75	3070
846.886	3013
847.022	3287
847.158	3138
847.294	3241
847.429	3302
847.565	3233
847.701	3485
847.837	3036
847.972	3028
848.108	3161
848.244	3165
848.379	2998
848.515	2982
848.65	2941
848.786	2960
848.921	3009
849.057	3112
849.192	3176
849.328	3074
849.463	3154
849.598	3062
849.734	3062
849.869	3020
850.004	2941
850.14	2982
850.275	2902
850.41	2864
850.545	2887
850.68	2937
850.815	2944
850.95	3009
851.085	3203
851.22	3116
851.355	3062
851.49	3009
851.625	2982
851.76	3013
851.895	2906
852.03	2906
852.165	3070
852.299	3112
852.434	3222
852.569	3146
852.703	3199
852.838	3279
852.973	3348
853.107	3359
853.242	3173
853.376	3097
853.511	2990
853.645	3062
853.78	3253
853.914	3146
854.048	3154
854.183	3119
854.317	3214
854.451	3298
854.585	3142
854.72	3108
854.854	3207
854.988	3017
855.122	3100
855.256	2967
855.39	3180
855.524	3245
855.658	3180
855.792	3150
855.926	3169
856.06	3214
856.194	3294
856.327	3165
856.461	3085
856.595	3138
856.729	3089
856.862	3207
856.996	3184
857.13	3199
857.263	3207
857.397	3302
857.53	3127
857.664	3180
857.797	3249
857.931	3272
858.064	3165
858.197	3230
858.331	3104
858.464	3112
858.597	2994
858.731	3150
858.864	3150
858.997	3119
859.13	3192
859.263	3161
859.396	3199
859.529	3123
859.662	3085
859.795	3051
859.928	3116
860.061	3245
860.194	3298
860.327	3108
860.46	3104
860.592	3211
860.725	3268
860.858	3260
860.99	3097
861.123	3047
861.256	3070
861.388	3142
861.521	3850
861.653	3047
861.786	3005
861.918	3024
862.05	3062
862.183	3108
862.315	3135
862.447	3203
862.58	3131
862.712	2963
862.844	2880
862.976	3028
863.108	2994
863.24	3321
863.372	2880
863.504	2971
863.636	2998
863.768	3024
863.9	3001
864.032	2948
864.164	2963
864.296	3020
864.428	3077
864.559	3100
864.691	3077
864.823	3081
864.954	3043
865.086	3081
865.217	2990
865.349	2963
865.48	2994
865.612	3024
865.743	3176
865.875	2956
866.006	2963
866.137	2990
866.269	2967
866.4	2937
866.531	2948
866.662	2880
866.793	2937
866.924	2918
867.055	2979
867.186	2933
867.317	2914
867.448	2834
867.579	2880
867.71	2872
867.841	2830
867.972	2925
868.103	2918
868.233	2857
868.364	2883
868.495	2906
868.625	3066
868.756	3199
868.886	2967
869.017	3020
869.147	3161
869.278	3131
869.408	3043
869.539	3051
869.669	3047
869.799	3070
869.929	3142
870.06	3089
870.19	3329
870.32	3279
870.45	3310
870.58	3405
870.71	3431
870.84	3439
870.97	3283
871.1	3260
871.23	3492
871.36	3428
871.489	3374
871.619	3409
871.749	3382
871.879	3447
872.008	3477
872.138	3363
872.267	3256
872.397	3150
872.526	3135
872.656	3020
872.785	3077
872.915	3256
873.044	3332
873.173	3253
873.303	3241
873.432	3218
873.561	3256
873.69	3157
873.819	3142
873.948	3207
874.077	3142
874.206	3066
874.335	3097
874.464	3241
874.593	3355
874.722	3237
874.851	3378
874.979	3348
875.108	3302
875.237	3161
875.365	3169
875.494	3169
875.623	3268
875.751	3074
875.88	3123
876.008	3192
876.136	3241
876.265	3382
876.393	3515
876.521	3424
876.65	3405
876.778	3302
876.906	3256
877.034	3230
877.162	3230
877.29	3161
877.418	3249
877.546	3195
877.674	3222
877.802	3241
877.93	3283
878.058	3146
878.185	3097
878.313	3203
878.441	3230
878.568	3108
878.696	3138
878.824	3249
878.951	3279
879.079	3462
879.206	3606
879.333	3443
879.461	3287
879.588	3332
879.715	3485
879.842	3580
879.97	3416
880.097	3195
880.224	3116
880.351	3184
880.478	3226
880.605	3188
880.732	3211
880.859	3568
880.986	3332
881.112	3336
881.239	3230
881.366	3116
881.493	3017
881.619	3028
881.746	3070
881.872	3085
881.999	3104
882.125	3142
882.252	3233
882.378	3306
882.505	3443
882.631	3287
882.757	3146
882.883	3211
883.01	3233
883.136	3192
883.262	3108
883.388	3093
883.514	3325
883.64	3370
883.766	3332
883.892	3207
884.018	3272
884.143	3469
884.269	3519
884.395	3233
884.52	3169
884.646	3192
884.772	3176
884.897	3104
885.023	3207
885.148	3325
885.274	3443
885.399	3351
885.524	3279
885.65	3283
885.775	3253
885.9	3253
886.025	3431
886.15	3389
886.275	3279
886.4	3241
886.525	3294
886.65	3279
886.775	3325
886.9	3485
887.025	3614
887.149	3412
887.274	3256
887.399	3195
887.523	3226
887.648	3165
887.773	3207
887.897	3370
888.021	3405
888.146	3325
888.27	3439
888.395	3553
888.519	3443
888.643	3409
888.767	3424
888.891	3367
889.015	3218
889.139	3291
889.263	3241
889.387	3386
889.511	3530
889.635	3450
889.759	3260
889.883	3287
890.006	3363
890.13	3523
890.254	3298
890.377	3313
890.501	3195
890.624	3169
890.748	3291
890.871	3142
890.995	3081
891.118	3039
891.241	3184
891.364	3203
891.488	3351
891.611	3184
891.734	3237
891.857	3279
891.98	3230
892.103	3363
892.226	3237
892.349	3222
892.471	3123
892.594	3245
892.717	3279
892.839	3245
892.962	3313
893.085	3367
893.207	3294
893.33	3188
893.452	3195
893.575	3329
893.697	3233
893.819	3469
893.941	3511
894.064	3431
894.186	3253
894.308	3264
894.43	3428
894.552	3504
894.674	3485
894.796	3294
894.918	3317
895.04	3283
895.161	3412
895.283	3389
895.405	3306
895.526	3329
895.648	3409
895.769	3420
895.891	3473
896.012	3477
896.134	3454
896.255	3447
896.376	3363
896.498	3348
896.619	3428
896.74	3370
896.861	3431
896.982	3694
897.103	3884
897.224	3572
897.345	3515
897.466	3447
897.587	3481
897.708	3629
897.828	3580
897.949	3439
898.07	3340
898.19	3409
898.311	3603
898.431	3450
898.552	3526
898.672	3591
898.792	3610
898.913	3473
899.033	3393
899.153	3355
899.273	3233
899.393	3291
899.513	3351
899.633	3332
899.753	3348
899.873	3275
899.993	3409
900.113	3340
900.232	3409
900.352	3325
900.472	3291
900.591	3211
900.711	3275
900.83	3275
900.95	3439
901.069	3504
901.189	3351
901.308	3214
901.427	3131
901.546	3169
901.665	3291
901.784	3340
901.904	3237
902.023	3165
902.141	2986
902.26	2952
902.379	3131
902.498	3036
902.617	3055
902.735	3199
902.854	3249
902.973	3184
903.091	3047
903.21	3043
903.328	3127
903.446	3089
903.565	3093
903.683	3195
903.801	3138
903.919	3226
904.038	3241
904.156	3157
904.274	3317
904.392	3264
904.51	3283
904.627	3317
904.745	3443
904.863	3511
904.981	3264
905.098	3180
905.216	3230
905.334	3287
905.451	3279
905.569	3321
905.686	3393
905.803	3431
905.921	3291
906.038	3462
906.155	3310
906.272	3306
906.389	3332
906.506	3241
906.623	3283
906.74	3321
906.857	3169
906.974	3256
907.091	3424
907.208	3542
907.324	3450
907.441	3374
907.557	3218
907.674	3237
907.79	3230
907.907	3260
908.023	3409
908.139	3359
908.256	3367
908.372	3389
908.488	3351
908.604	3256
908.72	3253
908.836	3310
908.952	3245
909.068	3332
909.184	3462
909.3	3393
909.415	3504
909.531	3469
909.647	3260
909.762	3294
909.878	3268
909.993	3348
910.108	3351
910.224	3325
910.339	3428
910.454	3340
910.57	3264
910.685	3287
910.8	3641
910.915	3538
911.03	3439
911.145	3233
911.259	3275
911.374	3298
911.489	3226
911.604	3188
911.718	3093
911.833	3150
911.947	3039
912.062	3020
912.176	3150
912.291	3214
912.405	3188
912.519	3443
912.633	3454
912.748	3329
912.862	3237
912.976	3146
913.09	3070
913.204	3138
913.318	3222
913.431	3294
913.545	3329
913.659	3428
913.772	3325
913.886	3192
914	3165
914.113	3370
914.226	3443
914.34	3382
914.453	3188
914.566	3405
914.68	3275
914.793	3344
914.906	3176
915.019	3104
915.132	3089
915.245	3176
915.358	3230
915.47	3207
915.583	3249
915.696	3310
915.809	3435
915.921	3439
916.034	3264
916.146	3253
916.259	3291
916.371	3386
916.483	3382
916.595	3249
916.708	3325
916.82	3310
916.932	3294
917.044	3367
917.156	3336
917.268	3245
917.38	3298
917.491	3340
917.603	3351
917.715	3454
917.826	3439
917.938	3367
918.049	3272
918.161	3374
918.272	3545
918.384	3584
918.495	3477
918.606	3351
918.717	3268
918.828	3359
918.939	3420
919.05	3298
919.161	3340
919.272	3154
919.383	3272
919.494	3477
919.604	3720
919.715	3523
919.826	3393
919.936	3466
920.047	3553
920.157	3564
920.267	3747
920.378	3618
920.488	3553
920.598	3816
920.708	3972
920.818	3819
920.928	3793
921.038	3991
921.148	4021
921.258	3682
921.368	3610
921.477	3603
921.587	3549
921.697	3481
921.806	3633
921.916	3492
922.025	3351
922.134	3310
922.244	3283
922.353	3428
922.462	3264
922.571	3272
922.68	3108
922.789	3097
922.898	3119
923.007	3100
923.116	3203
923.224	3150
923.333	3192
923.442	3104
923.55	3093
923.659	3146
923.767	3230
923.876	3097
923.984	3294
924.092	3077
924.201	3192
924.309	3184
924.417	3245
924.525	3173
924.633	3264
924.741	4109
924.849	3028
924.956	3226
925.064	3116
925.172	2994
925.279	3097
925.387	3222
925.494	3203
925.602	3336
925.709	3355
925.816	3176
925.924	3298
926.031	3329
926.138	3329
926.245	3321
926.352	3214
926.459	3370
926.566	3500
926.673	3310
926.779	3233
926.886	3226
926.993	3161
927.099	3100
927.206	3119
927.312	3131
927.419	3237
927.525	3199
927.631	3294
927.737	3169
927.843	3081
927.95	3001
928.056	3116
928.162	3127
928.267	3268
928.373	3876
928.479	3310
928.585	3093
928.69	3211
928.796	3241
928.901	3165
929.007	3024
929.112	3192
929.218	3199
929.323	3131
929.428	3173
929.533	3310
929.638	3112
929.743	3138
929.848	3272
929.953	3203
930.058	3146
930.163	2967
930.267	2994
930.372	3169
930.477	3062
930.581	3340
930.685	3169
930.79	3028
930.894	3131
930.998	3051
931.103	3268
931.207	2956
931.311	2948
931.415	2948
931.519	2792
931.623	2811
