Data from test_V78500241_813.txt Node
Date: Fri Mar 25 16:20:50 CST 2022
User: usil
Spectrometer: V785-0024
Trigger mode: 0
Integration Time (sec): 4.000000E-1
Scans to average: 1
Nonlinearity correction enabled: false
Boxcar width: 0
Storing dark spectrum: false
XAxis mode: Wavelengths
Number of Pixels in Spectrum: 1024
>>>>>Begin Spectral Data<<<<<
801.071	2975
801.214	2986
801.356	2910
801.499	2922
801.641	2899
801.783	2979
801.926	3066
802.068	3020
802.211	3032
802.353	3058
802.496	2956
802.638	3024
802.78	3058
802.923	3070
803.065	3028
803.208	2891
803.35	2944
803.492	2960
803.635	2948
803.777	2773
803.919	2845
804.061	3226
804.204	2979
804.346	2887
804.488	2838
804.63	3017
804.773	2925
804.915	2925
805.057	3116
805.199	2960
805.341	2998
805.483	3051
805.626	3009
805.768	2952
805.91	3104
806.052	3135
806.194	3074
806.336	3237
806.478	3017
806.62	2956
806.762	2990
806.904	3104
807.046	3188
807.188	3013
807.33	2944
807.472	2986
807.614	2895
807.756	3039
807.898	2922
808.04	2906
808.182	2963
808.324	2963
808.465	2891
808.607	2899
808.749	2796
808.891	2887
809.033	2979
809.174	2975
809.316	2914
809.458	2956
809.6	2800
809.741	2804
809.883	2796
810.025	2857
810.166	2857
810.308	2815
810.45	2853
810.591	2773
810.733	2792
810.875	2853
811.016	2777
811.158	2777
811.299	2815
811.441	2944
811.582	2902
811.724	2792
811.865	2857
812.007	2967
812.148	2925
812.29	2842
812.431	2937
812.573	2963
812.714	3005
812.855	3062
812.997	3062
813.138	3150
813.279	3009
813.421	3009
813.562	2990
813.703	2887
813.845	2906
813.986	2769
814.127	2766
814.268	2815
814.41	2823
814.551	2830
814.692	2902
814.833	2842
814.974	2922
815.115	2982
815.256	2853
815.397	2800
815.539	2906
815.68	2800
815.821	2815
815.962	2979
816.103	2925
816.244	2876
816.385	2880
816.526	2948
816.666	2914
816.807	2769
816.948	2925
817.089	2891
817.23	2819
817.371	2788
817.512	2796
817.653	2849
817.793	2853
817.934	2895
818.075	2967
818.216	3013
818.356	3055
818.497	2880
818.638	2792
818.778	2838
818.919	2807
819.06	2777
819.2	2906
819.341	2811
819.481	2804
819.622	2944
819.762	3104
819.903	3047
820.043	2918
820.184	2872
820.324	2902
820.465	3028
820.605	3062
820.746	3028
820.886	2952
821.026	3127
821.167	3165
821.307	3291
821.447	3268
821.588	3245
821.728	3184
821.868	3260
822.008	3089
822.149	3180
822.289	3233
822.429	3097
822.569	3089
822.709	3173
822.849	3028
822.99	3047
823.13	3150
823.27	3188
823.41	3119
823.55	3138
823.69	3184
823.83	3142
823.97	3081
824.11	2986
824.25	2986
824.389	3089
824.529	3097
824.669	3047
824.809	3233
824.949	3245
825.089	3214
825.228	3131
825.368	3036
825.508	2956
825.648	2967
825.787	3017
825.927	3013
826.067	3009
826.206	2967
826.346	3039
826.485	3066
826.625	3135
826.765	3264
826.904	3203
827.044	3024
827.183	2922
827.323	2868
827.462	3001
827.601	2948
827.741	2918
827.88	2941
828.02	2842
828.159	2971
828.298	3028
828.437	3127
828.577	3017
828.716	3260
828.855	3097
828.994	2948
829.134	2899
829.273	2910
829.412	2887
829.551	2864
829.69	2906
829.829	3005
829.968	3135
830.107	2994
830.246	3036
830.385	2937
830.524	2876
830.663	2823
830.802	2716
830.941	2659
831.08	2610
831.219	2792
831.357	2777
831.496	2929
831.635	2769
831.774	2640
831.913	2667
832.051	2564
832.19	2610
832.329	2682
832.467	2511
832.606	2461
832.744	2568
832.883	2594
833.022	2568
833.16	2682
833.299	2674
833.437	2705
833.576	2667
833.714	2735
833.852	2697
833.991	2743
834.129	2872
834.267	2868
834.406	2819
834.544	2864
834.682	2857
834.821	2868
834.959	3055
835.097	2887
835.235	3070
835.373	3009
835.511	3032
835.65	2952
835.788	2944
835.926	2811
836.064	2830
836.202	2849
836.34	3108
836.478	3142
836.615	3005
836.753	3173
836.891	3211
837.029	3211
837.167	3116
837.305	3097
837.443	3055
837.58	2929
837.718	3157
837.856	3062
837.993	3036
838.131	3116
838.269	3119
838.406	3112
838.544	3112
838.681	2925
838.819	2910
838.956	2815
839.094	2800
839.231	2925
839.369	3051
839.506	3374
839.643	3195
839.781	3032
839.918	2975
840.055	3036
840.193	3062
840.33	3097
840.467	3108
840.604	3142
840.742	3412
840.879	3032
841.016	3058
841.153	3131
841.29	3317
841.427	3329
841.564	3306
841.701	3302
841.838	3226
841.975	3161
842.112	3180
842.249	3062
842.385	3047
842.522	3272
842.659	3142
842.796	3104
842.933	3146
843.069	3039
843.206	3047
843.343	3173
843.479	3123
843.616	3142
843.752	2910
843.889	2861
844.025	3097
844.162	2895
844.298	3089
844.435	2971
844.571	2906
844.708	3055
844.844	3203
844.98	3233
845.117	3199
845.253	3062
845.389	3028
845.525	3085
845.661	3116
845.798	3013
845.934	3119
846.07	3066
846.206	3245
846.342	3291
846.478	3233
846.614	3097
846.75	3055
846.886	3013
847.022	3233
847.158	3119
847.294	3180
847.429	3192
847.565	3203
847.701	3443
847.837	3020
847.972	2994
848.108	3146
848.244	3165
848.379	2982
848.515	2963
848.65	2941
848.786	2994
848.921	3005
849.057	3116
849.192	3123
849.328	3070
849.463	3077
849.598	3036
849.734	3039
849.869	2937
850.004	2895
850.14	2944
850.275	2918
850.41	2826
850.545	2853
850.68	2956
850.815	3020
850.95	2941
851.085	3165
851.22	3089
851.355	3039
851.49	2998
851.625	3020
851.76	3028
851.895	2956
852.03	2922
852.165	2998
852.299	3123
852.434	3131
852.569	3131
852.703	3127
852.838	3226
852.973	3332
853.107	3325
853.242	3146
853.376	3089
853.511	2982
853.645	3036
853.78	3207
853.914	3112
854.048	3104
854.183	3085
854.317	3173
854.451	3291
854.585	3097
854.72	3100
854.854	3207
854.988	3081
855.122	3081
855.256	2990
855.39	3127
855.524	3214
855.658	3157
855.792	3161
855.926	3176
856.06	3184
856.194	3245
856.327	3214
856.461	3066
856.595	3108
856.729	3062
856.862	3207
856.996	3150
857.13	3211
857.263	3218
857.397	3287
857.53	3135
857.664	3180
857.797	3237
857.931	3230
858.064	3150
858.197	3237
858.331	3135
858.464	3108
858.597	2998
858.731	3100
858.864	3150
858.997	3085
859.13	3150
859.263	3135
859.396	3203
859.529	3085
859.662	3135
859.795	3055
859.928	3127
860.061	3268
860.194	3272
860.327	3146
860.46	3055
860.592	3275
860.725	3249
860.858	3218
860.99	3116
861.123	3032
861.256	3055
861.388	3176
861.521	3941
861.653	3043
861.786	2986
861.918	2994
862.05	3074
862.183	3119
862.315	3154
862.447	3188
862.58	3108
862.712	2948
862.844	2883
862.976	3024
863.108	3001
863.24	3310
863.372	2864
863.504	2967
863.636	2944
863.768	3013
863.9	2948
864.032	2895
864.164	2960
864.296	3028
864.428	3058
864.559	3108
864.691	3070
864.823	3081
864.954	3043
865.086	3020
865.217	2960
865.349	2933
865.48	2990
865.612	3024
865.743	3138
865.875	2952
866.006	2906
866.137	2971
866.269	2956
866.4	2975
866.531	2914
866.662	2922
866.793	2876
866.924	2902
867.055	2975
867.186	2918
867.317	2861
867.448	2830
867.579	2823
867.71	2849
867.841	2815
867.972	2929
868.103	2922
868.233	2876
868.364	2857
868.495	2925
868.625	3066
868.756	3135
868.886	2971
869.017	3017
869.147	3135
869.278	3184
869.408	3077
869.539	3032
869.669	3081
869.799	3055
869.929	3108
870.06	3104
870.19	3287
870.32	3298
870.45	3268
870.58	3351
870.71	3443
870.84	3420
870.97	3291
871.1	3192
871.23	3439
871.36	3477
871.489	3348
871.619	3370
871.749	3355
871.879	3424
872.008	3466
872.138	3332
872.267	3291
872.397	3127
872.526	3077
872.656	2990
872.785	3127
872.915	3272
873.044	3306
873.173	3256
873.303	3237
873.432	3233
873.561	3233
873.69	3157
873.819	3135
873.948	3180
874.077	3116
874.206	3043
874.335	3093
874.464	3222
874.593	3340
874.722	3249
874.851	3370
874.979	3363
875.108	3336
875.237	3173
875.365	3150
875.494	3176
875.623	3211
875.751	3070
875.88	3112
876.008	3211
876.136	3230
876.265	3374
876.393	3519
876.521	3378
876.65	3386
876.778	3313
876.906	3245
877.034	3203
877.162	3195
877.29	3176
877.418	3230
877.546	3180
877.674	3279
877.802	3192
877.93	3237
878.058	3146
878.185	3119
878.313	3165
878.441	3214
878.568	3066
878.696	3138
878.824	3241
878.951	3279
879.079	3420
879.206	3584
879.333	3416
879.461	3378
879.588	3313
879.715	3466
879.842	3576
879.97	3409
880.097	3192
880.224	3131
880.351	3154
880.478	3230
880.605	3214
880.732	3192
880.859	3496
880.986	3321
881.112	3325
881.239	3211
881.366	3093
881.493	3077
881.619	2998
881.746	3089
881.872	3070
881.999	3104
882.125	3112
882.252	3264
882.378	3279
882.505	3439
882.631	3272
882.757	3112
882.883	3241
883.01	3218
883.136	3146
883.262	3100
883.388	3161
883.514	3317
883.64	3370
883.766	3279
883.892	3211
884.018	3218
884.143	3428
884.269	3538
884.395	3207
884.52	3154
884.646	3203
884.772	3138
884.897	3097
885.023	3195
885.148	3348
885.274	3405
885.399	3359
885.524	3279
885.65	3321
885.775	3272
885.9	3302
886.025	3416
886.15	3317
886.275	3317
886.4	3260
886.525	3283
886.65	3279
886.775	3275
886.9	3488
887.025	3637
887.149	3401
887.274	3230
887.399	3184
887.523	3195
887.648	3203
887.773	3176
887.897	3367
888.021	3416
888.146	3298
888.27	3397
888.395	3545
888.519	3435
888.643	3397
888.767	3454
888.891	3291
889.015	3241
889.139	3268
889.263	3253
889.387	3382
889.511	3515
889.635	3458
889.759	3275
889.883	3260
890.006	3344
890.13	3500
890.254	3264
890.377	3310
890.501	3165
890.624	3214
890.748	3321
890.871	3142
890.995	3093
891.118	3097
891.241	3199
891.364	3226
891.488	3329
891.611	3146
891.734	3199
891.857	3310
891.98	3245
892.103	3355
892.226	3260
892.349	3214
892.471	3127
892.594	3233
892.717	3302
892.839	3283
892.962	3294
893.085	3336
893.207	3310
893.33	3161
893.452	3180
893.575	3363
893.697	3253
893.819	3439
893.941	3523
894.064	3466
894.186	3237
894.308	3302
894.43	3431
894.552	3538
894.674	3469
894.796	3256
894.918	3310
895.04	3275
895.161	3443
895.283	3393
895.405	3313
895.526	3370
895.648	3420
895.769	3397
895.891	3462
896.012	3454
896.134	3439
896.255	3412
896.376	3359
896.498	3420
896.619	3443
896.74	3386
896.861	3424
896.982	3690
897.103	3835
897.224	3599
897.345	3515
897.466	3405
897.587	3462
897.708	3622
897.828	3580
897.949	3428
898.07	3298
898.19	3412
898.311	3614
898.431	3469
898.552	3504
898.672	3606
898.792	3538
898.913	3542
899.033	3389
899.153	3317
899.273	3249
899.393	3298
899.513	3298
899.633	3283
899.753	3351
899.873	3317
899.993	3370
900.113	3340
900.232	3416
900.352	3344
900.472	3283
900.591	3214
900.711	3291
900.83	3226
900.95	3424
901.069	3469
901.189	3351
901.308	3214
901.427	3123
901.546	3222
901.665	3306
901.784	3344
901.904	3203
902.023	3146
902.141	2990
902.26	2986
902.379	3100
902.498	3085
902.617	3043
902.735	3165
902.854	3195
902.973	3180
903.091	3036
903.21	3051
903.328	3176
903.446	3119
903.565	3089
903.683	3218
903.801	3097
903.919	3218
904.038	3306
904.156	3157
904.274	3294
904.392	3275
904.51	3302
904.627	3336
904.745	3412
904.863	3450
904.981	3226
905.098	3214
905.216	3218
905.334	3306
905.451	3298
905.569	3279
905.686	3401
905.803	3431
905.921	3260
906.038	3424
906.155	3363
906.272	3275
906.389	3367
906.506	3230
906.623	3233
906.74	3306
906.857	3192
906.974	3249
907.091	3401
907.208	3545
907.324	3485
907.441	3359
907.557	3253
907.674	3218
907.79	3188
907.907	3260
908.023	3370
908.139	3378
908.256	3294
908.372	3351
908.488	3355
908.604	3245
908.72	3245
908.836	3245
908.952	3241
909.068	3340
909.184	3469
909.3	3351
909.415	3492
909.531	3466
909.647	3268
909.762	3294
909.878	3279
909.993	3367
910.108	3336
910.224	3294
910.339	3412
910.454	3306
910.57	3249
910.685	3230
910.8	3603
910.915	3504
911.03	3382
911.145	3237
911.259	3249
911.374	3310
911.489	3233
911.604	3199
911.718	3131
911.833	3180
911.947	3020
912.062	2979
912.176	3135
912.291	3195
912.405	3211
912.519	3424
912.633	3443
912.748	3332
912.862	3256
912.976	3157
913.09	3047
913.204	3131
913.318	3241
913.431	3291
913.545	3340
913.659	3409
913.772	3340
913.886	3192
914	3199
914.113	3336
914.226	3409
914.34	3359
914.453	3249
914.566	3405
914.68	3332
914.793	3283
914.906	3154
915.019	3108
915.132	3074
915.245	3165
915.358	3184
915.47	3222
915.583	3253
915.696	3260
915.809	3378
915.921	3367
916.034	3256
916.146	3237
916.259	3207
916.371	3355
916.483	3370
916.595	3272
916.708	3317
916.82	3325
916.932	3389
917.044	3329
917.156	3363
917.268	3275
917.38	3287
917.491	3283
917.603	3355
917.715	3439
917.826	3485
917.938	3370
918.049	3253
918.161	3409
918.272	3599
918.384	3564
918.495	3443
918.606	3310
918.717	3279
918.828	3370
918.939	3393
919.05	3253
919.161	3378
919.272	3199
919.383	3302
919.494	3485
919.604	3709
919.715	3488
919.826	3424
919.936	3458
920.047	3591
920.157	3549
920.267	3755
920.378	3587
920.488	3591
920.598	3759
920.708	3922
920.818	3876
920.928	3800
921.038	4025
921.148	3945
921.258	3698
921.368	3584
921.477	3572
921.587	3545
921.697	3454
921.806	3618
921.916	3519
922.025	3378
922.134	3367
922.244	3310
922.353	3420
922.462	3275
922.571	3203
922.68	3093
922.789	3077
922.898	3142
923.007	3100
923.116	3214
923.224	3188
923.333	3176
923.442	3104
923.55	3116
923.659	3157
923.767	3222
923.876	3135
923.984	3275
924.092	3081
924.201	3237
924.309	3253
924.417	3214
924.525	3192
924.633	3268
924.741	4181
924.849	3066
924.956	3256
925.064	3085
925.172	3055
925.279	3104
925.387	3218
925.494	3154
925.602	3386
925.709	3325
925.816	3195
925.924	3279
926.031	3374
926.138	3363
926.245	3348
926.352	3287
926.459	3416
926.566	3485
926.673	3348
926.779	3268
926.886	3249
926.993	3108
927.099	3116
927.206	3127
927.312	3100
927.419	3211
927.525	3218
927.631	3279
927.737	3127
927.843	3123
927.95	3077
928.056	3142
928.162	3184
928.267	3207
928.373	3717
928.479	3336
928.585	3043
928.69	3214
928.796	3302
928.901	3176
929.007	3013
929.112	3188
929.218	3180
929.323	3180
929.428	3176
929.533	3298
929.638	3116
929.743	3157
929.848	3260
929.953	3264
930.058	3138
930.163	2979
930.267	3062
930.372	3157
930.477	3055
930.581	3325
930.685	3192
930.79	3036
930.894	3070
930.998	3104
931.103	3291
931.207	2941
931.311	2937
931.415	2937
931.519	2762
931.623	2819
