Data from test_V78500241_172.txt Node
Date: Fri Mar 25 16:16:23 CST 2022
User: usil
Spectrometer: V785-0024
Trigger mode: 0
Integration Time (sec): 4.000000E-1
Scans to average: 1
Nonlinearity correction enabled: false
Boxcar width: 0
Storing dark spectrum: false
XAxis mode: Wavelengths
Number of Pixels in Spectrum: 1024
>>>>>Begin Spectral Data<<<<<
801.071	2952
801.214	2990
801.356	2922
801.499	2933
801.641	2922
801.783	2948
801.926	3104
802.068	3036
802.211	2994
802.353	3104
802.496	3001
802.638	3032
802.78	3104
802.923	3161
803.065	3070
803.208	2929
803.35	2971
803.492	2914
803.635	2952
803.777	2800
803.919	2902
804.061	3222
804.204	2971
804.346	2948
804.488	2876
804.63	3036
804.773	2891
804.915	2941
805.057	3119
805.199	2956
805.341	3005
805.483	3062
805.626	2998
805.768	2998
805.91	3097
806.052	3108
806.194	3047
806.336	3237
806.478	3039
806.62	2986
806.762	3017
806.904	3062
807.046	3211
807.188	3047
807.33	2902
807.472	2986
807.614	2914
807.756	3028
807.898	2975
808.04	2910
808.182	3032
808.324	2982
808.465	2952
808.607	2918
808.749	2811
808.891	2902
809.033	2994
809.174	3020
809.316	2906
809.458	2895
809.6	2773
809.741	2807
809.883	2800
810.025	2887
810.166	2906
810.308	2845
810.45	2868
810.591	2796
810.733	2796
810.875	2857
811.016	2830
811.158	2804
811.299	2823
811.441	2956
811.582	2929
811.724	2842
811.865	2864
812.007	2944
812.148	2864
812.29	2872
812.431	2899
812.573	2948
812.714	2967
812.855	3108
812.997	3062
813.138	3146
813.279	3024
813.421	3039
813.562	2979
813.703	2891
813.845	2922
813.986	2819
814.127	2758
814.268	2853
814.41	2876
814.551	2845
814.692	2899
814.833	2849
814.974	2929
815.115	3009
815.256	2823
815.397	2830
815.539	2929
815.68	2849
815.821	2830
815.962	2979
816.103	2967
816.244	2899
816.385	2895
816.526	2982
816.666	2933
816.807	2758
816.948	2922
817.089	2922
817.23	2887
817.371	2781
817.512	2800
817.653	2853
817.793	2815
817.934	2929
818.075	2979
818.216	3062
818.356	3043
818.497	2918
818.638	2830
818.778	2834
818.919	2826
819.06	2777
819.2	2929
819.341	2838
819.481	2819
819.622	2963
819.762	3104
819.903	3062
820.043	2979
820.184	2925
820.324	2952
820.465	3047
820.605	3047
820.746	3039
820.886	2990
821.026	3108
821.167	3199
821.307	3279
821.447	3306
821.588	3245
821.728	3241
821.868	3214
822.008	3119
822.149	3245
822.289	3241
822.429	3123
822.569	3119
822.709	3199
822.849	3093
822.99	3123
823.13	3184
823.27	3226
823.41	3131
823.55	3176
823.69	3165
823.83	3218
823.97	3142
824.11	3001
824.25	3036
824.389	3112
824.529	3154
824.669	3097
824.809	3218
824.949	3275
825.089	3237
825.228	3218
825.368	3032
825.508	2967
825.648	3001
825.787	3001
825.927	3074
826.067	3001
826.206	2975
826.346	3039
826.485	3123
826.625	3131
826.765	3298
826.904	3237
827.044	3009
827.183	2918
827.323	2868
827.462	3017
827.601	2937
827.741	2967
827.88	2979
828.02	2887
828.159	3020
828.298	3024
828.437	3150
828.577	3085
828.716	3275
828.855	3081
828.994	2933
829.134	2891
829.273	2899
829.412	2941
829.551	2910
829.69	2944
829.829	2975
829.968	3180
830.107	3028
830.246	3032
830.385	2933
830.524	2922
830.663	2830
830.802	2773
830.941	2674
831.08	2663
831.219	2785
831.357	2796
831.496	2979
831.635	2727
831.774	2663
831.913	2667
832.051	2556
832.19	2598
832.329	2689
832.467	2571
832.606	2533
832.744	2629
832.883	2640
833.022	2621
833.16	2674
833.299	2693
833.437	2731
833.576	2693
833.714	2750
833.852	2762
833.991	2758
834.129	2849
834.267	2815
834.406	2819
834.544	2864
834.682	2864
834.821	2925
834.959	3074
835.097	2941
835.235	3055
835.373	2986
835.511	3077
835.65	2979
835.788	2963
835.926	2876
836.064	2834
836.202	2872
836.34	3097
836.478	3173
836.615	3047
836.753	3154
836.891	3203
837.029	3173
837.167	3131
837.305	3066
837.443	3051
837.58	2994
837.718	3161
837.856	3093
837.993	3062
838.131	3146
838.269	3116
838.406	3081
838.544	3108
838.681	2944
838.819	2933
838.956	2826
839.094	2864
839.231	2933
839.369	3024
839.506	3386
839.643	3241
839.781	3047
839.918	2971
840.055	3051
840.193	3085
840.33	3070
840.467	3112
840.604	3184
840.742	3431
840.879	3074
841.016	3081
841.153	3138
841.29	3359
841.427	3340
841.564	3287
841.701	3313
841.838	3218
841.975	3169
842.112	3211
842.249	3097
842.385	3074
842.522	3249
842.659	3131
842.796	3074
842.933	3127
843.069	3055
843.206	3070
843.343	3184
843.479	3097
843.616	3199
843.752	2891
843.889	2918
844.025	3108
844.162	2842
844.298	3070
844.435	2952
844.571	2937
844.708	3097
844.844	3192
844.98	3233
845.117	3222
845.253	3043
845.389	3043
845.525	3104
845.661	3138
845.798	3028
845.934	3154
846.07	3047
846.206	3226
846.342	3344
846.478	3279
846.614	3135
846.75	3051
846.886	3047
847.022	3245
847.158	3161
847.294	3245
847.429	3287
847.565	3233
847.701	3462
847.837	3051
847.972	3055
848.108	3169
848.244	3154
848.379	3047
848.515	2960
848.65	2918
848.786	2982
848.921	3024
849.057	3112
849.192	3184
849.328	3123
849.463	3119
849.598	3081
849.734	3077
849.869	3005
850.004	2922
850.14	2975
850.275	2952
850.41	2849
850.545	2899
850.68	3001
850.815	2994
850.95	2975
851.085	3245
851.22	3119
851.355	3074
851.49	2975
851.625	3047
851.76	3024
851.895	2944
852.03	2918
852.165	3058
852.299	3161
852.434	3233
852.569	3176
852.703	3199
852.838	3203
852.973	3348
853.107	3329
853.242	3176
853.376	3074
853.511	2990
853.645	3062
853.78	3245
853.914	3150
854.048	3142
854.183	3062
854.317	3173
854.451	3302
854.585	3108
854.72	3131
854.854	3230
854.988	3058
855.122	3100
855.256	2975
855.39	3135
855.524	3241
855.658	3192
855.792	3176
855.926	3230
856.06	3226
856.194	3264
856.327	3222
856.461	3100
856.595	3104
856.729	3089
856.862	3230
856.996	3180
857.13	3176
857.263	3245
857.397	3294
857.53	3131
857.664	3207
857.797	3241
857.931	3237
858.064	3195
858.197	3260
858.331	3142
858.464	3116
858.597	2986
858.731	3123
858.864	3188
858.997	3131
859.13	3188
859.263	3218
859.396	3184
859.529	3119
859.662	3085
859.795	3066
859.928	3176
860.061	3283
860.194	3321
860.327	3154
860.46	3138
860.592	3275
860.725	3291
860.858	3256
860.99	3131
861.123	3097
861.256	3062
861.388	3146
861.521	3785
861.653	3043
861.786	3036
861.918	3001
862.05	3074
862.183	3108
862.315	3119
862.447	3188
862.58	3104
862.712	2979
862.844	2872
862.976	3062
863.108	3009
863.24	3298
863.372	2895
863.504	2963
863.636	2979
863.768	3058
863.9	2975
864.032	2922
864.164	2967
864.296	3043
864.428	3097
864.559	3112
864.691	3085
864.823	3089
864.954	3039
865.086	3077
865.217	3020
865.349	2944
865.48	2956
865.612	3017
865.743	3135
865.875	3032
866.006	2963
866.137	2971
866.269	2971
866.4	2948
866.531	2937
866.662	2876
866.793	2895
866.924	2906
867.055	3017
867.186	2933
867.317	2910
867.448	2861
867.579	2887
867.71	2857
867.841	2842
867.972	2914
868.103	2918
868.233	2887
868.364	2891
868.495	2906
868.625	3097
868.756	3188
868.886	2967
869.017	3062
869.147	3169
869.278	3176
869.408	3043
869.539	3043
869.669	3062
869.799	3051
869.929	3135
870.06	3131
870.19	3336
870.32	3321
870.45	3325
870.58	3389
870.71	3492
870.84	3462
870.97	3321
871.1	3245
871.23	3481
871.36	3458
871.489	3370
871.619	3416
871.749	3443
871.879	3431
872.008	3477
872.138	3389
872.267	3306
872.397	3180
872.526	3138
872.656	3039
872.785	3104
872.915	3302
873.044	3321
873.173	3256
873.303	3260
873.432	3249
873.561	3256
873.69	3184
873.819	3173
873.948	3214
874.077	3154
874.206	3024
874.335	3058
874.464	3211
874.593	3351
874.722	3268
874.851	3405
874.979	3363
875.108	3298
875.237	3211
875.365	3192
875.494	3184
875.623	3291
875.751	3093
875.88	3104
876.008	3230
876.136	3272
876.265	3378
876.393	3488
876.521	3450
876.65	3443
876.778	3401
876.906	3306
877.034	3241
877.162	3233
877.29	3226
877.418	3279
877.546	3287
877.674	3256
877.802	3264
877.93	3237
878.058	3142
878.185	3127
878.313	3192
878.441	3249
878.568	3123
878.696	3169
878.824	3237
878.951	3268
879.079	3447
879.206	3629
879.333	3447
879.461	3291
879.588	3397
879.715	3504
879.842	3656
879.97	3397
880.097	3173
880.224	3127
880.351	3241
880.478	3253
880.605	3199
880.732	3195
880.859	3500
880.986	3287
881.112	3329
881.239	3199
881.366	3119
881.493	3005
881.619	3032
881.746	3123
881.872	3116
881.999	3127
882.125	3157
882.252	3268
882.378	3283
882.505	3450
882.631	3302
882.757	3150
882.883	3211
883.01	3283
883.136	3180
883.262	3119
883.388	3104
883.514	3344
883.64	3378
883.766	3329
883.892	3195
884.018	3253
884.143	3389
884.269	3515
884.395	3222
884.52	3199
884.646	3211
884.772	3146
884.897	3112
885.023	3230
885.148	3378
885.274	3405
885.399	3389
885.524	3344
885.65	3256
885.775	3332
885.9	3359
886.025	3409
886.15	3370
886.275	3329
886.4	3283
886.525	3355
886.65	3317
886.775	3310
886.9	3500
887.025	3625
887.149	3447
887.274	3313
887.399	3222
887.523	3207
887.648	3203
887.773	3173
887.897	3378
888.021	3439
888.146	3313
888.27	3462
888.395	3553
888.519	3420
888.643	3454
888.767	3473
888.891	3313
889.015	3260
889.139	3317
889.263	3275
889.387	3431
889.511	3526
889.635	3435
889.759	3344
889.883	3294
890.006	3382
890.13	3473
890.254	3279
890.377	3367
890.501	3260
890.624	3207
890.748	3321
890.871	3241
890.995	3104
891.118	3081
891.241	3211
891.364	3256
891.488	3325
891.611	3241
891.734	3203
891.857	3291
891.98	3275
892.103	3367
892.226	3313
892.349	3230
892.471	3108
892.594	3302
892.717	3298
892.839	3272
892.962	3298
893.085	3367
893.207	3329
893.33	3176
893.452	3237
893.575	3363
893.697	3283
893.819	3466
893.941	3530
894.064	3500
894.186	3279
894.308	3294
894.43	3469
894.552	3580
894.674	3481
894.796	3283
894.918	3313
895.04	3264
895.161	3435
895.283	3447
895.405	3336
895.526	3397
895.648	3412
895.769	3431
895.891	3473
896.012	3500
896.134	3469
896.255	3393
896.376	3382
896.498	3382
896.619	3439
896.74	3382
896.861	3443
896.982	3717
897.103	3842
897.224	3644
897.345	3496
897.466	3458
897.587	3462
897.708	3637
897.828	3580
897.949	3439
898.07	3317
898.19	3458
898.311	3591
898.431	3477
898.552	3534
898.672	3648
898.792	3595
898.913	3492
899.033	3416
899.153	3313
899.273	3218
899.393	3291
899.513	3329
899.633	3268
899.753	3359
899.873	3340
899.993	3428
900.113	3340
900.232	3397
900.352	3340
900.472	3306
900.591	3218
900.711	3302
900.83	3253
900.95	3454
901.069	3530
901.189	3329
901.308	3218
901.427	3150
901.546	3157
901.665	3332
901.784	3367
901.904	3233
902.023	3169
902.141	3047
902.26	3028
902.379	3142
902.498	3089
902.617	3062
902.735	3195
902.854	3241
902.973	3233
903.091	3058
903.21	3066
903.328	3169
903.446	3123
903.565	3131
903.683	3222
903.801	3146
903.919	3275
904.038	3287
904.156	3169
904.274	3283
904.392	3272
904.51	3287
904.627	3332
904.745	3447
904.863	3485
904.981	3294
905.098	3192
905.216	3260
905.334	3306
905.451	3317
905.569	3325
905.686	3439
905.803	3454
905.921	3325
906.038	3424
906.155	3389
906.272	3264
906.389	3367
906.506	3226
906.623	3275
906.74	3294
906.857	3222
906.974	3291
907.091	3458
907.208	3606
907.324	3496
907.441	3435
907.557	3264
907.674	3241
907.79	3211
907.907	3294
908.023	3409
908.139	3405
908.256	3332
908.372	3378
908.488	3359
908.604	3283
908.72	3268
908.836	3321
908.952	3294
909.068	3359
909.184	3511
909.3	3424
909.415	3530
909.531	3485
909.647	3306
909.762	3310
909.878	3279
909.993	3355
910.108	3336
910.224	3397
910.339	3401
910.454	3344
910.57	3321
910.685	3214
910.8	3622
910.915	3534
911.03	3439
911.145	3291
911.259	3294
911.374	3298
911.489	3291
911.604	3241
911.718	3161
911.833	3169
911.947	3047
912.062	2986
912.176	3173
912.291	3192
912.405	3222
912.519	3447
912.633	3511
912.748	3363
912.862	3317
912.976	3203
913.09	3097
913.204	3169
913.318	3249
913.431	3340
913.545	3378
913.659	3389
913.772	3389
913.886	3264
914	3222
914.113	3378
914.226	3450
914.34	3374
914.453	3237
914.566	3428
914.68	3351
914.793	3310
914.906	3195
915.019	3138
915.132	3112
915.245	3199
915.358	3237
915.47	3253
915.583	3313
915.696	3283
915.809	3401
915.921	3443
916.034	3245
916.146	3268
916.259	3214
916.371	3378
916.483	3397
916.595	3272
916.708	3321
916.82	3348
916.932	3359
917.044	3359
917.156	3367
917.268	3275
917.38	3332
917.491	3313
917.603	3370
917.715	3458
917.826	3454
917.938	3450
918.049	3294
918.161	3473
918.272	3618
918.384	3557
918.495	3519
918.606	3363
918.717	3310
918.828	3409
918.939	3447
919.05	3329
919.161	3412
919.272	3211
919.383	3302
919.494	3496
919.604	3755
919.715	3488
919.826	3443
919.936	3462
920.047	3629
920.157	3572
920.267	3778
920.378	3614
920.488	3561
920.598	3797
920.708	3926
920.818	3865
920.928	3880
921.038	4082
921.148	4032
921.258	3743
921.368	3629
921.477	3606
921.587	3591
921.697	3443
921.806	3660
921.916	3530
922.025	3374
922.134	3431
922.244	3310
922.353	3477
922.462	3241
922.571	3214
922.68	3093
922.789	3074
922.898	3184
923.007	3089
923.116	3214
923.224	3199
923.333	3192
923.442	3142
923.55	3108
923.659	3150
923.767	3253
923.876	3108
923.984	3268
924.092	3116
924.201	3222
924.309	3233
924.417	3268
924.525	3214
924.633	3253
924.741	4211
924.849	3051
924.956	3253
925.064	3123
925.172	3066
925.279	3135
925.387	3218
925.494	3256
925.602	3317
925.709	3332
925.816	3203
925.924	3313
926.031	3370
926.138	3351
926.245	3378
926.352	3275
926.459	3428
926.566	3485
926.673	3340
926.779	3268
926.886	3260
926.993	3138
927.099	3154
927.206	3188
927.312	3135
927.419	3237
927.525	3203
927.631	3302
927.737	3165
927.843	3062
927.95	3036
928.056	3138
928.162	3218
928.267	3256
928.373	3846
928.479	3340
928.585	3104
928.69	3264
928.796	3313
928.901	3165
929.007	3093
929.112	3249
929.218	3195
929.323	3165
929.428	3161
929.533	3313
929.638	3135
929.743	3188
929.848	3241
929.953	3211
930.058	3131
930.163	3051
930.267	3085
930.372	3214
930.477	3081
930.581	3374
930.685	3199
930.79	3097
930.894	3150
930.998	3138
931.103	3317
931.207	2963
931.311	2933
931.415	2937
931.519	2807
931.623	2804
