Data from test_V78500241_1616.txt Node
Date: Fri Mar 25 16:26:23 CST 2022
User: usil
Spectrometer: V785-0024
Trigger mode: 0
Integration Time (sec): 4.000000E-1
Scans to average: 1
Nonlinearity correction enabled: false
Boxcar width: 0
Storing dark spectrum: false
XAxis mode: Wavelengths
Number of Pixels in Spectrum: 1024
>>>>>Begin Spectral Data<<<<<
801.071	2880
801.214	2937
801.356	2826
801.499	2902
801.641	2842
801.783	2937
801.926	3055
802.068	2941
802.211	3005
802.353	3043
802.496	2971
802.638	2982
802.78	3039
802.923	3100
803.065	3032
803.208	2910
803.35	2910
803.492	2906
803.635	2910
803.777	2788
803.919	2887
804.061	3180
804.204	2937
804.346	2910
804.488	2845
804.63	2990
804.773	2872
804.915	2880
805.057	3070
805.199	2941
805.341	2922
805.483	3005
805.626	3028
805.768	2933
805.91	3047
806.052	3047
806.194	3020
806.336	3211
806.478	3055
806.62	2960
806.762	2960
806.904	3047
807.046	3226
807.188	2929
807.33	2883
807.472	2956
807.614	2868
807.756	2956
807.898	2925
808.04	2864
808.182	2960
808.324	2906
808.465	2899
808.607	2857
808.749	2819
808.891	2868
809.033	2960
809.174	2952
809.316	2872
809.458	2933
809.6	2766
809.741	2807
809.883	2754
810.025	2819
810.166	2853
810.308	2842
810.45	2864
810.591	2777
810.733	2743
810.875	2811
811.016	2777
811.158	2777
811.299	2815
811.441	2918
811.582	2895
811.724	2781
811.865	2834
812.007	2910
812.148	2845
812.29	2842
812.431	2861
812.573	2944
812.714	2922
812.855	3017
812.997	3047
813.138	3104
813.279	2982
813.421	2994
813.562	2960
813.703	2857
813.845	2864
813.986	2766
814.127	2701
814.268	2811
814.41	2842
814.551	2819
814.692	2876
814.833	2769
814.974	2910
815.115	2929
815.256	2804
815.397	2804
815.539	2842
815.68	2735
815.821	2804
815.962	2922
816.103	2910
816.244	2883
816.385	2845
816.526	2963
816.666	2887
816.807	2735
816.948	2864
817.089	2902
817.23	2861
817.371	2743
817.512	2804
817.653	2788
817.793	2834
817.934	2876
818.075	2937
818.216	2956
818.356	3005
818.497	2872
818.638	2845
818.778	2788
818.919	2788
819.06	2762
819.2	2876
819.341	2800
819.481	2777
819.622	2883
819.762	3051
819.903	3047
820.043	2899
820.184	2902
820.324	2861
820.465	2994
820.605	3020
820.746	2994
820.886	2914
821.026	3093
821.167	3161
821.307	3249
821.447	3260
821.588	3245
821.728	3207
821.868	3192
822.008	3074
822.149	3146
822.289	3214
822.429	3085
822.569	3104
822.709	3173
822.849	2975
822.99	3051
823.13	3150
823.27	3169
823.41	3119
823.55	3112
823.69	3135
823.83	3188
823.97	3112
824.11	2990
824.25	2952
824.389	3055
824.529	3119
824.669	3043
824.809	3157
824.949	3222
825.089	3203
825.228	3142
825.368	2979
825.508	2982
825.648	2986
825.787	3001
825.927	2986
826.067	2963
826.206	2937
826.346	3005
826.485	3081
826.625	3074
826.765	3214
826.904	3207
827.044	2971
827.183	2906
827.323	2830
827.462	2979
827.601	2899
827.741	2891
827.88	2929
828.02	2842
828.159	2933
828.298	3020
828.437	3104
828.577	3032
828.716	3253
828.855	3081
828.994	2876
829.134	2887
829.273	2941
829.412	2899
829.551	2864
829.69	2880
829.829	3001
829.968	3112
830.107	3024
830.246	3024
830.385	2906
830.524	2887
830.663	2849
830.802	2724
830.941	2663
831.08	2648
831.219	2773
831.357	2750
831.496	2948
831.635	2746
831.774	2678
831.913	2667
832.051	2568
832.19	2587
832.329	2708
832.467	2537
832.606	2503
832.744	2621
832.883	2648
833.022	2598
833.16	2659
833.299	2731
833.437	2735
833.576	2727
833.714	2804
833.852	2785
833.991	2785
834.129	2880
834.267	2845
834.406	2823
834.544	2883
834.682	2929
834.821	2895
834.959	3093
835.097	2971
835.235	3062
835.373	3032
835.511	3070
835.65	3017
835.788	3013
835.926	2883
836.064	2834
836.202	2861
836.34	3116
836.478	3188
836.615	3062
836.753	3192
836.891	3233
837.029	3230
837.167	3150
837.305	3100
837.443	3085
837.58	2994
837.718	3176
837.856	3058
837.993	3074
838.131	3165
838.269	3142
838.406	3104
838.544	3119
838.681	2967
838.819	2963
838.956	2872
839.094	2872
839.231	2929
839.369	3043
839.506	3397
839.643	3287
839.781	3058
839.918	3017
840.055	3074
840.193	3089
840.33	3100
840.467	3131
840.604	3188
840.742	3458
840.879	3097
841.016	3112
841.153	3199
841.29	3367
841.427	3310
841.564	3291
841.701	3355
841.838	3241
841.975	3199
842.112	3241
842.249	3112
842.385	3077
842.522	3302
842.659	3138
842.796	3097
842.933	3142
843.069	3055
843.206	3070
843.343	3207
843.479	3154
843.616	3169
843.752	2922
843.889	2880
844.025	3097
844.162	2914
844.298	3085
844.435	3028
844.571	2963
844.708	3077
844.844	3256
844.98	3306
845.117	3218
845.253	3070
845.389	3013
845.525	3157
845.661	3161
845.798	3043
845.934	3146
846.07	3081
846.206	3237
846.342	3351
846.478	3272
846.614	3104
846.75	3074
846.886	3058
847.022	3283
847.158	3199
847.294	3199
847.429	3268
847.565	3207
847.701	3511
847.837	3058
847.972	3028
848.108	3180
848.244	3154
848.379	2979
848.515	2963
848.65	2948
848.786	2971
848.921	3047
849.057	3108
849.192	3203
849.328	3108
849.463	3116
849.598	3085
849.734	3104
849.869	3013
850.004	2933
850.14	3005
850.275	2952
850.41	2891
850.545	2902
850.68	2948
850.815	2979
850.95	2971
851.085	3192
851.22	3123
851.355	3055
851.49	3020
851.625	3009
851.76	2990
851.895	2937
852.03	2906
852.165	3039
852.299	3150
852.434	3241
852.569	3192
852.703	3199
852.838	3272
852.973	3401
853.107	3367
853.242	3176
853.376	3127
853.511	3009
853.645	3074
853.78	3256
853.914	3138
854.048	3157
854.183	3097
854.317	3169
854.451	3344
854.585	3173
854.72	3089
854.854	3226
854.988	3100
855.122	3116
855.256	3055
855.39	3142
855.524	3283
855.658	3195
855.792	3184
855.926	3264
856.06	3253
856.194	3298
856.327	3173
856.461	3127
856.595	3142
856.729	3135
856.862	3237
856.996	3195
857.13	3230
857.263	3249
857.397	3313
857.53	3192
857.664	3237
857.797	3249
857.931	3310
858.064	3173
858.197	3230
858.331	3157
858.464	3108
858.597	3036
858.731	3154
858.864	3165
858.997	3138
859.13	3188
859.263	3226
859.396	3253
859.529	3131
859.662	3127
859.795	3097
859.928	3176
860.061	3310
860.194	3313
860.327	3184
860.46	3119
860.592	3279
860.725	3272
860.858	3253
860.99	3157
861.123	3074
861.256	3062
861.388	3184
861.521	3884
861.653	3062
861.786	3036
861.918	3005
862.05	3070
862.183	3089
862.315	3161
862.447	3214
862.58	3070
862.712	2922
862.844	2914
862.976	3020
863.108	3058
863.24	3378
863.372	2906
863.504	2971
863.636	2952
863.768	3036
863.9	2990
864.032	2941
864.164	2952
864.296	3047
864.428	3104
864.559	3104
864.691	3104
864.823	3104
864.954	3074
865.086	3066
865.217	3032
865.349	2971
865.48	2998
865.612	3047
865.743	3173
865.875	3047
866.006	2990
866.137	3001
866.269	2975
866.4	2990
866.531	2948
866.662	2906
866.793	2906
866.924	2948
867.055	2994
867.186	2975
867.317	2944
867.448	2895
867.579	2857
867.71	2876
867.841	2838
867.972	2929
868.103	2906
868.233	2906
868.364	2948
868.495	2918
868.625	3062
868.756	3203
868.886	2963
869.017	3062
869.147	3214
869.278	3176
869.408	3085
869.539	3066
869.669	3100
869.799	3085
869.929	3173
870.06	3131
870.19	3321
870.32	3298
870.45	3313
870.58	3386
870.71	3500
870.84	3500
870.97	3351
871.1	3287
871.23	3492
871.36	3443
871.489	3386
871.619	3435
871.749	3481
871.879	3477
872.008	3496
872.138	3374
872.267	3287
872.397	3184
872.526	3116
872.656	3036
872.785	3093
872.915	3260
873.044	3344
873.173	3249
873.303	3256
873.432	3294
873.561	3260
873.69	3195
873.819	3165
873.948	3233
874.077	3123
874.206	3062
874.335	3066
874.464	3233
874.593	3393
874.722	3253
874.851	3416
874.979	3378
875.108	3348
875.237	3199
875.365	3150
875.494	3165
875.623	3272
875.751	3123
875.88	3150
876.008	3230
876.136	3218
876.265	3363
876.393	3545
876.521	3428
876.65	3397
876.778	3344
876.906	3253
877.034	3226
877.162	3264
877.29	3237
877.418	3291
877.546	3256
877.674	3233
877.802	3230
877.93	3283
878.058	3165
878.185	3127
878.313	3275
878.441	3291
878.568	3097
878.696	3188
878.824	3279
878.951	3329
879.079	3473
879.206	3675
879.333	3466
879.461	3336
879.588	3439
879.715	3530
879.842	3622
879.97	3424
880.097	3192
880.224	3131
880.351	3195
880.478	3256
880.605	3245
880.732	3230
880.859	3523
880.986	3332
881.112	3336
881.239	3195
881.366	3138
881.493	3070
881.619	3009
881.746	3077
881.872	3131
881.999	3142
882.125	3154
882.252	3264
882.378	3294
882.505	3477
882.631	3332
882.757	3146
882.883	3241
883.01	3230
883.136	3173
883.262	3119
883.388	3146
883.514	3351
883.64	3344
883.766	3336
883.892	3165
884.018	3249
884.143	3424
884.269	3568
884.395	3203
884.52	3184
884.646	3207
884.772	3142
884.897	3154
885.023	3230
885.148	3359
885.274	3466
885.399	3351
885.524	3313
885.65	3287
885.775	3348
885.9	3279
886.025	3462
886.15	3367
886.275	3321
886.4	3249
886.525	3306
886.65	3279
886.775	3302
886.9	3488
887.025	3606
887.149	3374
887.274	3279
887.399	3199
887.523	3184
887.648	3230
887.773	3214
887.897	3393
888.021	3424
888.146	3310
888.27	3450
888.395	3523
888.519	3435
888.643	3466
888.767	3469
888.891	3344
889.015	3230
889.139	3283
889.263	3298
889.387	3401
889.511	3481
889.635	3462
889.759	3310
889.883	3272
890.006	3420
890.13	3545
890.254	3313
890.377	3351
890.501	3249
890.624	3199
890.748	3272
890.871	3218
890.995	3112
891.118	3104
891.241	3199
891.364	3249
891.488	3313
891.611	3207
891.734	3199
891.857	3313
891.98	3218
892.103	3351
892.226	3302
892.349	3233
892.471	3123
892.594	3222
892.717	3291
892.839	3275
892.962	3302
893.085	3374
893.207	3329
893.33	3161
893.452	3230
893.575	3389
893.697	3310
893.819	3500
893.941	3549
894.064	3466
894.186	3287
894.308	3294
894.43	3477
894.552	3545
894.674	3458
894.796	3241
894.918	3329
895.04	3302
895.161	3412
895.283	3397
895.405	3283
895.526	3363
895.648	3473
895.769	3435
895.891	3492
896.012	3496
896.134	3488
896.255	3412
896.376	3386
896.498	3370
896.619	3439
896.74	3416
896.861	3405
896.982	3724
897.103	3835
897.224	3584
897.345	3526
897.466	3477
897.587	3523
897.708	3625
897.828	3576
897.949	3473
898.07	3336
898.19	3378
898.311	3576
898.431	3450
898.552	3496
898.672	3610
898.792	3584
898.913	3572
899.033	3435
899.153	3332
899.273	3226
899.393	3249
899.513	3359
899.633	3332
899.753	3359
899.873	3336
899.993	3424
900.113	3344
900.232	3393
900.352	3351
900.472	3272
900.591	3176
900.711	3302
900.83	3264
900.95	3443
901.069	3504
901.189	3359
901.308	3176
901.427	3150
901.546	3264
901.665	3329
901.784	3336
901.904	3199
902.023	3135
902.141	3047
902.26	2994
902.379	3135
902.498	3108
902.617	3077
902.735	3192
902.854	3245
902.973	3184
903.091	3028
903.21	3058
903.328	3138
903.446	3138
903.565	3116
903.683	3184
903.801	3142
903.919	3287
904.038	3279
904.156	3199
904.274	3374
904.392	3245
904.51	3313
904.627	3344
904.745	3401
904.863	3477
904.981	3249
905.098	3180
905.216	3230
905.334	3294
905.451	3268
905.569	3317
905.686	3447
905.803	3450
905.921	3306
906.038	3424
906.155	3389
906.272	3298
906.389	3359
906.506	3253
906.623	3253
906.74	3283
906.857	3192
906.974	3272
907.091	3466
907.208	3564
907.324	3481
907.441	3405
907.557	3268
907.674	3275
907.79	3211
907.907	3294
908.023	3367
908.139	3412
908.256	3336
908.372	3382
908.488	3386
908.604	3294
908.72	3260
908.836	3298
908.952	3275
909.068	3348
909.184	3542
909.3	3370
909.415	3519
909.531	3454
909.647	3272
909.762	3298
909.878	3249
909.993	3348
910.108	3321
910.224	3340
910.339	3435
910.454	3317
910.57	3268
910.685	3233
910.8	3629
910.915	3519
911.03	3435
911.145	3294
911.259	3279
911.374	3287
911.489	3230
911.604	3218
911.718	3161
911.833	3135
911.947	3055
912.062	3001
912.176	3169
912.291	3199
912.405	3233
912.519	3428
912.633	3488
912.748	3359
912.862	3260
912.976	3176
913.09	3058
913.204	3154
913.318	3245
913.431	3325
913.545	3325
913.659	3439
913.772	3374
913.886	3199
914	3207
914.113	3367
914.226	3435
914.34	3359
914.453	3203
914.566	3386
914.68	3329
914.793	3317
914.906	3154
915.019	3150
915.132	3020
915.245	3188
915.358	3195
915.47	3249
915.583	3260
915.696	3321
915.809	3416
915.921	3424
916.034	3283
916.146	3253
916.259	3268
916.371	3447
916.483	3389
916.595	3313
916.708	3317
916.82	3374
916.932	3310
917.044	3344
917.156	3359
917.268	3253
917.38	3306
917.491	3302
917.603	3374
917.715	3462
917.826	3481
917.938	3409
918.049	3283
918.161	3454
918.272	3603
918.384	3542
918.495	3473
918.606	3351
918.717	3287
918.828	3374
918.939	3443
919.05	3306
919.161	3405
919.272	3218
919.383	3294
919.494	3466
919.604	3698
919.715	3488
919.826	3416
919.936	3462
920.047	3606
920.157	3504
920.267	3736
920.378	3641
920.488	3568
920.598	3774
920.708	3953
920.818	3800
920.928	3831
921.038	4017
921.148	3998
921.258	3705
921.368	3610
921.477	3561
921.587	3545
921.697	3477
921.806	3682
921.916	3519
922.025	3378
922.134	3386
922.244	3348
922.353	3397
922.462	3230
922.571	3241
922.68	3146
922.789	3085
922.898	3146
923.007	3138
923.116	3207
923.224	3180
923.333	3203
923.442	3077
923.55	3116
923.659	3165
923.767	3218
923.876	3123
923.984	3253
924.092	3108
924.201	3188
924.309	3192
924.417	3233
924.525	3214
924.633	3256
924.741	4177
924.849	3097
924.956	3264
925.064	3112
925.172	3051
925.279	3104
925.387	3184
925.494	3226
925.602	3332
925.709	3321
925.816	3203
925.924	3260
926.031	3370
926.138	3321
926.245	3340
926.352	3279
926.459	3431
926.566	3466
926.673	3317
926.779	3306
926.886	3256
926.993	3180
927.099	3138
927.206	3116
927.312	3104
927.419	3237
927.525	3142
927.631	3268
927.737	3123
927.843	3112
927.95	3017
928.056	3150
928.162	3184
928.267	3260
928.373	3876
928.479	3317
928.585	3081
928.69	3192
928.796	3253
928.901	3161
929.007	3066
929.112	3249
929.218	3188
929.323	3192
929.428	3154
929.533	3332
929.638	3131
929.743	3150
929.848	3249
929.953	3237
930.058	3157
930.163	3005
930.267	3043
930.372	3260
930.477	3032
930.581	3306
930.685	3188
930.79	3077
930.894	3108
930.998	3100
931.103	3249
931.207	2941
931.311	2937
931.415	2914
931.519	2773
931.623	2849
