Data from test_V78500241_1609.txt Node
Date: Fri Mar 25 16:26:21 CST 2022
User: usil
Spectrometer: V785-0024
Trigger mode: 0
Integration Time (sec): 4.000000E-1
Scans to average: 1
Nonlinearity correction enabled: false
Boxcar width: 0
Storing dark spectrum: false
XAxis mode: Wavelengths
Number of Pixels in Spectrum: 1024
>>>>>Begin Spectral Data<<<<<
801.071	2899
801.214	2990
801.356	2937
801.499	2899
801.641	2876
801.783	2975
801.926	3062
802.068	2998
802.211	3024
802.353	3055
802.496	3005
802.638	2998
802.78	3058
802.923	3116
803.065	3013
803.208	2899
803.35	2910
803.492	2967
803.635	2986
803.777	2754
803.919	2842
804.061	3222
804.204	2967
804.346	2922
804.488	2857
804.63	3001
804.773	2872
804.915	2895
805.057	3097
805.199	2948
805.341	2967
805.483	3062
805.626	3036
805.768	2967
805.91	3081
806.052	3116
806.194	3058
806.336	3268
806.478	3024
806.62	2963
806.762	2971
806.904	3081
807.046	3199
807.188	2994
807.33	2910
807.472	2994
807.614	2925
807.756	2971
807.898	2944
808.04	2895
808.182	2994
808.324	2975
808.465	2937
808.607	2883
808.749	2796
808.891	2845
809.033	2994
809.174	2971
809.316	2937
809.458	2887
809.6	2815
809.741	2762
809.883	2781
810.025	2845
810.166	2849
810.308	2845
810.45	2857
810.591	2766
810.733	2800
810.875	2849
811.016	2796
811.158	2773
811.299	2807
811.441	2956
811.582	2880
811.724	2838
811.865	2838
812.007	2895
812.148	2910
812.29	2876
812.431	2925
812.573	2933
812.714	2979
812.855	3055
812.997	3043
813.138	3131
813.279	3024
813.421	2986
813.562	3024
813.703	2906
813.845	2895
813.986	2758
814.127	2727
814.268	2834
814.41	2845
814.551	2826
814.692	2872
814.833	2807
814.974	2922
815.115	2963
815.256	2804
815.397	2811
815.539	2868
815.68	2792
815.821	2777
815.962	2963
816.103	2933
816.244	2887
816.385	2876
816.526	2963
816.666	2937
816.807	2762
816.948	2929
817.089	2902
817.23	2883
817.371	2792
817.512	2792
817.653	2834
817.793	2811
817.934	2868
818.075	2994
818.216	2994
818.356	3024
818.497	2880
818.638	2781
818.778	2792
818.919	2804
819.06	2766
819.2	2906
819.341	2830
819.481	2811
819.622	2929
819.762	3104
819.903	3043
820.043	2910
820.184	2967
820.324	2918
820.465	3005
820.605	2990
820.746	3055
820.886	2902
821.026	3093
821.167	3157
821.307	3264
821.447	3291
821.588	3203
821.728	3230
821.868	3142
822.008	3074
822.149	3233
822.289	3237
822.429	3100
822.569	3074
822.709	3184
822.849	3017
822.99	3085
823.13	3169
823.27	3230
823.41	3100
823.55	3100
823.69	3176
823.83	3199
823.97	3116
824.11	2986
824.25	3032
824.389	3062
824.529	3104
824.669	3055
824.809	3203
824.949	3253
825.089	3222
825.228	3195
825.368	3039
825.508	2948
825.648	2982
825.787	2994
825.927	3024
826.067	2982
826.206	2963
826.346	3043
826.485	3032
826.625	3138
826.765	3264
826.904	3214
827.044	2994
827.183	2925
827.323	2895
827.462	3001
827.601	2960
827.741	2941
827.88	2941
828.02	2849
828.159	2982
828.298	3047
828.437	3138
828.577	3047
828.716	3226
828.855	3070
828.994	2910
829.134	2910
829.273	2960
829.412	2872
829.551	2868
829.69	2902
829.829	3043
829.968	3150
830.107	3032
830.246	3009
830.385	2929
830.524	2944
830.663	2834
830.802	2724
830.941	2678
831.08	2697
831.219	2746
831.357	2743
831.496	2948
831.635	2754
831.774	2651
831.913	2682
832.051	2560
832.19	2606
832.329	2663
832.467	2583
832.606	2454
832.744	2602
832.883	2602
833.022	2613
833.16	2644
833.299	2674
833.437	2708
833.576	2701
833.714	2735
833.852	2750
833.991	2766
834.129	2883
834.267	2804
834.406	2815
834.544	2883
834.682	2868
834.821	2891
834.959	3085
835.097	2880
835.235	3066
835.373	3001
835.511	2990
835.65	2982
835.788	2948
835.926	2826
836.064	2811
836.202	2868
836.34	3108
836.478	3154
836.615	3047
836.753	3135
836.891	3173
837.029	3119
837.167	3123
837.305	3100
837.443	3062
837.58	2994
837.718	3157
837.856	3077
837.993	3036
838.131	3119
838.269	3097
838.406	3077
838.544	3066
838.681	2914
838.819	2937
838.956	2842
839.094	2830
839.231	2956
839.369	3043
839.506	3355
839.643	3233
839.781	2998
839.918	2967
840.055	3055
840.193	3036
840.33	3085
840.467	3108
840.604	3127
840.742	3378
840.879	3058
841.016	3074
841.153	3108
841.29	3344
841.427	3325
841.564	3260
841.701	3317
841.838	3230
841.975	3207
842.112	3222
842.249	3081
842.385	3017
842.522	3226
842.659	3081
842.796	3055
842.933	3116
843.069	3039
843.206	3036
843.343	3180
843.479	3093
843.616	3138
843.752	2929
843.889	2872
844.025	3058
844.162	2902
844.298	3043
844.435	2956
844.571	2922
844.708	3039
844.844	3199
844.98	3241
845.117	3237
845.253	3089
845.389	2998
845.525	3089
845.661	3074
845.798	2986
845.934	3074
846.07	3036
846.206	3230
846.342	3325
846.478	3222
846.614	3093
846.75	3047
846.886	3032
847.022	3214
847.158	3127
847.294	3184
847.429	3230
847.565	3222
847.701	3481
847.837	3047
847.972	2998
848.108	3150
848.244	3165
848.379	2990
848.515	2960
848.65	2887
848.786	2944
848.921	3036
849.057	3085
849.192	3116
849.328	3085
849.463	3142
849.598	3043
849.734	3013
849.869	2982
850.004	2895
850.14	2922
850.275	2883
850.41	2845
850.545	2918
850.68	2944
850.815	2956
850.95	2971
851.085	3195
851.22	3131
851.355	3036
851.49	3001
851.625	2998
851.76	3028
851.895	2937
852.03	2929
852.165	3028
852.299	3093
852.434	3192
852.569	3119
852.703	3180
852.838	3264
852.973	3344
853.107	3332
853.242	3150
853.376	3089
853.511	2960
853.645	3032
853.78	3230
853.914	3104
854.048	3119
854.183	3093
854.317	3142
854.451	3294
854.585	3100
854.72	3074
854.854	3230
854.988	3043
855.122	3100
855.256	3005
855.39	3123
855.524	3260
855.658	3214
855.792	3112
855.926	3203
856.06	3176
856.194	3272
856.327	3104
856.461	3074
856.595	3077
856.729	3077
856.862	3218
856.996	3192
857.13	3218
857.263	3245
857.397	3256
857.53	3127
857.664	3218
857.797	3253
857.931	3256
858.064	3161
858.197	3195
858.331	3135
858.464	3097
858.597	3001
858.731	3100
858.864	3138
858.997	3093
859.13	3176
859.263	3195
859.396	3192
859.529	3089
859.662	3127
859.795	3047
859.928	3108
860.061	3268
860.194	3287
860.327	3104
860.46	3127
860.592	3260
860.725	3233
860.858	3249
860.99	3104
861.123	3093
861.256	3039
861.388	3180
861.521	3876
861.653	3013
861.786	2975
861.918	3043
862.05	3051
862.183	3085
862.315	3100
862.447	3195
862.58	3108
862.712	2971
862.844	2891
862.976	3051
863.108	3028
863.24	3336
863.372	2864
863.504	2941
863.636	2971
863.768	2986
863.9	2998
864.032	2902
864.164	2941
864.296	3024
864.428	3077
864.559	3089
864.691	3062
864.823	3013
864.954	3020
865.086	3047
865.217	2998
865.349	2929
865.48	2994
865.612	3017
865.743	3119
865.875	2998
866.006	2963
866.137	2971
866.269	2975
866.4	2937
866.531	2914
866.662	2914
866.793	2864
866.924	2922
867.055	2960
867.186	2929
867.317	2891
867.448	2800
867.579	2887
867.71	2868
867.841	2800
867.972	2876
868.103	2880
868.233	2910
868.364	2887
868.495	2895
868.625	3074
868.756	3165
868.886	2967
869.017	3028
869.147	3157
869.278	3154
869.408	3036
869.539	3013
869.669	3116
869.799	3047
869.929	3131
870.06	3089
870.19	3294
870.32	3245
870.45	3321
870.58	3412
870.71	3435
870.84	3420
870.97	3291
871.1	3211
871.23	3462
871.36	3466
871.489	3348
871.619	3378
871.749	3412
871.879	3481
872.008	3473
872.138	3393
872.267	3279
872.397	3104
872.526	3108
872.656	3020
872.785	3074
872.915	3222
873.044	3302
873.173	3222
873.303	3233
873.432	3237
873.561	3203
873.69	3154
873.819	3135
873.948	3157
874.077	3104
874.206	3039
874.335	3077
874.464	3233
874.593	3348
874.722	3245
874.851	3367
874.979	3351
875.108	3325
875.237	3184
875.365	3119
875.494	3180
875.623	3222
875.751	3081
875.88	3123
876.008	3161
876.136	3188
876.265	3351
876.393	3481
876.521	3397
876.65	3367
876.778	3313
876.906	3222
877.034	3214
877.162	3214
877.29	3176
877.418	3237
877.546	3275
877.674	3237
877.802	3211
877.93	3199
878.058	3146
878.185	3093
878.313	3173
878.441	3192
878.568	3100
878.696	3169
878.824	3233
878.951	3294
879.079	3435
879.206	3671
879.333	3401
879.461	3336
879.588	3389
879.715	3504
879.842	3553
879.97	3363
880.097	3184
880.224	3138
880.351	3222
880.478	3192
880.605	3203
880.732	3176
880.859	3526
880.986	3298
881.112	3313
881.239	3184
881.366	3058
881.493	3005
881.619	3043
881.746	3070
881.872	3093
881.999	3097
882.125	3112
882.252	3237
882.378	3298
882.505	3431
882.631	3313
882.757	3127
882.883	3279
883.01	3245
883.136	3142
883.262	3100
883.388	3093
883.514	3268
883.64	3370
883.766	3283
883.892	3146
884.018	3256
884.143	3370
884.269	3523
884.395	3211
884.52	3154
884.646	3146
884.772	3112
884.897	3100
885.023	3203
885.148	3340
885.274	3424
885.399	3393
885.524	3275
885.65	3272
885.775	3306
885.9	3287
886.025	3412
886.15	3393
886.275	3291
886.4	3249
886.525	3321
886.65	3275
886.775	3283
886.9	3507
887.025	3610
887.149	3393
887.274	3249
887.399	3173
887.523	3207
887.648	3233
887.773	3195
887.897	3397
888.021	3386
888.146	3310
888.27	3389
888.395	3526
888.519	3435
888.643	3409
888.767	3416
888.891	3298
889.015	3253
889.139	3260
889.263	3249
889.387	3420
889.511	3481
889.635	3462
889.759	3294
889.883	3291
890.006	3412
890.13	3488
890.254	3275
890.377	3359
890.501	3192
890.624	3188
890.748	3302
890.871	3180
890.995	3070
891.118	3036
891.241	3211
891.364	3233
891.488	3302
891.611	3214
891.734	3241
891.857	3306
891.98	3226
892.103	3306
892.226	3310
892.349	3233
892.471	3108
892.594	3272
892.717	3317
892.839	3283
892.962	3268
893.085	3313
893.207	3283
893.33	3142
893.452	3222
893.575	3310
893.697	3264
893.819	3443
893.941	3492
894.064	3485
894.186	3214
894.308	3241
894.43	3424
894.552	3542
894.674	3428
894.796	3260
894.918	3329
895.04	3291
895.161	3450
895.283	3359
895.405	3306
895.526	3374
895.648	3443
895.769	3367
895.891	3405
896.012	3469
896.134	3473
896.255	3412
896.376	3370
896.498	3329
896.619	3424
896.74	3378
896.861	3409
896.982	3671
897.103	3812
897.224	3622
897.345	3504
897.466	3424
897.587	3511
897.708	3603
897.828	3576
897.949	3447
898.07	3363
898.19	3389
898.311	3591
898.431	3412
898.552	3515
898.672	3603
898.792	3534
898.913	3526
899.033	3428
899.153	3325
899.273	3237
899.393	3272
899.513	3287
899.633	3317
899.753	3344
899.873	3310
899.993	3367
900.113	3313
900.232	3363
900.352	3313
900.472	3298
900.591	3176
900.711	3272
900.83	3207
900.95	3435
901.069	3534
901.189	3332
901.308	3184
901.427	3138
901.546	3192
901.665	3298
901.784	3329
901.904	3207
902.023	3123
902.141	3017
902.26	3005
902.379	3146
902.498	3112
902.617	3077
902.735	3214
902.854	3226
902.973	3203
903.091	3036
903.21	3062
903.328	3131
903.446	3150
903.565	3112
903.683	3180
903.801	3150
903.919	3253
904.038	3287
904.156	3195
904.274	3268
904.392	3249
904.51	3268
904.627	3367
904.745	3431
904.863	3473
904.981	3298
905.098	3157
905.216	3237
905.334	3275
905.451	3283
905.569	3291
905.686	3401
905.803	3447
905.921	3264
906.038	3454
906.155	3363
906.272	3279
906.389	3313
906.506	3230
906.623	3272
906.74	3249
906.857	3165
906.974	3222
907.091	3458
907.208	3576
907.324	3458
907.441	3367
907.557	3195
907.674	3222
907.79	3195
907.907	3294
908.023	3405
908.139	3355
908.256	3348
908.372	3329
908.488	3348
908.604	3272
908.72	3218
908.836	3275
908.952	3317
909.068	3344
909.184	3507
909.3	3428
909.415	3477
909.531	3466
909.647	3272
909.762	3260
909.878	3237
909.993	3386
910.108	3329
910.224	3291
910.339	3424
910.454	3329
910.57	3317
910.685	3264
910.8	3591
910.915	3549
911.03	3485
911.145	3272
911.259	3268
911.374	3287
911.489	3237
911.604	3249
911.718	3123
911.833	3154
911.947	3032
912.062	2941
912.176	3165
912.291	3184
912.405	3169
912.519	3370
912.633	3450
912.748	3294
912.862	3256
912.976	3173
913.09	3051
913.204	3070
913.318	3199
913.431	3329
913.545	3298
913.659	3412
913.772	3306
913.886	3214
914	3211
914.113	3348
914.226	3431
914.34	3386
914.453	3241
914.566	3393
914.68	3256
914.793	3302
914.906	3142
915.019	3119
915.132	3058
915.245	3146
915.358	3192
915.47	3230
915.583	3283
915.696	3302
915.809	3363
915.921	3428
916.034	3245
916.146	3279
916.259	3180
916.371	3367
916.483	3382
916.595	3264
916.708	3355
916.82	3336
916.932	3332
917.044	3321
917.156	3348
917.268	3233
917.38	3256
917.491	3279
917.603	3332
917.715	3439
917.826	3447
917.938	3355
918.049	3253
918.161	3435
918.272	3633
918.384	3542
918.495	3534
918.606	3332
918.717	3283
918.828	3367
918.939	3389
919.05	3283
919.161	3405
919.272	3188
919.383	3283
919.494	3481
919.604	3686
919.715	3458
919.826	3389
919.936	3473
920.047	3580
920.157	3542
920.267	3774
920.378	3622
920.488	3561
920.598	3778
920.708	3953
920.818	3842
920.928	3896
921.038	3991
921.148	3972
921.258	3709
921.368	3663
921.477	3545
921.587	3534
921.697	3428
921.806	3625
921.916	3519
922.025	3401
922.134	3355
922.244	3310
922.353	3428
922.462	3291
922.571	3188
922.68	3074
922.789	3070
922.898	3108
923.007	3116
923.116	3245
923.224	3173
923.333	3165
923.442	3142
923.55	3089
923.659	3146
923.767	3226
923.876	3093
923.984	3241
924.092	3097
924.201	3218
924.309	3260
924.417	3291
924.525	3169
924.633	3249
924.741	4196
924.849	3070
924.956	3241
925.064	3119
925.172	3017
925.279	3089
925.387	3203
925.494	3195
925.602	3367
925.709	3321
925.816	3214
925.924	3310
926.031	3374
926.138	3344
926.245	3340
926.352	3222
926.459	3382
926.566	3466
926.673	3306
926.779	3249
926.886	3260
926.993	3154
927.099	3138
927.206	3112
927.312	3127
927.419	3233
927.525	3173
927.631	3222
927.737	3108
927.843	3131
927.95	3005
928.056	3146
928.162	3192
928.267	3268
928.373	3892
928.479	3272
928.585	3074
928.69	3226
928.796	3260
928.901	3138
929.007	3047
929.112	3241
929.218	3192
929.323	3173
929.428	3142
929.533	3302
929.638	3116
929.743	3131
929.848	3211
929.953	3207
930.058	3131
930.163	3020
930.267	3036
930.372	3154
930.477	3036
930.581	3310
930.685	3169
930.79	3032
930.894	3100
930.998	3039
931.103	3283
931.207	2990
931.311	2925
931.415	2929
931.519	2815
931.623	2792
