Data from test_V78500241_48.txt Node
Date: Fri Mar 25 16:15:32 CST 2022
User: usil
Spectrometer: V785-0024
Trigger mode: 0
Integration Time (sec): 4.000000E-1
Scans to average: 1
Nonlinearity correction enabled: false
Boxcar width: 0
Storing dark spectrum: false
XAxis mode: Wavelengths
Number of Pixels in Spectrum: 1024
>>>>>Begin Spectral Data<<<<<
801.071	2960
801.214	2994
801.356	2895
801.499	2967
801.641	2925
801.783	2952
801.926	3066
802.068	2979
802.211	3051
802.353	3066
802.496	2994
802.638	3058
802.78	3119
802.923	3112
803.065	3081
803.208	2956
803.35	2960
803.492	3047
803.635	2982
803.777	2823
803.919	2922
804.061	3233
804.204	3036
804.346	2944
804.488	2876
804.63	2994
804.773	2948
804.915	2918
805.057	3157
805.199	2956
805.341	3039
805.483	3112
805.626	3051
805.768	3051
805.91	3150
806.052	3150
806.194	3097
806.336	3218
806.478	3085
806.62	2960
806.762	3020
806.904	3116
807.046	3184
807.188	3043
807.33	2910
807.472	3009
807.614	2952
807.756	3039
807.898	2948
808.04	2963
808.182	3020
808.324	2956
808.465	2887
808.607	2941
808.749	2834
808.891	2845
809.033	3032
809.174	3017
809.316	2929
809.458	2933
809.6	2788
809.741	2838
809.883	2807
810.025	2872
810.166	2902
810.308	2861
810.45	2899
810.591	2807
810.733	2754
810.875	2861
811.016	2807
811.158	2804
811.299	2868
811.441	2963
811.582	2925
811.724	2857
811.865	2857
812.007	2960
812.148	2895
812.29	2872
812.431	2914
812.573	2990
812.714	2986
812.855	3077
812.997	3085
813.138	3104
813.279	3020
813.421	2990
813.562	3028
813.703	2910
813.845	2933
813.986	2811
814.127	2750
814.268	2853
814.41	2872
814.551	2861
814.692	2902
814.833	2853
814.974	2929
815.115	3009
815.256	2857
815.397	2849
815.539	2891
815.68	2781
815.821	2815
815.962	2944
816.103	2982
816.244	2937
816.385	2891
816.526	3005
816.666	2941
816.807	2819
816.948	2925
817.089	2937
817.23	2925
817.371	2811
817.512	2849
817.653	2876
817.793	2845
817.934	2925
818.075	3020
818.216	3024
818.356	3028
818.497	2918
818.638	2823
818.778	2887
818.919	2781
819.06	2800
819.2	2883
819.341	2853
819.481	2845
819.622	2941
819.762	3100
819.903	3093
820.043	2963
820.184	2895
820.324	2922
820.465	3036
820.605	3051
820.746	3039
820.886	2986
821.026	3142
821.167	3173
821.307	3279
821.447	3332
821.588	3268
821.728	3237
821.868	3253
822.008	3131
822.149	3241
822.289	3268
822.429	3161
822.569	3150
822.709	3268
822.849	3093
822.99	3138
823.13	3241
823.27	3260
823.41	3173
823.55	3218
823.69	3237
823.83	3249
823.97	3150
824.11	3055
824.25	3097
824.389	3112
824.529	3192
824.669	3123
824.809	3268
824.949	3351
825.089	3272
825.228	3237
825.368	3062
825.508	3020
825.648	3036
825.787	3081
825.927	3097
826.067	3062
826.206	3017
826.346	3135
826.485	3169
826.625	3173
826.765	3386
826.904	3275
827.044	3066
827.183	3013
827.323	2925
827.462	3024
827.601	2941
827.741	2990
827.88	3036
828.02	2933
828.159	3051
828.298	3104
828.437	3195
828.577	3142
828.716	3325
828.855	3150
828.994	2979
829.134	2952
829.273	2982
829.412	2948
829.551	2956
829.69	2979
829.829	3062
829.968	3230
830.107	3097
830.246	3081
830.385	2952
830.524	2944
830.663	2883
830.802	2815
830.941	2750
831.08	2678
831.219	2838
831.357	2826
831.496	2994
831.635	2796
831.774	2701
831.913	2731
832.051	2617
832.19	2655
832.329	2750
832.467	2575
832.606	2575
832.744	2667
832.883	2632
833.022	2632
833.16	2739
833.299	2769
833.437	2769
833.576	2766
833.714	2804
833.852	2792
833.991	2815
834.129	2918
834.267	2902
834.406	2883
834.544	2948
834.682	2967
834.821	2937
834.959	3157
835.097	3001
835.235	3112
835.373	3058
835.511	3062
835.65	3009
835.788	3028
835.926	2895
836.064	2864
836.202	2918
836.34	3173
836.478	3237
836.615	3112
836.753	3211
836.891	3294
837.029	3256
837.167	3188
837.305	3131
837.443	3116
837.58	3028
837.718	3211
837.856	3157
837.993	3127
838.131	3180
838.269	3150
838.406	3157
838.544	3173
838.681	3058
838.819	2986
838.956	2891
839.094	2937
839.231	2963
839.369	3077
839.506	3500
839.643	3302
839.781	3085
839.918	3032
840.055	3146
840.193	3138
840.33	3123
840.467	3154
840.604	3237
840.742	3485
840.879	3112
841.016	3138
841.153	3161
841.29	3393
841.427	3351
841.564	3329
841.701	3378
841.838	3287
841.975	3230
842.112	3279
842.249	3131
842.385	3097
842.522	3321
842.659	3154
842.796	3127
842.933	3180
843.069	3104
843.206	3074
843.343	3287
843.479	3180
843.616	3195
843.752	2948
843.889	2971
844.025	3165
844.162	2948
844.298	3184
844.435	3047
844.571	2979
844.708	3142
844.844	3260
844.98	3279
845.117	3302
845.253	3135
845.389	3085
845.525	3146
845.661	3192
845.798	3093
845.934	3203
846.07	3112
846.206	3329
846.342	3386
846.478	3321
846.614	3131
846.75	3077
846.886	3108
847.022	3325
847.158	3218
847.294	3226
847.429	3355
847.565	3302
847.701	3576
847.837	3097
847.972	3081
848.108	3218
848.244	3211
848.379	3036
848.515	3005
848.65	2982
848.786	3043
848.921	3074
849.057	3135
849.192	3218
849.328	3138
849.463	3142
849.598	3097
849.734	3097
849.869	3070
850.004	3013
850.14	3005
850.275	3017
850.41	2883
850.545	2956
850.68	2952
850.815	3001
850.95	3028
851.085	3253
851.22	3184
851.355	3097
851.49	3077
851.625	3020
851.76	3093
851.895	3017
852.03	2994
852.165	3097
852.299	3154
852.434	3275
852.569	3233
852.703	3241
852.838	3313
852.973	3416
853.107	3397
853.242	3237
853.376	3146
853.511	3028
853.645	3074
853.78	3336
853.914	3157
854.048	3192
854.183	3116
854.317	3207
854.451	3359
854.585	3180
854.72	3112
854.854	3249
854.988	3116
855.122	3150
855.256	3024
855.39	3176
855.524	3302
855.658	3245
855.792	3245
855.926	3272
856.06	3279
856.194	3348
856.327	3192
856.461	3119
856.595	3154
856.729	3188
856.862	3317
856.996	3230
857.13	3272
857.263	3313
857.397	3378
857.53	3161
857.664	3287
857.797	3340
857.931	3367
858.064	3233
858.197	3298
858.331	3203
858.464	3142
858.597	3085
858.731	3146
858.864	3218
858.997	3165
859.13	3207
859.263	3222
859.396	3264
859.529	3188
859.662	3119
859.795	3112
859.928	3195
860.061	3359
860.194	3389
860.327	3195
860.46	3154
860.592	3332
860.725	3298
860.858	3306
860.99	3161
861.123	3108
861.256	3112
861.388	3192
861.521	3949
861.653	3047
861.786	3051
861.918	3070
862.05	3142
862.183	3176
862.315	3245
862.447	3260
862.58	3184
862.712	3020
862.844	2910
862.976	3085
863.108	3043
863.24	3355
863.372	2906
863.504	3017
863.636	3017
863.768	3062
863.9	3058
864.032	2956
864.164	2998
864.296	3058
864.428	3165
864.559	3203
864.691	3108
864.823	3138
864.954	3127
865.086	3116
865.217	3100
865.349	3013
865.48	3020
865.612	3077
865.743	3169
865.875	3055
866.006	3039
866.137	3085
866.269	3017
866.4	2986
866.531	2933
866.662	2933
866.793	2937
866.924	2960
867.055	3058
867.186	3001
867.317	2948
867.448	2895
867.579	2887
867.71	2948
867.841	2861
867.972	2937
868.103	2929
868.233	2937
868.364	2922
868.495	2937
868.625	3131
868.756	3207
868.886	3051
869.017	3081
869.147	3226
869.278	3264
869.408	3119
869.539	3074
869.669	3165
869.799	3081
869.929	3180
870.06	3169
870.19	3397
870.32	3359
870.45	3367
870.58	3447
870.71	3500
870.84	3507
870.97	3351
871.1	3321
871.23	3561
871.36	3523
871.489	3462
871.619	3462
871.749	3492
871.879	3488
872.008	3507
872.138	3454
872.267	3336
872.397	3192
872.526	3157
872.656	3032
872.785	3184
872.915	3272
873.044	3363
873.173	3291
873.303	3268
873.432	3249
873.561	3313
873.69	3218
873.819	3195
873.948	3241
874.077	3154
874.206	3161
874.335	3184
874.464	3279
874.593	3412
874.722	3291
874.851	3469
874.979	3450
875.108	3363
875.237	3264
875.365	3241
875.494	3230
875.623	3275
875.751	3119
875.88	3180
876.008	3256
876.136	3306
876.265	3424
876.393	3545
876.521	3439
876.65	3473
876.778	3344
876.906	3275
877.034	3260
877.162	3268
877.29	3260
877.418	3306
877.546	3291
877.674	3313
877.802	3279
877.93	3268
878.058	3230
878.185	3169
878.313	3264
878.441	3260
878.568	3108
878.696	3199
878.824	3302
878.951	3367
879.079	3504
879.206	3679
879.333	3473
879.461	3393
879.588	3393
879.715	3587
879.842	3656
879.97	3458
880.097	3245
880.224	3207
880.351	3249
880.478	3272
880.605	3226
880.732	3233
880.859	3542
880.986	3367
881.112	3378
881.239	3275
881.366	3146
881.493	3100
881.619	3077
881.746	3119
881.872	3146
881.999	3173
882.125	3214
882.252	3275
882.378	3317
882.505	3492
882.631	3359
882.757	3214
882.883	3260
883.01	3325
883.136	3199
883.262	3146
883.388	3173
883.514	3374
883.64	3435
883.766	3348
883.892	3226
884.018	3302
884.143	3481
884.269	3629
884.395	3241
884.52	3218
884.646	3268
884.772	3180
884.897	3157
885.023	3241
885.148	3397
885.274	3435
885.399	3401
885.524	3351
885.65	3302
885.775	3370
885.9	3344
886.025	3473
886.15	3378
886.275	3359
886.4	3306
886.525	3374
886.65	3348
886.775	3332
886.9	3572
887.025	3728
887.149	3496
887.274	3310
887.399	3256
887.523	3256
887.648	3241
887.773	3253
887.897	3469
888.021	3462
888.146	3344
888.27	3488
888.395	3595
888.519	3496
888.643	3477
888.767	3515
888.891	3336
889.015	3260
889.139	3321
889.263	3287
889.387	3462
889.511	3580
889.635	3515
889.759	3329
889.883	3340
890.006	3401
890.13	3515
890.254	3317
890.377	3405
890.501	3260
890.624	3230
890.748	3317
890.871	3226
890.995	3195
891.118	3104
891.241	3230
891.364	3283
891.488	3382
891.611	3207
891.734	3272
891.857	3348
891.98	3279
892.103	3386
892.226	3363
892.349	3272
892.471	3154
892.594	3294
892.717	3329
892.839	3325
892.962	3310
893.085	3367
893.207	3359
893.33	3188
893.452	3218
893.575	3393
893.697	3294
893.819	3534
893.941	3542
894.064	3530
894.186	3294
894.308	3378
894.43	3473
894.552	3587
894.674	3553
894.796	3370
894.918	3348
895.04	3340
895.161	3496
895.283	3454
895.405	3355
895.526	3397
895.648	3462
895.769	3504
895.891	3492
896.012	3534
896.134	3496
896.255	3469
896.376	3462
896.498	3424
896.619	3488
896.74	3424
896.861	3443
896.982	3740
897.103	3899
897.224	3652
897.345	3587
897.466	3439
897.587	3519
897.708	3682
897.828	3603
897.949	3530
898.07	3378
898.19	3477
898.311	3690
898.431	3488
898.552	3557
898.672	3614
898.792	3629
898.913	3564
899.033	3412
899.153	3336
899.273	3291
899.393	3321
899.513	3370
899.633	3355
899.753	3401
899.873	3374
899.993	3462
900.113	3424
900.232	3466
900.352	3420
900.472	3351
900.591	3237
900.711	3348
900.83	3291
900.95	3485
901.069	3538
901.189	3382
901.308	3211
901.427	3184
901.546	3291
901.665	3344
901.784	3401
901.904	3256
902.023	3169
902.141	3070
902.26	3043
902.379	3207
902.498	3146
902.617	3108
902.735	3253
902.854	3272
902.973	3203
903.091	3058
903.21	3085
903.328	3173
903.446	3161
903.565	3116
903.683	3260
903.801	3169
903.919	3260
904.038	3332
904.156	3218
904.274	3332
904.392	3317
904.51	3344
904.627	3386
904.745	3477
904.863	3557
904.981	3302
905.098	3237
905.216	3253
905.334	3359
905.451	3306
905.569	3336
905.686	3450
905.803	3526
905.921	3310
906.038	3454
906.155	3389
906.272	3359
906.389	3374
906.506	3294
906.623	3336
906.74	3310
906.857	3260
906.974	3329
907.091	3466
907.208	3622
907.324	3526
907.441	3435
907.557	3287
907.674	3260
907.79	3272
907.907	3306
908.023	3409
908.139	3447
908.256	3359
908.372	3454
908.488	3397
908.604	3302
908.72	3256
908.836	3329
908.952	3302
909.068	3401
909.184	3564
909.3	3435
909.415	3553
909.531	3515
909.647	3329
909.762	3363
909.878	3325
909.993	3420
910.108	3367
910.224	3378
910.339	3458
910.454	3367
910.57	3317
910.685	3283
910.8	3629
910.915	3576
911.03	3492
911.145	3329
911.259	3313
911.374	3382
911.489	3272
911.604	3253
911.718	3157
911.833	3165
911.947	3066
912.062	3017
912.176	3195
912.291	3272
912.405	3283
912.519	3481
912.633	3504
912.748	3374
912.862	3317
912.976	3230
913.09	3108
913.204	3173
913.318	3253
913.431	3397
913.545	3363
913.659	3439
913.772	3378
913.886	3249
914	3249
914.113	3439
914.226	3458
914.34	3409
914.453	3256
914.566	3485
914.68	3363
914.793	3348
914.906	3180
915.019	3161
915.132	3093
915.245	3199
915.358	3237
915.47	3283
915.583	3321
915.696	3367
915.809	3481
915.921	3466
916.034	3317
916.146	3279
916.259	3260
916.371	3420
916.483	3386
916.595	3317
916.708	3355
916.82	3370
916.932	3355
917.044	3378
917.156	3359
917.268	3321
917.38	3340
917.491	3321
917.603	3409
917.715	3488
917.826	3526
917.938	3447
918.049	3264
918.161	3447
918.272	3580
918.384	3599
918.495	3523
918.606	3393
918.717	3363
918.828	3405
918.939	3473
919.05	3367
919.161	3393
919.272	3195
919.383	3306
919.494	3553
919.604	3751
919.715	3542
919.826	3481
919.936	3469
920.047	3625
920.157	3614
920.267	3827
920.378	3633
920.488	3633
920.598	3861
920.708	4013
920.818	3892
920.928	3896
921.038	4139
921.148	4006
921.258	3720
921.368	3679
921.477	3587
921.587	3603
921.697	3477
921.806	3701
921.916	3553
922.025	3401
922.134	3409
922.244	3367
922.353	3447
922.462	3321
922.571	3264
922.68	3146
922.789	3135
922.898	3214
923.007	3154
923.116	3241
923.224	3222
923.333	3222
923.442	3176
923.55	3188
923.659	3207
923.767	3260
923.876	3184
923.984	3268
924.092	3135
924.201	3241
924.309	3291
924.417	3302
924.525	3245
924.633	3275
924.741	4284
924.849	3093
924.956	3321
925.064	3127
925.172	3093
925.279	3119
925.387	3245
925.494	3207
925.602	3378
925.709	3389
925.816	3237
925.924	3340
926.031	3439
926.138	3389
926.245	3397
926.352	3306
926.459	3431
926.566	3492
926.673	3344
926.779	3291
926.886	3294
926.993	3199
927.099	3154
927.206	3176
927.312	3176
927.419	3226
927.525	3218
927.631	3332
927.737	3169
927.843	3119
927.95	3043
928.056	3173
928.162	3222
928.267	3306
928.373	3838
928.479	3332
928.585	3135
928.69	3241
928.796	3302
928.901	3214
929.007	3127
929.112	3275
929.218	3233
929.323	3214
929.428	3195
929.533	3367
929.638	3146
929.743	3195
929.848	3336
929.953	3214
930.058	3188
930.163	3032
930.267	3074
930.372	3222
930.477	3077
930.581	3359
930.685	3237
930.79	3089
930.894	3173
930.998	3142
931.103	3332
931.207	2998
931.311	2967
931.415	2963
931.519	2800
931.623	2819
