Data from test_V78500241_1169.txt Node
Date: Fri Mar 25 16:23:18 CST 2022
User: usil
Spectrometer: V785-0024
Trigger mode: 0
Integration Time (sec): 4.000000E-1
Scans to average: 1
Nonlinearity correction enabled: false
Boxcar width: 0
Storing dark spectrum: false
XAxis mode: Wavelengths
Number of Pixels in Spectrum: 1024
>>>>>Begin Spectral Data<<<<<
801.071	2895
801.214	2925
801.356	2880
801.499	2899
801.641	2864
801.783	2887
801.926	3036
802.068	2979
802.211	2963
802.353	3028
802.496	2944
802.638	2990
802.78	3043
802.923	3085
803.065	3005
803.208	2914
803.35	2922
803.492	2933
803.635	2925
803.777	2739
803.919	2815
804.061	3180
804.204	2887
804.346	2906
804.488	2853
804.63	2975
804.773	2876
804.915	2922
805.057	3074
805.199	2872
805.341	2960
805.483	3020
805.626	3009
805.768	2971
805.91	3051
806.052	3097
806.194	3013
806.336	3249
806.478	3032
806.62	2941
806.762	2986
806.904	3062
807.046	3180
807.188	2986
807.33	2887
807.472	3001
807.614	2872
807.756	2967
807.898	2922
808.04	2922
808.182	2986
808.324	2918
808.465	2872
808.607	2872
808.749	2773
808.891	2834
809.033	2960
809.174	2986
809.316	2883
809.458	2853
809.6	2754
809.741	2777
809.883	2769
810.025	2811
810.166	2868
810.308	2876
810.45	2880
810.591	2754
810.733	2743
810.875	2815
811.016	2758
811.158	2754
811.299	2804
811.441	2933
811.582	2876
811.724	2788
811.865	2807
812.007	2883
812.148	2872
812.29	2880
812.431	2891
812.573	2979
812.714	2963
812.855	3024
812.997	3024
813.138	3074
813.279	3017
813.421	2952
813.562	2963
813.703	2876
813.845	2887
813.986	2727
814.127	2754
814.268	2849
814.41	2815
814.551	2830
814.692	2872
814.833	2815
814.974	2910
815.115	2937
815.256	2838
815.397	2804
815.539	2861
815.68	2758
815.821	2823
815.962	2876
816.103	2952
816.244	2849
816.385	2868
816.526	2944
816.666	2918
816.807	2727
816.948	2887
817.089	2876
817.23	2883
817.371	2792
817.512	2773
817.653	2853
817.793	2800
817.934	2872
818.075	2937
818.216	2990
818.356	2998
818.497	2902
818.638	2777
818.778	2777
818.919	2777
819.06	2731
819.2	2864
819.341	2788
819.481	2792
819.622	2933
819.762	3108
819.903	3066
820.043	2933
820.184	2895
820.324	2891
820.465	3051
820.605	3005
820.746	2990
820.886	2937
821.026	3093
821.167	3157
821.307	3260
821.447	3260
821.588	3256
821.728	3195
821.868	3241
822.008	3066
822.149	3150
822.289	3241
822.429	3093
822.569	3062
822.709	3165
822.849	3017
822.99	3089
823.13	3135
823.27	3203
823.41	3116
823.55	3146
823.69	3135
823.83	3188
823.97	3104
824.11	2967
824.25	2986
824.389	3047
824.529	3047
824.669	3043
824.809	3192
824.949	3253
825.089	3203
825.228	3195
825.368	2982
825.508	2922
825.648	2971
825.787	2998
825.927	2986
826.067	2971
826.206	2967
826.346	3062
826.485	3036
826.625	3100
826.765	3291
826.904	3173
827.044	2937
827.183	2937
827.323	2842
827.462	2956
827.601	2910
827.741	2922
827.88	2963
828.02	2811
828.159	2971
828.298	3066
828.437	3112
828.577	3032
828.716	3253
828.855	3081
828.994	2883
829.134	2853
829.273	2914
829.412	2868
829.551	2857
829.69	2861
829.829	2994
829.968	3112
830.107	3009
830.246	3051
830.385	2914
830.524	2861
830.663	2800
830.802	2708
830.941	2606
831.08	2625
831.219	2739
831.357	2739
831.496	2956
831.635	2689
831.774	2621
831.913	2648
832.051	2533
832.19	2575
832.329	2708
832.467	2541
832.606	2495
832.744	2568
832.883	2583
833.022	2556
833.16	2632
833.299	2674
833.437	2701
833.576	2701
833.714	2735
833.852	2716
833.991	2762
834.129	2800
834.267	2845
834.406	2785
834.544	2895
834.682	2842
834.821	2845
834.959	3055
835.097	2883
835.235	3024
835.373	2967
835.511	2986
835.65	2944
835.788	2941
835.926	2819
836.064	2769
836.202	2823
836.34	3089
836.478	3165
836.615	3032
836.753	3100
836.891	3195
837.029	3165
837.167	3116
837.305	3081
837.443	3017
837.58	2963
837.718	3146
837.856	3066
837.993	3017
838.131	3085
838.269	3108
838.406	3089
838.544	3074
838.681	2929
838.819	2906
838.956	2819
839.094	2819
839.231	2891
839.369	3001
839.506	3416
839.643	3214
839.781	3039
839.918	2963
840.055	3062
840.193	3043
840.33	3066
840.467	3093
840.604	3127
840.742	3389
840.879	3062
841.016	3043
841.153	3081
841.29	3306
841.427	3283
841.564	3260
841.701	3302
841.838	3214
841.975	3161
842.112	3218
842.249	3093
842.385	3055
842.522	3233
842.659	3104
842.796	3062
842.933	3058
843.069	3036
843.206	3024
843.343	3150
843.479	3097
843.616	3127
843.752	2857
843.889	2876
844.025	3074
844.162	2880
844.298	3051
844.435	2941
844.571	2929
844.708	3055
844.844	3203
844.98	3214
845.117	3176
845.253	3032
845.389	3001
845.525	3093
845.661	3058
845.798	3005
845.934	3119
846.07	3062
846.206	3230
846.342	3302
846.478	3203
846.614	3085
846.75	3066
846.886	3028
847.022	3249
847.158	3146
847.294	3180
847.429	3218
847.565	3184
847.701	3466
847.837	3039
847.972	3013
848.108	3154
848.244	3131
848.379	2979
848.515	2922
848.65	2948
848.786	2941
848.921	3013
849.057	3116
849.192	3146
849.328	3036
849.463	3112
849.598	3058
849.734	3043
849.869	2937
850.004	2902
850.14	3013
850.275	2937
850.41	2845
850.545	2899
850.68	2922
850.815	2933
850.95	2994
851.085	3222
851.22	3070
851.355	3036
851.49	2998
851.625	2963
851.76	3001
851.895	2891
852.03	2872
852.165	3066
852.299	3085
852.434	3176
852.569	3108
852.703	3154
852.838	3214
852.973	3340
853.107	3348
853.242	3146
853.376	3055
853.511	2937
853.645	3020
853.78	3222
853.914	3116
854.048	3108
854.183	3085
854.317	3135
854.451	3253
854.585	3108
854.72	3070
854.854	3180
854.988	3066
855.122	3142
855.256	2971
855.39	3097
855.524	3233
855.658	3142
855.792	3119
855.926	3169
856.06	3176
856.194	3249
856.327	3150
856.461	3058
856.595	3074
856.729	3093
856.862	3207
856.996	3161
857.13	3207
857.263	3207
857.397	3332
857.53	3104
857.664	3176
857.797	3230
857.931	3275
858.064	3157
858.197	3188
858.331	3157
858.464	3070
858.597	3009
858.731	3108
858.864	3131
858.997	3093
859.13	3138
859.263	3142
859.396	3180
859.529	3077
859.662	3062
859.795	3024
859.928	3093
860.061	3272
860.194	3256
860.327	3100
860.46	3070
860.592	3233
860.725	3199
860.858	3287
860.99	3077
861.123	3051
861.256	3013
861.388	3097
861.521	3660
861.653	3043
861.786	2982
861.918	2971
862.05	3013
862.183	3100
862.315	3116
862.447	3123
862.58	3043
862.712	2933
862.844	2845
862.976	3028
863.108	3032
863.24	3298
863.372	2876
863.504	2929
863.636	2937
863.768	3024
863.9	2971
864.032	2929
864.164	2910
864.296	3017
864.428	3104
864.559	3058
864.691	3051
864.823	3043
864.954	3039
865.086	3032
865.217	2967
865.349	2967
865.48	2979
865.612	2998
865.743	3100
865.875	2979
866.006	2948
866.137	2967
866.269	2963
866.4	2941
866.531	2918
866.662	2880
866.793	2872
866.924	2929
867.055	2975
867.186	2895
867.317	2891
867.448	2849
867.579	2853
867.71	2853
867.841	2857
867.972	2864
868.103	2864
868.233	2887
868.364	2868
868.495	2891
868.625	3055
868.756	3150
868.886	2956
869.017	2975
869.147	3150
869.278	3150
869.408	3001
869.539	2990
869.669	3085
869.799	3047
869.929	3089
870.06	3104
870.19	3287
870.32	3321
870.45	3287
870.58	3367
870.71	3485
870.84	3462
870.97	3241
871.1	3275
871.23	3466
871.36	3454
871.489	3355
871.619	3348
871.749	3409
871.879	3401
872.008	3447
872.138	3382
872.267	3298
872.397	3138
872.526	3070
872.656	2990
872.785	3081
872.915	3207
873.044	3325
873.173	3195
873.303	3222
873.432	3230
873.561	3275
873.69	3138
873.819	3123
873.948	3176
874.077	3108
874.206	3032
874.335	3085
874.464	3157
874.593	3359
874.722	3249
874.851	3401
874.979	3317
875.108	3287
875.237	3176
875.365	3146
875.494	3123
875.623	3226
875.751	3070
875.88	3142
876.008	3195
876.136	3203
876.265	3367
876.393	3481
876.521	3397
876.65	3389
876.778	3317
876.906	3253
877.034	3180
877.162	3203
877.29	3184
877.418	3249
877.546	3237
877.674	3268
877.802	3211
877.93	3245
878.058	3108
878.185	3116
878.313	3180
878.441	3180
878.568	3032
878.696	3169
878.824	3230
878.951	3264
879.079	3458
879.206	3599
879.333	3454
879.461	3275
879.588	3329
879.715	3504
879.842	3576
879.97	3351
880.097	3165
880.224	3138
880.351	3184
880.478	3218
880.605	3173
880.732	3184
880.859	3466
880.986	3275
881.112	3317
881.239	3169
881.366	3085
881.493	3001
881.619	3039
881.746	3070
881.872	3077
881.999	3112
882.125	3135
882.252	3241
882.378	3298
882.505	3382
882.631	3275
882.757	3161
882.883	3184
883.01	3203
883.136	3146
883.262	3077
883.388	3119
883.514	3294
883.64	3405
883.766	3332
883.892	3184
884.018	3222
884.143	3409
884.269	3526
884.395	3218
884.52	3123
884.646	3176
884.772	3146
884.897	3112
885.023	3226
885.148	3313
885.274	3393
885.399	3382
885.524	3264
885.65	3233
885.775	3294
885.9	3253
886.025	3409
886.15	3389
886.275	3287
886.4	3222
886.525	3317
886.65	3241
886.775	3249
886.9	3481
887.025	3622
887.149	3393
887.274	3233
887.399	3176
887.523	3233
887.648	3146
887.773	3199
887.897	3363
888.021	3374
888.146	3268
888.27	3424
888.395	3530
888.519	3378
888.643	3477
888.767	3443
888.891	3287
889.015	3233
889.139	3294
889.263	3233
889.387	3351
889.511	3526
889.635	3397
889.759	3279
889.883	3294
890.006	3363
890.13	3477
890.254	3249
890.377	3325
890.501	3222
890.624	3157
890.748	3355
890.871	3169
890.995	3127
891.118	3051
891.241	3188
891.364	3241
891.488	3313
891.611	3176
891.734	3222
891.857	3298
891.98	3203
892.103	3348
892.226	3260
892.349	3245
892.471	3097
892.594	3211
892.717	3275
892.839	3245
892.962	3272
893.085	3325
893.207	3306
893.33	3135
893.452	3222
893.575	3332
893.697	3241
893.819	3466
893.941	3504
894.064	3450
894.186	3275
894.308	3253
894.43	3424
894.552	3557
894.674	3462
894.796	3230
894.918	3275
895.04	3260
895.161	3409
895.283	3382
895.405	3306
895.526	3355
895.648	3450
895.769	3447
895.891	3454
896.012	3435
896.134	3450
896.255	3393
896.376	3370
896.498	3374
896.619	3416
896.74	3332
896.861	3405
896.982	3686
897.103	3827
897.224	3568
897.345	3469
897.466	3412
897.587	3485
897.708	3599
897.828	3534
897.949	3443
898.07	3336
898.19	3420
898.311	3557
898.431	3466
898.552	3515
898.672	3580
898.792	3545
898.913	3450
899.033	3378
899.153	3275
899.273	3195
899.393	3256
899.513	3313
899.633	3268
899.753	3336
899.873	3310
899.993	3431
900.113	3279
900.232	3386
900.352	3329
900.472	3275
900.591	3199
900.711	3298
900.83	3226
900.95	3412
901.069	3481
901.189	3393
901.308	3184
901.427	3135
901.546	3195
901.665	3275
901.784	3317
901.904	3199
902.023	3135
902.141	3001
902.26	3001
902.379	3123
902.498	3043
902.617	3070
902.735	3207
902.854	3218
902.973	3169
903.091	3032
903.21	3043
903.328	3146
903.446	3108
903.565	3077
903.683	3199
903.801	3127
903.919	3214
904.038	3241
904.156	3146
904.274	3283
904.392	3317
904.51	3298
904.627	3306
904.745	3435
904.863	3481
904.981	3268
905.098	3195
905.216	3157
905.334	3283
905.451	3275
905.569	3321
905.686	3416
905.803	3412
905.921	3283
906.038	3389
906.155	3317
906.272	3279
906.389	3325
906.506	3207
906.623	3245
906.74	3256
906.857	3146
906.974	3214
907.091	3389
907.208	3534
907.324	3477
907.441	3382
907.557	3188
907.674	3230
907.79	3173
907.907	3218
908.023	3389
908.139	3340
908.256	3336
908.372	3344
908.488	3351
908.604	3230
908.72	3260
908.836	3272
908.952	3260
909.068	3329
909.184	3447
909.3	3397
909.415	3466
909.531	3477
909.647	3249
909.762	3317
909.878	3275
909.993	3336
910.108	3348
910.224	3317
910.339	3397
910.454	3325
910.57	3283
910.685	3241
910.8	3553
910.915	3523
911.03	3409
911.145	3260
911.259	3291
911.374	3294
911.489	3264
911.604	3226
911.718	3112
911.833	3157
911.947	3036
912.062	2979
912.176	3173
912.291	3241
912.405	3203
912.519	3431
912.633	3462
912.748	3336
912.862	3313
912.976	3157
913.09	3066
913.204	3138
913.318	3226
913.431	3370
913.545	3348
913.659	3431
913.772	3321
913.886	3230
914	3211
914.113	3325
914.226	3424
914.34	3397
914.453	3245
914.566	3416
914.68	3317
914.793	3283
914.906	3154
915.019	3165
915.132	3119
915.245	3184
915.358	3218
915.47	3256
915.583	3302
915.696	3329
915.809	3397
915.921	3443
916.034	3275
916.146	3241
916.259	3264
916.371	3439
916.483	3409
916.595	3275
916.708	3348
916.82	3351
916.932	3409
917.044	3389
917.156	3344
917.268	3294
917.38	3329
917.491	3317
917.603	3401
917.715	3500
917.826	3473
917.938	3431
918.049	3279
918.161	3462
918.272	3599
918.384	3603
918.495	3511
918.606	3363
918.717	3317
918.828	3386
918.939	3424
919.05	3283
919.161	3447
919.272	3241
919.383	3340
919.494	3530
919.604	3724
919.715	3492
919.826	3420
919.936	3519
920.047	3606
920.157	3625
920.267	3812
920.378	3629
920.488	3591
920.598	3827
920.708	3975
920.818	3857
920.928	3842
921.038	4040
921.148	4124
921.258	3736
921.368	3656
921.477	3580
921.587	3580
921.697	3500
921.806	3698
921.916	3542
922.025	3382
922.134	3344
922.244	3321
922.353	3454
922.462	3275
922.571	3260
922.68	3176
922.789	3085
922.898	3192
923.007	3169
923.116	3226
923.224	3161
923.333	3207
923.442	3157
923.55	3146
923.659	3192
923.767	3272
923.876	3150
923.984	3283
924.092	3192
924.201	3230
924.309	3283
924.417	3313
924.525	3241
924.633	3268
924.741	4021
924.849	3066
924.956	3245
925.064	3131
925.172	3077
925.279	3161
925.387	3230
925.494	3211
925.602	3412
925.709	3363
925.816	3199
925.924	3332
926.031	3382
926.138	3363
926.245	3382
926.352	3287
926.459	3435
926.566	3515
926.673	3389
926.779	3294
926.886	3211
926.993	3176
927.099	3161
927.206	3135
927.312	3142
927.419	3237
927.525	3241
927.631	3268
927.737	3192
927.843	3146
927.95	3055
928.056	3165
928.162	3256
928.267	3287
928.373	3892
928.479	3348
928.585	3089
928.69	3222
928.796	3317
928.901	3207
929.007	3047
929.112	3245
929.218	3214
929.323	3157
929.428	3173
929.533	3348
929.638	3123
929.743	3184
929.848	3256
929.953	3237
930.058	3119
930.163	3005
930.267	3036
930.372	3245
930.477	3077
930.581	3359
930.685	3256
930.79	3089
930.894	3138
930.998	3116
931.103	3321
931.207	2979
931.311	2994
931.415	2982
931.519	2830
931.623	2830
