Data from test_V78500241_904.txt Node
Date: Fri Mar 25 16:21:27 CST 2022
User: usil
Spectrometer: V785-0024
Trigger mode: 0
Integration Time (sec): 4.000000E-1
Scans to average: 1
Nonlinearity correction enabled: false
Boxcar width: 0
Storing dark spectrum: false
XAxis mode: Wavelengths
Number of Pixels in Spectrum: 1024
>>>>>Begin Spectral Data<<<<<
801.071	2902
801.214	2952
801.356	2883
801.499	2864
801.641	2849
801.783	2910
801.926	3043
802.068	2979
802.211	3020
802.353	3032
802.496	2941
802.638	3013
802.78	3058
802.923	3112
803.065	2979
803.208	2929
803.35	2922
803.492	2891
803.635	2956
803.777	2762
803.919	2880
804.061	3184
804.204	2944
804.346	2891
804.488	2815
804.63	2948
804.773	2868
804.915	2891
805.057	3062
805.199	2918
805.341	2929
805.483	3005
805.626	2975
805.768	2925
805.91	3081
806.052	3112
806.194	3036
806.336	3211
806.478	2967
806.62	2960
806.762	3009
806.904	3032
807.046	3169
807.188	2986
807.33	2925
807.472	2982
807.614	2872
807.756	3005
807.898	2948
808.04	2902
808.182	2948
808.324	2979
808.465	2902
808.607	2849
808.749	2781
808.891	2830
809.033	2918
809.174	2941
809.316	2922
809.458	2883
809.6	2773
809.741	2769
809.883	2769
810.025	2845
810.166	2853
810.308	2830
810.45	2868
810.591	2785
810.733	2781
810.875	2807
811.016	2781
811.158	2735
811.299	2811
811.441	2952
811.582	2918
811.724	2804
811.865	2849
812.007	2925
812.148	2883
812.29	2880
812.431	2899
812.573	2952
812.714	2929
812.855	3051
812.997	3039
813.138	3138
813.279	3017
813.421	2986
813.562	2925
813.703	2883
813.845	2883
813.986	2777
814.127	2701
814.268	2819
814.41	2838
814.551	2815
814.692	2880
814.833	2800
814.974	2887
815.115	2960
815.256	2800
815.397	2785
815.539	2880
815.68	2785
815.821	2811
815.962	2948
816.103	2925
816.244	2853
816.385	2861
816.526	2960
816.666	2952
816.807	2769
816.948	2830
817.089	2902
817.23	2868
817.371	2773
817.512	2788
817.653	2834
817.793	2838
817.934	2891
818.075	2952
818.216	2994
818.356	2979
818.497	2887
818.638	2785
818.778	2842
818.919	2735
819.06	2720
819.2	2880
819.341	2849
819.481	2823
819.622	2910
819.762	3108
819.903	3017
820.043	2922
820.184	2883
820.324	2922
820.465	2990
820.605	2998
820.746	3036
820.886	2906
821.026	3127
821.167	3173
821.307	3253
821.447	3302
821.588	3207
821.728	3207
821.868	3180
822.008	3032
822.149	3154
822.289	3241
822.429	3112
822.569	3108
822.709	3146
822.849	3009
822.99	3070
823.13	3154
823.27	3207
823.41	3108
823.55	3127
823.69	3154
823.83	3192
823.97	3097
824.11	2979
824.25	2994
824.389	3062
824.529	3112
824.669	3074
824.809	3176
824.949	3256
825.089	3188
825.228	3157
825.368	3017
825.508	2982
825.648	2963
825.787	2998
825.927	3070
826.067	3001
826.206	2948
826.346	3039
826.485	3081
826.625	3100
826.765	3237
826.904	3226
827.044	2990
827.183	2925
827.323	2857
827.462	2975
827.601	2933
827.741	2922
827.88	2948
828.02	2868
828.159	2960
828.298	3066
828.437	3097
828.577	3005
828.716	3214
828.855	3081
828.994	2891
829.134	2899
829.273	2929
829.412	2853
829.551	2861
829.69	2895
829.829	2990
829.968	3135
830.107	3001
830.246	3032
830.385	2910
830.524	2861
830.663	2834
830.802	2743
830.941	2644
831.08	2651
831.219	2743
831.357	2731
831.496	2956
831.635	2708
831.774	2640
831.913	2648
832.051	2556
832.19	2568
832.329	2670
832.467	2541
832.606	2480
832.744	2598
832.883	2587
833.022	2560
833.16	2629
833.299	2678
833.437	2678
833.576	2708
833.714	2731
833.852	2739
833.991	2750
834.129	2849
834.267	2830
834.406	2777
834.544	2845
834.682	2842
834.821	2868
834.959	3077
835.097	2891
835.235	3055
835.373	2994
835.511	2982
835.65	2933
835.788	2937
835.926	2819
836.064	2819
836.202	2834
836.34	3074
836.478	3161
836.615	3001
836.753	3157
836.891	3192
837.029	3176
837.167	3077
837.305	3077
837.443	3032
837.58	2944
837.718	3150
837.856	3058
837.993	3013
838.131	3127
838.269	3108
838.406	3131
838.544	3081
838.681	2929
838.819	2883
838.956	2807
839.094	2823
839.231	2853
839.369	2982
839.506	3405
839.643	3230
839.781	2979
839.918	2937
840.055	3036
840.193	3074
840.33	3051
840.467	3119
840.604	3195
840.742	3397
840.879	3039
841.016	3032
841.153	3081
841.29	3298
841.427	3302
841.564	3268
841.701	3268
841.838	3211
841.975	3138
842.112	3218
842.249	3062
842.385	3017
842.522	3241
842.659	3104
842.796	3036
842.933	3085
843.069	3062
843.206	3039
843.343	3173
843.479	3085
843.616	3112
843.752	2872
843.889	2857
844.025	3074
844.162	2891
844.298	3066
844.435	2941
844.571	2910
844.708	3074
844.844	3192
844.98	3230
845.117	3180
845.253	3051
845.389	3020
845.525	3119
845.661	3077
845.798	2990
845.934	3154
846.07	3032
846.206	3199
846.342	3283
846.478	3230
846.614	3104
846.75	3051
846.886	3024
847.022	3233
847.158	3116
847.294	3192
847.429	3241
847.565	3211
847.701	3473
847.837	2998
847.972	3001
848.108	3157
848.244	3138
848.379	2963
848.515	2922
848.65	2910
848.786	2937
848.921	2982
849.057	3097
849.192	3154
849.328	3024
849.463	3131
849.598	3104
849.734	3028
849.869	2960
850.004	2895
850.14	2960
850.275	2914
850.41	2834
850.545	2887
850.68	2960
850.815	2963
850.95	2952
851.085	3150
851.22	3077
851.355	3020
851.49	2948
851.625	3001
851.76	2982
851.895	2956
852.03	2895
852.165	3024
852.299	3074
852.434	3184
852.569	3123
852.703	3150
852.838	3275
852.973	3363
853.107	3329
853.242	3081
853.376	3074
853.511	2918
853.645	3051
853.78	3218
853.914	3081
854.048	3142
854.183	3108
854.317	3127
854.451	3298
854.585	3116
854.72	3085
854.854	3218
854.988	3047
855.122	3081
855.256	3020
855.39	3077
855.524	3195
855.658	3161
855.792	3142
855.926	3173
856.06	3207
856.194	3214
856.327	3142
856.461	3043
856.595	3093
856.729	3116
856.862	3203
856.996	3135
857.13	3203
857.263	3214
857.397	3287
857.53	3097
857.664	3195
857.797	3233
857.931	3241
858.064	3119
858.197	3230
858.331	3135
858.464	3097
858.597	2979
858.731	3135
858.864	3146
858.997	3093
859.13	3173
859.263	3188
859.396	3195
859.529	3070
859.662	3093
859.795	3058
859.928	3123
860.061	3287
860.194	3291
860.327	3135
860.46	3058
860.592	3226
860.725	3264
860.858	3245
860.99	3097
861.123	3020
861.256	3009
861.388	3154
861.521	3827
861.653	3013
861.786	2998
861.918	2960
862.05	3043
862.183	3116
862.315	3119
862.447	3180
862.58	3108
862.712	2960
862.844	2880
862.976	3028
863.108	2994
863.24	3306
863.372	2910
863.504	2967
863.636	2937
863.768	3039
863.9	2948
864.032	2902
864.164	2975
864.296	2998
864.428	3058
864.559	3093
864.691	3077
864.823	3070
864.954	3028
865.086	3051
865.217	2979
865.349	2960
865.48	2971
865.612	3005
865.743	3161
865.875	2967
866.006	2929
866.137	2994
866.269	2944
866.4	2952
866.531	2876
866.662	2872
866.793	2895
866.924	2891
867.055	2956
867.186	2883
867.317	2883
867.448	2819
867.579	2830
867.71	2853
867.841	2792
867.972	2891
868.103	2876
868.233	2895
868.364	2849
868.495	2872
868.625	3077
868.756	3138
868.886	2971
869.017	3032
869.147	3161
869.278	3157
869.408	3051
869.539	3009
869.669	3104
869.799	3024
869.929	3097
870.06	3116
870.19	3321
870.32	3283
870.45	3313
870.58	3355
870.71	3439
870.84	3428
870.97	3329
871.1	3241
871.23	3443
871.36	3447
871.489	3359
871.619	3370
871.749	3389
871.879	3401
872.008	3454
872.138	3382
872.267	3275
872.397	3138
872.526	3116
872.656	2986
872.785	3062
872.915	3207
873.044	3317
873.173	3226
873.303	3207
873.432	3195
873.561	3241
873.69	3161
873.819	3108
873.948	3237
874.077	3085
874.206	3020
874.335	3089
874.464	3207
874.593	3340
874.722	3245
874.851	3405
874.979	3321
875.108	3332
875.237	3173
875.365	3142
875.494	3161
875.623	3214
875.751	3062
875.88	3131
876.008	3214
876.136	3180
876.265	3382
876.393	3477
876.521	3424
876.65	3405
876.778	3355
876.906	3214
877.034	3180
877.162	3192
877.29	3176
877.418	3283
877.546	3245
877.674	3203
877.802	3245
877.93	3214
878.058	3157
878.185	3085
878.313	3192
878.441	3184
878.568	3051
878.696	3138
878.824	3226
878.951	3310
879.079	3409
879.206	3606
879.333	3428
879.461	3317
879.588	3332
879.715	3504
879.842	3542
879.97	3393
880.097	3180
880.224	3112
880.351	3195
880.478	3199
880.605	3199
880.732	3173
880.859	3496
880.986	3279
881.112	3283
881.239	3176
881.366	3074
881.493	3032
881.619	3039
881.746	3051
881.872	3097
881.999	3093
882.125	3119
882.252	3253
882.378	3237
882.505	3424
882.631	3279
882.757	3165
882.883	3233
883.01	3226
883.136	3169
883.262	3112
883.388	3104
883.514	3332
883.64	3405
883.766	3256
883.892	3146
884.018	3237
884.143	3435
884.269	3549
884.395	3184
884.52	3165
884.646	3150
884.772	3066
884.897	3108
885.023	3188
885.148	3321
885.274	3412
885.399	3359
885.524	3222
885.65	3253
885.775	3313
885.9	3302
886.025	3435
886.15	3382
886.275	3294
886.4	3226
886.525	3306
886.65	3283
886.775	3272
886.9	3447
887.025	3633
887.149	3386
887.274	3253
887.399	3165
887.523	3230
887.648	3195
887.773	3180
887.897	3367
888.021	3405
888.146	3306
888.27	3473
888.395	3519
888.519	3386
888.643	3447
888.767	3447
888.891	3260
889.015	3253
889.139	3249
889.263	3237
889.387	3374
889.511	3519
889.635	3477
889.759	3268
889.883	3298
890.006	3359
890.13	3458
890.254	3264
890.377	3340
890.501	3176
890.624	3188
890.748	3310
890.871	3176
890.995	3089
891.118	3074
891.241	3184
891.364	3192
891.488	3306
891.611	3180
891.734	3233
891.857	3233
891.98	3226
892.103	3306
892.226	3275
892.349	3199
892.471	3123
892.594	3203
892.717	3260
892.839	3256
892.962	3287
893.085	3382
893.207	3306
893.33	3161
893.452	3211
893.575	3340
893.697	3214
893.819	3443
893.941	3466
894.064	3428
894.186	3283
894.308	3313
894.43	3424
894.552	3545
894.674	3458
894.796	3249
894.918	3287
895.04	3279
895.161	3428
895.283	3397
895.405	3344
895.526	3336
895.648	3458
895.769	3443
895.891	3466
896.012	3469
896.134	3454
896.255	3428
896.376	3393
896.498	3378
896.619	3447
896.74	3351
896.861	3374
896.982	3690
897.103	3827
897.224	3599
897.345	3496
897.466	3424
897.587	3473
897.708	3580
897.828	3568
897.949	3431
898.07	3321
898.19	3374
898.311	3591
898.431	3428
898.552	3496
898.672	3587
898.792	3553
898.913	3557
899.033	3469
899.153	3313
899.273	3226
899.393	3241
899.513	3332
899.633	3302
899.753	3348
899.873	3279
899.993	3370
900.113	3321
900.232	3386
900.352	3325
900.472	3306
900.591	3222
900.711	3268
900.83	3192
900.95	3386
901.069	3477
901.189	3355
901.308	3203
901.427	3119
901.546	3180
901.665	3306
901.784	3336
901.904	3203
902.023	3154
902.141	2998
902.26	3013
902.379	3150
902.498	3081
902.617	3058
902.735	3195
902.854	3233
902.973	3199
903.091	3085
903.21	3051
903.328	3131
903.446	3070
903.565	3104
903.683	3188
903.801	3116
903.919	3214
904.038	3237
904.156	3199
904.274	3222
904.392	3241
904.51	3313
904.627	3336
904.745	3428
904.863	3492
904.981	3264
905.098	3138
905.216	3214
905.334	3310
905.451	3298
905.569	3298
905.686	3431
905.803	3431
905.921	3241
906.038	3386
906.155	3344
906.272	3260
906.389	3279
906.506	3207
906.623	3226
906.74	3211
906.857	3157
906.974	3275
907.091	3439
907.208	3523
907.324	3492
907.441	3370
907.557	3241
907.674	3218
907.79	3226
907.907	3272
908.023	3374
908.139	3344
908.256	3313
908.372	3370
908.488	3359
908.604	3245
908.72	3214
908.836	3245
908.952	3306
909.068	3344
909.184	3511
909.3	3405
909.415	3431
909.531	3488
909.647	3279
909.762	3306
909.878	3272
909.993	3348
910.108	3340
910.224	3367
910.339	3363
910.454	3367
910.57	3310
910.685	3237
910.8	3568
910.915	3542
911.03	3435
911.145	3291
911.259	3310
911.374	3317
911.489	3283
911.604	3245
911.718	3123
911.833	3199
911.947	3074
912.062	3009
912.176	3188
912.291	3199
912.405	3253
912.519	3450
912.633	3492
912.748	3367
912.862	3237
912.976	3207
913.09	3108
913.204	3180
913.318	3283
913.431	3348
913.545	3359
913.659	3412
913.772	3351
913.886	3260
914	3279
914.113	3431
914.226	3462
914.34	3393
914.453	3237
914.566	3397
914.68	3355
914.793	3336
914.906	3184
915.019	3154
915.132	3123
915.245	3211
915.358	3264
915.47	3294
915.583	3275
915.696	3313
915.809	3420
915.921	3462
916.034	3325
916.146	3306
916.259	3310
916.371	3382
916.483	3363
916.595	3317
916.708	3363
916.82	3340
916.932	3367
917.044	3397
917.156	3386
917.268	3310
917.38	3306
917.491	3344
917.603	3420
917.715	3504
917.826	3481
917.938	3428
918.049	3264
918.161	3488
918.272	3629
918.384	3629
918.495	3568
918.606	3370
918.717	3340
918.828	3435
918.939	3443
919.05	3313
919.161	3393
919.272	3230
919.383	3310
919.494	3523
919.604	3717
919.715	3515
919.826	3443
919.936	3507
920.047	3614
920.157	3568
920.267	3800
920.378	3584
920.488	3618
920.598	3827
920.708	3979
920.818	3831
920.928	3850
921.038	4086
921.148	4059
921.258	3717
921.368	3641
921.477	3584
921.587	3595
921.697	3473
921.806	3701
921.916	3614
922.025	3393
922.134	3401
922.244	3329
922.353	3458
922.462	3302
922.571	3283
922.68	3116
922.789	3112
922.898	3146
923.007	3138
923.116	3249
923.224	3203
923.333	3199
923.442	3119
923.55	3093
923.659	3192
923.767	3275
923.876	3154
923.984	3256
924.092	3207
924.201	3188
924.309	3241
924.417	3279
924.525	3199
924.633	3260
924.741	4196
924.849	3116
924.956	3298
925.064	3100
925.172	3100
925.279	3135
925.387	3218
925.494	3230
925.602	3374
925.709	3336
925.816	3211
925.924	3367
926.031	3389
926.138	3363
926.245	3454
926.352	3332
926.459	3443
926.566	3523
926.673	3306
926.779	3253
926.886	3291
926.993	3154
927.099	3176
927.206	3135
927.312	3119
927.419	3264
927.525	3245
927.631	3294
927.737	3165
927.843	3150
927.95	3089
928.056	3188
928.162	3192
928.267	3253
928.373	3930
928.479	3321
928.585	3116
928.69	3222
928.796	3306
928.901	3211
929.007	3097
929.112	3207
929.218	3203
929.323	3203
929.428	3127
929.533	3378
929.638	3100
929.743	3222
929.848	3283
929.953	3237
930.058	3157
930.163	3039
930.267	3039
930.372	3253
930.477	3074
930.581	3310
930.685	3169
930.79	3051
930.894	3146
930.998	3135
931.103	3313
931.207	2990
931.311	2963
931.415	2967
931.519	2815
931.623	2811
