Data from test_V78500241_1421.txt Node
Date: Fri Mar 25 16:25:02 CST 2022
User: usil
Spectrometer: V785-0024
Trigger mode: 0
Integration Time (sec): 4.000000E-1
Scans to average: 1
Nonlinearity correction enabled: false
Boxcar width: 0
Storing dark spectrum: false
XAxis mode: Wavelengths
Number of Pixels in Spectrum: 1024
>>>>>Begin Spectral Data<<<<<
801.071	2918
801.214	2960
801.356	2876
801.499	2929
801.641	2845
801.783	2914
801.926	3070
802.068	3013
802.211	3001
802.353	3039
802.496	2963
802.638	2971
802.78	3013
802.923	3077
803.065	2975
803.208	2918
803.35	2941
803.492	2914
803.635	2918
803.777	2739
803.919	2891
804.061	3180
804.204	2963
804.346	2929
804.488	2880
804.63	3047
804.773	2872
804.915	2910
805.057	3093
805.199	2899
805.341	2967
805.483	3043
805.626	3017
805.768	2941
805.91	3097
806.052	3135
806.194	3005
806.336	3222
806.478	3043
806.62	2944
806.762	2971
806.904	3058
807.046	3146
807.188	2990
807.33	2914
807.472	2937
807.614	2883
807.756	2967
807.898	2925
808.04	2922
808.182	2994
808.324	2925
808.465	2887
808.607	2868
808.749	2796
808.891	2849
809.033	2960
809.174	2960
809.316	2868
809.458	2853
809.6	2773
809.741	2762
809.883	2735
810.025	2845
810.166	2830
810.308	2811
810.45	2826
810.591	2781
810.733	2766
810.875	2864
811.016	2796
811.158	2731
811.299	2788
811.441	2918
811.582	2883
811.724	2823
811.865	2842
812.007	2929
812.148	2857
812.29	2857
812.431	2941
812.573	2914
812.714	2929
812.855	3047
812.997	3017
813.138	3097
813.279	2994
813.421	2975
813.562	2948
813.703	2868
813.845	2861
813.986	2754
814.127	2697
814.268	2804
814.41	2830
814.551	2804
814.692	2891
814.833	2800
814.974	2876
815.115	2929
815.256	2842
815.397	2849
815.539	2872
815.68	2746
815.821	2754
815.962	2937
816.103	2937
816.244	2902
816.385	2834
816.526	2975
816.666	2914
816.807	2766
816.948	2868
817.089	2922
817.23	2838
817.371	2724
817.512	2792
817.653	2815
817.793	2842
817.934	2883
818.075	2971
818.216	2952
818.356	3043
818.497	2861
818.638	2769
818.778	2815
818.919	2815
819.06	2750
819.2	2876
819.341	2834
819.481	2792
819.622	2960
819.762	3085
819.903	3062
820.043	2929
820.184	2925
820.324	2967
820.465	3013
820.605	3047
820.746	3039
820.886	2929
821.026	3135
821.167	3195
821.307	3279
821.447	3298
821.588	3237
821.728	3211
821.868	3184
822.008	3108
822.149	3195
822.289	3253
822.429	3123
822.569	3131
822.709	3188
822.849	3074
822.99	3097
823.13	3180
823.27	3214
823.41	3161
823.55	3192
823.69	3211
823.83	3260
823.97	3116
824.11	3077
824.25	3028
824.389	3077
824.529	3161
824.669	3100
824.809	3256
824.949	3279
825.089	3275
825.228	3192
825.368	3074
825.508	2971
825.648	3005
825.787	3058
825.927	3043
826.067	3001
826.206	2982
826.346	3097
826.485	3119
826.625	3131
826.765	3279
826.904	3233
827.044	3047
827.183	2998
827.323	2899
827.462	3058
827.601	2960
827.741	2956
827.88	3009
828.02	2929
828.159	2998
828.298	3047
828.437	3131
828.577	3119
828.716	3291
828.855	3077
828.994	2986
829.134	2910
829.273	2899
829.412	2925
829.551	2887
829.69	2922
829.829	2998
829.968	3165
830.107	3070
830.246	3097
830.385	2960
830.524	2952
830.663	2804
830.802	2792
830.941	2697
831.08	2716
831.219	2804
831.357	2773
831.496	3001
831.635	2781
831.774	2663
831.913	2678
832.051	2602
832.19	2640
832.329	2720
832.467	2594
832.606	2541
832.744	2598
832.883	2617
833.022	2602
833.16	2655
833.299	2701
833.437	2746
833.576	2754
833.714	2769
833.852	2777
833.991	2773
834.129	2876
834.267	2887
834.406	2804
834.544	2872
834.682	2895
834.821	2891
834.959	3081
835.097	2918
835.235	3089
835.373	3032
835.511	3043
835.65	2994
835.788	2975
835.926	2845
836.064	2845
836.202	2857
836.34	3150
836.478	3203
836.615	3089
836.753	3135
836.891	3268
837.029	3233
837.167	3104
837.305	3089
837.443	3055
837.58	2960
837.718	3169
837.856	3077
837.993	3051
838.131	3188
838.269	3169
838.406	3142
838.544	3119
838.681	2944
838.819	2990
838.956	2842
839.094	2864
839.231	2929
839.369	3089
839.506	3401
839.643	3249
839.781	3047
839.918	3009
840.055	3032
840.193	3077
840.33	3074
840.467	3104
840.604	3180
840.742	3416
840.879	3104
841.016	3116
841.153	3135
841.29	3351
841.427	3359
841.564	3302
841.701	3348
841.838	3260
841.975	3192
842.112	3218
842.249	3157
842.385	3062
842.522	3283
842.659	3131
842.796	3081
842.933	3135
843.069	3077
843.206	3043
843.343	3226
843.479	3146
843.616	3188
843.752	2956
843.889	2880
844.025	3112
844.162	2910
844.298	3123
844.435	2998
844.571	2960
844.708	3108
844.844	3203
844.98	3253
845.117	3207
845.253	3055
845.389	3005
845.525	3116
845.661	3112
845.798	3058
845.934	3154
846.07	3081
846.206	3279
846.342	3351
846.478	3256
846.614	3131
846.75	3074
846.886	3039
847.022	3249
847.158	3188
847.294	3207
847.429	3302
847.565	3245
847.701	3485
847.837	3066
847.972	3043
848.108	3214
848.244	3176
848.379	3001
848.515	2952
848.65	2944
848.786	2975
848.921	3001
849.057	3119
849.192	3161
849.328	3047
849.463	3142
849.598	3085
849.734	3051
849.869	3017
850.004	2952
850.14	2979
850.275	2944
850.41	2876
850.545	2918
850.68	2952
850.815	2948
850.95	3001
851.085	3233
851.22	3157
851.355	3028
851.49	3028
851.625	3001
851.76	3020
851.895	2990
852.03	2952
852.165	3085
852.299	3135
852.434	3188
852.569	3150
852.703	3180
852.838	3241
852.973	3374
853.107	3367
853.242	3142
853.376	3085
853.511	2990
853.645	3039
853.78	3253
853.914	3173
854.048	3066
854.183	3131
854.317	3150
854.451	3340
854.585	3173
854.72	3138
854.854	3214
854.988	3020
855.122	3119
855.256	3024
855.39	3150
855.524	3245
855.658	3214
855.792	3192
855.926	3211
856.06	3207
856.194	3291
856.327	3180
856.461	3108
856.595	3100
856.729	3085
856.862	3237
856.996	3184
857.13	3218
857.263	3260
857.397	3310
857.53	3192
857.664	3211
857.797	3260
857.931	3260
858.064	3184
858.197	3253
858.331	3146
858.464	3108
858.597	3017
858.731	3150
858.864	3154
858.997	3119
859.13	3176
859.263	3169
859.396	3256
859.529	3138
859.662	3074
859.795	3058
859.928	3154
860.061	3283
860.194	3302
860.327	3161
860.46	3108
860.592	3256
860.725	3237
860.858	3260
860.99	3123
861.123	3051
861.256	3074
861.388	3127
861.521	3781
861.653	3013
861.786	2982
861.918	3013
862.05	3062
862.183	3131
862.315	3192
862.447	3188
862.58	3077
862.712	2963
862.844	2914
862.976	3062
863.108	2986
863.24	3344
863.372	2922
863.504	3001
863.636	2994
863.768	3062
863.9	3020
864.032	2902
864.164	2963
864.296	3009
864.428	3097
864.559	3108
864.691	3089
864.823	3085
864.954	3043
865.086	3085
865.217	3028
865.349	2937
865.48	2979
865.612	3020
865.743	3150
865.875	2994
866.006	2979
866.137	3005
866.269	2971
866.4	2975
866.531	2933
866.662	2883
866.793	2944
866.924	2902
867.055	2967
867.186	2975
867.317	2895
867.448	2845
867.579	2842
867.71	2880
867.841	2807
867.972	2925
868.103	2914
868.233	2906
868.364	2883
868.495	2902
868.625	3116
868.756	3203
868.886	3028
869.017	3055
869.147	3214
869.278	3173
869.408	3047
869.539	3058
869.669	3108
869.799	3036
869.929	3135
870.06	3127
870.19	3321
870.32	3272
870.45	3336
870.58	3405
870.71	3473
870.84	3485
870.97	3294
871.1	3226
871.23	3481
871.36	3481
871.489	3378
871.619	3401
871.749	3397
871.879	3435
872.008	3488
872.138	3378
872.267	3291
872.397	3154
872.526	3100
872.656	2967
872.785	3116
872.915	3256
873.044	3363
873.173	3294
873.303	3294
873.432	3222
873.561	3249
873.69	3214
873.819	3154
873.948	3195
874.077	3066
874.206	3074
874.335	3104
874.464	3222
874.593	3367
874.722	3260
874.851	3412
874.979	3359
875.108	3378
875.237	3249
875.365	3222
875.494	3169
875.623	3272
875.751	3100
875.88	3169
876.008	3195
876.136	3268
876.265	3378
876.393	3515
876.521	3428
876.65	3420
876.778	3355
876.906	3256
877.034	3245
877.162	3260
877.29	3211
877.418	3317
877.546	3241
877.674	3253
877.802	3253
877.93	3256
878.058	3207
878.185	3150
878.313	3207
878.441	3253
878.568	3066
878.696	3146
878.824	3199
878.951	3329
879.079	3473
879.206	3610
879.333	3469
879.461	3355
879.588	3351
879.715	3488
879.842	3606
879.97	3412
880.097	3165
880.224	3142
880.351	3157
880.478	3180
880.605	3192
880.732	3233
880.859	3526
880.986	3321
881.112	3363
881.239	3176
881.366	3127
881.493	3032
881.619	3013
881.746	3074
881.872	3070
881.999	3116
882.125	3157
882.252	3275
882.378	3313
882.505	3435
882.631	3287
882.757	3173
882.883	3245
883.01	3226
883.136	3207
883.262	3089
883.388	3085
883.514	3306
883.64	3363
883.766	3359
883.892	3203
884.018	3230
884.143	3443
884.269	3545
884.395	3260
884.52	3150
884.646	3173
884.772	3142
884.897	3104
885.023	3207
885.148	3329
885.274	3447
885.399	3363
885.524	3291
885.65	3241
885.775	3313
885.9	3272
886.025	3424
886.15	3393
886.275	3317
886.4	3287
886.525	3298
886.65	3306
886.775	3298
886.9	3485
887.025	3648
887.149	3389
887.274	3253
887.399	3176
887.523	3192
887.648	3230
887.773	3241
887.897	3382
888.021	3367
888.146	3344
888.27	3481
888.395	3542
888.519	3481
888.643	3466
888.767	3530
888.891	3283
889.015	3260
889.139	3302
889.263	3249
889.387	3405
889.511	3496
889.635	3447
889.759	3298
889.883	3279
890.006	3367
890.13	3473
890.254	3310
890.377	3348
890.501	3207
890.624	3192
890.748	3298
890.871	3150
890.995	3097
891.118	3043
891.241	3218
891.364	3218
891.488	3348
891.611	3192
891.734	3241
891.857	3279
891.98	3256
892.103	3306
892.226	3313
892.349	3218
892.471	3112
892.594	3253
892.717	3294
892.839	3302
892.962	3321
893.085	3374
893.207	3279
893.33	3150
893.452	3195
893.575	3310
893.697	3241
893.819	3454
893.941	3481
894.064	3466
894.186	3283
894.308	3283
894.43	3428
894.552	3564
894.674	3500
894.796	3260
894.918	3336
895.04	3321
895.161	3439
895.283	3382
895.405	3294
895.526	3313
895.648	3439
895.769	3450
895.891	3439
896.012	3504
896.134	3500
896.255	3386
896.376	3393
896.498	3348
896.619	3428
896.74	3386
896.861	3397
896.982	3660
897.103	3865
897.224	3625
897.345	3553
897.466	3473
897.587	3462
897.708	3622
897.828	3603
897.949	3458
898.07	3340
898.19	3435
898.311	3648
898.431	3443
898.552	3515
898.672	3622
898.792	3580
898.913	3549
899.033	3401
899.153	3325
899.273	3211
899.393	3325
899.513	3291
899.633	3340
899.753	3332
899.873	3264
899.993	3374
900.113	3374
900.232	3355
900.352	3374
900.472	3287
900.591	3245
900.711	3329
900.83	3287
900.95	3443
901.069	3526
901.189	3363
901.308	3192
901.427	3123
901.546	3199
901.665	3310
901.784	3332
901.904	3214
902.023	3127
902.141	3020
902.26	2975
902.379	3127
902.498	3097
902.617	3043
902.735	3222
902.854	3272
902.973	3207
903.091	3070
903.21	3081
903.328	3108
903.446	3104
903.565	3104
903.683	3195
903.801	3131
903.919	3260
904.038	3272
904.156	3211
904.274	3294
904.392	3287
904.51	3279
904.627	3313
904.745	3447
904.863	3500
904.981	3226
905.098	3157
905.216	3199
905.334	3302
905.451	3302
905.569	3306
905.686	3420
905.803	3466
905.921	3298
906.038	3435
906.155	3363
906.272	3283
906.389	3344
906.506	3222
906.623	3241
906.74	3272
906.857	3218
906.974	3233
907.091	3431
907.208	3538
907.324	3466
907.441	3374
907.557	3264
907.674	3279
907.79	3211
907.907	3313
908.023	3409
908.139	3389
908.256	3367
908.372	3382
908.488	3348
908.604	3249
908.72	3291
908.836	3268
908.952	3298
909.068	3325
909.184	3458
909.3	3393
909.415	3492
909.531	3481
909.647	3241
909.762	3298
909.878	3268
909.993	3389
910.108	3367
910.224	3329
910.339	3424
910.454	3351
910.57	3275
910.685	3264
910.8	3587
910.915	3568
911.03	3439
911.145	3272
911.259	3332
911.374	3329
911.489	3279
911.604	3207
911.718	3138
911.833	3165
911.947	3043
912.062	2952
912.176	3176
912.291	3230
912.405	3218
912.519	3389
912.633	3477
912.748	3355
912.862	3275
912.976	3173
913.09	3036
913.204	3161
913.318	3211
913.431	3351
913.545	3367
913.659	3405
913.772	3348
913.886	3188
914	3188
914.113	3378
914.226	3443
914.34	3359
914.453	3249
914.566	3439
914.68	3310
914.793	3340
914.906	3127
915.019	3100
915.132	3089
915.245	3169
915.358	3199
915.47	3256
915.583	3291
915.696	3294
915.809	3405
915.921	3428
916.034	3253
916.146	3287
916.259	3203
916.371	3393
916.483	3405
916.595	3249
916.708	3351
916.82	3329
916.932	3351
917.044	3363
917.156	3291
917.268	3260
917.38	3294
917.491	3279
917.603	3363
917.715	3439
917.826	3488
917.938	3405
918.049	3260
918.161	3431
918.272	3507
918.384	3610
918.495	3534
918.606	3325
918.717	3310
918.828	3359
918.939	3401
919.05	3302
919.161	3340
919.272	3211
919.383	3313
919.494	3507
919.604	3694
919.715	3507
919.826	3359
919.936	3466
920.047	3606
920.157	3526
920.267	3740
920.378	3637
920.488	3587
920.598	3759
920.708	3937
920.818	3797
920.928	3797
921.038	4029
921.148	4002
921.258	3747
921.368	3682
921.477	3561
921.587	3557
921.697	3454
921.806	3587
921.916	3523
922.025	3386
922.134	3329
922.244	3321
922.353	3405
922.462	3256
922.571	3211
922.68	3104
922.789	3062
922.898	3093
923.007	3081
923.116	3192
923.224	3180
923.333	3180
923.442	3085
923.55	3077
923.659	3165
923.767	3237
923.876	3131
923.984	3256
924.092	3100
924.201	3245
924.309	3180
924.417	3260
924.525	3203
924.633	3226
924.741	4143
924.849	3032
924.956	3226
925.064	3093
925.172	3024
925.279	3081
925.387	3218
925.494	3192
925.602	3370
925.709	3348
925.816	3173
925.924	3264
926.031	3393
926.138	3317
926.245	3370
926.352	3237
926.459	3382
926.566	3469
926.673	3287
926.779	3272
926.886	3264
926.993	3108
927.099	3142
927.206	3127
927.312	3081
927.419	3275
927.525	3241
927.631	3275
927.737	3161
927.843	3135
927.95	3047
928.056	3146
928.162	3165
928.267	3245
928.373	3854
928.479	3332
928.585	3085
928.69	3214
928.796	3260
928.901	3157
929.007	3055
929.112	3176
929.218	3150
929.323	3173
929.428	3100
929.533	3325
929.638	3116
929.743	3169
929.848	3245
929.953	3176
930.058	3146
930.163	2975
930.267	3032
930.372	3203
930.477	3024
930.581	3298
930.685	3184
930.79	3066
930.894	3097
930.998	3085
931.103	3287
931.207	2960
931.311	2929
931.415	2941
931.519	2762
931.623	2815
