Data from test_V78500241_21.txt Node
Date: Fri Mar 25 16:15:20 CST 2022
User: usil
Spectrometer: V785-0024
Trigger mode: 0
Integration Time (sec): 4.000000E-1
Scans to average: 1
Nonlinearity correction enabled: false
Boxcar width: 0
Storing dark spectrum: false
XAxis mode: Wavelengths
Number of Pixels in Spectrum: 1024
>>>>>Begin Spectral Data<<<<<
801.071	3013
801.214	3036
801.356	2925
801.499	3013
801.641	2948
801.783	3001
801.926	3146
802.068	3104
802.211	3100
802.353	3146
802.496	3028
802.638	3085
802.78	3165
802.923	3176
803.065	3097
803.208	3005
803.35	3005
803.492	3039
803.635	3020
803.777	2826
803.919	2971
804.061	3291
804.204	3062
804.346	3032
804.488	2952
804.63	3043
804.773	2975
804.915	2994
805.057	3154
805.199	3024
805.341	3085
805.483	3142
805.626	3112
805.768	3055
805.91	3135
806.052	3199
806.194	3104
806.336	3291
806.478	3131
806.62	3039
806.762	3058
806.904	3154
807.046	3264
807.188	3093
807.33	2998
807.472	3093
807.614	3001
807.756	3077
807.898	2998
808.04	2967
808.182	3097
808.324	2998
808.465	2952
808.607	2967
808.749	2887
808.891	2967
809.033	3036
809.174	3066
809.316	2982
809.458	2952
809.6	2830
809.741	2853
809.883	2880
810.025	2910
810.166	2922
810.308	2891
810.45	2922
810.591	2857
810.733	2887
810.875	2925
811.016	2864
811.158	2853
811.299	2868
811.441	3013
811.582	2944
811.724	2941
811.865	2902
812.007	3009
812.148	2971
812.29	2948
812.431	2975
812.573	3005
812.714	3100
812.855	3150
812.997	3100
813.138	3195
813.279	3112
813.421	3070
813.562	3036
813.703	2979
813.845	2982
813.986	2861
814.127	2819
814.268	2895
814.41	2914
814.551	2876
814.692	3001
814.833	2883
814.974	2971
815.115	3036
815.256	2895
815.397	2876
815.539	2929
815.68	2864
815.821	2876
815.962	3001
816.103	2994
816.244	2956
816.385	2960
816.526	3066
816.666	3013
816.807	2823
816.948	2952
817.089	2979
817.23	2933
817.371	2868
817.512	2891
817.653	2899
817.793	2910
817.934	2967
818.075	3017
818.216	3077
818.356	3127
818.497	2952
818.638	2853
818.778	2899
818.919	2895
819.06	2796
819.2	2975
819.341	2876
819.481	2876
819.622	2975
819.762	3161
819.903	3123
820.043	2986
820.184	2963
820.324	2975
820.465	3077
820.605	3085
820.746	3100
820.886	3055
821.026	3192
821.167	3230
821.307	3321
821.447	3336
821.588	3340
821.728	3249
821.868	3268
822.008	3161
822.149	3241
822.289	3344
822.429	3165
822.569	3146
822.709	3260
822.849	3089
822.99	3131
823.13	3268
823.27	3249
823.41	3146
823.55	3260
823.69	3195
823.83	3260
823.97	3211
824.11	3097
824.25	3062
824.389	3146
824.529	3218
824.669	3135
824.809	3264
824.949	3344
825.089	3279
825.228	3245
825.368	3081
825.508	3062
825.648	3036
825.787	3081
825.927	3119
826.067	3036
826.206	3043
826.346	3135
826.485	3123
826.625	3214
826.765	3340
826.904	3302
827.044	3108
827.183	3013
827.323	2925
827.462	3036
827.601	2979
827.741	3017
827.88	3070
828.02	2941
828.159	3036
828.298	3104
828.437	3195
828.577	3085
828.716	3291
828.855	3192
828.994	2963
829.134	2948
829.273	2971
829.412	2952
829.551	2925
829.69	2952
829.829	3058
829.968	3241
830.107	3066
830.246	3089
830.385	2967
830.524	2963
830.663	2864
830.802	2800
830.941	2727
831.08	2716
831.219	2826
831.357	2838
831.496	3024
831.635	2796
831.774	2746
831.913	2727
832.051	2636
832.19	2640
832.329	2750
832.467	2606
832.606	2560
832.744	2636
832.883	2651
833.022	2678
833.16	2708
833.299	2758
833.437	2762
833.576	2766
833.714	2804
833.852	2792
833.991	2830
834.129	2971
834.267	2868
834.406	2868
834.544	2944
834.682	2956
834.821	2925
834.959	3131
835.097	2944
835.235	3123
835.373	3070
835.511	3089
835.65	3062
835.788	3043
835.926	2895
836.064	2876
836.202	2902
836.34	3142
836.478	3253
836.615	3138
836.753	3142
836.891	3249
837.029	3249
837.167	3180
837.305	3127
837.443	3100
837.58	3032
837.718	3207
837.856	3157
837.993	3104
838.131	3218
838.269	3176
838.406	3192
838.544	3142
838.681	3036
838.819	2963
838.956	2906
839.094	2902
839.231	3013
839.369	3097
839.506	3439
839.643	3283
839.781	3066
839.918	3058
840.055	3157
840.193	3108
840.33	3135
840.467	3142
840.604	3268
840.742	3519
840.879	3100
841.016	3142
841.153	3195
841.29	3363
841.427	3367
841.564	3332
841.701	3374
841.838	3306
841.975	3226
842.112	3329
842.249	3146
842.385	3119
842.522	3336
842.659	3173
842.796	3169
842.933	3146
843.069	3112
843.206	3108
843.343	3241
843.479	3180
843.616	3207
843.752	2929
843.889	2906
844.025	3112
844.162	2906
844.298	3142
844.435	3028
844.571	2986
844.708	3176
844.844	3253
844.98	3272
845.117	3279
845.253	3123
845.389	3047
845.525	3165
845.661	3195
845.798	3058
845.934	3176
846.07	3104
846.206	3336
846.342	3374
846.478	3321
846.614	3165
846.75	3116
846.886	3093
847.022	3332
847.158	3161
847.294	3302
847.429	3329
847.565	3298
847.701	3568
847.837	3097
847.972	3058
848.108	3249
848.244	3203
848.379	3070
848.515	3005
848.65	2982
848.786	3028
848.921	3039
849.057	3173
849.192	3199
849.328	3119
849.463	3150
849.598	3150
849.734	3119
849.869	3005
850.004	2975
850.14	3032
850.275	2979
850.41	2910
850.545	2941
850.68	2986
850.815	3009
850.95	3028
851.085	3245
851.22	3203
851.355	3131
851.49	3062
851.625	3062
851.76	3123
851.895	2990
852.03	2990
852.165	3085
852.299	3176
852.434	3241
852.569	3184
852.703	3260
852.838	3321
852.973	3397
853.107	3386
853.242	3226
853.376	3146
853.511	3013
853.645	3131
853.78	3287
853.914	3173
854.048	3146
854.183	3150
854.317	3192
854.451	3351
854.585	3222
854.72	3138
854.854	3279
854.988	3093
855.122	3218
855.256	3024
855.39	3192
855.524	3310
855.658	3233
855.792	3214
855.926	3264
856.06	3275
856.194	3310
856.327	3203
856.461	3127
856.595	3176
856.729	3165
856.862	3298
856.996	3214
857.13	3275
857.263	3256
857.397	3313
857.53	3176
857.664	3264
857.797	3298
857.931	3306
858.064	3211
858.197	3325
858.331	3180
858.464	3173
858.597	3077
858.731	3154
858.864	3249
858.997	3154
859.13	3253
859.263	3222
859.396	3272
859.529	3142
859.662	3100
859.795	3108
859.928	3218
860.061	3313
860.194	3336
860.327	3203
860.46	3154
860.592	3317
860.725	3279
860.858	3294
860.99	3165
861.123	3100
861.256	3089
861.388	3230
861.521	3759
861.653	3066
861.786	3058
861.918	3055
862.05	3100
862.183	3188
862.315	3233
862.447	3245
862.58	3192
862.712	3009
862.844	2929
862.976	3093
863.108	3077
863.24	3496
863.372	2944
863.504	3043
863.636	2998
863.768	3077
863.9	3017
864.032	2990
864.164	3020
864.296	3077
864.428	3138
864.559	3142
864.691	3123
864.823	3123
864.954	3100
865.086	3108
865.217	3051
865.349	3001
865.48	3024
865.612	3074
865.743	3222
865.875	3062
866.006	3055
866.137	3043
866.269	3017
866.4	2994
866.531	2998
866.662	2986
866.793	2971
866.924	2960
867.055	3020
867.186	2963
867.317	2956
867.448	2876
867.579	2899
867.71	2906
867.841	2899
867.972	2971
868.103	2971
868.233	2960
868.364	2933
868.495	2960
868.625	3146
868.756	3233
868.886	3009
869.017	3089
869.147	3207
869.278	3249
869.408	3100
869.539	3058
869.669	3150
869.799	3074
869.929	3203
870.06	3161
870.19	3393
870.32	3359
870.45	3393
870.58	3424
870.71	3485
870.84	3538
870.97	3336
871.1	3268
871.23	3538
871.36	3530
871.489	3412
871.619	3469
871.749	3488
871.879	3481
872.008	3542
872.138	3393
872.267	3359
872.397	3237
872.526	3131
872.656	3081
872.785	3131
872.915	3291
873.044	3340
873.173	3287
873.303	3302
873.432	3306
873.561	3321
873.69	3249
873.819	3195
873.948	3275
874.077	3131
874.206	3093
874.335	3150
874.464	3253
874.593	3389
874.722	3291
874.851	3477
874.979	3439
875.108	3397
875.237	3245
875.365	3211
875.494	3233
875.623	3298
875.751	3180
875.88	3184
876.008	3226
876.136	3283
876.265	3401
876.393	3564
876.521	3504
876.65	3458
876.778	3416
876.906	3294
877.034	3253
877.162	3264
877.29	3226
877.418	3329
877.546	3329
877.674	3291
877.802	3256
877.93	3230
878.058	3245
878.185	3173
878.313	3264
878.441	3287
878.568	3138
878.696	3203
878.824	3268
878.951	3370
879.079	3523
879.206	3652
879.333	3496
879.461	3420
879.588	3401
879.715	3542
879.842	3656
879.97	3469
880.097	3195
880.224	3214
880.351	3245
880.478	3291
880.605	3249
880.732	3226
880.859	3523
880.986	3351
881.112	3416
881.239	3249
881.366	3165
881.493	3093
881.619	3047
881.746	3157
881.872	3138
881.999	3138
882.125	3192
882.252	3283
882.378	3355
882.505	3454
882.631	3344
882.757	3218
882.883	3298
883.01	3321
883.136	3176
883.262	3169
883.388	3146
883.514	3378
883.64	3458
883.766	3370
883.892	3249
884.018	3283
884.143	3466
884.269	3564
884.395	3245
884.52	3256
884.646	3275
884.772	3199
884.897	3157
885.023	3249
885.148	3401
885.274	3466
885.399	3431
885.524	3321
885.65	3302
885.775	3348
885.9	3321
886.025	3500
886.15	3443
886.275	3409
886.4	3302
886.525	3393
886.65	3367
886.775	3344
886.9	3587
887.025	3724
887.149	3477
887.274	3348
887.399	3275
887.523	3203
887.648	3230
887.773	3253
887.897	3473
888.021	3466
888.146	3332
888.27	3534
888.395	3584
888.519	3469
888.643	3526
888.767	3515
888.891	3401
889.015	3291
889.139	3340
889.263	3302
889.387	3431
889.511	3530
889.635	3496
889.759	3344
889.883	3355
890.006	3416
890.13	3530
890.254	3332
890.377	3397
890.501	3249
890.624	3233
890.748	3397
890.871	3218
890.995	3161
891.118	3150
891.241	3222
891.364	3260
891.488	3393
891.611	3256
891.734	3329
891.857	3298
891.98	3275
892.103	3382
892.226	3306
892.349	3268
892.471	3138
892.594	3306
892.717	3302
892.839	3329
892.962	3363
893.085	3397
893.207	3313
893.33	3188
893.452	3230
893.575	3401
893.697	3313
893.819	3500
893.941	3545
894.064	3466
894.186	3298
894.308	3279
894.43	3462
894.552	3572
894.674	3515
894.796	3332
894.918	3389
895.04	3313
895.161	3469
895.283	3401
895.405	3386
895.526	3447
895.648	3488
895.769	3435
895.891	3526
896.012	3545
896.134	3492
896.255	3492
896.376	3435
896.498	3447
896.619	3473
896.74	3439
896.861	3447
896.982	3717
897.103	3945
897.224	3652
897.345	3561
897.466	3466
897.587	3515
897.708	3686
897.828	3610
897.949	3477
898.07	3393
898.19	3450
898.311	3667
898.431	3545
898.552	3557
898.672	3675
898.792	3633
898.913	3580
899.033	3454
899.153	3386
899.273	3279
899.393	3355
899.513	3355
899.633	3393
899.753	3389
899.873	3367
899.993	3420
900.113	3469
900.232	3458
900.352	3416
900.472	3355
900.591	3253
900.711	3329
900.83	3291
900.95	3458
901.069	3542
901.189	3447
901.308	3230
901.427	3192
901.546	3203
901.665	3348
901.784	3367
901.904	3272
902.023	3188
902.141	3077
902.26	3062
902.379	3207
902.498	3138
902.617	3154
902.735	3294
902.854	3264
902.973	3237
903.091	3074
903.21	3127
903.328	3180
903.446	3173
903.565	3169
903.683	3245
903.801	3180
903.919	3336
904.038	3367
904.156	3211
904.274	3329
904.392	3351
904.51	3344
904.627	3401
904.745	3454
904.863	3584
904.981	3340
905.098	3222
905.216	3275
905.334	3325
905.451	3351
905.569	3367
905.686	3488
905.803	3526
905.921	3332
906.038	3473
906.155	3416
906.272	3298
906.389	3401
906.506	3329
906.623	3336
906.74	3291
906.857	3226
906.974	3355
907.091	3458
907.208	3625
907.324	3473
907.441	3450
907.557	3283
907.674	3302
907.79	3302
907.907	3348
908.023	3409
908.139	3401
908.256	3363
908.372	3412
908.488	3389
908.604	3332
908.72	3291
908.836	3325
908.952	3336
909.068	3351
909.184	3564
909.3	3447
909.415	3557
909.531	3545
909.647	3287
909.762	3325
909.878	3348
909.993	3439
910.108	3412
910.224	3428
910.339	3462
910.454	3416
910.57	3355
910.685	3272
910.8	3644
910.915	3599
911.03	3488
911.145	3306
911.259	3283
911.374	3359
911.489	3268
911.604	3279
911.718	3165
911.833	3173
911.947	3123
912.062	3039
912.176	3233
912.291	3241
912.405	3279
912.519	3462
912.633	3500
912.748	3420
912.862	3359
912.976	3207
913.09	3089
913.204	3211
913.318	3279
913.431	3412
913.545	3389
913.659	3443
913.772	3416
913.886	3241
914	3237
914.113	3431
914.226	3454
914.34	3389
914.453	3275
914.566	3477
914.68	3329
914.793	3355
914.906	3192
915.019	3161
915.132	3112
915.245	3233
915.358	3264
915.47	3294
915.583	3310
915.696	3363
915.809	3462
915.921	3466
916.034	3317
916.146	3340
916.259	3298
916.371	3447
916.483	3424
916.595	3317
916.708	3351
916.82	3382
916.932	3416
917.044	3428
917.156	3389
917.268	3275
917.38	3374
917.491	3351
917.603	3431
917.715	3481
917.826	3504
917.938	3507
918.049	3332
918.161	3462
918.272	3663
918.384	3648
918.495	3534
918.606	3378
918.717	3382
918.828	3412
918.939	3504
919.05	3370
919.161	3412
919.272	3241
919.383	3389
919.494	3603
919.604	3747
919.715	3511
919.826	3447
919.936	3561
920.047	3610
920.157	3603
920.267	3785
920.378	3633
920.488	3599
920.598	3835
920.708	4036
920.818	3937
920.928	3918
921.038	4093
921.148	4029
921.258	3747
921.368	3686
921.477	3625
921.587	3591
921.697	3507
921.806	3690
921.916	3580
922.025	3435
922.134	3405
922.244	3409
922.353	3511
922.462	3344
922.571	3302
922.68	3142
922.789	3150
922.898	3180
923.007	3173
923.116	3245
923.224	3222
923.333	3275
923.442	3146
923.55	3195
923.659	3169
923.767	3306
923.876	3184
923.984	3325
924.092	3127
924.201	3241
924.309	3298
924.417	3313
924.525	3211
924.633	3298
924.741	4257
924.849	3116
924.956	3279
925.064	3135
925.172	3070
925.279	3157
925.387	3264
925.494	3233
925.602	3405
925.709	3412
925.816	3249
925.924	3310
926.031	3466
926.138	3405
926.245	3416
926.352	3321
926.459	3507
926.566	3519
926.673	3393
926.779	3302
926.886	3306
926.993	3192
927.099	3207
927.206	3131
927.312	3195
927.419	3291
927.525	3283
927.631	3317
927.737	3195
927.843	3195
927.95	3093
928.056	3188
928.162	3188
928.267	3363
928.373	3850
928.479	3367
928.585	3100
928.69	3249
928.796	3325
928.901	3230
929.007	3093
929.112	3241
929.218	3241
929.323	3199
929.428	3199
929.533	3344
929.638	3199
929.743	3237
929.848	3348
929.953	3298
930.058	3211
930.163	3077
930.267	3085
930.372	3249
930.477	3123
930.581	3386
930.685	3211
930.79	3112
930.894	3184
930.998	3157
931.103	3306
931.207	3039
931.311	3001
931.415	2982
931.519	2849
931.623	2857
