Data from test_V78500241_1587.txt Node
Date: Fri Mar 25 16:26:11 CST 2022
User: usil
Spectrometer: V785-0024
Trigger mode: 0
Integration Time (sec): 4.000000E-1
Scans to average: 1
Nonlinearity correction enabled: false
Boxcar width: 0
Storing dark spectrum: false
XAxis mode: Wavelengths
Number of Pixels in Spectrum: 1024
>>>>>Begin Spectral Data<<<<<
801.071	2918
801.214	2956
801.356	2872
801.499	2918
801.641	2876
801.783	2910
801.926	3036
802.068	2960
802.211	2979
802.353	3051
802.496	2952
802.638	3009
802.78	3051
802.923	3043
803.065	3020
803.208	2883
803.35	2918
803.492	2956
803.635	2891
803.777	2735
803.919	2876
804.061	3233
804.204	2925
804.346	2887
804.488	2826
804.63	2963
804.773	2872
804.915	2914
805.057	3100
805.199	2929
805.341	2982
805.483	3043
805.626	3036
805.768	2960
805.91	3100
806.052	3085
806.194	3047
806.336	3218
806.478	3028
806.62	2952
806.762	3001
806.904	3062
807.046	3135
807.188	2986
807.33	2902
807.472	3036
807.614	2929
807.756	2986
807.898	2887
808.04	2902
808.182	2994
808.324	2933
808.465	2899
808.607	2899
808.749	2811
808.891	2842
809.033	2944
809.174	2963
809.316	2906
809.458	2933
809.6	2773
809.741	2746
809.883	2777
810.025	2891
810.166	2845
810.308	2811
810.45	2845
810.591	2754
810.733	2731
810.875	2830
811.016	2754
811.158	2777
811.299	2781
811.441	2922
811.582	2880
811.724	2800
811.865	2804
812.007	2861
812.148	2887
812.29	2826
812.431	2876
812.573	2956
812.714	2910
812.855	3047
812.997	3017
813.138	3127
813.279	3020
813.421	3039
813.562	2960
813.703	2872
813.845	2906
813.986	2762
814.127	2720
814.268	2811
814.41	2826
814.551	2766
814.692	2883
814.833	2830
814.974	2861
815.115	2941
815.256	2842
815.397	2792
815.539	2838
815.68	2788
815.821	2819
815.962	2906
816.103	2929
816.244	2887
816.385	2853
816.526	2941
816.666	2941
816.807	2746
816.948	2857
817.089	2891
817.23	2880
817.371	2781
817.512	2815
817.653	2807
817.793	2804
817.934	2868
818.075	2990
818.216	2971
818.356	3036
818.497	2891
818.638	2777
818.778	2845
818.919	2796
819.06	2712
819.2	2868
819.341	2777
819.481	2796
819.622	2952
819.762	3089
819.903	3039
820.043	2944
820.184	2899
820.324	2899
820.465	3009
820.605	3013
820.746	3017
820.886	2929
821.026	3093
821.167	3127
821.307	3253
821.447	3245
821.588	3226
821.728	3188
821.868	3226
822.008	3051
822.149	3230
822.289	3214
822.429	3070
822.569	3085
822.709	3146
822.849	3043
822.99	3047
823.13	3157
823.27	3184
823.41	3135
823.55	3123
823.69	3184
823.83	3180
823.97	3093
824.11	3001
824.25	2986
824.389	3058
824.529	3085
824.669	3070
824.809	3157
824.949	3241
825.089	3184
825.228	3138
825.368	3028
825.508	2979
825.648	2956
825.787	2967
825.927	2998
826.067	2960
826.206	2956
826.346	3001
826.485	3093
826.625	3119
826.765	3275
826.904	3233
827.044	2994
827.183	2956
827.323	2868
827.462	2963
827.601	2925
827.741	2925
827.88	2956
828.02	2853
828.159	2982
828.298	3032
828.437	3097
828.577	3028
828.716	3214
828.855	3112
828.994	2929
829.134	2899
829.273	2914
829.412	2891
829.551	2857
829.69	2895
829.829	3013
829.968	3112
830.107	3020
830.246	3020
830.385	2899
830.524	2880
830.663	2800
830.802	2727
830.941	2659
831.08	2610
831.219	2739
831.357	2796
831.496	2922
831.635	2689
831.774	2663
831.913	2670
832.051	2530
832.19	2568
832.329	2670
832.467	2503
832.606	2499
832.744	2568
832.883	2583
833.022	2590
833.16	2659
833.299	2689
833.437	2689
833.576	2682
833.714	2720
833.852	2720
833.991	2743
834.129	2815
834.267	2811
834.406	2785
834.544	2853
834.682	2887
834.821	2845
834.959	3032
835.097	2876
835.235	3051
835.373	3024
835.511	3009
835.65	2963
835.788	2967
835.926	2819
836.064	2792
836.202	2842
836.34	3097
836.478	3157
836.615	3085
836.753	3116
836.891	3176
837.029	3169
837.167	3119
837.305	3047
837.443	3017
837.58	2956
837.718	3131
837.856	3055
837.993	3028
838.131	3089
838.269	3085
838.406	3089
838.544	3104
838.681	2941
838.819	2937
838.956	2800
839.094	2826
839.231	2910
839.369	2998
839.506	3397
839.643	3180
839.781	2986
839.918	2948
840.055	3055
840.193	3047
840.33	3039
840.467	3070
840.604	3157
840.742	3416
840.879	3047
841.016	3051
841.153	3135
841.29	3317
841.427	3268
841.564	3268
841.701	3321
841.838	3176
841.975	3199
842.112	3218
842.249	3077
842.385	3032
842.522	3283
842.659	3081
842.796	3032
842.933	3066
843.069	3074
843.206	3024
843.343	3157
843.479	3100
843.616	3116
843.752	2887
843.889	2876
844.025	3085
844.162	2868
844.298	3070
844.435	2963
844.571	2929
844.708	3058
844.844	3154
844.98	3230
845.117	3176
845.253	3009
845.389	3024
845.525	3097
845.661	3085
845.798	3013
845.934	3127
846.07	3058
846.206	3199
846.342	3325
846.478	3192
846.614	3123
846.75	3017
846.886	3005
847.022	3199
847.158	3138
847.294	3176
847.429	3230
847.565	3207
847.701	3450
847.837	2998
847.972	2986
848.108	3142
848.244	3119
848.379	2982
848.515	2975
848.65	2929
848.786	2960
848.921	3024
849.057	3055
849.192	3157
849.328	3085
849.463	3081
849.598	3039
849.734	3028
849.869	2975
850.004	2925
850.14	2937
850.275	2895
850.41	2872
850.545	2880
850.68	2948
850.815	2948
850.95	2998
851.085	3192
851.22	3074
851.355	3077
851.49	3005
851.625	2975
851.76	3024
851.895	2944
852.03	2922
852.165	3032
852.299	3104
852.434	3157
852.569	3138
852.703	3169
852.838	3245
852.973	3325
853.107	3310
853.242	3142
853.376	3066
853.511	2944
853.645	3009
853.78	3241
853.914	3161
854.048	3112
854.183	3077
854.317	3104
854.451	3264
854.585	3112
854.72	3104
854.854	3222
854.988	3070
855.122	3058
855.256	2994
855.39	3089
855.524	3233
855.658	3157
855.792	3165
855.926	3211
856.06	3203
856.194	3272
856.327	3157
856.461	3036
856.595	3097
856.729	3070
856.862	3222
856.996	3138
857.13	3150
857.263	3203
857.397	3253
857.53	3100
857.664	3169
857.797	3241
857.931	3214
858.064	3169
858.197	3173
858.331	3127
858.464	3104
858.597	3005
858.731	3119
858.864	3112
858.997	3089
859.13	3154
859.263	3154
859.396	3214
859.529	3077
859.662	3070
859.795	3020
859.928	3176
860.061	3256
860.194	3241
860.327	3093
860.46	3154
860.592	3222
860.725	3230
860.858	3249
860.99	3100
861.123	3032
861.256	3055
861.388	3123
861.521	3838
861.653	3017
861.786	2963
861.918	2982
862.05	3066
862.183	3119
862.315	3116
862.447	3169
862.58	3085
862.712	2971
862.844	2891
862.976	2994
863.108	3001
863.24	3283
863.372	2891
863.504	2967
863.636	2918
863.768	3036
863.9	2937
864.032	2902
864.164	2910
864.296	2986
864.428	3074
864.559	3093
864.691	3039
864.823	3062
864.954	3017
865.086	3055
865.217	2994
865.349	2941
865.48	2994
865.612	3017
865.743	3165
865.875	3005
866.006	2952
866.137	2963
866.269	2982
866.4	2918
866.531	2941
866.662	2891
866.793	2876
866.924	2910
867.055	2971
867.186	2925
867.317	2838
867.448	2785
867.579	2834
867.71	2838
867.841	2800
867.972	2880
868.103	2887
868.233	2891
868.364	2887
868.495	2902
868.625	3074
868.756	3188
868.886	2941
869.017	3009
869.147	3173
869.278	3127
869.408	3058
869.539	3032
869.669	3104
869.799	3032
869.929	3161
870.06	3100
870.19	3310
870.32	3287
870.45	3275
870.58	3370
870.71	3424
870.84	3458
870.97	3279
871.1	3256
871.23	3477
871.36	3496
871.489	3382
871.619	3416
871.749	3416
871.879	3405
872.008	3481
872.138	3332
872.267	3253
872.397	3127
872.526	3070
872.656	2994
872.785	3085
872.915	3230
873.044	3321
873.173	3214
873.303	3230
873.432	3275
873.561	3241
873.69	3142
873.819	3127
873.948	3199
874.077	3123
874.206	3055
874.335	3081
874.464	3195
874.593	3348
874.722	3237
874.851	3382
874.979	3351
875.108	3317
875.237	3237
875.365	3154
875.494	3138
875.623	3214
875.751	3055
875.88	3131
876.008	3199
876.136	3226
876.265	3363
876.393	3507
876.521	3435
876.65	3382
876.778	3348
876.906	3233
877.034	3207
877.162	3233
877.29	3184
877.418	3218
877.546	3275
877.674	3214
877.802	3268
877.93	3195
878.058	3165
878.185	3097
878.313	3222
878.441	3214
878.568	3047
878.696	3173
878.824	3237
878.951	3291
879.079	3409
879.206	3618
879.333	3458
879.461	3275
879.588	3355
879.715	3466
879.842	3595
879.97	3386
880.097	3142
880.224	3135
880.351	3218
880.478	3245
880.605	3195
880.732	3195
880.859	3473
880.986	3275
881.112	3321
881.239	3207
881.366	3066
881.493	3039
881.619	3020
881.746	3032
881.872	3097
881.999	3108
882.125	3176
882.252	3214
882.378	3237
882.505	3424
882.631	3302
882.757	3150
882.883	3207
883.01	3192
883.136	3207
883.262	3108
883.388	3138
883.514	3332
883.64	3351
883.766	3294
883.892	3188
884.018	3230
884.143	3420
884.269	3530
884.395	3222
884.52	3184
884.646	3203
884.772	3112
884.897	3062
885.023	3222
885.148	3310
885.274	3416
885.399	3363
885.524	3260
885.65	3230
885.775	3291
885.9	3275
886.025	3397
886.15	3374
886.275	3294
886.4	3222
886.525	3317
886.65	3256
886.775	3291
886.9	3500
887.025	3644
887.149	3431
887.274	3256
887.399	3157
887.523	3169
887.648	3195
887.773	3165
887.897	3348
888.021	3416
888.146	3306
888.27	3428
888.395	3534
888.519	3409
888.643	3416
888.767	3443
888.891	3325
889.015	3199
889.139	3294
889.263	3260
889.387	3462
889.511	3553
889.635	3409
889.759	3302
889.883	3279
890.006	3405
890.13	3477
890.254	3298
890.377	3310
890.501	3222
890.624	3207
890.748	3272
890.871	3203
890.995	3100
891.118	3055
891.241	3203
891.364	3253
891.488	3298
891.611	3180
891.734	3256
891.857	3294
891.98	3249
892.103	3325
892.226	3268
892.349	3203
892.471	3127
892.594	3233
892.717	3313
892.839	3275
892.962	3302
893.085	3370
893.207	3313
893.33	3169
893.452	3199
893.575	3344
893.697	3218
893.819	3485
893.941	3469
894.064	3443
894.186	3268
894.308	3207
894.43	3393
894.552	3572
894.674	3435
894.796	3264
894.918	3310
895.04	3287
895.161	3428
895.283	3367
895.405	3294
895.526	3329
895.648	3435
895.769	3443
895.891	3477
896.012	3443
896.134	3477
896.255	3420
896.376	3409
896.498	3363
896.619	3378
896.74	3355
896.861	3363
896.982	3656
897.103	3835
897.224	3576
897.345	3500
897.466	3458
897.587	3485
897.708	3599
897.828	3523
897.949	3401
898.07	3355
898.19	3401
898.311	3622
898.431	3428
898.552	3488
898.672	3568
898.792	3534
898.913	3523
899.033	3393
899.153	3291
899.273	3207
899.393	3325
899.513	3283
899.633	3321
899.753	3325
899.873	3283
899.993	3363
900.113	3313
900.232	3355
900.352	3325
900.472	3325
900.591	3199
900.711	3275
900.83	3245
900.95	3393
901.069	3496
901.189	3367
901.308	3157
901.427	3142
901.546	3188
901.665	3291
901.784	3344
901.904	3203
902.023	3165
902.141	3013
902.26	2982
902.379	3112
902.498	3077
902.617	3108
902.735	3192
902.854	3241
902.973	3169
903.091	3039
903.21	3070
903.328	3131
903.446	3089
903.565	3085
903.683	3211
903.801	3169
903.919	3268
904.038	3310
904.156	3180
904.274	3241
904.392	3272
904.51	3272
904.627	3291
904.745	3416
904.863	3477
904.981	3253
905.098	3188
905.216	3207
905.334	3283
905.451	3321
905.569	3302
905.686	3469
905.803	3416
905.921	3298
906.038	3435
906.155	3348
906.272	3264
906.389	3340
906.506	3283
906.623	3237
906.74	3283
906.857	3203
906.974	3291
907.091	3431
907.208	3553
907.324	3462
907.441	3382
907.557	3233
907.674	3207
907.79	3218
907.907	3272
908.023	3355
908.139	3374
908.256	3325
908.372	3329
908.488	3351
908.604	3245
908.72	3245
908.836	3245
908.952	3302
909.068	3344
909.184	3443
909.3	3382
909.415	3462
909.531	3454
909.647	3287
909.762	3291
909.878	3249
909.993	3367
910.108	3306
910.224	3329
910.339	3370
910.454	3359
910.57	3275
910.685	3226
910.8	3606
910.915	3557
911.03	3393
911.145	3260
911.259	3268
911.374	3279
911.489	3237
911.604	3230
911.718	3142
911.833	3138
911.947	3058
912.062	3013
912.176	3173
912.291	3233
912.405	3218
912.519	3389
912.633	3488
912.748	3325
912.862	3298
912.976	3131
913.09	3024
913.204	3157
913.318	3233
913.431	3340
913.545	3397
913.659	3435
913.772	3306
913.886	3192
914	3214
914.113	3382
914.226	3431
914.34	3374
914.453	3207
914.566	3416
914.68	3291
914.793	3313
914.906	3165
915.019	3085
915.132	3066
915.245	3135
915.358	3195
915.47	3214
915.583	3249
915.696	3317
915.809	3389
915.921	3393
916.034	3264
916.146	3245
916.259	3207
916.371	3340
916.483	3374
916.595	3279
916.708	3348
916.82	3336
916.932	3348
917.044	3336
917.156	3325
917.268	3226
917.38	3256
917.491	3294
917.603	3348
917.715	3428
917.826	3504
917.938	3348
918.049	3329
918.161	3450
918.272	3553
918.384	3584
918.495	3515
918.606	3317
918.717	3321
918.828	3382
918.939	3401
919.05	3279
919.161	3397
919.272	3176
919.383	3264
919.494	3492
919.604	3671
919.715	3485
919.826	3428
919.936	3473
920.047	3595
920.157	3553
920.267	3736
920.378	3580
920.488	3576
920.598	3797
920.708	3911
920.818	3812
920.928	3823
921.038	4010
921.148	3998
921.258	3717
921.368	3622
921.477	3561
921.587	3485
921.697	3466
921.806	3641
921.916	3538
922.025	3378
922.134	3348
922.244	3302
922.353	3450
922.462	3298
922.571	3214
922.68	3116
922.789	3074
922.898	3089
923.007	3055
923.116	3169
923.224	3150
923.333	3173
923.442	3119
923.55	3100
923.659	3100
923.767	3211
923.876	3108
923.984	3241
924.092	3119
924.201	3192
924.309	3218
924.417	3272
924.525	3176
924.633	3214
924.741	4128
924.849	3039
924.956	3249
925.064	3123
925.172	3005
925.279	3085
925.387	3176
925.494	3233
925.602	3348
925.709	3332
925.816	3203
925.924	3256
926.031	3389
926.138	3332
926.245	3344
926.352	3222
926.459	3386
926.566	3443
926.673	3298
926.779	3264
926.886	3226
926.993	3161
927.099	3138
927.206	3119
927.312	3097
927.419	3230
927.525	3199
927.631	3245
927.737	3123
927.843	3131
927.95	3055
928.056	3081
928.162	3226
928.267	3226
928.373	3892
928.479	3291
928.585	3055
928.69	3214
928.796	3275
928.901	3192
929.007	3020
929.112	3184
929.218	3173
929.323	3138
929.428	3131
929.533	3306
929.638	3127
929.743	3173
929.848	3253
929.953	3203
930.058	3138
930.163	2994
930.267	3036
930.372	3226
930.477	3051
930.581	3313
930.685	3169
930.79	3024
930.894	3150
930.998	3070
931.103	3336
931.207	2948
931.311	2963
931.415	2933
931.519	2792
931.623	2830
