Data from test_V78500241_2005.txt Node
Date: Fri Mar 25 16:29:05 CST 2022
User: usil
Spectrometer: V785-0024
Trigger mode: 0
Integration Time (sec): 4.000000E-1
Scans to average: 1
Nonlinearity correction enabled: false
Boxcar width: 0
Storing dark spectrum: false
XAxis mode: Wavelengths
Number of Pixels in Spectrum: 1024
>>>>>Begin Spectral Data<<<<<
801.071	2902
801.214	2899
801.356	2872
801.499	2872
801.641	2857
801.783	2929
801.926	3047
802.068	2975
802.211	2963
802.353	3001
802.496	2948
802.638	2956
802.78	3020
802.923	3032
803.065	3009
803.208	2906
803.35	2914
803.492	2948
803.635	2929
803.777	2724
803.919	2849
804.061	3192
804.204	2922
804.346	2902
804.488	2838
804.63	2960
804.773	2857
804.915	2914
805.057	3070
805.199	2933
805.341	2967
805.483	3032
805.626	2979
805.768	2922
805.91	3089
806.052	3097
806.194	3005
806.336	3233
806.478	3043
806.62	2960
806.762	2967
806.904	3066
807.046	3180
807.188	2979
807.33	2902
807.472	3001
807.614	2887
807.756	2967
807.898	2883
808.04	2902
808.182	2990
808.324	2929
808.465	2883
808.607	2876
808.749	2758
808.891	2864
809.033	2986
809.174	2982
809.316	2906
809.458	2872
809.6	2754
809.741	2754
809.883	2796
810.025	2845
810.166	2807
810.308	2823
810.45	2834
810.591	2762
810.733	2769
810.875	2838
811.016	2720
811.158	2720
811.299	2792
811.441	2967
811.582	2876
811.724	2800
811.865	2815
812.007	2891
812.148	2842
812.29	2853
812.431	2883
812.573	2910
812.714	2967
812.855	3013
812.997	3047
813.138	3131
813.279	2963
813.421	3017
813.562	2982
813.703	2887
813.845	2891
813.986	2750
814.127	2708
814.268	2792
814.41	2804
814.551	2773
814.692	2845
814.833	2830
814.974	2876
815.115	2960
815.256	2830
815.397	2804
815.539	2876
815.68	2785
815.821	2792
815.962	2899
816.103	2891
816.244	2880
816.385	2845
816.526	2963
816.666	2910
816.807	2739
816.948	2815
817.089	2906
817.23	2823
817.371	2815
817.512	2800
817.653	2830
817.793	2811
817.934	2895
818.075	2982
818.216	2967
818.356	3036
818.497	2880
818.638	2777
818.778	2826
818.919	2739
819.06	2739
819.2	2853
819.341	2743
819.481	2823
819.622	2929
819.762	3112
819.903	3024
820.043	2929
820.184	2902
820.324	2883
820.465	3001
820.605	3001
820.746	3024
820.886	2914
821.026	3081
821.167	3119
821.307	3214
821.447	3287
821.588	3207
821.728	3188
821.868	3199
822.008	3043
822.149	3146
822.289	3199
822.429	3085
822.569	3051
822.709	3173
822.849	2982
822.99	3017
823.13	3127
823.27	3150
823.41	3104
823.55	3154
823.69	3135
823.83	3180
823.97	3093
824.11	2994
824.25	2979
824.389	3024
824.529	3119
824.669	3028
824.809	3195
824.949	3268
825.089	3146
825.228	3116
825.368	2986
825.508	2960
825.648	2933
825.787	2975
825.927	3009
826.067	2956
826.206	2956
826.346	2994
826.485	3062
826.625	3089
826.765	3230
826.904	3184
827.044	2956
827.183	2899
827.323	2842
827.462	2967
827.601	2929
827.741	2902
827.88	2925
828.02	2845
828.159	2922
828.298	3032
828.437	3089
828.577	3028
828.716	3272
828.855	3077
828.994	2944
829.134	2895
829.273	2933
829.412	2887
829.551	2876
829.69	2914
829.829	3005
829.968	3142
830.107	3036
830.246	3051
830.385	2960
830.524	2902
830.663	2823
830.802	2762
830.941	2663
831.08	2701
831.219	2758
831.357	2792
831.496	2994
831.635	2754
831.774	2697
831.913	2689
832.051	2583
832.19	2598
832.329	2712
832.467	2590
832.606	2541
832.744	2629
832.883	2632
833.022	2659
833.16	2686
833.299	2754
833.437	2754
833.576	2720
833.714	2746
833.852	2746
833.991	2804
834.129	2842
834.267	2880
834.406	2857
834.544	2925
834.682	2925
834.821	2914
834.959	3127
835.097	2944
835.235	3093
835.373	3036
835.511	3032
835.65	2986
835.788	2975
835.926	2872
836.064	2845
836.202	2883
836.34	3173
836.478	3165
836.615	3081
836.753	3192
836.891	3237
837.029	3184
837.167	3169
837.305	3081
837.443	3077
837.58	3047
837.718	3131
837.856	3119
837.993	3077
838.131	3173
838.269	3135
838.406	3116
838.544	3127
838.681	2944
838.819	2937
838.956	2815
839.094	2872
839.231	2994
839.369	3058
839.506	3374
839.643	3214
839.781	3039
839.918	2967
840.055	3085
840.193	3081
840.33	3097
840.467	3146
840.604	3161
840.742	3420
840.879	3066
841.016	3074
841.153	3131
841.29	3355
841.427	3359
841.564	3287
841.701	3332
841.838	3226
841.975	3195
842.112	3222
842.249	3077
842.385	3074
842.522	3317
842.659	3112
842.796	3066
842.933	3131
843.069	3066
843.206	3093
843.343	3233
843.479	3089
843.616	3150
843.752	2922
843.889	2891
844.025	3104
844.162	2918
844.298	3089
844.435	2994
844.571	2952
844.708	3108
844.844	3218
844.98	3249
845.117	3207
845.253	3093
845.389	3017
845.525	3138
845.661	3127
845.798	3062
845.934	3157
846.07	3112
846.206	3253
846.342	3355
846.478	3253
846.614	3127
846.75	3119
846.886	3051
847.022	3256
847.158	3169
847.294	3207
847.429	3275
847.565	3260
847.701	3534
847.837	3058
847.972	3039
848.108	3195
848.244	3150
848.379	3051
848.515	2941
848.65	2937
848.786	3009
848.921	3036
849.057	3150
849.192	3169
849.328	3093
849.463	3169
849.598	3093
849.734	3058
849.869	3013
850.004	2922
850.14	2998
850.275	2952
850.41	2876
850.545	2887
850.68	2948
850.815	3009
850.95	2975
851.085	3211
851.22	3138
851.355	3051
851.49	3077
851.625	3036
851.76	3074
851.895	2960
852.03	2967
852.165	3074
852.299	3142
852.434	3207
852.569	3169
852.703	3207
852.838	3291
852.973	3359
853.107	3317
853.242	3138
853.376	3093
853.511	2975
853.645	3039
853.78	3260
853.914	3184
854.048	3127
854.183	3100
854.317	3135
854.451	3279
854.585	3127
854.72	3116
854.854	3241
854.988	3077
855.122	3116
855.256	2994
855.39	3119
855.524	3283
855.658	3214
855.792	3176
855.926	3188
856.06	3233
856.194	3275
856.327	3188
856.461	3100
856.595	3112
856.729	3127
856.862	3218
856.996	3214
857.13	3256
857.263	3279
857.397	3317
857.53	3154
857.664	3253
857.797	3264
857.931	3279
858.064	3199
858.197	3230
858.331	3169
858.464	3119
858.597	3039
858.731	3135
858.864	3150
858.997	3100
859.13	3199
859.263	3199
859.396	3230
859.529	3112
859.662	3089
859.795	3089
859.928	3184
860.061	3306
860.194	3291
860.327	3150
860.46	3123
860.592	3313
860.725	3279
860.858	3268
860.99	3104
861.123	3066
861.256	3055
861.388	3142
861.521	3857
861.653	3055
861.786	3028
861.918	3028
862.05	3108
862.183	3108
862.315	3192
862.447	3218
862.58	3119
862.712	2971
862.844	2895
862.976	3047
863.108	3009
863.24	3340
863.372	2902
863.504	3039
863.636	2925
863.768	3043
863.9	3017
864.032	2910
864.164	2967
864.296	3036
864.428	3127
864.559	3135
864.691	3058
864.823	3058
864.954	3085
865.086	3058
865.217	3017
865.349	2975
865.48	2998
865.612	3032
865.743	3150
865.875	3036
866.006	2952
866.137	2986
866.269	2956
866.4	2956
866.531	2937
866.662	2910
866.793	2918
866.924	2929
867.055	2956
867.186	2956
867.317	2918
867.448	2849
867.579	2830
867.71	2880
867.841	2861
867.972	2929
868.103	2906
868.233	2914
868.364	2891
868.495	2967
868.625	3119
868.756	3173
868.886	3009
869.017	3028
869.147	3214
869.278	3161
869.408	3070
869.539	3051
869.669	3157
869.799	3036
869.929	3138
870.06	3108
870.19	3336
870.32	3329
870.45	3332
870.58	3409
870.71	3492
870.84	3424
870.97	3313
871.1	3249
871.23	3469
871.36	3454
871.489	3382
871.619	3447
871.749	3447
871.879	3447
872.008	3492
872.138	3397
872.267	3283
872.397	3154
872.526	3116
872.656	3028
872.785	3119
872.915	3241
873.044	3344
873.173	3237
873.303	3237
873.432	3279
873.561	3268
873.69	3161
873.819	3195
873.948	3222
874.077	3097
874.206	3051
874.335	3112
874.464	3211
874.593	3359
874.722	3268
874.851	3450
874.979	3332
875.108	3332
875.237	3245
875.365	3154
875.494	3203
875.623	3275
875.751	3074
875.88	3154
876.008	3237
876.136	3237
876.265	3386
876.393	3523
876.521	3416
876.65	3462
876.778	3363
876.906	3268
877.034	3230
877.162	3275
877.29	3207
877.418	3268
877.546	3298
877.674	3268
877.802	3218
877.93	3253
878.058	3203
878.185	3127
878.313	3199
878.441	3211
878.568	3085
878.696	3161
878.824	3283
878.951	3321
879.079	3481
879.206	3652
879.333	3462
879.461	3344
879.588	3355
879.715	3530
879.842	3595
879.97	3424
880.097	3199
880.224	3169
880.351	3188
880.478	3260
880.605	3214
880.732	3218
880.859	3485
880.986	3340
881.112	3340
881.239	3211
881.366	3108
881.493	3055
881.619	3024
881.746	3093
881.872	3135
881.999	3104
882.125	3188
882.252	3302
882.378	3313
882.505	3450
882.631	3332
882.757	3173
882.883	3272
883.01	3237
883.136	3180
883.262	3135
883.388	3154
883.514	3344
883.64	3374
883.766	3317
883.892	3173
884.018	3230
884.143	3420
884.269	3504
884.395	3241
884.52	3173
884.646	3184
884.772	3116
884.897	3097
885.023	3188
885.148	3332
885.274	3431
885.399	3397
885.524	3241
885.65	3302
885.775	3329
885.9	3321
886.025	3439
886.15	3412
886.275	3325
886.4	3283
886.525	3329
886.65	3294
886.775	3287
886.9	3492
887.025	3667
887.149	3435
887.274	3241
887.399	3180
887.523	3218
887.648	3195
887.773	3218
887.897	3374
888.021	3397
888.146	3310
888.27	3412
888.395	3511
888.519	3431
888.643	3469
888.767	3462
888.891	3329
889.015	3233
889.139	3294
889.263	3287
889.387	3412
889.511	3496
889.635	3485
889.759	3294
889.883	3283
890.006	3348
890.13	3500
890.254	3264
890.377	3374
890.501	3226
890.624	3218
890.748	3302
890.871	3154
890.995	3093
891.118	3074
891.241	3245
891.364	3241
891.488	3355
891.611	3173
891.734	3241
891.857	3302
891.98	3268
892.103	3348
892.226	3233
892.349	3222
892.471	3142
892.594	3233
892.717	3306
892.839	3287
892.962	3336
893.085	3325
893.207	3306
893.33	3169
893.452	3203
893.575	3329
893.697	3260
893.819	3496
893.941	3511
894.064	3481
894.186	3264
894.308	3283
894.43	3431
894.552	3545
894.674	3477
894.796	3245
894.918	3359
895.04	3310
895.161	3412
895.283	3405
895.405	3317
895.526	3378
895.648	3454
895.769	3424
895.891	3466
896.012	3481
896.134	3477
896.255	3431
896.376	3420
896.498	3378
896.619	3424
896.74	3332
896.861	3412
896.982	3686
897.103	3835
897.224	3614
897.345	3542
897.466	3450
897.587	3488
897.708	3591
897.828	3534
897.949	3397
898.07	3313
898.19	3416
898.311	3622
898.431	3454
898.552	3507
898.672	3633
898.792	3542
898.913	3500
899.033	3401
899.153	3291
899.273	3264
899.393	3310
899.513	3355
899.633	3329
899.753	3321
899.873	3298
899.993	3382
900.113	3340
900.232	3378
900.352	3367
900.472	3310
900.591	3184
900.711	3272
900.83	3214
900.95	3389
901.069	3511
901.189	3359
901.308	3154
901.427	3146
901.546	3203
901.665	3291
901.784	3321
901.904	3203
902.023	3157
902.141	2982
902.26	3001
902.379	3131
902.498	3055
902.617	3051
902.735	3195
902.854	3249
902.973	3195
903.091	3062
903.21	3070
903.328	3169
903.446	3154
903.565	3097
903.683	3230
903.801	3150
903.919	3283
904.038	3275
904.156	3241
904.274	3313
904.392	3306
904.51	3310
904.627	3329
904.745	3409
904.863	3542
904.981	3298
905.098	3199
905.216	3249
905.334	3351
905.451	3306
905.569	3325
905.686	3473
905.803	3466
905.921	3317
906.038	3462
906.155	3367
906.272	3275
906.389	3374
906.506	3268
906.623	3302
906.74	3294
906.857	3214
906.974	3332
907.091	3504
907.208	3603
907.324	3500
907.441	3462
907.557	3291
907.674	3306
907.79	3291
907.907	3336
908.023	3412
908.139	3397
908.256	3370
908.372	3397
908.488	3416
908.604	3321
908.72	3298
908.836	3325
908.952	3340
909.068	3378
909.184	3515
909.3	3443
909.415	3530
909.531	3530
909.647	3275
909.762	3336
909.878	3291
909.993	3435
910.108	3389
910.224	3389
910.339	3454
910.454	3393
910.57	3344
910.685	3283
910.8	3622
910.915	3591
911.03	3496
911.145	3283
911.259	3329
911.374	3378
911.489	3298
911.604	3272
911.718	3184
911.833	3207
911.947	3077
912.062	3028
912.176	3214
912.291	3211
912.405	3245
912.519	3477
912.633	3473
912.748	3393
912.862	3317
912.976	3176
913.09	3081
913.204	3195
913.318	3253
913.431	3367
913.545	3348
913.659	3416
913.772	3401
913.886	3294
914	3218
914.113	3405
914.226	3450
914.34	3386
914.453	3283
914.566	3485
914.68	3321
914.793	3374
914.906	3157
915.019	3131
915.132	3123
915.245	3256
915.358	3214
915.47	3222
915.583	3294
915.696	3363
915.809	3485
915.921	3435
916.034	3291
916.146	3310
916.259	3237
916.371	3386
916.483	3447
916.595	3264
916.708	3332
916.82	3374
916.932	3355
917.044	3359
917.156	3332
917.268	3298
917.38	3370
917.491	3306
917.603	3431
917.715	3492
917.826	3500
917.938	3428
918.049	3306
918.161	3492
918.272	3614
918.384	3618
918.495	3549
918.606	3336
918.717	3310
918.828	3458
918.939	3439
919.05	3302
919.161	3378
919.272	3230
919.383	3332
919.494	3545
919.604	3701
919.715	3507
919.826	3439
919.936	3492
920.047	3591
920.157	3576
920.267	3789
920.378	3633
920.488	3553
920.598	3812
920.708	4036
920.818	3819
920.928	3869
921.038	4044
921.148	4029
921.258	3747
921.368	3633
921.477	3629
921.587	3614
921.697	3496
921.806	3679
921.916	3591
922.025	3313
922.134	3401
922.244	3374
922.353	3435
922.462	3344
922.571	3230
922.68	3157
922.789	3100
922.898	3184
923.007	3108
923.116	3245
923.224	3207
923.333	3226
923.442	3127
923.55	3150
923.659	3127
923.767	3218
923.876	3135
923.984	3272
924.092	3157
924.201	3222
924.309	3218
924.417	3294
924.525	3233
924.633	3283
924.741	4192
924.849	3108
924.956	3317
925.064	3127
925.172	3112
925.279	3138
925.387	3195
925.494	3233
925.602	3405
925.709	3348
925.816	3249
925.924	3348
926.031	3363
926.138	3378
926.245	3378
926.352	3306
926.459	3416
926.566	3515
926.673	3332
926.779	3256
926.886	3287
926.993	3188
927.099	3135
927.206	3138
927.312	3142
927.419	3218
927.525	3260
927.631	3264
927.737	3165
927.843	3135
927.95	3051
928.056	3135
928.162	3188
928.267	3275
928.373	3892
928.479	3329
928.585	3097
928.69	3218
928.796	3310
928.901	3207
929.007	3058
929.112	3256
929.218	3218
929.323	3188
929.428	3188
929.533	3340
929.638	3112
929.743	3180
929.848	3260
929.953	3222
930.058	3165
930.163	3028
930.267	3055
930.372	3256
930.477	3062
930.581	3367
930.685	3203
930.79	3104
930.894	3127
930.998	3131
931.103	3340
931.207	2967
931.311	2979
931.415	2963
931.519	2864
931.623	2834
