Data from test_V78500241_2039.txt Node
Date: Fri Mar 25 16:29:19 CST 2022
User: usil
Spectrometer: V785-0024
Trigger mode: 0
Integration Time (sec): 4.000000E-1
Scans to average: 1
Nonlinearity correction enabled: false
Boxcar width: 0
Storing dark spectrum: false
XAxis mode: Wavelengths
Number of Pixels in Spectrum: 1024
>>>>>Begin Spectral Data<<<<<
801.071	2925
801.214	2944
801.356	2868
801.499	2902
801.641	2872
801.783	2929
801.926	3051
802.068	2929
802.211	3001
802.353	3058
802.496	2960
802.638	2990
802.78	2986
802.923	3100
803.065	3032
803.208	2933
803.35	2914
803.492	2948
803.635	2929
803.777	2746
803.919	2842
804.061	3188
804.204	2975
804.346	2933
804.488	2861
804.63	2998
804.773	2849
804.915	2929
805.057	3089
805.199	2948
805.341	2982
805.483	3047
805.626	3017
805.768	2963
805.91	3104
806.052	3119
806.194	3043
806.336	3233
806.478	3009
806.62	2975
806.762	2975
806.904	3066
807.046	3157
807.188	2971
807.33	2922
807.472	2982
807.614	2929
807.756	2956
807.898	2910
808.04	2910
808.182	2994
808.324	2990
808.465	2872
808.607	2883
808.749	2815
808.891	2861
809.033	2986
809.174	2979
809.316	2880
809.458	2899
809.6	2762
809.741	2796
809.883	2788
810.025	2834
810.166	2853
810.308	2830
810.45	2853
810.591	2792
810.733	2769
810.875	2830
811.016	2762
811.158	2773
811.299	2838
811.441	2952
811.582	2887
811.724	2819
811.865	2845
812.007	2895
812.148	2891
812.29	2868
812.431	2849
812.573	3001
812.714	2986
812.855	3036
812.997	3051
813.138	3127
813.279	3028
813.421	2986
813.562	2975
813.703	2876
813.845	2910
813.986	2773
814.127	2777
814.268	2830
814.41	2826
814.551	2842
814.692	2899
814.833	2800
814.974	2906
815.115	2952
815.256	2845
815.397	2815
815.539	2842
815.68	2773
815.821	2826
815.962	2979
816.103	2922
816.244	2876
816.385	2845
816.526	2956
816.666	2906
816.807	2762
816.948	2922
817.089	2906
817.23	2853
817.371	2785
817.512	2830
817.653	2864
817.793	2849
817.934	2891
818.075	2979
818.216	3036
818.356	3013
818.497	2880
818.638	2766
818.778	2838
818.919	2792
819.06	2777
819.2	2861
819.341	2842
819.481	2838
819.622	2941
819.762	3104
819.903	3043
820.043	2960
820.184	2880
820.324	2914
820.465	3013
820.605	3020
820.746	3017
820.886	2925
821.026	3074
821.167	3180
821.307	3256
821.447	3253
821.588	3260
821.728	3207
821.868	3150
822.008	3077
822.149	3192
822.289	3279
822.429	3100
822.569	3093
822.709	3192
822.849	3009
822.99	3089
823.13	3161
823.27	3207
823.41	3093
823.55	3138
823.69	3180
823.83	3199
823.97	3074
824.11	3070
824.25	2994
824.389	3077
824.529	3100
824.669	3077
824.809	3180
824.949	3260
825.089	3211
825.228	3150
825.368	2998
825.508	2960
825.648	2956
825.787	3020
825.927	2998
826.067	2967
826.206	2960
826.346	3062
826.485	3074
826.625	3100
826.765	3256
826.904	3184
827.044	2998
827.183	2971
827.323	2853
827.462	2979
827.601	2933
827.741	2944
827.88	2929
828.02	2819
828.159	2960
828.298	3024
828.437	3135
828.577	3032
828.716	3245
828.855	3077
828.994	2937
829.134	2895
829.273	2906
829.412	2849
829.551	2861
829.69	2937
829.829	2963
829.968	3146
830.107	2975
830.246	3028
830.385	2914
830.524	2864
830.663	2826
830.802	2754
830.941	2625
831.08	2655
831.219	2804
831.357	2750
831.496	2948
831.635	2697
831.774	2670
831.913	2667
832.051	2560
832.19	2564
832.329	2686
832.467	2522
832.606	2514
832.744	2583
832.883	2583
833.022	2583
833.16	2629
833.299	2705
833.437	2705
833.576	2686
833.714	2708
833.852	2739
833.991	2785
834.129	2842
834.267	2849
834.406	2807
834.544	2864
834.682	2891
834.821	2842
834.959	3032
835.097	2887
835.235	3024
835.373	3005
835.511	3039
835.65	2960
835.788	2952
835.926	2807
836.064	2800
836.202	2834
836.34	3104
836.478	3142
836.615	3055
836.753	3176
836.891	3176
837.029	3157
837.167	3081
837.305	3093
837.443	3047
837.58	2967
837.718	3085
837.856	3036
837.993	3009
838.131	3100
838.269	3161
838.406	3100
838.544	3074
838.681	2956
838.819	2902
838.956	2811
839.094	2830
839.231	2883
839.369	3024
839.506	3397
839.643	3165
839.781	3058
839.918	2944
840.055	3058
840.193	3058
840.33	3066
840.467	3066
840.604	3142
840.742	3386
840.879	3047
841.016	3043
841.153	3108
841.29	3359
841.427	3325
841.564	3264
841.701	3287
841.838	3226
841.975	3169
842.112	3199
842.249	3089
842.385	3047
842.522	3237
842.659	3070
842.796	3062
842.933	3093
843.069	3058
843.206	3043
843.343	3188
843.479	3100
843.616	3112
843.752	2868
843.889	2845
844.025	3100
844.162	2872
844.298	3058
844.435	2944
844.571	2895
844.708	3093
844.844	3173
844.98	3241
845.117	3188
845.253	3017
845.389	2986
845.525	3100
845.661	3085
845.798	3043
845.934	3150
846.07	3051
846.206	3195
846.342	3313
846.478	3195
846.614	3077
846.75	3036
846.886	3017
847.022	3233
847.158	3112
847.294	3203
847.429	3260
847.565	3195
847.701	3462
847.837	3024
847.972	2994
848.108	3146
848.244	3138
848.379	2956
848.515	2906
848.65	2944
848.786	2960
848.921	2998
849.057	3100
849.192	3150
849.328	3051
849.463	3104
849.598	3039
849.734	3017
849.869	2971
850.004	2929
850.14	2960
850.275	2922
850.41	2845
850.545	2872
850.68	2902
850.815	2941
850.95	2941
851.085	3192
851.22	3108
851.355	3058
851.49	2986
851.625	3005
851.76	3032
851.895	2929
852.03	2906
852.165	3028
852.299	3104
852.434	3150
852.569	3142
852.703	3127
852.838	3249
852.973	3317
853.107	3344
853.242	3173
853.376	3089
853.511	2956
853.645	3058
853.78	3233
853.914	3146
854.048	3108
854.183	3074
854.317	3150
854.451	3283
854.585	3123
854.72	3089
854.854	3199
854.988	3032
855.122	3085
855.256	2941
855.39	3108
855.524	3203
855.658	3165
855.792	3146
855.926	3169
856.06	3237
856.194	3279
856.327	3135
856.461	3032
856.595	3089
856.729	3081
856.862	3203
856.996	3138
857.13	3199
857.263	3218
857.397	3245
857.53	3116
857.664	3203
857.797	3218
857.931	3214
858.064	3150
858.197	3237
858.331	3157
858.464	3104
858.597	3001
858.731	3097
858.864	3116
858.997	3123
859.13	3104
859.263	3135
859.396	3214
859.529	3135
859.662	3077
859.795	3032
859.928	3131
860.061	3256
860.194	3230
860.327	3089
860.46	3070
860.592	3226
860.725	3237
860.858	3241
860.99	3112
861.123	3036
861.256	3039
861.388	3142
861.521	3816
861.653	2986
861.786	3009
861.918	3005
862.05	3043
862.183	3077
862.315	3146
862.447	3218
862.58	3077
862.712	2948
862.844	2838
862.976	3001
863.108	2967
863.24	3329
863.372	2887
863.504	2960
863.636	2944
863.768	3009
863.9	2979
864.032	2910
864.164	2971
864.296	3009
864.428	3074
864.559	3085
864.691	3077
864.823	3055
864.954	2986
865.086	3005
865.217	2990
865.349	2956
865.48	3005
865.612	3020
865.743	3154
865.875	2990
866.006	2933
866.137	2971
866.269	2906
866.4	2910
866.531	2902
866.662	2922
866.793	2887
866.924	2853
867.055	2967
867.186	2956
867.317	2864
867.448	2880
867.579	2815
867.71	2804
867.841	2830
867.972	2891
868.103	2899
868.233	2899
868.364	2902
868.495	2933
868.625	3081
868.756	3154
868.886	2944
869.017	3009
869.147	3184
869.278	3150
869.408	3047
869.539	3047
869.669	3081
869.799	3097
869.929	3131
870.06	3112
870.19	3306
870.32	3317
870.45	3268
870.58	3351
870.71	3458
870.84	3439
870.97	3256
871.1	3241
871.23	3435
871.36	3412
871.489	3386
871.619	3370
871.749	3420
871.879	3397
872.008	3477
872.138	3351
872.267	3291
872.397	3108
872.526	3062
872.656	2994
872.785	3097
872.915	3275
873.044	3253
873.173	3184
873.303	3260
873.432	3237
873.561	3233
873.69	3131
873.819	3142
873.948	3192
874.077	3066
874.206	3058
874.335	3081
874.464	3188
874.593	3321
874.722	3245
874.851	3382
874.979	3355
875.108	3298
875.237	3184
875.365	3180
875.494	3188
875.623	3253
875.751	3058
875.88	3135
876.008	3195
876.136	3245
876.265	3348
876.393	3511
876.521	3389
876.65	3363
876.778	3321
876.906	3237
877.034	3199
877.162	3192
877.29	3161
877.418	3264
877.546	3253
877.674	3226
877.802	3226
877.93	3192
878.058	3142
878.185	3097
878.313	3161
878.441	3241
878.568	3093
878.696	3195
878.824	3291
878.951	3298
879.079	3447
879.206	3561
879.333	3389
879.461	3336
879.588	3351
879.715	3454
879.842	3614
879.97	3386
880.097	3157
880.224	3116
880.351	3188
880.478	3214
880.605	3184
880.732	3176
880.859	3485
880.986	3313
881.112	3340
881.239	3154
881.366	3100
881.493	3039
881.619	3009
881.746	3055
881.872	3093
881.999	3085
882.125	3119
882.252	3211
882.378	3302
882.505	3431
882.631	3306
882.757	3146
882.883	3207
883.01	3233
883.136	3119
883.262	3104
883.388	3058
883.514	3329
883.64	3374
883.766	3306
883.892	3180
884.018	3207
884.143	3420
884.269	3542
884.395	3226
884.52	3116
884.646	3192
884.772	3108
884.897	3100
885.023	3241
885.148	3351
885.274	3397
885.399	3374
885.524	3287
885.65	3287
885.775	3344
885.9	3294
886.025	3454
886.15	3367
886.275	3268
886.4	3195
886.525	3294
886.65	3264
886.775	3256
886.9	3466
887.025	3648
887.149	3409
887.274	3207
887.399	3150
887.523	3222
887.648	3188
887.773	3192
887.897	3370
888.021	3382
888.146	3306
888.27	3424
888.395	3542
888.519	3447
888.643	3454
888.767	3443
888.891	3317
889.015	3245
889.139	3317
889.263	3275
889.387	3382
889.511	3488
889.635	3431
889.759	3313
889.883	3310
890.006	3363
890.13	3511
890.254	3279
890.377	3359
890.501	3195
890.624	3188
890.748	3283
890.871	3154
890.995	3089
891.118	3081
891.241	3226
891.364	3214
891.488	3329
891.611	3157
891.734	3222
891.857	3272
891.98	3253
892.103	3310
892.226	3260
892.349	3157
892.471	3119
892.594	3230
892.717	3291
892.839	3283
892.962	3230
893.085	3348
893.207	3306
893.33	3176
893.452	3207
893.575	3344
893.697	3218
893.819	3477
893.941	3523
894.064	3443
894.186	3233
894.308	3245
894.43	3428
894.552	3526
894.674	3481
894.796	3268
894.918	3268
895.04	3298
895.161	3443
895.283	3416
895.405	3332
895.526	3393
895.648	3389
895.769	3382
895.891	3450
896.012	3485
896.134	3439
896.255	3374
896.376	3412
896.498	3329
896.619	3439
896.74	3340
896.861	3386
896.982	3671
897.103	3797
897.224	3599
897.345	3481
897.466	3454
897.587	3511
897.708	3610
897.828	3519
897.949	3431
898.07	3291
898.19	3367
898.311	3557
898.431	3435
898.552	3534
898.672	3614
898.792	3545
898.913	3538
899.033	3443
899.153	3275
899.273	3192
899.393	3226
899.513	3291
899.633	3298
899.753	3321
899.873	3310
899.993	3439
900.113	3329
900.232	3374
900.352	3332
900.472	3233
900.591	3192
900.711	3272
900.83	3226
900.95	3389
901.069	3466
901.189	3359
901.308	3150
901.427	3127
901.546	3161
901.665	3321
901.784	3355
901.904	3222
902.023	3138
902.141	3028
902.26	3005
902.379	3169
902.498	3074
902.617	3047
902.735	3199
902.854	3233
902.973	3218
903.091	3028
903.21	3039
903.328	3154
903.446	3112
903.565	3093
903.683	3211
903.801	3112
903.919	3233
904.038	3260
904.156	3173
904.274	3268
904.392	3199
904.51	3272
904.627	3321
904.745	3447
904.863	3481
904.981	3245
905.098	3146
905.216	3192
905.334	3287
905.451	3294
905.569	3317
905.686	3431
905.803	3416
905.921	3283
906.038	3409
906.155	3363
906.272	3260
906.389	3302
906.506	3214
906.623	3272
906.74	3298
906.857	3195
906.974	3256
907.091	3405
907.208	3504
907.324	3473
907.441	3409
907.557	3249
907.674	3253
907.79	3214
907.907	3302
908.023	3363
908.139	3397
908.256	3325
908.372	3363
908.488	3378
908.604	3253
908.72	3237
908.836	3313
908.952	3294
909.068	3359
909.184	3507
909.3	3393
909.415	3523
909.531	3435
909.647	3294
909.762	3291
909.878	3256
909.993	3363
910.108	3340
910.224	3329
910.339	3412
910.454	3317
910.57	3260
910.685	3233
910.8	3553
910.915	3561
911.03	3428
911.145	3283
911.259	3272
911.374	3325
911.489	3237
911.604	3233
911.718	3085
911.833	3161
911.947	3013
912.062	2956
912.176	3142
912.291	3222
912.405	3192
912.519	3374
912.633	3431
912.748	3370
912.862	3279
912.976	3203
913.09	3089
913.204	3116
913.318	3192
913.431	3329
913.545	3351
913.659	3382
913.772	3321
913.886	3203
914	3199
914.113	3405
914.226	3397
914.34	3378
914.453	3180
914.566	3382
914.68	3329
914.793	3313
914.906	3146
915.019	3112
915.132	3062
915.245	3142
915.358	3203
915.47	3260
915.583	3241
915.696	3241
915.809	3393
915.921	3435
916.034	3256
916.146	3253
916.259	3199
916.371	3374
916.483	3374
916.595	3283
916.708	3344
916.82	3294
916.932	3363
917.044	3329
917.156	3355
917.268	3230
917.38	3268
917.491	3317
917.603	3336
917.715	3435
917.826	3481
917.938	3393
918.049	3302
918.161	3389
918.272	3561
918.384	3564
918.495	3473
918.606	3329
918.717	3275
918.828	3370
918.939	3443
919.05	3275
919.161	3367
919.272	3176
919.383	3321
919.494	3504
919.604	3644
919.715	3469
919.826	3416
919.936	3428
920.047	3568
920.157	3564
920.267	3743
920.378	3606
920.488	3606
920.598	3785
920.708	3941
920.818	3854
920.928	3800
921.038	4040
921.148	4006
921.258	3736
921.368	3625
921.477	3595
921.587	3542
921.697	3435
921.806	3660
921.916	3507
922.025	3313
922.134	3325
922.244	3344
922.353	3439
922.462	3233
922.571	3203
922.68	3100
922.789	3047
922.898	3127
923.007	3077
923.116	3237
923.224	3154
923.333	3195
923.442	3058
923.55	3108
923.659	3157
923.767	3188
923.876	3119
923.984	3233
924.092	3093
924.201	3199
924.309	3199
924.417	3272
924.525	3203
924.633	3241
924.741	4147
924.849	3058
924.956	3264
925.064	3077
925.172	3039
925.279	3108
925.387	3199
925.494	3192
925.602	3355
925.709	3283
925.816	3176
925.924	3306
926.031	3374
926.138	3306
926.245	3412
926.352	3226
926.459	3405
926.566	3447
926.673	3317
926.779	3287
926.886	3222
926.993	3131
927.099	3093
927.206	3127
927.312	3127
927.419	3192
927.525	3214
927.631	3291
927.737	3116
927.843	3135
927.95	3028
928.056	3119
928.162	3195
928.267	3256
928.373	3850
928.479	3306
928.585	3058
928.69	3230
928.796	3287
928.901	3150
929.007	3043
929.112	3218
929.218	3165
929.323	3127
929.428	3138
929.533	3332
929.638	3112
929.743	3157
929.848	3264
929.953	3211
930.058	3146
930.163	2998
930.267	3028
930.372	3199
930.477	3051
930.581	3287
930.685	3135
930.79	3028
930.894	3112
930.998	3062
931.103	3264
931.207	2979
931.311	2914
931.415	2887
931.519	2785
931.623	2807
