Data from test_V78500241_677.txt Node
Date: Fri Mar 25 16:19:53 CST 2022
User: usil
Spectrometer: V785-0024
Trigger mode: 0
Integration Time (sec): 4.000000E-1
Scans to average: 1
Nonlinearity correction enabled: false
Boxcar width: 0
Storing dark spectrum: false
XAxis mode: Wavelengths
Number of Pixels in Spectrum: 1024
>>>>>Begin Spectral Data<<<<<
801.071	2925
801.214	2967
801.356	2929
801.499	2891
801.641	2876
801.783	2967
801.926	3058
802.068	3032
802.211	2990
802.353	3051
802.496	2982
802.638	3017
802.78	3051
802.923	3081
803.065	3036
803.208	2933
803.35	2956
803.492	2941
803.635	2922
803.777	2796
803.919	2872
804.061	3218
804.204	2994
804.346	2929
804.488	2861
804.63	3017
804.773	2895
804.915	2902
805.057	3116
805.199	2963
805.341	2971
805.483	3058
805.626	3043
805.768	2982
805.91	3108
806.052	3123
806.194	3043
806.336	3279
806.478	3066
806.62	2952
806.762	3013
806.904	3047
807.046	3176
807.188	2986
807.33	2963
807.472	3024
807.614	2906
807.756	3013
807.898	2952
808.04	2956
808.182	2990
808.324	2948
808.465	2902
808.607	2887
808.749	2815
808.891	2891
809.033	2971
809.174	2975
809.316	2929
809.458	2906
809.6	2819
809.741	2796
809.883	2777
810.025	2899
810.166	2902
810.308	2876
810.45	2864
810.591	2785
810.733	2819
810.875	2872
811.016	2819
811.158	2777
811.299	2838
811.441	2929
811.582	2922
811.724	2853
811.865	2891
812.007	2948
812.148	2922
812.29	2868
812.431	2899
812.573	2960
812.714	2986
812.855	3058
812.997	3062
813.138	3123
813.279	3032
813.421	3020
813.562	2948
813.703	2887
813.845	2906
813.986	2815
814.127	2746
814.268	2845
814.41	2857
814.551	2823
814.692	2895
814.833	2887
814.974	2914
815.115	2971
815.256	2845
815.397	2845
815.539	2861
815.68	2823
815.821	2807
815.962	2967
816.103	2918
816.244	2914
816.385	2868
816.526	3017
816.666	2925
816.807	2823
816.948	2918
817.089	2918
817.23	2906
817.371	2800
817.512	2826
817.653	2838
817.793	2880
817.934	2914
818.075	2971
818.216	2979
818.356	3047
818.497	2902
818.638	2788
818.778	2857
818.919	2838
819.06	2785
819.2	2861
819.341	2807
819.481	2845
819.622	2944
819.762	3161
819.903	3055
820.043	2956
820.184	2933
820.324	2891
820.465	3032
820.605	3024
820.746	3024
820.886	2956
821.026	3100
821.167	3176
821.307	3279
821.447	3294
821.588	3256
821.728	3230
821.868	3245
822.008	3070
822.149	3214
822.289	3256
822.429	3127
822.569	3138
822.709	3192
822.849	3051
822.99	3070
823.13	3165
823.27	3211
823.41	3165
823.55	3211
823.69	3154
823.83	3180
823.97	3135
824.11	3043
824.25	2998
824.389	3085
824.529	3119
824.669	3070
824.809	3218
824.949	3260
825.089	3207
825.228	3138
825.368	2998
825.508	2975
825.648	3005
825.787	3055
825.927	3036
826.067	3005
826.206	2975
826.346	3077
826.485	3077
826.625	3108
826.765	3272
826.904	3245
827.044	3032
827.183	2956
827.323	2910
827.462	3028
827.601	2902
827.741	2948
827.88	2948
828.02	2880
828.159	2963
828.298	3047
828.437	3127
828.577	3062
828.716	3249
828.855	3089
828.994	2929
829.134	2887
829.273	2937
829.412	2891
829.551	2880
829.69	2899
829.829	2998
829.968	3112
830.107	3001
830.246	3039
830.385	2922
830.524	2868
830.663	2857
830.802	2758
830.941	2663
831.08	2674
831.219	2766
831.357	2754
831.496	2941
831.635	2754
831.774	2667
831.913	2686
832.051	2587
832.19	2598
832.329	2686
832.467	2549
832.606	2511
832.744	2602
832.883	2587
833.022	2598
833.16	2648
833.299	2708
833.437	2727
833.576	2701
833.714	2724
833.852	2781
833.991	2743
834.129	2876
834.267	2834
834.406	2800
834.544	2868
834.682	2910
834.821	2861
834.959	3085
835.097	2941
835.235	3051
835.373	3020
835.511	3055
835.65	2956
835.788	2925
835.926	2868
836.064	2823
836.202	2887
836.34	3131
836.478	3138
836.615	3081
836.753	3150
836.891	3222
837.029	3176
837.167	3127
837.305	3066
837.443	3058
837.58	2952
837.718	3161
837.856	3028
837.993	3051
838.131	3127
838.269	3116
838.406	3100
838.544	3112
838.681	2944
838.819	2891
838.956	2815
839.094	2864
839.231	2891
839.369	3024
839.506	3359
839.643	3249
839.781	3009
839.918	2963
840.055	3062
840.193	3036
840.33	3100
840.467	3112
840.604	3165
840.742	3401
840.879	3055
841.016	3032
841.153	3135
841.29	3310
841.427	3317
841.564	3279
841.701	3287
841.838	3237
841.975	3180
842.112	3222
842.249	3100
842.385	3066
842.522	3291
842.659	3123
842.796	3058
842.933	3127
843.069	3055
843.206	3070
843.343	3207
843.479	3127
843.616	3150
843.752	2933
843.889	2899
844.025	3104
844.162	2922
844.298	3085
844.435	2975
844.571	2902
844.708	3058
844.844	3195
844.98	3245
845.117	3184
845.253	3070
845.389	3024
845.525	3108
845.661	3100
845.798	3036
845.934	3150
846.07	3051
846.206	3218
846.342	3310
846.478	3241
846.614	3131
846.75	3089
846.886	3028
847.022	3268
847.158	3142
847.294	3211
847.429	3275
847.565	3222
847.701	3492
847.837	3017
847.972	3005
848.108	3184
848.244	3169
848.379	3001
848.515	2963
848.65	2956
848.786	2971
848.921	3036
849.057	3108
849.192	3173
849.328	3085
849.463	3123
849.598	3058
849.734	3062
849.869	2975
850.004	2895
850.14	2963
850.275	2933
850.41	2842
850.545	2872
850.68	2952
850.815	2910
850.95	3013
851.085	3203
851.22	3127
851.355	3058
851.49	3009
851.625	2994
851.76	2979
851.895	2952
852.03	2941
852.165	3017
852.299	3119
852.434	3176
852.569	3165
852.703	3176
852.838	3272
852.973	3336
853.107	3317
853.242	3165
853.376	3077
853.511	2967
853.645	3074
853.78	3237
853.914	3104
854.048	3119
854.183	3097
854.317	3161
854.451	3279
854.585	3116
854.72	3089
854.854	3253
854.988	3066
855.122	3138
855.256	2971
855.39	3131
855.524	3249
855.658	3184
855.792	3119
855.926	3146
856.06	3222
856.194	3249
856.327	3135
856.461	3089
856.595	3108
856.729	3100
856.862	3211
856.996	3169
857.13	3222
857.263	3188
857.397	3313
857.53	3097
857.664	3184
857.797	3275
857.931	3253
858.064	3161
858.197	3222
858.331	3165
858.464	3097
858.597	3028
858.731	3108
858.864	3127
858.997	3062
859.13	3154
859.263	3173
859.396	3184
859.529	3093
859.662	3062
859.795	3036
859.928	3138
860.061	3279
860.194	3283
860.327	3116
860.46	3100
860.592	3237
860.725	3237
860.858	3260
860.99	3123
861.123	3051
861.256	3058
861.388	3123
861.521	3964
861.653	3028
861.786	2975
861.918	3020
862.05	3051
862.183	3123
862.315	3173
862.447	3199
862.58	3100
862.712	2960
862.844	2868
862.976	3066
863.108	3013
863.24	3420
863.372	2887
863.504	2952
863.636	2956
863.768	3032
863.9	2967
864.032	2918
864.164	2944
864.296	2990
864.428	3116
864.559	3085
864.691	3077
864.823	3138
864.954	3032
865.086	3085
865.217	3005
865.349	2956
865.48	3024
865.612	3017
865.743	3142
865.875	3009
866.006	2971
866.137	2994
866.269	2918
866.4	2925
866.531	2925
866.662	2899
866.793	2895
866.924	2910
867.055	3005
867.186	2944
867.317	2914
867.448	2838
867.579	2842
867.71	2849
867.841	2819
867.972	2899
868.103	2910
868.233	2864
868.364	2883
868.495	2929
868.625	3070
868.756	3195
868.886	2971
869.017	3005
869.147	3169
869.278	3180
869.408	3017
869.539	3028
869.669	3112
869.799	3039
869.929	3173
870.06	3123
870.19	3321
870.32	3249
870.45	3275
870.58	3344
870.71	3420
870.84	3458
870.97	3253
871.1	3253
871.23	3492
871.36	3439
871.489	3367
871.619	3340
871.749	3382
871.879	3405
872.008	3458
872.138	3355
872.267	3241
872.397	3142
872.526	3093
872.656	3005
872.785	3066
872.915	3214
873.044	3336
873.173	3218
873.303	3233
873.432	3237
873.561	3218
873.69	3199
873.819	3165
873.948	3199
874.077	3104
874.206	3036
874.335	3070
874.464	3199
874.593	3325
874.722	3207
874.851	3393
874.979	3321
875.108	3310
875.237	3180
875.365	3108
875.494	3161
875.623	3253
875.751	3070
875.88	3066
876.008	3230
876.136	3241
876.265	3340
876.393	3530
876.521	3397
876.65	3389
876.778	3336
876.906	3245
877.034	3176
877.162	3207
877.29	3199
877.418	3272
877.546	3207
877.674	3230
877.802	3214
877.93	3226
878.058	3131
878.185	3104
878.313	3203
878.441	3256
878.568	3051
878.696	3150
878.824	3214
878.951	3310
879.079	3447
879.206	3633
879.333	3447
879.461	3359
879.588	3363
879.715	3481
879.842	3576
879.97	3378
880.097	3169
880.224	3150
880.351	3176
880.478	3241
880.605	3203
880.732	3165
880.859	3420
880.986	3268
881.112	3310
881.239	3184
881.366	3112
881.493	3032
881.619	3039
881.746	3058
881.872	3100
881.999	3100
882.125	3138
882.252	3226
882.378	3298
882.505	3447
882.631	3279
882.757	3100
882.883	3245
883.01	3264
883.136	3150
883.262	3138
883.388	3123
883.514	3340
883.64	3386
883.766	3313
883.892	3199
884.018	3268
884.143	3435
884.269	3526
884.395	3180
884.52	3199
884.646	3165
884.772	3150
884.897	3081
885.023	3199
885.148	3355
885.274	3397
885.399	3363
885.524	3272
885.65	3268
885.775	3313
885.9	3279
886.025	3370
886.15	3382
886.275	3310
886.4	3226
886.525	3283
886.65	3237
886.775	3272
886.9	3488
887.025	3584
887.149	3412
887.274	3260
887.399	3176
887.523	3184
887.648	3188
887.773	3173
887.897	3367
888.021	3420
888.146	3283
888.27	3401
888.395	3538
888.519	3462
888.643	3428
888.767	3447
888.891	3306
889.015	3218
889.139	3264
889.263	3207
889.387	3405
889.511	3511
889.635	3435
889.759	3332
889.883	3272
890.006	3401
890.13	3469
890.254	3268
890.377	3329
890.501	3218
890.624	3184
890.748	3325
890.871	3161
890.995	3108
891.118	3058
891.241	3214
891.364	3226
891.488	3359
891.611	3169
891.734	3233
891.857	3275
891.98	3222
892.103	3340
892.226	3233
892.349	3192
892.471	3116
892.594	3214
892.717	3230
892.839	3302
892.962	3253
893.085	3389
893.207	3306
893.33	3146
893.452	3214
893.575	3313
893.697	3264
893.819	3496
893.941	3485
894.064	3447
894.186	3275
894.308	3264
894.43	3469
894.552	3534
894.674	3466
894.796	3268
894.918	3283
895.04	3260
895.161	3420
895.283	3409
895.405	3268
895.526	3374
895.648	3409
895.769	3447
895.891	3431
896.012	3473
896.134	3454
896.255	3424
896.376	3386
896.498	3351
896.619	3458
896.74	3401
896.861	3397
896.982	3675
897.103	3861
897.224	3572
897.345	3473
897.466	3424
897.587	3481
897.708	3660
897.828	3576
897.949	3401
898.07	3370
898.19	3382
898.311	3641
898.431	3473
898.552	3534
898.672	3564
898.792	3606
898.913	3519
899.033	3401
899.153	3268
899.273	3192
899.393	3298
899.513	3298
899.633	3351
899.753	3363
899.873	3313
899.993	3336
900.113	3325
900.232	3382
900.352	3370
900.472	3287
900.591	3218
900.711	3279
900.83	3249
900.95	3435
901.069	3481
901.189	3389
901.308	3184
901.427	3116
901.546	3150
901.665	3272
901.784	3367
901.904	3226
902.023	3135
902.141	3013
902.26	3001
902.379	3119
902.498	3028
902.617	3043
902.735	3203
902.854	3203
902.973	3180
903.091	3028
903.21	3039
903.328	3123
903.446	3131
903.565	3108
903.683	3192
903.801	3119
903.919	3233
904.038	3291
904.156	3165
904.274	3310
904.392	3264
904.51	3264
904.627	3321
904.745	3420
904.863	3500
904.981	3199
905.098	3169
905.216	3253
905.334	3298
905.451	3260
905.569	3294
905.686	3439
905.803	3454
905.921	3294
906.038	3424
906.155	3344
906.272	3260
906.389	3351
906.506	3218
906.623	3268
906.74	3241
906.857	3218
906.974	3245
907.091	3428
907.208	3591
907.324	3477
907.441	3355
907.557	3222
907.674	3245
907.79	3249
907.907	3298
908.023	3348
908.139	3348
908.256	3332
908.372	3401
908.488	3359
908.604	3294
908.72	3237
908.836	3233
908.952	3260
909.068	3310
909.184	3496
909.3	3405
909.415	3477
909.531	3488
909.647	3256
909.762	3313
909.878	3245
909.993	3370
910.108	3332
910.224	3340
910.339	3409
910.454	3310
910.57	3291
910.685	3253
910.8	3595
910.915	3538
911.03	3454
911.145	3272
911.259	3256
911.374	3294
911.489	3222
911.604	3264
911.718	3157
911.833	3112
911.947	3039
912.062	3005
912.176	3135
912.291	3199
912.405	3241
912.519	3420
912.633	3454
912.748	3321
912.862	3291
912.976	3169
913.09	3066
913.204	3184
913.318	3211
913.431	3370
913.545	3294
913.659	3382
913.772	3291
913.886	3233
914	3176
914.113	3370
914.226	3405
914.34	3386
914.453	3245
914.566	3405
914.68	3302
914.793	3298
914.906	3138
915.019	3119
915.132	3077
915.245	3184
915.358	3169
915.47	3214
915.583	3241
915.696	3298
915.809	3367
915.921	3435
916.034	3268
916.146	3279
916.259	3157
916.371	3416
916.483	3340
916.595	3260
916.708	3336
916.82	3298
916.932	3389
917.044	3283
917.156	3340
917.268	3214
917.38	3321
917.491	3298
917.603	3351
917.715	3458
917.826	3485
917.938	3359
918.049	3241
918.161	3447
918.272	3523
918.384	3572
918.495	3454
918.606	3363
918.717	3321
918.828	3401
918.939	3401
919.05	3329
919.161	3367
919.272	3176
919.383	3298
919.494	3462
919.604	3652
919.715	3511
919.826	3454
919.936	3443
920.047	3561
920.157	3549
920.267	3720
920.378	3568
920.488	3576
920.598	3785
920.708	3922
920.818	3819
920.928	3797
921.038	4010
921.148	4013
921.258	3713
921.368	3584
921.477	3561
921.587	3504
921.697	3443
921.806	3606
921.916	3504
922.025	3302
922.134	3367
922.244	3340
922.353	3401
922.462	3253
922.571	3233
922.68	3085
922.789	3055
922.898	3138
923.007	3093
923.116	3203
923.224	3154
923.333	3203
923.442	3085
923.55	3074
923.659	3135
923.767	3203
923.876	3097
923.984	3253
924.092	3089
924.201	3195
924.309	3222
924.417	3233
924.525	3207
924.633	3241
924.741	4010
924.849	2998
924.956	3272
925.064	3127
925.172	3024
925.279	3097
925.387	3199
925.494	3188
925.602	3310
925.709	3348
925.816	3165
925.924	3233
926.031	3382
926.138	3294
926.245	3348
926.352	3241
926.459	3412
926.566	3481
926.673	3302
926.779	3260
926.886	3226
926.993	3112
927.099	3093
927.206	3081
927.312	3085
927.419	3214
927.525	3176
927.631	3253
927.737	3161
927.843	3119
927.95	3043
928.056	3127
928.162	3180
928.267	3218
928.373	3759
928.479	3298
928.585	3104
928.69	3195
928.796	3287
928.901	3184
929.007	3070
929.112	3195
929.218	3180
929.323	3138
929.428	3165
929.533	3298
929.638	3097
929.743	3188
929.848	3268
929.953	3195
930.058	3119
930.163	2990
930.267	3081
930.372	3188
930.477	3032
930.581	3287
930.685	3188
930.79	3077
930.894	3100
930.998	3093
931.103	3268
931.207	2960
931.311	2937
931.415	2887
931.519	2750
931.623	2830
