Data from test_V78500241_1913.txt Node
Date: Fri Mar 25 16:28:27 CST 2022
User: usil
Spectrometer: V785-0024
Trigger mode: 0
Integration Time (sec): 4.000000E-1
Scans to average: 1
Nonlinearity correction enabled: false
Boxcar width: 0
Storing dark spectrum: false
XAxis mode: Wavelengths
Number of Pixels in Spectrum: 1024
>>>>>Begin Spectral Data<<<<<
801.071	2880
801.214	2941
801.356	2876
801.499	2902
801.641	2861
801.783	2918
801.926	3074
802.068	2967
802.211	3020
802.353	3051
802.496	2956
802.638	3001
802.78	3043
802.923	3047
803.065	3017
803.208	2922
803.35	2941
803.492	2944
803.635	2914
803.777	2773
803.919	2861
804.061	3165
804.204	2952
804.346	2918
804.488	2842
804.63	2963
804.773	2922
804.915	2925
805.057	3097
805.199	2914
805.341	2960
805.483	3051
805.626	2982
805.768	2982
805.91	3085
806.052	3135
806.194	3070
806.336	3207
806.478	2990
806.62	2929
806.762	2979
806.904	3055
807.046	3157
807.188	2982
807.33	2941
807.472	2975
807.614	2902
807.756	2971
807.898	2887
808.04	2876
808.182	2994
808.324	2948
808.465	2891
808.607	2891
808.749	2807
808.891	2815
809.033	2975
809.174	2956
809.316	2883
809.458	2910
809.6	2766
809.741	2743
809.883	2800
810.025	2883
810.166	2899
810.308	2815
810.45	2834
810.591	2766
810.733	2720
810.875	2819
811.016	2800
811.158	2743
811.299	2807
811.441	2899
811.582	2891
811.724	2804
811.865	2834
812.007	2925
812.148	2883
812.29	2838
812.431	2918
812.573	2914
812.714	2963
812.855	3005
812.997	3043
813.138	3127
813.279	3001
813.421	3005
813.562	2960
813.703	2876
813.845	2906
813.986	2746
814.127	2724
814.268	2826
814.41	2823
814.551	2815
814.692	2853
814.833	2796
814.974	2887
815.115	2937
815.256	2849
815.397	2773
815.539	2880
815.68	2781
815.821	2800
815.962	2937
816.103	2906
816.244	2887
816.385	2842
816.526	2937
816.666	2918
816.807	2758
816.948	2868
817.089	2895
817.23	2849
817.371	2758
817.512	2815
817.653	2819
817.793	2815
817.934	2868
818.075	2990
818.216	2990
818.356	3013
818.497	2902
818.638	2804
818.778	2796
818.919	2834
819.06	2800
819.2	2887
819.341	2788
819.481	2785
819.622	2933
819.762	3108
819.903	3028
820.043	2941
820.184	2880
820.324	2872
820.465	2979
820.605	2990
820.746	3032
820.886	2933
821.026	3108
821.167	3176
821.307	3256
821.447	3272
821.588	3199
821.728	3176
821.868	3222
822.008	3058
822.149	3173
822.289	3222
822.429	3081
822.569	3036
822.709	3138
822.849	3024
822.99	3051
823.13	3161
823.27	3199
823.41	3104
823.55	3135
823.69	3169
823.83	3211
823.97	3077
824.11	3009
824.25	3013
824.389	3062
824.529	3123
824.669	3070
824.809	3180
824.949	3260
825.089	3249
825.228	3176
825.368	2994
825.508	2929
825.648	2952
825.787	3001
825.927	3032
826.067	2986
826.206	2986
826.346	3051
826.485	3051
826.625	3138
826.765	3268
826.904	3176
827.044	3005
827.183	2906
827.323	2868
827.462	2990
827.601	2899
827.741	2910
827.88	2967
828.02	2804
828.159	2956
828.298	3036
828.437	3097
828.577	3028
828.716	3245
828.855	3093
828.994	2910
829.134	2902
829.273	2944
829.412	2872
829.551	2853
829.69	2902
829.829	2986
829.968	3112
830.107	3017
830.246	3058
830.385	2883
830.524	2864
830.663	2811
830.802	2705
830.941	2678
831.08	2632
831.219	2750
831.357	2731
831.496	2944
831.635	2731
831.774	2606
831.913	2651
832.051	2537
832.19	2575
832.329	2686
832.467	2530
832.606	2503
832.744	2606
832.883	2568
833.022	2549
833.16	2655
833.299	2670
833.437	2705
833.576	2727
833.714	2697
833.852	2727
833.991	2746
834.129	2842
834.267	2826
834.406	2807
834.544	2868
834.682	2861
834.821	2838
834.959	3047
835.097	2902
835.235	3055
835.373	3020
835.511	2975
835.65	2971
835.788	2922
835.926	2842
836.064	2804
836.202	2830
836.34	3043
836.478	3142
836.615	2986
836.753	3146
836.891	3218
837.029	3176
837.167	3085
837.305	3058
837.443	3043
837.58	2937
837.718	3138
837.856	3062
837.993	3020
838.131	3116
838.269	3104
838.406	3093
838.544	3104
838.681	2918
838.819	2941
838.956	2819
839.094	2815
839.231	2910
839.369	2998
839.506	3382
839.643	3195
839.781	3013
839.918	2948
840.055	3017
840.193	3020
840.33	3043
840.467	3051
840.604	3131
840.742	3401
840.879	3020
841.016	3024
841.153	3123
841.29	3325
841.427	3241
841.564	3268
841.701	3321
841.838	3222
841.975	3157
842.112	3184
842.249	3066
842.385	3028
842.522	3275
842.659	3089
842.796	3047
842.933	3097
843.069	3017
843.206	3058
843.343	3169
843.479	3066
843.616	3150
843.752	2883
843.889	2883
844.025	3081
844.162	2868
844.298	3085
844.435	2956
844.571	2880
844.708	3066
844.844	3207
844.98	3218
845.117	3188
845.253	3036
845.389	2967
845.525	3062
845.661	3119
845.798	2998
845.934	3154
846.07	3081
846.206	3218
846.342	3306
846.478	3207
846.614	3066
846.75	3081
846.886	2998
847.022	3241
847.158	3135
847.294	3203
847.429	3230
847.565	3176
847.701	3458
847.837	3032
847.972	2994
848.108	3176
848.244	3123
848.379	2986
848.515	2944
848.65	2918
848.786	2963
848.921	3013
849.057	3119
849.192	3135
849.328	3066
849.463	3077
849.598	3085
849.734	3055
849.869	2990
850.004	2891
850.14	2899
850.275	2914
850.41	2811
850.545	2868
850.68	2906
850.815	2990
850.95	2979
851.085	3173
851.22	3089
851.355	3032
851.49	3005
851.625	3005
851.76	2990
851.895	2902
852.03	2883
852.165	3032
852.299	3100
852.434	3176
852.569	3138
852.703	3150
852.838	3249
852.973	3344
853.107	3329
853.242	3150
853.376	3058
853.511	2982
853.645	3032
853.78	3253
853.914	3093
854.048	3089
854.183	3062
854.317	3123
854.451	3298
854.585	3146
854.72	3058
854.854	3169
854.988	3032
855.122	3104
855.256	2967
855.39	3127
855.524	3245
855.658	3211
855.792	3135
855.926	3199
856.06	3203
856.194	3237
856.327	3093
856.461	3108
856.595	3070
856.729	3077
856.862	3176
856.996	3116
857.13	3237
857.263	3237
857.397	3264
857.53	3089
857.664	3161
857.797	3211
857.931	3272
858.064	3100
858.197	3226
858.331	3123
858.464	3104
858.597	2990
858.731	3093
858.864	3108
858.997	3089
859.13	3157
859.263	3150
859.396	3188
859.529	3093
859.662	2998
859.795	3062
859.928	3173
860.061	3291
860.194	3226
860.327	3135
860.46	3097
860.592	3188
860.725	3249
860.858	3268
860.99	3150
861.123	3039
861.256	3032
861.388	3135
861.521	3793
861.653	3005
861.786	2956
861.918	3005
862.05	3039
862.183	3055
862.315	3131
862.447	3184
862.58	3055
862.712	2918
862.844	2895
862.976	3009
863.108	2979
863.24	3313
863.372	2853
863.504	2918
863.636	2963
863.768	2998
863.9	2982
864.032	2906
864.164	2929
864.296	3043
864.428	3085
864.559	3066
864.691	3032
864.823	3055
864.954	2990
865.086	3032
865.217	2994
865.349	2925
865.48	2986
865.612	2979
865.743	3097
865.875	2967
866.006	2941
866.137	2986
866.269	2929
866.4	2933
866.531	2910
866.662	2868
866.793	2849
866.924	2883
867.055	2952
867.186	2914
867.317	2872
867.448	2830
867.579	2823
867.71	2823
867.841	2807
867.972	2895
868.103	2883
868.233	2895
868.364	2899
868.495	2914
868.625	3066
868.756	3146
868.886	2929
869.017	3001
869.147	3150
869.278	3146
869.408	3001
869.539	2998
869.669	3108
869.799	3032
869.929	3116
870.06	3112
870.19	3310
870.32	3302
870.45	3249
870.58	3359
870.71	3473
870.84	3462
870.97	3302
871.1	3230
871.23	3466
871.36	3447
871.489	3389
871.619	3359
871.749	3374
871.879	3439
872.008	3477
872.138	3332
872.267	3256
872.397	3112
872.526	3119
872.656	3009
872.785	3055
872.915	3233
873.044	3355
873.173	3173
873.303	3287
873.432	3256
873.561	3211
873.69	3104
873.819	3104
873.948	3218
874.077	3104
874.206	3024
874.335	3058
874.464	3214
874.593	3321
874.722	3207
874.851	3370
874.979	3310
875.108	3268
875.237	3199
875.365	3142
875.494	3161
875.623	3226
875.751	3070
875.88	3089
876.008	3169
876.136	3218
876.265	3348
876.393	3492
876.521	3428
876.65	3393
876.778	3336
876.906	3230
877.034	3188
877.162	3195
877.29	3173
877.418	3226
877.546	3218
877.674	3283
877.802	3237
877.93	3214
878.058	3142
878.185	3058
878.313	3180
878.441	3207
878.568	3058
878.696	3165
878.824	3237
878.951	3313
879.079	3409
879.206	3625
879.333	3428
879.461	3313
879.588	3321
879.715	3462
879.842	3561
879.97	3382
880.097	3108
880.224	3116
880.351	3184
880.478	3176
880.605	3192
880.732	3211
880.859	3469
880.986	3294
881.112	3325
881.239	3184
881.366	3070
881.493	3024
881.619	3009
881.746	3077
881.872	3085
881.999	3089
882.125	3104
882.252	3222
882.378	3237
882.505	3462
882.631	3317
882.757	3116
882.883	3161
883.01	3207
883.136	3154
883.262	3062
883.388	3119
883.514	3313
883.64	3374
883.766	3298
883.892	3157
884.018	3207
884.143	3409
884.269	3492
884.395	3192
884.52	3108
884.646	3150
884.772	3108
884.897	3077
885.023	3195
885.148	3336
885.274	3386
885.399	3321
885.524	3302
885.65	3245
885.775	3287
885.9	3291
886.025	3389
886.15	3348
886.275	3279
886.4	3245
886.525	3237
886.65	3268
886.775	3287
886.9	3488
887.025	3629
887.149	3367
887.274	3264
887.399	3180
887.523	3253
887.648	3176
887.773	3173
887.897	3370
888.021	3435
888.146	3294
888.27	3462
888.395	3523
888.519	3485
888.643	3473
888.767	3450
888.891	3355
889.015	3241
889.139	3272
889.263	3294
889.387	3435
889.511	3584
889.635	3500
889.759	3256
889.883	3332
890.006	3428
890.13	3477
890.254	3268
890.377	3363
890.501	3241
890.624	3233
890.748	3370
890.871	3245
890.995	3112
891.118	3123
891.241	3268
891.364	3237
891.488	3336
891.611	3226
891.734	3241
891.857	3298
891.98	3275
892.103	3393
892.226	3332
892.349	3230
892.471	3184
892.594	3321
892.717	3325
892.839	3317
892.962	3359
893.085	3389
893.207	3329
893.33	3199
893.452	3233
893.575	3374
893.697	3294
893.819	3507
893.941	3515
894.064	3454
894.186	3298
894.308	3302
894.43	3500
894.552	3564
894.674	3515
894.796	3291
894.918	3344
895.04	3298
895.161	3481
895.283	3447
895.405	3374
895.526	3424
895.648	3481
895.769	3477
895.891	3507
896.012	3519
896.134	3538
896.255	3428
896.376	3424
896.498	3401
896.619	3458
896.74	3428
896.861	3450
896.982	3728
897.103	3888
897.224	3599
897.345	3511
897.466	3485
897.587	3542
897.708	3663
897.828	3614
897.949	3466
898.07	3405
898.19	3450
898.311	3603
898.431	3488
898.552	3519
898.672	3648
898.792	3587
898.913	3580
899.033	3466
899.153	3332
899.273	3226
899.393	3344
899.513	3310
899.633	3409
899.753	3382
899.873	3348
899.993	3397
900.113	3348
900.232	3443
900.352	3401
900.472	3359
900.591	3241
900.711	3317
900.83	3264
900.95	3462
901.069	3530
901.189	3386
901.308	3157
901.427	3150
901.546	3218
901.665	3340
901.784	3359
901.904	3207
902.023	3161
902.141	3066
902.26	3024
902.379	3195
902.498	3123
902.617	3097
902.735	3214
902.854	3241
902.973	3245
903.091	3077
903.21	3112
903.328	3165
903.446	3146
903.565	3112
903.683	3260
903.801	3180
903.919	3313
904.038	3291
904.156	3222
904.274	3302
904.392	3272
904.51	3291
904.627	3325
904.745	3443
904.863	3530
904.981	3279
905.098	3199
905.216	3268
905.334	3310
905.451	3332
905.569	3329
905.686	3447
905.803	3469
905.921	3348
906.038	3458
906.155	3374
906.272	3302
906.389	3378
906.506	3294
906.623	3268
906.74	3256
906.857	3241
906.974	3268
907.091	3500
907.208	3591
907.324	3542
907.441	3370
907.557	3237
907.674	3268
907.79	3241
907.907	3329
908.023	3382
908.139	3405
908.256	3378
908.372	3374
908.488	3382
908.604	3310
908.72	3264
908.836	3325
908.952	3294
909.068	3401
909.184	3542
909.3	3435
909.415	3530
909.531	3538
909.647	3294
909.762	3332
909.878	3332
909.993	3386
910.108	3370
910.224	3393
910.339	3431
910.454	3389
910.57	3332
910.685	3268
910.8	3614
910.915	3511
911.03	3481
911.145	3321
911.259	3298
911.374	3329
911.489	3302
911.604	3260
911.718	3165
911.833	3180
911.947	3051
912.062	3028
912.176	3226
912.291	3256
912.405	3256
912.519	3473
912.633	3500
912.748	3348
912.862	3306
912.976	3176
913.09	3074
913.204	3176
913.318	3291
913.431	3378
913.545	3363
913.659	3443
913.772	3367
913.886	3245
914	3268
914.113	3393
914.226	3462
914.34	3439
914.453	3268
914.566	3450
914.68	3329
914.793	3344
914.906	3203
915.019	3154
915.132	3074
915.245	3199
915.358	3192
915.47	3283
915.583	3329
915.696	3332
915.809	3435
915.921	3443
916.034	3249
916.146	3294
916.259	3268
916.371	3447
916.483	3416
916.595	3241
916.708	3382
916.82	3363
916.932	3363
917.044	3370
917.156	3359
917.268	3279
917.38	3310
917.491	3313
917.603	3397
917.715	3454
917.826	3504
917.938	3405
918.049	3317
918.161	3469
918.272	3614
918.384	3572
918.495	3511
918.606	3351
918.717	3298
918.828	3405
918.939	3435
919.05	3344
919.161	3435
919.272	3203
919.383	3340
919.494	3519
919.604	3701
919.715	3515
919.826	3462
919.936	3466
920.047	3576
920.157	3564
920.267	3770
920.378	3663
920.488	3568
920.598	3816
920.708	3968
920.818	3838
920.928	3873
921.038	4036
921.148	4029
921.258	3720
921.368	3682
921.477	3622
921.587	3587
921.697	3481
921.806	3690
921.916	3545
922.025	3397
922.134	3351
922.244	3363
922.353	3420
922.462	3294
922.571	3272
922.68	3131
922.789	3085
922.898	3150
923.007	3112
923.116	3241
923.224	3226
923.333	3222
923.442	3146
923.55	3081
923.659	3157
923.767	3256
923.876	3150
923.984	3260
924.092	3108
924.201	3207
924.309	3253
924.417	3249
924.525	3192
924.633	3264
924.741	4029
924.849	3097
924.956	3279
925.064	3188
925.172	3085
925.279	3150
925.387	3188
925.494	3218
925.602	3405
925.709	3359
925.816	3203
925.924	3310
926.031	3393
926.138	3317
926.245	3359
926.352	3321
926.459	3447
926.566	3496
926.673	3332
926.779	3298
926.886	3291
926.993	3169
927.099	3154
927.206	3150
927.312	3146
927.419	3226
927.525	3230
927.631	3279
927.737	3192
927.843	3169
927.95	3024
928.056	3199
928.162	3188
928.267	3241
928.373	3857
928.479	3351
928.585	3097
928.69	3245
928.796	3291
928.901	3173
929.007	3093
929.112	3226
929.218	3222
929.323	3192
929.428	3161
929.533	3317
929.638	3081
929.743	3188
929.848	3283
929.953	3245
930.058	3173
930.163	3024
930.267	3116
930.372	3211
930.477	3043
930.581	3359
930.685	3211
930.79	3051
930.894	3116
930.998	3127
931.103	3310
931.207	2967
931.311	2944
931.415	2937
931.519	2796
931.623	2830
