Data from test_V78500241_1594.txt Node
Date: Fri Mar 25 16:26:14 CST 2022
User: usil
Spectrometer: V785-0024
Trigger mode: 0
Integration Time (sec): 4.000000E-1
Scans to average: 1
Nonlinearity correction enabled: false
Boxcar width: 0
Storing dark spectrum: false
XAxis mode: Wavelengths
Number of Pixels in Spectrum: 1024
>>>>>Begin Spectral Data<<<<<
801.071	2899
801.214	2937
801.356	2902
801.499	2922
801.641	2891
801.783	2944
801.926	3017
802.068	2982
802.211	2994
802.353	3047
802.496	2933
802.638	3017
802.78	3074
802.923	3062
803.065	2960
803.208	2895
803.35	2914
803.492	2925
803.635	2975
803.777	2804
803.919	2834
804.061	3146
804.204	2937
804.346	2895
804.488	2857
804.63	2971
804.773	2864
804.915	2925
805.057	3074
805.199	2899
805.341	2929
805.483	3047
805.626	2994
805.768	2956
805.91	3097
806.052	3100
806.194	3036
806.336	3237
806.478	3043
806.62	2891
806.762	2948
806.904	3024
807.046	3138
807.188	2979
807.33	2918
807.472	3024
807.614	2929
807.756	2990
807.898	2906
808.04	2891
808.182	2960
808.324	2960
808.465	2861
808.607	2883
808.749	2781
808.891	2845
809.033	2986
809.174	2944
809.316	2845
809.458	2880
809.6	2773
809.741	2727
809.883	2773
810.025	2857
810.166	2838
810.308	2830
810.45	2845
810.591	2762
810.733	2743
810.875	2834
811.016	2785
811.158	2777
811.299	2834
811.441	2948
811.582	2910
811.724	2788
811.865	2845
812.007	2883
812.148	2845
812.29	2868
812.431	2887
812.573	2941
812.714	2971
812.855	3043
812.997	3036
813.138	3085
813.279	3005
813.421	2956
813.562	2941
813.703	2868
813.845	2872
813.986	2781
814.127	2754
814.268	2811
814.41	2800
814.551	2826
814.692	2902
814.833	2807
814.974	2864
815.115	2925
815.256	2826
815.397	2826
815.539	2845
815.68	2777
815.821	2781
815.962	2971
816.103	2933
816.244	2895
816.385	2872
816.526	2967
816.666	2944
816.807	2743
816.948	2880
817.089	2922
817.23	2845
817.371	2746
817.512	2811
817.653	2864
817.793	2838
817.934	2899
818.075	2948
818.216	2979
818.356	3020
818.497	2849
818.638	2838
818.778	2842
818.919	2762
819.06	2739
819.2	2849
819.341	2804
819.481	2804
819.622	2922
819.762	3085
819.903	3028
820.043	2922
820.184	2918
820.324	2902
820.465	3024
820.605	3032
820.746	3024
820.886	2902
821.026	3119
821.167	3146
821.307	3287
821.447	3298
821.588	3207
821.728	3211
821.868	3192
822.008	3104
822.149	3192
822.289	3253
822.429	3070
822.569	3093
822.709	3169
822.849	3032
822.99	3100
823.13	3108
823.27	3192
823.41	3112
823.55	3173
823.69	3142
823.83	3230
823.97	3074
824.11	3001
824.25	2994
824.389	3058
824.529	3081
824.669	3047
824.809	3173
824.949	3241
825.089	3253
825.228	3169
825.368	3001
825.508	2967
825.648	2971
825.787	2979
825.927	3009
826.067	2963
826.206	2925
826.346	3074
826.485	3074
826.625	3097
826.765	3268
826.904	3211
827.044	3009
827.183	2910
827.323	2857
827.462	2952
827.601	2906
827.741	2937
827.88	2948
828.02	2842
828.159	2967
828.298	3013
828.437	3093
828.577	3039
828.716	3230
828.855	3036
828.994	2906
829.134	2876
829.273	2922
829.412	2849
829.551	2823
829.69	2880
829.829	2963
829.968	3081
830.107	2960
830.246	3028
830.385	2910
830.524	2868
830.663	2800
830.802	2750
830.941	2636
831.08	2613
831.219	2766
831.357	2720
831.496	2975
831.635	2735
831.774	2678
831.913	2636
832.051	2533
832.19	2583
832.329	2678
832.467	2495
832.606	2484
832.744	2579
832.883	2564
833.022	2583
833.16	2644
833.299	2674
833.437	2663
833.576	2712
833.714	2678
833.852	2701
833.991	2800
834.129	2815
834.267	2834
834.406	2785
834.544	2872
834.682	2883
834.821	2861
834.959	3032
835.097	2899
835.235	3028
835.373	3005
835.511	3001
835.65	2941
835.788	2960
835.926	2804
836.064	2796
836.202	2819
836.34	3123
836.478	3161
836.615	3039
836.753	3146
836.891	3195
837.029	3131
837.167	3112
837.305	3081
837.443	3001
837.58	2941
837.718	3142
837.856	3097
837.993	3017
838.131	3112
838.269	3043
838.406	3104
838.544	3051
838.681	2914
838.819	2910
838.956	2849
839.094	2777
839.231	2914
839.369	2990
839.506	3355
839.643	3176
839.781	2986
839.918	2967
840.055	3013
840.193	3085
840.33	3039
840.467	3070
840.604	3116
840.742	3382
840.879	3066
841.016	3051
841.153	3108
841.29	3298
841.427	3283
841.564	3291
841.701	3313
841.838	3195
841.975	3135
842.112	3176
842.249	3039
842.385	3051
842.522	3199
842.659	3085
842.796	3062
842.933	3097
843.069	3093
843.206	3028
843.343	3165
843.479	3104
843.616	3108
843.752	2872
843.889	2845
844.025	3070
844.162	2880
844.298	3043
844.435	2906
844.571	2914
844.708	3077
844.844	3165
844.98	3226
845.117	3173
845.253	3009
845.389	3017
845.525	3112
845.661	3051
845.798	2975
845.934	3127
846.07	3051
846.206	3253
846.342	3283
846.478	3226
846.614	3074
846.75	3020
846.886	3009
847.022	3241
847.158	3108
847.294	3195
847.429	3275
847.565	3188
847.701	3496
847.837	3001
847.972	2994
848.108	3169
848.244	3169
848.379	3005
848.515	2922
848.65	2933
848.786	2963
848.921	3005
849.057	3089
849.192	3142
849.328	3055
849.463	3116
849.598	3036
849.734	3032
849.869	2994
850.004	2910
850.14	2948
850.275	2880
850.41	2823
850.545	2876
850.68	2933
850.815	2948
850.95	3013
851.085	3203
851.22	3123
851.355	3028
851.49	2998
851.625	2975
851.76	2960
851.895	2933
852.03	2914
852.165	3047
852.299	3093
852.434	3157
852.569	3157
852.703	3180
852.838	3256
852.973	3340
853.107	3359
853.242	3116
853.376	3058
853.511	2967
853.645	3009
853.78	3218
853.914	3127
854.048	3097
854.183	3112
854.317	3116
854.451	3313
854.585	3108
854.72	3032
854.854	3218
854.988	3043
855.122	3070
855.256	2952
855.39	3131
855.524	3192
855.658	3169
855.792	3127
855.926	3180
856.06	3237
856.194	3256
856.327	3135
856.461	3066
856.595	3055
856.729	3062
856.862	3173
856.996	3165
857.13	3192
857.263	3207
857.397	3264
857.53	3123
857.664	3195
857.797	3218
857.931	3241
858.064	3131
858.197	3176
858.331	3165
858.464	3100
858.597	3009
858.731	3070
858.864	3123
858.997	3097
859.13	3138
859.263	3150
859.396	3184
859.529	3085
859.662	3081
859.795	3047
859.928	3161
860.061	3249
860.194	3283
860.327	3142
860.46	3051
860.592	3241
860.725	3195
860.858	3275
860.99	3100
861.123	3024
861.256	3062
861.388	3150
861.521	3861
861.653	2998
861.786	2963
861.918	2986
862.05	3047
862.183	3100
862.315	3161
862.447	3184
862.58	3116
862.712	2960
862.844	2887
862.976	3013
863.108	2994
863.24	3325
863.372	2899
863.504	2941
863.636	2963
863.768	3028
863.9	3005
864.032	2857
864.164	2929
864.296	3032
864.428	3100
864.559	3081
864.691	3058
864.823	3074
864.954	3009
865.086	3032
865.217	3001
865.349	2975
865.48	2963
865.612	3024
865.743	3157
865.875	2933
866.006	2948
866.137	2971
866.269	2967
866.4	2937
866.531	2933
866.662	2876
866.793	2876
866.924	2895
867.055	2979
867.186	2914
867.317	2899
867.448	2845
867.579	2815
867.71	2838
867.841	2769
867.972	2914
868.103	2868
868.233	2887
868.364	2864
868.495	2872
868.625	3070
868.756	3176
868.886	2922
869.017	3009
869.147	3135
869.278	3161
869.408	3055
869.539	3024
869.669	3055
869.799	3039
869.929	3119
870.06	3131
870.19	3291
870.32	3294
870.45	3294
870.58	3409
870.71	3450
870.84	3454
870.97	3291
871.1	3241
871.23	3477
871.36	3466
871.489	3310
871.619	3450
871.749	3412
871.879	3420
872.008	3469
872.138	3348
872.267	3230
872.397	3161
872.526	3112
872.656	3028
872.785	3097
872.915	3218
873.044	3306
873.173	3222
873.303	3218
873.432	3207
873.561	3241
873.69	3154
873.819	3142
873.948	3199
874.077	3089
874.206	3047
874.335	3062
874.464	3226
874.593	3306
874.722	3218
874.851	3355
874.979	3329
875.108	3287
875.237	3165
875.365	3169
875.494	3161
875.623	3279
875.751	3081
875.88	3100
876.008	3184
876.136	3233
876.265	3401
876.393	3500
876.521	3424
876.65	3412
876.778	3340
876.906	3275
877.034	3180
877.162	3237
877.29	3173
877.418	3264
877.546	3237
877.674	3291
877.802	3218
877.93	3207
878.058	3116
878.185	3081
878.313	3226
878.441	3184
878.568	3066
878.696	3142
878.824	3245
878.951	3294
879.079	3454
879.206	3580
879.333	3424
879.461	3340
879.588	3393
879.715	3473
879.842	3534
879.97	3428
880.097	3142
880.224	3157
880.351	3184
880.478	3222
880.605	3161
880.732	3192
880.859	3500
880.986	3291
881.112	3306
881.239	3184
881.366	3119
881.493	3058
881.619	3028
881.746	3097
881.872	3108
881.999	3077
882.125	3146
882.252	3264
882.378	3272
882.505	3397
882.631	3230
882.757	3142
882.883	3199
883.01	3199
883.136	3154
883.262	3119
883.388	3077
883.514	3302
883.64	3370
883.766	3302
883.892	3165
884.018	3245
884.143	3389
884.269	3542
884.395	3195
884.52	3146
884.646	3176
884.772	3146
884.897	3116
885.023	3211
885.148	3317
885.274	3416
885.399	3321
885.524	3283
885.65	3211
885.775	3321
885.9	3279
886.025	3431
886.15	3416
886.275	3313
886.4	3218
886.525	3329
886.65	3253
886.775	3249
886.9	3485
887.025	3572
887.149	3382
887.274	3233
887.399	3188
887.523	3184
887.648	3188
887.773	3169
887.897	3370
888.021	3416
888.146	3294
888.27	3458
888.395	3538
888.519	3424
888.643	3424
888.767	3428
888.891	3321
889.015	3222
889.139	3272
889.263	3233
889.387	3409
889.511	3515
889.635	3443
889.759	3253
889.883	3302
890.006	3382
890.13	3481
890.254	3272
890.377	3340
890.501	3222
890.624	3173
890.748	3291
890.871	3169
890.995	3119
891.118	3097
891.241	3245
891.364	3245
891.488	3325
891.611	3203
891.734	3230
891.857	3264
891.98	3241
892.103	3344
892.226	3268
892.349	3211
892.471	3127
892.594	3233
892.717	3260
892.839	3249
892.962	3268
893.085	3363
893.207	3317
893.33	3123
893.452	3214
893.575	3317
893.697	3222
893.819	3477
893.941	3439
894.064	3431
894.186	3253
894.308	3283
894.43	3401
894.552	3549
894.674	3447
894.796	3279
894.918	3279
895.04	3275
895.161	3393
895.283	3424
895.405	3310
895.526	3374
895.648	3431
895.769	3374
895.891	3447
896.012	3466
896.134	3481
896.255	3389
896.376	3370
896.498	3397
896.619	3416
896.74	3355
896.861	3431
896.982	3652
897.103	3823
897.224	3568
897.345	3526
897.466	3447
897.587	3462
897.708	3633
897.828	3538
897.949	3439
898.07	3329
898.19	3424
898.311	3603
898.431	3416
898.552	3515
898.672	3606
898.792	3584
898.913	3530
899.033	3359
899.153	3298
899.273	3203
899.393	3237
899.513	3294
899.633	3291
899.753	3313
899.873	3317
899.993	3409
900.113	3317
900.232	3412
900.352	3351
900.472	3302
900.591	3256
900.711	3310
900.83	3233
900.95	3409
901.069	3526
901.189	3332
901.308	3165
901.427	3097
901.546	3192
901.665	3279
901.784	3329
901.904	3264
902.023	3161
902.141	3017
902.26	2975
902.379	3192
902.498	3081
902.617	3058
902.735	3188
902.854	3203
902.973	3195
903.091	3047
903.21	3047
903.328	3112
903.446	3116
903.565	3116
903.683	3211
903.801	3161
903.919	3218
904.038	3291
904.156	3146
904.274	3256
904.392	3279
904.51	3325
904.627	3306
904.745	3439
904.863	3496
904.981	3275
905.098	3173
905.216	3211
905.334	3294
905.451	3287
905.569	3294
905.686	3389
905.803	3412
905.921	3272
906.038	3447
906.155	3336
906.272	3245
906.389	3332
906.506	3253
906.623	3233
906.74	3241
906.857	3138
906.974	3230
907.091	3424
907.208	3591
907.324	3485
907.441	3386
907.557	3207
907.674	3226
907.79	3203
907.907	3268
908.023	3374
908.139	3386
908.256	3321
908.372	3336
908.488	3344
908.604	3272
908.72	3233
908.836	3283
908.952	3291
909.068	3332
909.184	3450
909.3	3378
909.415	3469
909.531	3431
909.647	3253
909.762	3329
909.878	3272
909.993	3321
910.108	3287
910.224	3298
910.339	3405
910.454	3325
910.57	3275
910.685	3253
910.8	3610
910.915	3545
911.03	3450
911.145	3256
911.259	3233
911.374	3321
911.489	3245
911.604	3233
911.718	3097
911.833	3180
911.947	2952
912.062	2982
912.176	3176
912.291	3207
912.405	3230
912.519	3428
912.633	3481
912.748	3325
912.862	3291
912.976	3165
913.09	3055
913.204	3157
913.318	3161
913.431	3313
913.545	3321
913.659	3370
913.772	3367
913.886	3214
914	3176
914.113	3344
914.226	3424
914.34	3344
914.453	3195
914.566	3401
914.68	3256
914.793	3306
914.906	3169
915.019	3112
915.132	3081
915.245	3138
915.358	3218
915.47	3222
915.583	3253
915.696	3325
915.809	3393
915.921	3412
916.034	3279
916.146	3272
916.259	3211
916.371	3351
916.483	3355
916.595	3268
916.708	3329
916.82	3336
916.932	3363
917.044	3325
917.156	3374
917.268	3256
917.38	3272
917.491	3340
917.603	3336
917.715	3420
917.826	3447
917.938	3382
918.049	3256
918.161	3443
918.272	3526
918.384	3557
918.495	3443
918.606	3378
918.717	3268
918.828	3382
918.939	3401
919.05	3260
919.161	3359
919.272	3169
919.383	3264
919.494	3504
919.604	3690
919.715	3500
919.826	3359
919.936	3485
920.047	3576
920.157	3564
920.267	3789
920.378	3591
920.488	3557
920.598	3793
920.708	3941
920.818	3842
920.928	3831
921.038	3983
921.148	3998
921.258	3671
921.368	3614
921.477	3576
921.587	3519
921.697	3405
921.806	3606
921.916	3523
922.025	3321
922.134	3291
922.244	3306
922.353	3397
922.462	3249
922.571	3249
922.68	3108
922.789	3051
922.898	3116
923.007	3051
923.116	3203
923.224	3199
923.333	3157
923.442	3081
923.55	3100
923.659	3135
923.767	3214
923.876	3100
923.984	3214
924.092	3119
924.201	3180
924.309	3173
924.417	3214
924.525	3161
924.633	3207
924.741	4162
924.849	3066
924.956	3245
925.064	3100
925.172	3001
925.279	3081
925.387	3195
925.494	3195
925.602	3359
925.709	3291
925.816	3154
925.924	3249
926.031	3348
926.138	3325
926.245	3325
926.352	3249
926.459	3416
926.566	3462
926.673	3306
926.779	3279
926.886	3253
926.993	3146
927.099	3150
927.206	3112
927.312	3089
927.419	3222
927.525	3226
927.631	3310
927.737	3135
927.843	3108
927.95	3043
928.056	3131
928.162	3211
928.267	3275
928.373	3903
928.479	3287
928.585	3093
928.69	3233
928.796	3302
928.901	3195
929.007	3058
929.112	3249
929.218	3253
929.323	3188
929.428	3173
929.533	3317
929.638	3157
929.743	3195
929.848	3249
929.953	3260
930.058	3157
930.163	3028
930.267	3089
930.372	3199
930.477	3074
930.581	3351
930.685	3218
930.79	3081
930.894	3146
930.998	3112
931.103	3340
931.207	2986
931.311	3001
931.415	2956
931.519	2807
931.623	2842
