Data from test_V78500241_167.txt Node
Date: Fri Mar 25 16:16:21 CST 2022
User: usil
Spectrometer: V785-0024
Trigger mode: 0
Integration Time (sec): 4.000000E-1
Scans to average: 1
Nonlinearity correction enabled: false
Boxcar width: 0
Storing dark spectrum: false
XAxis mode: Wavelengths
Number of Pixels in Spectrum: 1024
>>>>>Begin Spectral Data<<<<<
801.071	2948
801.214	2967
801.356	2922
801.499	2975
801.641	2922
801.783	2960
801.926	3097
802.068	2994
802.211	3055
802.353	3070
802.496	2990
802.638	3062
802.78	3104
802.923	3150
803.065	3058
803.208	2956
803.35	2975
803.492	2975
803.635	2960
803.777	2792
803.919	2891
804.061	3249
804.204	2960
804.346	2956
804.488	2902
804.63	3024
804.773	2933
804.915	2944
805.057	3138
805.199	2986
805.341	3005
805.483	3100
805.626	3017
805.768	2998
805.91	3119
806.052	3165
806.194	3077
806.336	3275
806.478	3055
806.62	2990
806.762	3005
806.904	3089
807.046	3188
807.188	3013
807.33	2982
807.472	3013
807.614	2998
807.756	2998
807.898	2990
808.04	2948
808.182	3009
808.324	2994
808.465	2902
808.607	2933
808.749	2845
808.891	2906
809.033	3005
809.174	3028
809.316	2929
809.458	2933
809.6	2823
809.741	2834
809.883	2815
810.025	2895
810.166	2906
810.308	2891
810.45	2872
810.591	2811
810.733	2842
810.875	2853
811.016	2823
811.158	2834
811.299	2853
811.441	2975
811.582	2944
811.724	2902
811.865	2887
812.007	2960
812.148	2906
812.29	2887
812.431	2902
812.573	2967
812.714	3013
812.855	3055
812.997	3097
813.138	3138
813.279	3070
813.421	3024
813.562	3039
813.703	2925
813.845	2922
813.986	2800
814.127	2762
814.268	2857
814.41	2883
814.551	2838
814.692	2914
814.833	2849
814.974	2937
815.115	2998
815.256	2883
815.397	2857
815.539	2895
815.68	2842
815.821	2819
815.962	2986
816.103	2979
816.244	2922
816.385	2906
816.526	3013
816.666	2948
816.807	2777
816.948	2948
817.089	2982
817.23	2910
817.371	2800
817.512	2823
817.653	2845
817.793	2857
817.934	2967
818.075	3032
818.216	3036
818.356	3039
818.497	2929
818.638	2838
818.778	2834
818.919	2796
819.06	2815
819.2	2918
819.341	2853
819.481	2861
819.622	2971
819.762	3173
819.903	3116
820.043	2979
820.184	2948
820.324	2914
820.465	3055
820.605	3058
820.746	3062
820.886	2960
821.026	3108
821.167	3195
821.307	3283
821.447	3310
821.588	3275
821.728	3245
821.868	3272
822.008	3127
822.149	3241
822.289	3283
822.429	3108
822.569	3173
822.709	3214
822.849	3051
822.99	3123
823.13	3195
823.27	3241
823.41	3104
823.55	3218
823.69	3173
823.83	3218
823.97	3127
824.11	3032
824.25	3017
824.389	3135
824.529	3157
824.669	3104
824.809	3249
824.949	3294
825.089	3287
825.228	3192
825.368	3058
825.508	3020
825.648	2986
825.787	3036
825.927	3055
826.067	3032
826.206	3005
826.346	3104
826.485	3108
826.625	3195
826.765	3275
826.904	3222
827.044	3005
827.183	2922
827.323	2918
827.462	3001
827.601	2971
827.741	2967
827.88	2990
828.02	2872
828.159	2986
828.298	3070
828.437	3127
828.577	3055
828.716	3287
828.855	3077
828.994	2922
829.134	2895
829.273	2948
829.412	2922
829.551	2937
829.69	2918
829.829	3013
829.968	3161
830.107	3043
830.246	3085
830.385	2956
830.524	2929
830.663	2819
830.802	2754
830.941	2693
831.08	2701
831.219	2785
831.357	2796
831.496	3009
831.635	2735
831.774	2686
831.913	2697
832.051	2602
832.19	2617
832.329	2743
832.467	2583
832.606	2537
832.744	2621
832.883	2625
833.022	2587
833.16	2663
833.299	2735
833.437	2754
833.576	2750
833.714	2746
833.852	2727
833.991	2785
834.129	2849
834.267	2838
834.406	2819
834.544	2880
834.682	2895
834.821	2906
834.959	3089
835.097	2952
835.235	3097
835.373	3017
835.511	3051
835.65	3013
835.788	2960
835.926	2887
836.064	2857
836.202	2883
836.34	3154
836.478	3199
836.615	3097
836.753	3184
836.891	3218
837.029	3184
837.167	3112
837.305	3104
837.443	3036
837.58	3028
837.718	3188
837.856	3108
837.993	3081
838.131	3165
838.269	3135
838.406	3135
838.544	3097
838.681	2998
838.819	2933
838.956	2826
839.094	2845
839.231	2971
839.369	3085
839.506	3416
839.643	3256
839.781	3043
839.918	3005
840.055	3020
840.193	3062
840.33	3089
840.467	3142
840.604	3184
840.742	3435
840.879	3089
841.016	3100
841.153	3165
841.29	3386
841.427	3325
841.564	3298
841.701	3348
841.838	3230
841.975	3207
842.112	3272
842.249	3089
842.385	3070
842.522	3310
842.659	3077
842.796	3116
842.933	3154
843.069	3089
843.206	3062
843.343	3207
843.479	3093
843.616	3169
843.752	2929
843.889	2914
844.025	3104
844.162	2914
844.298	3108
844.435	2963
844.571	2922
844.708	3070
844.844	3199
844.98	3272
845.117	3260
845.253	3108
845.389	3047
845.525	3131
845.661	3138
845.798	3028
845.934	3154
846.07	3074
846.206	3287
846.342	3348
846.478	3195
846.614	3123
846.75	3089
846.886	3058
847.022	3275
847.158	3154
847.294	3237
847.429	3264
847.565	3241
847.701	3538
847.837	3062
847.972	3070
848.108	3157
848.244	3203
848.379	3024
848.515	2925
848.65	2986
848.786	2937
848.921	3043
849.057	3116
849.192	3176
849.328	3123
849.463	3154
849.598	3074
849.734	3085
849.869	2982
850.004	2956
850.14	3013
850.275	2937
850.41	2876
850.545	2891
850.68	2990
850.815	2971
850.95	2990
851.085	3203
851.22	3127
851.355	3039
851.49	3047
851.625	3020
851.76	3051
851.895	2956
852.03	2960
852.165	3074
852.299	3112
852.434	3214
852.569	3157
852.703	3203
852.838	3294
852.973	3363
853.107	3332
853.242	3188
853.376	3131
853.511	3005
853.645	3062
853.78	3256
853.914	3165
854.048	3119
854.183	3104
854.317	3184
854.451	3325
854.585	3169
854.72	3142
854.854	3237
854.988	3066
855.122	3100
855.256	3028
855.39	3123
855.524	3291
855.658	3264
855.792	3203
855.926	3211
856.06	3245
856.194	3260
856.327	3173
856.461	3100
856.595	3097
856.729	3157
856.862	3256
856.996	3207
857.13	3211
857.263	3253
857.397	3306
857.53	3123
857.664	3192
857.797	3249
857.931	3287
858.064	3176
858.197	3268
858.331	3154
858.464	3081
858.597	3070
858.731	3146
858.864	3131
858.997	3112
859.13	3173
859.263	3211
859.396	3211
859.529	3116
859.662	3116
859.795	3066
859.928	3157
860.061	3310
860.194	3302
860.327	3157
860.46	3173
860.592	3279
860.725	3260
860.858	3302
860.99	3150
861.123	3081
861.256	3081
861.388	3138
861.521	3770
861.653	3024
861.786	2990
861.918	2979
862.05	3081
862.183	3104
862.315	3192
862.447	3230
862.58	3112
862.712	2952
862.844	2899
862.976	3051
863.108	3009
863.24	3272
863.372	2922
863.504	2982
863.636	3001
863.768	3062
863.9	3017
864.032	2918
864.164	2979
864.296	3047
864.428	3112
864.559	3142
864.691	3077
864.823	3100
864.954	3047
865.086	3047
865.217	2994
865.349	2994
865.48	2982
865.612	3051
865.743	3154
865.875	3036
866.006	2979
866.137	3001
866.269	2963
866.4	2994
866.531	3005
866.662	2902
866.793	2922
866.924	2941
867.055	2967
867.186	2941
867.317	2876
867.448	2895
867.579	2845
867.71	2929
867.841	2849
867.972	2929
868.103	2941
868.233	2902
868.364	2883
868.495	2925
868.625	3093
868.756	3180
868.886	3005
869.017	3013
869.147	3203
869.278	3237
869.408	3047
869.539	3028
869.669	3100
869.799	3036
869.929	3165
870.06	3188
870.19	3317
870.32	3348
870.45	3336
870.58	3428
870.71	3466
870.84	3519
870.97	3336
871.1	3256
871.23	3519
871.36	3504
871.489	3340
871.619	3473
871.749	3428
871.879	3469
872.008	3519
872.138	3409
872.267	3310
872.397	3161
872.526	3138
872.656	3028
872.785	3135
872.915	3268
873.044	3317
873.173	3268
873.303	3279
873.432	3207
873.561	3249
873.69	3165
873.819	3138
873.948	3230
874.077	3142
874.206	3089
874.335	3127
874.464	3222
874.593	3409
874.722	3241
874.851	3393
874.979	3389
875.108	3351
875.237	3214
875.365	3169
875.494	3188
875.623	3287
875.751	3157
875.88	3138
876.008	3222
876.136	3237
876.265	3367
876.393	3526
876.521	3405
876.65	3405
876.778	3351
876.906	3275
877.034	3222
877.162	3230
877.29	3184
877.418	3306
877.546	3268
877.674	3222
877.802	3275
877.93	3272
878.058	3161
878.185	3150
878.313	3218
878.441	3233
878.568	3097
878.696	3157
878.824	3294
878.951	3344
879.079	3450
879.206	3614
879.333	3454
879.461	3359
879.588	3340
879.715	3447
879.842	3618
879.97	3389
880.097	3157
880.224	3157
880.351	3211
880.478	3253
880.605	3203
880.732	3199
880.859	3462
880.986	3313
881.112	3359
881.239	3214
881.366	3108
881.493	3055
881.619	3074
881.746	3085
881.872	3123
881.999	3123
882.125	3165
882.252	3256
882.378	3310
882.505	3428
882.631	3306
882.757	3157
882.883	3195
883.01	3222
883.136	3222
883.262	3112
883.388	3119
883.514	3298
883.64	3382
883.766	3294
883.892	3233
884.018	3268
884.143	3473
884.269	3553
884.395	3226
884.52	3203
884.646	3180
884.772	3142
884.897	3123
885.023	3222
885.148	3310
885.274	3458
885.399	3397
885.524	3302
885.65	3283
885.775	3317
885.9	3306
886.025	3485
886.15	3386
886.275	3310
886.4	3237
886.525	3351
886.65	3302
886.775	3340
886.9	3530
887.025	3656
887.149	3462
887.274	3283
887.399	3195
887.523	3211
887.648	3207
887.773	3226
887.897	3363
888.021	3447
888.146	3306
888.27	3447
888.395	3572
888.519	3458
888.643	3488
888.767	3473
888.891	3359
889.015	3283
889.139	3329
889.263	3272
889.387	3420
889.511	3526
889.635	3488
889.759	3298
889.883	3344
890.006	3405
890.13	3523
890.254	3283
890.377	3409
890.501	3226
890.624	3184
890.748	3329
890.871	3199
890.995	3123
891.118	3089
891.241	3199
891.364	3222
891.488	3363
891.611	3176
891.734	3241
891.857	3306
891.98	3233
892.103	3340
892.226	3313
892.349	3260
892.471	3119
892.594	3260
892.717	3340
892.839	3313
892.962	3306
893.085	3374
893.207	3283
893.33	3161
893.452	3180
893.575	3329
893.697	3275
893.819	3519
893.941	3511
894.064	3504
894.186	3283
894.308	3264
894.43	3485
894.552	3515
894.674	3462
894.796	3272
894.918	3310
895.04	3317
895.161	3458
895.283	3431
895.405	3298
895.526	3367
895.648	3458
895.769	3462
895.891	3458
896.012	3507
896.134	3477
896.255	3462
896.376	3431
896.498	3409
896.619	3439
896.74	3332
896.861	3405
896.982	3701
897.103	3835
897.224	3641
897.345	3515
897.466	3485
897.587	3488
897.708	3610
897.828	3534
897.949	3477
898.07	3359
898.19	3450
898.311	3603
898.431	3450
898.552	3534
898.672	3625
898.792	3591
898.913	3507
899.033	3450
899.153	3340
899.273	3207
899.393	3283
899.513	3359
899.633	3317
899.753	3355
899.873	3344
899.993	3416
900.113	3336
900.232	3405
900.352	3336
900.472	3313
900.591	3222
900.711	3306
900.83	3279
900.95	3409
901.069	3526
901.189	3359
901.308	3192
901.427	3142
901.546	3169
901.665	3313
901.784	3363
901.904	3199
902.023	3192
902.141	3077
902.26	3020
902.379	3161
902.498	3089
902.617	3100
902.735	3237
902.854	3283
902.973	3218
903.091	3039
903.21	3070
903.328	3165
903.446	3154
903.565	3135
903.683	3214
903.801	3165
903.919	3291
904.038	3283
904.156	3157
904.274	3287
904.392	3275
904.51	3298
904.627	3344
904.745	3443
904.863	3519
904.981	3237
905.098	3142
905.216	3226
905.334	3291
905.451	3348
905.569	3291
905.686	3492
905.803	3477
905.921	3351
906.038	3473
906.155	3389
906.272	3298
906.389	3367
906.506	3241
906.623	3256
906.74	3291
906.857	3237
906.974	3302
907.091	3500
907.208	3561
907.324	3511
907.441	3439
907.557	3272
907.674	3233
907.79	3218
907.907	3298
908.023	3386
908.139	3386
908.256	3363
908.372	3405
908.488	3340
908.604	3294
908.72	3237
908.836	3310
908.952	3317
909.068	3359
909.184	3530
909.3	3424
909.415	3488
909.531	3485
909.647	3310
909.762	3332
909.878	3253
909.993	3405
910.108	3389
910.224	3355
910.339	3382
910.454	3405
910.57	3317
910.685	3291
910.8	3580
910.915	3572
911.03	3424
911.145	3317
911.259	3294
911.374	3321
911.489	3268
911.604	3211
911.718	3157
911.833	3157
911.947	3070
912.062	3024
912.176	3176
912.291	3218
912.405	3245
912.519	3462
912.633	3485
912.748	3355
912.862	3249
912.976	3154
913.09	3100
913.204	3188
913.318	3226
913.431	3310
913.545	3359
913.659	3447
913.772	3378
913.886	3222
914	3214
914.113	3359
914.226	3412
914.34	3355
914.453	3214
914.566	3416
914.68	3332
914.793	3329
914.906	3180
915.019	3097
915.132	3104
915.245	3188
915.358	3256
915.47	3222
915.583	3264
915.696	3321
915.809	3428
915.921	3469
916.034	3275
916.146	3275
916.259	3264
916.371	3401
916.483	3355
916.595	3313
916.708	3367
916.82	3302
916.932	3374
917.044	3370
917.156	3317
917.268	3275
917.38	3294
917.491	3313
917.603	3359
917.715	3454
917.826	3454
917.938	3397
918.049	3321
918.161	3439
918.272	3606
918.384	3576
918.495	3492
918.606	3340
918.717	3291
918.828	3378
918.939	3428
919.05	3325
919.161	3370
919.272	3184
919.383	3310
919.494	3534
919.604	3713
919.715	3496
919.826	3405
919.936	3466
920.047	3591
920.157	3568
920.267	3751
920.378	3625
920.488	3599
920.598	3774
920.708	3983
920.818	3823
920.928	3873
921.038	4040
921.148	3968
921.258	3713
921.368	3652
921.477	3610
921.587	3561
921.697	3492
921.806	3648
921.916	3523
922.025	3363
922.134	3344
922.244	3321
922.353	3450
922.462	3302
922.571	3260
922.68	3123
922.789	3047
922.898	3116
923.007	3104
923.116	3214
923.224	3184
923.333	3184
923.442	3135
923.55	3108
923.659	3176
923.767	3195
923.876	3089
923.984	3230
924.092	3100
924.201	3218
924.309	3260
924.417	3291
924.525	3192
924.633	3214
924.741	4200
924.849	3097
924.956	3291
925.064	3116
925.172	3081
925.279	3104
925.387	3218
925.494	3211
925.602	3351
925.709	3332
925.816	3218
925.924	3279
926.031	3420
926.138	3336
926.245	3363
926.352	3237
926.459	3469
926.566	3515
926.673	3348
926.779	3275
926.886	3275
926.993	3146
927.099	3146
927.206	3116
927.312	3146
927.419	3283
927.525	3192
927.631	3298
927.737	3207
927.843	3138
927.95	3051
928.056	3169
928.162	3169
928.267	3268
928.373	3899
928.479	3294
928.585	3070
928.69	3241
928.796	3313
928.901	3192
929.007	3043
929.112	3207
929.218	3226
929.323	3127
929.428	3161
929.533	3325
929.638	3180
929.743	3173
929.848	3275
929.953	3211
930.058	3146
930.163	2998
930.267	3070
930.372	3214
930.477	3058
930.581	3336
930.685	3199
930.79	3097
930.894	3142
930.998	3097
931.103	3294
931.207	2979
931.311	2963
931.415	2937
931.519	2766
931.623	2811
