Data from test_V78500241_564.txt Node
Date: Fri Mar 25 16:19:06 CST 2022
User: usil
Spectrometer: V785-0024
Trigger mode: 0
Integration Time (sec): 4.000000E-1
Scans to average: 1
Nonlinearity correction enabled: false
Boxcar width: 0
Storing dark spectrum: false
XAxis mode: Wavelengths
Number of Pixels in Spectrum: 1024
>>>>>Begin Spectral Data<<<<<
801.071	2910
801.214	2956
801.356	2914
801.499	2933
801.641	2887
801.783	2979
801.926	3100
802.068	2994
802.211	3043
802.353	3062
802.496	2948
802.638	3036
802.78	3077
802.923	3108
803.065	3020
803.208	2944
803.35	2941
803.492	2975
803.635	2933
803.777	2811
803.919	2887
804.061	3195
804.204	2990
804.346	2971
804.488	2887
804.63	3009
804.773	2906
804.915	2929
805.057	3097
805.199	2971
805.341	3013
805.483	3036
805.626	3043
805.768	3001
805.91	3116
806.052	3176
806.194	3039
806.336	3264
806.478	3070
806.62	3005
806.762	3005
806.904	3081
807.046	3184
807.188	3009
807.33	2944
807.472	2971
807.614	2899
807.756	2956
807.898	2967
808.04	2925
808.182	2998
808.324	2960
808.465	2925
808.607	2880
808.749	2834
808.891	2838
809.033	2963
809.174	2967
809.316	2925
809.458	2929
809.6	2785
809.741	2785
809.883	2788
810.025	2830
810.166	2880
810.308	2880
810.45	2887
810.591	2727
810.733	2792
810.875	2864
811.016	2788
811.158	2804
811.299	2834
811.441	2982
811.582	2902
811.724	2853
811.865	2838
812.007	2906
812.148	2899
812.29	2868
812.431	2902
812.573	2960
812.714	2986
812.855	3062
812.997	3036
813.138	3119
813.279	3020
813.421	3036
813.562	2956
813.703	2899
813.845	2899
813.986	2785
814.127	2762
814.268	2830
814.41	2872
814.551	2819
814.692	2880
814.833	2845
814.974	2956
815.115	2967
815.256	2853
815.397	2804
815.539	2872
815.68	2781
815.821	2773
815.962	2975
816.103	2956
816.244	2910
816.385	2876
816.526	2986
816.666	2925
816.807	2758
816.948	2906
817.089	2918
817.23	2861
817.371	2800
817.512	2807
817.653	2834
817.793	2834
817.934	2891
818.075	2982
818.216	3024
818.356	3062
818.497	2857
818.638	2826
818.778	2857
818.919	2773
819.06	2800
819.2	2891
819.341	2807
819.481	2819
819.622	3001
819.762	3127
819.903	3039
820.043	2948
820.184	2952
820.324	2910
820.465	3020
820.605	3039
820.746	3013
820.886	2956
821.026	3127
821.167	3176
821.307	3256
821.447	3294
821.588	3260
821.728	3157
821.868	3165
822.008	3051
822.149	3214
822.289	3214
822.429	3100
822.569	3112
822.709	3184
822.849	3036
822.99	3077
823.13	3161
823.27	3230
823.41	3112
823.55	3154
823.69	3154
823.83	3192
823.97	3100
824.11	3001
824.25	2979
824.389	3097
824.529	3138
824.669	3058
824.809	3195
824.949	3256
825.089	3237
825.228	3214
825.368	2986
825.508	2998
825.648	2982
825.787	2990
825.927	3036
826.067	2944
826.206	2952
826.346	3070
826.485	3070
826.625	3138
826.765	3291
826.904	3226
827.044	2982
827.183	2952
827.323	2861
827.462	3005
827.601	2922
827.741	2918
827.88	2982
828.02	2868
828.159	3009
828.298	3062
828.437	3142
828.577	3081
828.716	3233
828.855	3089
828.994	2899
829.134	2895
829.273	2971
829.412	2868
829.551	2864
829.69	2929
829.829	3043
829.968	3123
830.107	3051
830.246	2990
830.385	2922
830.524	2876
830.663	2826
830.802	2762
830.941	2686
831.08	2678
831.219	2792
831.357	2758
831.496	3001
831.635	2720
831.774	2674
831.913	2693
832.051	2541
832.19	2590
832.329	2701
832.467	2552
832.606	2492
832.744	2629
832.883	2590
833.022	2579
833.16	2640
833.299	2678
833.437	2712
833.576	2708
833.714	2731
833.852	2724
833.991	2773
834.129	2845
834.267	2819
834.406	2769
834.544	2872
834.682	2845
834.821	2842
834.959	3058
835.097	2925
835.235	3058
835.373	2982
835.511	3039
835.65	2975
835.788	2990
835.926	2857
836.064	2807
836.202	2815
836.34	3127
836.478	3165
836.615	3058
836.753	3135
836.891	3237
837.029	3154
837.167	3108
837.305	3055
837.443	3047
837.58	2975
837.718	3123
837.856	3089
837.993	3047
838.131	3112
838.269	3085
838.406	3100
838.544	3119
838.681	2956
838.819	2952
838.956	2788
839.094	2834
839.231	2883
839.369	3047
839.506	3405
839.643	3214
839.781	3047
839.918	2956
840.055	3047
840.193	3009
840.33	3074
840.467	3062
840.604	3184
840.742	3420
840.879	3051
841.016	3062
841.153	3119
841.29	3332
841.427	3291
841.564	3256
841.701	3302
841.838	3230
841.975	3188
842.112	3218
842.249	3089
842.385	3058
842.522	3294
842.659	3089
842.796	3085
842.933	3085
843.069	3032
843.206	3058
843.343	3245
843.479	3097
843.616	3146
843.752	2922
843.889	2868
844.025	3074
844.162	2876
844.298	3070
844.435	2941
844.571	2937
844.708	3081
844.844	3211
844.98	3253
845.117	3214
845.253	3066
845.389	2975
845.525	3081
845.661	3123
845.798	3047
845.934	3081
846.07	3024
846.206	3214
846.342	3260
846.478	3199
846.614	3104
846.75	3070
846.886	3020
847.022	3249
847.158	3127
847.294	3203
847.429	3249
847.565	3218
847.701	3488
847.837	3032
847.972	2971
848.108	3161
848.244	3112
848.379	3036
848.515	2891
848.65	2937
848.786	2975
848.921	3009
849.057	3119
849.192	3157
849.328	3077
849.463	3055
849.598	3055
849.734	3043
849.869	2944
850.004	2929
850.14	2960
850.275	2933
850.41	2861
850.545	2895
850.68	2941
850.815	2994
850.95	3013
851.085	3203
851.22	3131
851.355	3055
851.49	3020
851.625	3032
851.76	3024
851.895	2979
852.03	2929
852.165	3047
852.299	3146
852.434	3226
852.569	3173
852.703	3192
852.838	3275
852.973	3367
853.107	3359
853.242	3188
853.376	3154
853.511	3001
853.645	3085
853.78	3287
853.914	3173
854.048	3150
854.183	3104
854.317	3146
854.451	3332
854.585	3176
854.72	3146
854.854	3268
854.988	3077
855.122	3135
855.256	3001
855.39	3142
855.524	3313
855.658	3211
855.792	3195
855.926	3241
856.06	3268
856.194	3264
856.327	3176
856.461	3123
856.595	3142
856.729	3146
856.862	3222
856.996	3180
857.13	3241
857.263	3272
857.397	3302
857.53	3150
857.664	3237
857.797	3253
857.931	3302
858.064	3199
858.197	3291
858.331	3154
858.464	3093
858.597	3055
858.731	3150
858.864	3146
858.997	3119
859.13	3184
859.263	3195
859.396	3272
859.529	3131
859.662	3112
859.795	3081
859.928	3176
860.061	3272
860.194	3348
860.327	3184
860.46	3176
860.592	3287
860.725	3264
860.858	3272
860.99	3150
861.123	3077
861.256	3093
861.388	3180
861.521	3717
861.653	3017
861.786	2990
861.918	3028
862.05	3100
862.183	3135
862.315	3192
862.447	3237
862.58	3085
862.712	2986
862.844	2952
862.976	3058
863.108	3077
863.24	3447
863.372	2895
863.504	2994
863.636	2960
863.768	3093
863.9	3036
864.032	2960
864.164	2952
864.296	3032
864.428	3112
864.559	3085
864.691	3070
864.823	3085
864.954	3055
865.086	3032
865.217	3036
865.349	2998
865.48	3024
865.612	3081
865.743	3195
865.875	3028
866.006	2990
866.137	3013
866.269	2982
866.4	2937
866.531	2937
866.662	2899
866.793	2918
866.924	2967
867.055	2994
867.186	2952
867.317	2914
867.448	2895
867.579	2906
867.71	2895
867.841	2868
867.972	2929
868.103	2910
868.233	2922
868.364	2899
868.495	2948
868.625	3127
868.756	3169
868.886	2990
869.017	3085
869.147	3230
869.278	3169
869.408	3062
869.539	3062
869.669	3119
869.799	3062
869.929	3138
870.06	3116
870.19	3348
870.32	3340
870.45	3291
870.58	3393
870.71	3485
870.84	3477
870.97	3344
871.1	3268
871.23	3523
871.36	3473
871.489	3370
871.619	3431
871.749	3473
871.879	3507
872.008	3481
872.138	3401
872.267	3306
872.397	3146
872.526	3138
872.656	3028
872.785	3123
872.915	3214
873.044	3340
873.173	3241
873.303	3310
873.432	3279
873.561	3245
873.69	3176
873.819	3184
873.948	3233
874.077	3161
874.206	3093
874.335	3116
874.464	3287
874.593	3420
874.722	3310
874.851	3424
874.979	3382
875.108	3397
875.237	3211
875.365	3218
875.494	3218
875.623	3283
875.751	3089
875.88	3154
876.008	3214
876.136	3241
876.265	3405
876.393	3557
876.521	3420
876.65	3428
876.778	3336
876.906	3253
877.034	3230
877.162	3253
877.29	3199
877.418	3298
877.546	3245
877.674	3260
877.802	3264
877.93	3279
878.058	3195
878.185	3116
878.313	3222
878.441	3214
878.568	3093
878.696	3173
878.824	3264
878.951	3325
879.079	3485
879.206	3633
879.333	3462
879.461	3340
879.588	3401
879.715	3542
879.842	3599
879.97	3370
880.097	3241
880.224	3180
880.351	3184
880.478	3241
880.605	3245
880.732	3237
880.859	3485
880.986	3336
881.112	3351
881.239	3256
881.366	3161
881.493	3081
881.619	3081
881.746	3100
881.872	3135
881.999	3131
882.125	3169
882.252	3283
882.378	3329
882.505	3496
882.631	3294
882.757	3142
882.883	3230
883.01	3260
883.136	3150
883.262	3138
883.388	3138
883.514	3344
883.64	3374
883.766	3332
883.892	3222
884.018	3241
884.143	3431
884.269	3576
884.395	3237
884.52	3199
884.646	3184
884.772	3138
884.897	3104
885.023	3245
885.148	3374
885.274	3424
885.399	3405
885.524	3317
885.65	3275
885.775	3340
885.9	3321
886.025	3473
886.15	3420
886.275	3302
886.4	3302
886.525	3340
886.65	3279
886.775	3298
886.9	3507
887.025	3660
887.149	3401
887.274	3275
887.399	3192
887.523	3291
887.648	3184
887.773	3180
887.897	3420
888.021	3428
888.146	3336
888.27	3488
888.395	3523
888.519	3431
888.643	3462
888.767	3519
888.891	3325
889.015	3283
889.139	3321
889.263	3268
889.387	3466
889.511	3526
889.635	3481
889.759	3302
889.883	3279
890.006	3393
890.13	3538
890.254	3256
890.377	3389
890.501	3230
890.624	3203
890.748	3317
890.871	3199
890.995	3138
891.118	3081
891.241	3214
891.364	3264
891.488	3329
891.611	3222
891.734	3203
891.857	3287
891.98	3283
892.103	3344
892.226	3310
892.349	3218
892.471	3142
892.594	3233
892.717	3321
892.839	3245
892.962	3279
893.085	3389
893.207	3340
893.33	3161
893.452	3241
893.575	3355
893.697	3253
893.819	3492
893.941	3564
894.064	3439
894.186	3325
894.308	3302
894.43	3466
894.552	3523
894.674	3435
894.796	3275
894.918	3355
895.04	3340
895.161	3466
895.283	3424
895.405	3332
895.526	3389
895.648	3485
895.769	3370
895.891	3450
896.012	3488
896.134	3466
896.255	3416
896.376	3416
896.498	3401
896.619	3443
896.74	3363
896.861	3393
896.982	3698
897.103	3873
897.224	3625
897.345	3519
897.466	3481
897.587	3519
897.708	3599
897.828	3576
897.949	3420
898.07	3340
898.19	3401
898.311	3622
898.431	3428
898.552	3534
898.672	3614
898.792	3633
898.913	3557
899.033	3462
899.153	3329
899.273	3207
899.393	3310
899.513	3340
899.633	3310
899.753	3348
899.873	3363
899.993	3409
900.113	3317
900.232	3370
900.352	3329
900.472	3283
900.591	3207
900.711	3317
900.83	3256
900.95	3428
901.069	3519
901.189	3348
901.308	3169
901.427	3154
901.546	3203
901.665	3325
901.784	3340
901.904	3233
902.023	3188
902.141	3043
902.26	3001
902.379	3138
902.498	3112
902.617	3066
902.735	3230
902.854	3233
902.973	3199
903.091	3043
903.21	3024
903.328	3157
903.446	3176
903.565	3104
903.683	3272
903.801	3146
903.919	3268
904.038	3275
904.156	3192
904.274	3325
904.392	3241
904.51	3340
904.627	3329
904.745	3454
904.863	3519
904.981	3268
905.098	3195
905.216	3256
905.334	3298
905.451	3298
905.569	3313
905.686	3424
905.803	3466
905.921	3321
906.038	3431
906.155	3340
906.272	3302
906.389	3332
906.506	3272
906.623	3260
906.74	3275
906.857	3226
906.974	3268
907.091	3443
907.208	3568
907.324	3504
907.441	3389
907.557	3268
907.674	3268
907.79	3245
907.907	3268
908.023	3389
908.139	3397
908.256	3363
908.372	3401
908.488	3386
908.604	3291
908.72	3256
908.836	3256
908.952	3306
909.068	3329
909.184	3511
909.3	3424
909.415	3488
909.531	3511
909.647	3287
909.762	3298
909.878	3264
909.993	3351
910.108	3317
910.224	3313
910.339	3397
910.454	3329
910.57	3294
910.685	3287
910.8	3618
910.915	3519
911.03	3439
911.145	3298
911.259	3256
911.374	3359
911.489	3249
911.604	3279
911.718	3108
911.833	3169
911.947	3020
912.062	2994
912.176	3211
912.291	3173
912.405	3207
912.519	3409
912.633	3488
912.748	3367
912.862	3310
912.976	3203
913.09	3036
913.204	3173
913.318	3230
913.431	3405
913.545	3355
913.659	3401
913.772	3355
913.886	3226
914	3211
914.113	3359
914.226	3435
914.34	3389
914.453	3218
914.566	3397
914.68	3260
914.793	3310
914.906	3146
915.019	3150
915.132	3081
915.245	3173
915.358	3211
915.47	3230
915.583	3279
915.696	3344
915.809	3401
915.921	3466
916.034	3264
916.146	3272
916.259	3222
916.371	3382
916.483	3370
916.595	3298
916.708	3325
916.82	3370
916.932	3367
917.044	3359
917.156	3370
917.268	3241
917.38	3302
917.491	3336
917.603	3370
917.715	3466
917.826	3488
917.938	3378
918.049	3310
918.161	3428
918.272	3603
918.384	3576
918.495	3519
918.606	3374
918.717	3260
918.828	3378
918.939	3405
919.05	3306
919.161	3363
919.272	3203
919.383	3294
919.494	3492
919.604	3698
919.715	3488
919.826	3431
919.936	3473
920.047	3614
920.157	3542
920.267	3732
920.378	3648
920.488	3580
920.598	3789
920.708	3937
920.818	3838
920.928	3819
921.038	4044
921.148	4017
921.258	3713
921.368	3610
921.477	3629
921.587	3549
921.697	3469
921.806	3663
921.916	3519
922.025	3397
922.134	3329
922.244	3302
922.353	3431
922.462	3256
922.571	3214
922.68	3138
922.789	3097
922.898	3150
923.007	3097
923.116	3207
923.224	3207
923.333	3218
923.442	3089
923.55	3142
923.659	3150
923.767	3207
923.876	3154
923.984	3249
924.092	3058
924.201	3199
924.309	3245
924.417	3264
924.525	3203
924.633	3233
924.741	4040
924.849	3032
924.956	3256
925.064	3085
925.172	3055
925.279	3036
925.387	3157
925.494	3233
925.602	3367
925.709	3332
925.816	3195
925.924	3233
926.031	3340
926.138	3325
926.245	3363
926.352	3287
926.459	3389
926.566	3469
926.673	3344
926.779	3253
926.886	3237
926.993	3161
927.099	3150
927.206	3100
927.312	3138
927.419	3237
927.525	3180
927.631	3268
927.737	3119
927.843	3119
927.95	3028
928.056	3142
928.162	3135
928.267	3253
928.373	3774
928.479	3332
928.585	3074
928.69	3233
928.796	3275
928.901	3154
929.007	3017
929.112	3195
929.218	3173
929.323	3180
929.428	3150
929.533	3329
929.638	3165
929.743	3188
929.848	3268
929.953	3226
930.058	3146
930.163	2967
930.267	3085
930.372	3226
930.477	3074
930.581	3313
930.685	3184
930.79	3043
930.894	3131
930.998	3089
931.103	3272
931.207	2971
931.311	2944
931.415	2944
931.519	2792
931.623	2815
