Data from test_V78500241_530.txt Node
Date: Fri Mar 25 16:18:52 CST 2022
User: usil
Spectrometer: V785-0024
Trigger mode: 0
Integration Time (sec): 4.000000E-1
Scans to average: 1
Nonlinearity correction enabled: false
Boxcar width: 0
Storing dark spectrum: false
XAxis mode: Wavelengths
Number of Pixels in Spectrum: 1024
>>>>>Begin Spectral Data<<<<<
801.071	2902
801.214	2998
801.356	2899
801.499	2902
801.641	2872
801.783	2925
801.926	3055
802.068	2990
802.211	3017
802.353	3036
802.496	2956
802.638	3047
802.78	3066
802.923	3089
803.065	2986
803.208	2899
803.35	2899
803.492	2914
803.635	2929
803.777	2796
803.919	2864
804.061	3150
804.204	2956
804.346	2914
804.488	2845
804.63	3020
804.773	2857
804.915	2952
805.057	3093
805.199	2929
805.341	2979
805.483	3036
805.626	2990
805.768	2979
805.91	3058
806.052	3127
806.194	3028
806.336	3214
806.478	3039
806.62	2944
806.762	2982
806.904	3077
807.046	3176
807.188	2963
807.33	2883
807.472	2963
807.614	2910
807.756	3017
807.898	2937
808.04	2910
808.182	2960
808.324	2967
808.465	2902
808.607	2872
808.749	2804
808.891	2857
809.033	2971
809.174	2975
809.316	2861
809.458	2872
809.6	2769
809.741	2762
809.883	2788
810.025	2845
810.166	2834
810.308	2819
810.45	2842
810.591	2731
810.733	2735
810.875	2826
811.016	2766
811.158	2773
811.299	2800
811.441	2933
811.582	2891
811.724	2838
811.865	2861
812.007	2876
812.148	2876
812.29	2864
812.431	2872
812.573	2956
812.714	2960
812.855	3047
812.997	3055
813.138	3081
813.279	2998
813.421	2967
813.562	2925
813.703	2876
813.845	2899
813.986	2769
814.127	2697
814.268	2785
814.41	2811
814.551	2769
814.692	2880
814.833	2800
814.974	2899
815.115	2956
815.256	2800
815.397	2796
815.539	2868
815.68	2754
815.821	2785
815.962	2880
816.103	2929
816.244	2861
816.385	2826
816.526	2948
816.666	2918
816.807	2735
816.948	2887
817.089	2899
817.23	2823
817.371	2754
817.512	2762
817.653	2819
817.793	2819
817.934	2849
818.075	2963
818.216	2986
818.356	3039
818.497	2906
818.638	2785
818.778	2845
818.919	2807
819.06	2758
819.2	2918
819.341	2773
819.481	2830
819.622	2887
819.762	3104
819.903	3043
820.043	2944
820.184	2925
820.324	2887
820.465	2967
820.605	3024
820.746	3036
820.886	2918
821.026	3108
821.167	3180
821.307	3264
821.447	3313
821.588	3275
821.728	3207
821.868	3180
822.008	3116
822.149	3214
822.289	3230
822.429	3131
822.569	3089
822.709	3184
822.849	3047
822.99	3085
823.13	3230
823.27	3222
823.41	3142
823.55	3199
823.69	3138
823.83	3226
823.97	3112
824.11	3020
824.25	3024
824.389	3081
824.529	3108
824.669	3081
824.809	3207
824.949	3310
825.089	3241
825.228	3199
825.368	3036
825.508	3001
825.648	3013
825.787	3051
825.927	3017
826.067	3024
826.206	3001
826.346	3085
826.485	3108
826.625	3165
826.765	3302
826.904	3260
827.044	3017
827.183	2963
827.323	2887
827.462	3028
827.601	2960
827.741	2971
827.88	3047
828.02	2876
828.159	3005
828.298	3066
828.437	3138
828.577	3020
828.716	3249
828.855	3074
828.994	2944
829.134	2910
829.273	2994
829.412	2929
829.551	2887
829.69	2914
829.829	3005
829.968	3154
830.107	3005
830.246	3051
830.385	2971
830.524	2918
830.663	2826
830.802	2769
830.941	2712
831.08	2689
831.219	2830
831.357	2773
831.496	2925
831.635	2762
831.774	2708
831.913	2720
832.051	2575
832.19	2606
832.329	2746
832.467	2583
832.606	2511
832.744	2629
832.883	2621
833.022	2617
833.16	2724
833.299	2678
833.437	2731
833.576	2727
833.714	2758
833.852	2792
833.991	2788
834.129	2857
834.267	2861
834.406	2811
834.544	2910
834.682	2887
834.821	2937
834.959	3112
835.097	2941
835.235	3051
835.373	3005
835.511	3051
835.65	2967
835.788	2982
835.926	2849
836.064	2815
836.202	2864
836.34	3138
836.478	3184
836.615	3081
836.753	3150
836.891	3218
837.029	3214
837.167	3157
837.305	3081
837.443	3051
837.58	2990
837.718	3188
837.856	3112
837.993	3051
838.131	3131
838.269	3131
838.406	3131
838.544	3108
838.681	2960
838.819	2925
838.956	2853
839.094	2845
839.231	2933
839.369	3047
839.506	3378
839.643	3237
839.781	3058
839.918	2986
840.055	3085
840.193	3070
840.33	3093
840.467	3131
840.604	3154
840.742	3454
840.879	3055
841.016	3116
841.153	3112
841.29	3370
841.427	3355
841.564	3310
841.701	3310
841.838	3245
841.975	3226
842.112	3245
842.249	3085
842.385	3081
842.522	3294
842.659	3123
842.796	3077
842.933	3142
843.069	3081
843.206	3066
843.343	3207
843.479	3150
843.616	3157
843.752	2906
843.889	2876
844.025	3085
844.162	2933
844.298	3100
844.435	2971
844.571	2960
844.708	3093
844.844	3188
844.98	3275
845.117	3180
845.253	3104
845.389	3036
845.525	3108
845.661	3138
845.798	3001
845.934	3142
846.07	3077
846.206	3241
846.342	3336
846.478	3249
846.614	3131
846.75	3074
846.886	3055
847.022	3268
847.158	3169
847.294	3237
847.429	3272
847.565	3272
847.701	3462
847.837	3055
847.972	3058
848.108	3192
848.244	3161
848.379	2971
848.515	2998
848.65	2960
848.786	2990
848.921	3013
849.057	3150
849.192	3131
849.328	3119
849.463	3131
849.598	3085
849.734	3036
849.869	3001
850.004	2944
850.14	2979
850.275	2941
850.41	2872
850.545	2910
850.68	2948
850.815	2994
850.95	3013
851.085	3211
851.22	3112
851.355	3058
851.49	3001
851.625	3001
851.76	3055
851.895	2975
852.03	2948
852.165	3047
852.299	3154
852.434	3207
852.569	3146
852.703	3150
852.838	3321
852.973	3340
853.107	3355
853.242	3180
853.376	3119
853.511	2967
853.645	3062
853.78	3218
853.914	3131
854.048	3116
854.183	3123
854.317	3157
854.451	3260
854.585	3135
854.72	3104
854.854	3226
854.988	3097
855.122	3108
855.256	2963
855.39	3138
855.524	3253
855.658	3192
855.792	3192
855.926	3241
856.06	3233
856.194	3272
856.327	3150
856.461	3100
856.595	3127
856.729	3108
856.862	3233
856.996	3188
857.13	3237
857.263	3192
857.397	3291
857.53	3142
857.664	3237
857.797	3264
857.931	3279
858.064	3180
858.197	3230
858.331	3108
858.464	3131
858.597	3039
858.731	3123
858.864	3116
858.997	3127
859.13	3188
859.263	3207
859.396	3211
859.529	3112
859.662	3150
859.795	3070
859.928	3116
860.061	3306
860.194	3321
860.327	3135
860.46	3100
860.592	3279
860.725	3249
860.858	3291
860.99	3116
861.123	3070
861.256	3047
861.388	3180
861.521	3941
861.653	3024
861.786	2986
861.918	3001
862.05	3089
862.183	3112
862.315	3161
862.447	3237
862.58	3100
862.712	2960
862.844	2922
862.976	3039
863.108	3028
863.24	3450
863.372	2887
863.504	2948
863.636	2941
863.768	3017
863.9	2963
864.032	2941
864.164	2929
864.296	3020
864.428	3123
864.559	3135
864.691	3108
864.823	3093
864.954	3051
865.086	3100
865.217	2994
865.349	2982
865.48	2971
865.612	3032
865.743	3165
865.875	3017
866.006	2944
866.137	2998
866.269	2941
866.4	2960
866.531	2960
866.662	2929
866.793	2891
866.924	2929
867.055	3036
867.186	2956
867.317	2876
867.448	2853
867.579	2857
867.71	2876
867.841	2834
867.972	2960
868.103	2910
868.233	2876
868.364	2887
868.495	2925
868.625	3138
868.756	3207
868.886	2979
869.017	3032
869.147	3188
869.278	3123
869.408	3104
869.539	3013
869.669	3108
869.799	3089
869.929	3161
870.06	3097
870.19	3310
870.32	3253
870.45	3317
870.58	3393
870.71	3443
870.84	3431
870.97	3260
871.1	3264
871.23	3519
871.36	3435
871.489	3348
871.619	3416
871.749	3389
871.879	3443
872.008	3500
872.138	3382
872.267	3348
872.397	3146
872.526	3104
872.656	3028
872.785	3093
872.915	3275
873.044	3359
873.173	3268
873.303	3253
873.432	3275
873.561	3245
873.69	3169
873.819	3173
873.948	3211
874.077	3097
874.206	3097
874.335	3093
874.464	3218
874.593	3359
874.722	3298
874.851	3412
874.979	3370
875.108	3329
875.237	3222
875.365	3154
875.494	3157
875.623	3218
875.751	3123
875.88	3112
876.008	3169
876.136	3226
876.265	3355
876.393	3519
876.521	3462
876.65	3363
876.778	3310
876.906	3268
877.034	3195
877.162	3226
877.29	3192
877.418	3260
877.546	3245
877.674	3256
877.802	3241
877.93	3256
878.058	3169
878.185	3123
878.313	3192
878.441	3230
878.568	3089
878.696	3161
878.824	3222
878.951	3344
879.079	3405
879.206	3618
879.333	3477
879.461	3351
879.588	3351
879.715	3477
879.842	3591
879.97	3386
880.097	3192
880.224	3150
880.351	3184
880.478	3241
880.605	3192
880.732	3199
880.859	3545
880.986	3302
881.112	3306
881.239	3214
881.366	3093
881.493	3028
881.619	3032
881.746	3062
881.872	3127
881.999	3131
882.125	3142
882.252	3264
882.378	3287
882.505	3485
882.631	3287
882.757	3173
882.883	3203
883.01	3268
883.136	3165
883.262	3081
883.388	3085
883.514	3310
883.64	3386
883.766	3306
883.892	3161
884.018	3253
884.143	3428
884.269	3549
884.395	3211
884.52	3188
884.646	3184
884.772	3135
884.897	3131
885.023	3245
885.148	3382
885.274	3439
885.399	3363
885.524	3306
885.65	3272
885.775	3325
885.9	3272
886.025	3412
886.15	3332
886.275	3340
886.4	3237
886.525	3325
886.65	3253
886.775	3279
886.9	3515
887.025	3629
887.149	3389
887.274	3237
887.399	3195
887.523	3207
887.648	3195
887.773	3218
887.897	3386
888.021	3374
888.146	3306
888.27	3409
888.395	3534
888.519	3428
888.643	3428
888.767	3496
888.891	3321
889.015	3241
889.139	3291
889.263	3275
889.387	3416
889.511	3526
889.635	3458
889.759	3283
889.883	3275
890.006	3340
890.13	3511
890.254	3272
890.377	3336
890.501	3214
890.624	3157
890.748	3287
890.871	3188
890.995	3104
891.118	3066
891.241	3199
891.364	3222
891.488	3332
891.611	3150
891.734	3207
891.857	3283
891.98	3260
892.103	3325
892.226	3294
892.349	3214
892.471	3127
892.594	3233
892.717	3344
892.839	3253
892.962	3287
893.085	3302
893.207	3310
893.33	3157
893.452	3211
893.575	3325
893.697	3214
893.819	3492
893.941	3511
894.064	3443
894.186	3245
894.308	3310
894.43	3439
894.552	3564
894.674	3458
894.796	3245
894.918	3340
895.04	3310
895.161	3443
895.283	3401
895.405	3329
895.526	3367
895.648	3393
895.769	3420
895.891	3477
896.012	3481
896.134	3492
896.255	3416
896.376	3393
896.498	3420
896.619	3428
896.74	3401
896.861	3409
896.982	3671
897.103	3831
897.224	3633
897.345	3511
897.466	3424
897.587	3511
897.708	3652
897.828	3523
897.949	3454
898.07	3317
898.19	3416
898.311	3564
898.431	3469
898.552	3504
898.672	3644
898.792	3553
898.913	3530
899.033	3409
899.153	3264
899.273	3230
899.393	3298
899.513	3283
899.633	3344
899.753	3355
899.873	3329
899.993	3393
900.113	3321
900.232	3420
900.352	3340
900.472	3253
900.591	3180
900.711	3264
900.83	3233
900.95	3435
901.069	3469
901.189	3355
901.308	3142
901.427	3127
901.546	3161
901.665	3313
901.784	3329
901.904	3233
902.023	3165
902.141	3036
902.26	3017
902.379	3119
902.498	3085
902.617	3043
902.735	3226
902.854	3226
902.973	3192
903.091	3036
903.21	3108
903.328	3119
903.446	3100
903.565	3093
903.683	3192
903.801	3119
903.919	3275
904.038	3294
904.156	3161
904.274	3253
904.392	3249
904.51	3306
904.627	3298
904.745	3481
904.863	3511
904.981	3268
905.098	3176
905.216	3233
905.334	3321
905.451	3321
905.569	3298
905.686	3424
905.803	3466
905.921	3313
906.038	3443
906.155	3378
906.272	3226
906.389	3363
906.506	3245
906.623	3249
906.74	3279
906.857	3173
906.974	3253
907.091	3439
907.208	3557
907.324	3431
907.441	3389
907.557	3233
907.674	3260
907.79	3199
907.907	3287
908.023	3348
908.139	3344
908.256	3325
908.372	3348
908.488	3393
908.604	3287
908.72	3287
908.836	3230
908.952	3287
909.068	3378
909.184	3473
909.3	3405
909.415	3447
909.531	3450
909.647	3287
909.762	3306
909.878	3272
909.993	3405
910.108	3321
910.224	3386
910.339	3439
910.454	3306
910.57	3264
910.685	3233
910.8	3572
910.915	3515
911.03	3447
911.145	3275
911.259	3298
911.374	3313
911.489	3272
911.604	3207
911.718	3146
911.833	3150
911.947	3020
912.062	2948
912.176	3154
912.291	3207
912.405	3180
912.519	3435
912.633	3492
912.748	3291
912.862	3264
912.976	3188
913.09	3131
913.204	3104
913.318	3214
913.431	3291
913.545	3313
913.659	3397
913.772	3313
913.886	3203
914	3173
914.113	3359
914.226	3439
914.34	3340
914.453	3233
914.566	3443
914.68	3279
914.793	3313
914.906	3135
915.019	3138
915.132	3089
915.245	3146
915.358	3214
915.47	3233
915.583	3245
915.696	3279
915.809	3428
915.921	3405
916.034	3268
916.146	3275
916.259	3218
916.371	3409
916.483	3359
916.595	3268
916.708	3344
916.82	3325
916.932	3336
917.044	3306
917.156	3382
917.268	3253
917.38	3298
917.491	3291
917.603	3351
917.715	3420
917.826	3496
917.938	3393
918.049	3241
918.161	3443
918.272	3572
918.384	3564
918.495	3450
918.606	3340
918.717	3260
918.828	3386
918.939	3405
919.05	3310
919.161	3367
919.272	3157
919.383	3291
919.494	3511
919.604	3667
919.715	3450
919.826	3401
919.936	3443
920.047	3568
920.157	3568
920.267	3793
920.378	3587
920.488	3595
920.598	3800
920.708	3918
920.818	3797
920.928	3800
921.038	4010
921.148	3945
921.258	3660
921.368	3629
921.477	3564
921.587	3549
921.697	3458
921.806	3622
921.916	3523
922.025	3386
922.134	3340
922.244	3321
922.353	3424
922.462	3275
922.571	3241
922.68	3058
922.789	3055
922.898	3161
923.007	3116
923.116	3241
923.224	3157
923.333	3218
923.442	3070
923.55	3108
923.659	3161
923.767	3241
923.876	3116
923.984	3260
924.092	3116
924.201	3192
924.309	3230
924.417	3287
924.525	3199
924.633	3226
924.741	4139
924.849	3028
924.956	3264
925.064	3066
925.172	3047
925.279	3089
925.387	3165
925.494	3150
925.602	3336
925.709	3351
925.816	3207
925.924	3245
926.031	3355
926.138	3351
926.245	3393
926.352	3283
926.459	3431
926.566	3507
926.673	3344
926.779	3226
926.886	3253
926.993	3157
927.099	3112
927.206	3097
927.312	3112
927.419	3222
927.525	3180
927.631	3272
927.737	3142
927.843	3108
927.95	3020
928.056	3138
928.162	3154
928.267	3207
928.373	3778
928.479	3321
928.585	3051
928.69	3249
928.796	3241
928.901	3146
929.007	3043
929.112	3199
929.218	3180
929.323	3169
929.428	3146
929.533	3291
929.638	3131
929.743	3161
929.848	3264
929.953	3203
930.058	3146
930.163	2986
930.267	3036
930.372	3192
930.477	3055
930.581	3313
930.685	3150
930.79	3081
930.894	3100
930.998	3119
931.103	3268
931.207	2937
931.311	2971
931.415	2941
931.519	2800
931.623	2788
