Data from test_V78500241_2059.txt Node
Date: Fri Mar 25 16:29:28 CST 2022
User: usil
Spectrometer: V785-0024
Trigger mode: 0
Integration Time (sec): 4.000000E-1
Scans to average: 1
Nonlinearity correction enabled: false
Boxcar width: 0
Storing dark spectrum: false
XAxis mode: Wavelengths
Number of Pixels in Spectrum: 1024
>>>>>Begin Spectral Data<<<<<
801.071	2914
801.214	2998
801.356	2842
801.499	2899
801.641	2937
801.783	2925
801.926	3039
802.068	2971
802.211	2982
802.353	3047
802.496	2956
802.638	3017
802.78	3028
802.923	3097
803.065	2982
803.208	2922
803.35	2922
803.492	2944
803.635	2918
803.777	2769
803.919	2876
804.061	3192
804.204	2918
804.346	2929
804.488	2864
804.63	3001
804.773	2906
804.915	2925
805.057	3108
805.199	2944
805.341	3009
805.483	3009
805.626	2967
805.768	2979
805.91	3104
806.052	3093
806.194	3055
806.336	3203
806.478	3013
806.62	2971
806.762	2998
806.904	3051
807.046	3157
807.188	2986
807.33	2910
807.472	2986
807.614	2922
807.756	2994
807.898	2948
808.04	2922
808.182	2952
808.324	2906
808.465	2891
808.607	2880
808.749	2777
808.891	2819
809.033	2990
809.174	2956
809.316	2925
809.458	2880
809.6	2754
809.741	2758
809.883	2777
810.025	2857
810.166	2861
810.308	2853
810.45	2849
810.591	2773
810.733	2785
810.875	2853
811.016	2758
811.158	2735
811.299	2807
811.441	2929
811.582	2918
811.724	2838
811.865	2830
812.007	2906
812.148	2853
812.29	2826
812.431	2891
812.573	2914
812.714	2960
812.855	3093
812.997	3039
813.138	3097
813.279	3028
813.421	2952
813.562	2956
813.703	2883
813.845	2887
813.986	2727
814.127	2758
814.268	2796
814.41	2815
814.551	2792
814.692	2868
814.833	2826
814.974	2891
815.115	2963
815.256	2861
815.397	2823
815.539	2872
815.68	2807
815.821	2796
815.962	2914
816.103	2876
816.244	2876
816.385	2861
816.526	2963
816.666	2887
816.807	2754
816.948	2823
817.089	2887
817.23	2857
817.371	2758
817.512	2785
817.653	2823
817.793	2796
817.934	2838
818.075	2967
818.216	2971
818.356	3043
818.497	2883
818.638	2777
818.778	2792
818.919	2762
819.06	2750
819.2	2861
819.341	2826
819.481	2754
819.622	2952
819.762	3112
819.903	3070
820.043	2944
820.184	2906
820.324	2929
820.465	3024
820.605	3013
820.746	3013
820.886	2937
821.026	3055
821.167	3112
821.307	3249
821.447	3279
821.588	3207
821.728	3180
821.868	3195
822.008	3077
822.149	3199
822.289	3222
822.429	3070
822.569	3043
822.709	3184
822.849	3028
822.99	3081
823.13	3119
823.27	3207
823.41	3127
823.55	3184
823.69	3157
823.83	3165
823.97	3100
824.11	2998
824.25	3005
824.389	3081
824.529	3097
824.669	3112
824.809	3165
824.949	3279
825.089	3237
825.228	3135
825.368	3036
825.508	3009
825.648	2941
825.787	3005
825.927	3001
826.067	3005
826.206	2975
826.346	3051
826.485	3127
826.625	3157
826.765	3249
826.904	3230
827.044	3032
827.183	2967
827.323	2902
827.462	3013
827.601	2948
827.741	2975
827.88	2971
828.02	2868
828.159	2986
828.298	3081
828.437	3142
828.577	3089
828.716	3245
828.855	3131
828.994	2918
829.134	2918
829.273	2975
829.412	2902
829.551	2891
829.69	2967
829.829	3047
829.968	3146
830.107	3036
830.246	3074
830.385	2944
830.524	2883
830.663	2864
830.802	2777
830.941	2667
831.08	2735
831.219	2781
831.357	2777
831.496	3005
831.635	2788
831.774	2712
831.913	2682
832.051	2575
832.19	2610
832.329	2727
832.467	2583
832.606	2537
832.744	2598
832.883	2621
833.022	2606
833.16	2693
833.299	2727
833.437	2769
833.576	2739
833.714	2735
833.852	2758
833.991	2826
834.129	2887
834.267	2899
834.406	2842
834.544	2906
834.682	2906
834.821	2899
834.959	3089
835.097	2960
835.235	3097
835.373	3013
835.511	3081
835.65	2979
835.788	3009
835.926	2838
836.064	2819
836.202	2864
836.34	3119
836.478	3180
836.615	3100
836.753	3161
836.891	3211
837.029	3214
837.167	3154
837.305	3097
837.443	3085
837.58	2994
837.718	3146
837.856	3100
837.993	3058
838.131	3142
838.269	3161
838.406	3138
838.544	3112
838.681	2944
838.819	2929
838.956	2880
839.094	2864
839.231	2918
839.369	3032
839.506	3428
839.643	3226
839.781	3036
839.918	2990
840.055	3055
840.193	3100
840.33	3142
840.467	3127
840.604	3176
840.742	3389
840.879	3058
841.016	3108
841.153	3165
841.29	3389
841.427	3332
841.564	3245
841.701	3351
841.838	3226
841.975	3226
842.112	3272
842.249	3104
842.385	3043
842.522	3260
842.659	3127
842.796	3085
842.933	3146
843.069	3089
843.206	3058
843.343	3184
843.479	3146
843.616	3112
843.752	2925
843.889	2891
844.025	3123
844.162	2918
844.298	3112
844.435	2990
844.571	2941
844.708	3089
844.844	3176
844.98	3260
845.117	3256
845.253	3077
845.389	3032
845.525	3112
845.661	3165
845.798	3036
845.934	3123
846.07	3104
846.206	3253
846.342	3340
846.478	3237
846.614	3131
846.75	3104
846.886	3043
847.022	3279
847.158	3169
847.294	3230
847.429	3302
847.565	3256
847.701	3488
847.837	3074
847.972	3017
848.108	3176
848.244	3176
848.379	3036
848.515	2979
848.65	2975
848.786	2986
848.921	3028
849.057	3131
849.192	3157
849.328	3093
849.463	3131
849.598	3116
849.734	3066
849.869	2971
850.004	2925
850.14	2994
850.275	2914
850.41	2853
850.545	2910
850.68	2963
850.815	2994
850.95	2998
851.085	3214
851.22	3154
851.355	3074
851.49	3009
851.625	3032
851.76	3039
851.895	2986
852.03	2975
852.165	3100
852.299	3116
852.434	3188
852.569	3173
852.703	3188
852.838	3272
852.973	3370
853.107	3389
853.242	3184
853.376	3142
853.511	2998
853.645	3058
853.78	3230
853.914	3176
854.048	3112
854.183	3104
854.317	3188
854.451	3329
854.585	3127
854.72	3093
854.854	3222
854.988	3108
855.122	3138
855.256	3032
855.39	3188
855.524	3253
855.658	3195
855.792	3176
855.926	3203
856.06	3294
856.194	3283
856.327	3203
856.461	3127
856.595	3108
856.729	3108
856.862	3253
856.996	3218
857.13	3241
857.263	3222
857.397	3291
857.53	3150
857.664	3222
857.797	3207
857.931	3268
858.064	3211
858.197	3233
858.331	3138
858.464	3081
858.597	3009
858.731	3127
858.864	3142
858.997	3119
859.13	3165
859.263	3199
859.396	3264
859.529	3127
859.662	3112
859.795	3043
859.928	3157
860.061	3268
860.194	3321
860.327	3142
860.46	3138
860.592	3279
860.725	3268
860.858	3245
860.99	3131
861.123	3093
861.256	3081
861.388	3195
861.521	3907
861.653	3058
861.786	2986
861.918	3024
862.05	3074
862.183	3100
862.315	3180
862.447	3245
862.58	3081
862.712	2971
862.844	2864
862.976	3028
863.108	3009
863.24	3332
863.372	2899
863.504	2998
863.636	2971
863.768	3058
863.9	3001
864.032	2922
864.164	2986
864.296	3009
864.428	3047
864.559	3131
864.691	3112
864.823	3119
864.954	3020
865.086	3070
865.217	3013
865.349	2986
865.48	2998
865.612	3047
865.743	3203
865.875	3005
866.006	2979
866.137	2971
866.269	2922
866.4	2944
866.531	2918
866.662	2918
866.793	2899
866.924	2944
867.055	2960
867.186	2963
867.317	2902
867.448	2880
867.579	2906
867.71	2895
867.841	2857
867.972	2937
868.103	2899
868.233	2933
868.364	2887
868.495	2899
868.625	3119
868.756	3192
868.886	2982
869.017	3028
869.147	3173
869.278	3203
869.408	3131
869.539	3024
869.669	3127
869.799	3039
869.929	3135
870.06	3123
870.19	3340
870.32	3310
870.45	3294
870.58	3363
870.71	3477
870.84	3443
870.97	3325
871.1	3283
871.23	3469
871.36	3458
871.489	3367
871.619	3409
871.749	3450
871.879	3462
872.008	3466
872.138	3389
872.267	3317
872.397	3161
872.526	3150
872.656	3036
872.785	3123
872.915	3272
873.044	3302
873.173	3260
873.303	3241
873.432	3275
873.561	3233
873.69	3169
873.819	3146
873.948	3226
874.077	3123
874.206	3104
874.335	3100
874.464	3188
874.593	3420
874.722	3253
874.851	3405
874.979	3355
875.108	3351
875.237	3222
875.365	3184
875.494	3180
875.623	3275
875.751	3074
875.88	3127
876.008	3207
876.136	3211
876.265	3374
876.393	3504
876.521	3435
876.65	3367
876.778	3329
876.906	3253
877.034	3199
877.162	3241
877.29	3207
877.418	3272
877.546	3264
877.674	3275
877.802	3283
877.93	3272
878.058	3176
878.185	3085
878.313	3226
878.441	3226
878.568	3074
878.696	3165
878.824	3272
878.951	3336
879.079	3458
879.206	3587
879.333	3443
879.461	3374
879.588	3363
879.715	3511
879.842	3610
879.97	3374
880.097	3173
880.224	3131
880.351	3218
880.478	3253
880.605	3188
880.732	3161
880.859	3530
880.986	3283
881.112	3340
881.239	3241
881.366	3135
881.493	3074
881.619	3066
881.746	3108
881.872	3097
881.999	3081
882.125	3173
882.252	3245
882.378	3310
882.505	3450
882.631	3275
882.757	3157
882.883	3222
883.01	3253
883.136	3165
883.262	3108
883.388	3154
883.514	3367
883.64	3359
883.766	3344
883.892	3192
884.018	3253
884.143	3397
884.269	3504
884.395	3184
884.52	3184
884.646	3173
884.772	3138
884.897	3089
885.023	3207
885.148	3359
885.274	3386
885.399	3439
885.524	3287
885.65	3279
885.775	3306
885.9	3313
886.025	3473
886.15	3374
886.275	3291
886.4	3241
886.525	3321
886.65	3321
886.775	3306
886.9	3477
887.025	3641
887.149	3447
887.274	3291
887.399	3207
887.523	3188
887.648	3211
887.773	3214
887.897	3367
888.021	3412
888.146	3294
888.27	3450
888.395	3530
888.519	3454
888.643	3485
888.767	3488
888.891	3306
889.015	3279
889.139	3310
889.263	3253
889.387	3420
889.511	3553
889.635	3443
889.759	3275
889.883	3313
890.006	3378
890.13	3507
890.254	3298
890.377	3363
890.501	3214
890.624	3199
890.748	3325
890.871	3188
890.995	3150
891.118	3047
891.241	3214
891.364	3222
891.488	3340
891.611	3188
891.734	3211
891.857	3298
891.98	3260
892.103	3359
892.226	3241
892.349	3211
892.471	3108
892.594	3226
892.717	3306
892.839	3256
892.962	3306
893.085	3370
893.207	3317
893.33	3203
893.452	3218
893.575	3332
893.697	3279
893.819	3481
893.941	3488
894.064	3485
894.186	3275
894.308	3272
894.43	3454
894.552	3519
894.674	3485
894.796	3279
894.918	3321
895.04	3317
895.161	3466
895.283	3424
895.405	3302
895.526	3409
895.648	3431
895.769	3443
895.891	3469
896.012	3507
896.134	3469
896.255	3412
896.376	3382
896.498	3389
896.619	3466
896.74	3332
896.861	3393
896.982	3656
897.103	3831
897.224	3648
897.345	3511
897.466	3431
897.587	3466
897.708	3610
897.828	3553
897.949	3450
898.07	3348
898.19	3378
898.311	3587
898.431	3420
898.552	3507
898.672	3599
898.792	3572
898.913	3500
899.033	3409
899.153	3313
899.273	3195
899.393	3302
899.513	3306
899.633	3329
899.753	3336
899.873	3325
899.993	3409
900.113	3336
900.232	3431
900.352	3336
900.472	3264
900.591	3241
900.711	3298
900.83	3253
900.95	3389
901.069	3488
901.189	3370
901.308	3195
901.427	3165
901.546	3138
901.665	3287
901.784	3344
901.904	3203
902.023	3142
902.141	3066
902.26	3005
902.379	3154
902.498	3097
902.617	3074
902.735	3264
902.854	3214
902.973	3214
903.091	3070
903.21	3058
903.328	3116
903.446	3157
903.565	3093
903.683	3222
903.801	3138
903.919	3275
904.038	3306
904.156	3199
904.274	3321
904.392	3260
904.51	3325
904.627	3321
904.745	3458
904.863	3496
904.981	3294
905.098	3142
905.216	3260
905.334	3272
905.451	3279
905.569	3359
905.686	3409
905.803	3447
905.921	3313
906.038	3412
906.155	3321
906.272	3275
906.389	3382
906.506	3222
906.623	3272
906.74	3275
906.857	3230
906.974	3268
907.091	3447
907.208	3576
907.324	3511
907.441	3370
907.557	3237
907.674	3294
907.79	3241
907.907	3287
908.023	3367
908.139	3344
908.256	3348
908.372	3355
908.488	3355
908.604	3264
908.72	3245
908.836	3283
908.952	3279
909.068	3329
909.184	3481
909.3	3378
909.415	3526
909.531	3462
909.647	3283
909.762	3253
909.878	3264
909.993	3340
910.108	3336
910.224	3336
910.339	3439
910.454	3340
910.57	3275
910.685	3249
910.8	3629
910.915	3542
911.03	3420
911.145	3291
911.259	3313
911.374	3325
911.489	3272
911.604	3237
911.718	3165
911.833	3142
911.947	3043
912.062	2979
912.176	3161
912.291	3176
912.405	3226
912.519	3428
912.633	3439
912.748	3298
912.862	3283
912.976	3180
913.09	3070
913.204	3150
913.318	3249
913.431	3306
913.545	3325
913.659	3428
913.772	3367
913.886	3283
914	3203
914.113	3344
914.226	3435
914.34	3370
914.453	3180
914.566	3397
914.68	3279
914.793	3298
914.906	3131
915.019	3093
915.132	3093
915.245	3173
915.358	3176
915.47	3222
915.583	3249
915.696	3291
915.809	3431
915.921	3416
916.034	3287
916.146	3233
916.259	3237
916.371	3359
916.483	3389
916.595	3294
916.708	3340
916.82	3370
916.932	3351
917.044	3294
917.156	3325
917.268	3253
917.38	3302
917.491	3279
917.603	3393
917.715	3477
917.826	3496
917.938	3401
918.049	3287
918.161	3416
918.272	3568
918.384	3538
918.495	3507
918.606	3310
918.717	3283
918.828	3393
918.939	3458
919.05	3306
919.161	3359
919.272	3154
919.383	3279
919.494	3500
919.604	3682
919.715	3473
919.826	3412
919.936	3515
920.047	3584
920.157	3553
920.267	3770
920.378	3576
920.488	3584
920.598	3812
920.708	3922
920.818	3831
920.928	3838
921.038	4021
921.148	4071
921.258	3652
921.368	3648
921.477	3572
921.587	3549
921.697	3454
921.806	3633
921.916	3530
922.025	3374
922.134	3336
922.244	3340
922.353	3431
922.462	3256
922.571	3260
922.68	3093
922.789	3070
922.898	3157
923.007	3104
923.116	3180
923.224	3142
923.333	3169
923.442	3100
923.55	3093
923.659	3176
923.767	3226
923.876	3108
923.984	3218
924.092	3070
924.201	3214
924.309	3214
924.417	3233
924.525	3146
924.633	3268
924.741	4211
924.849	3058
924.956	3279
925.064	3089
925.172	3081
925.279	3112
925.387	3188
925.494	3237
925.602	3370
925.709	3329
925.816	3199
925.924	3272
926.031	3393
926.138	3321
926.245	3351
926.352	3260
926.459	3389
926.566	3500
926.673	3348
926.779	3260
926.886	3211
926.993	3161
927.099	3116
927.206	3123
927.312	3104
927.419	3230
927.525	3214
927.631	3294
927.737	3135
927.843	3123
927.95	3020
928.056	3146
928.162	3207
928.267	3207
928.373	3873
928.479	3302
928.585	3077
928.69	3199
928.796	3253
928.901	3127
929.007	3055
929.112	3192
929.218	3154
929.323	3173
929.428	3165
929.533	3348
929.638	3077
929.743	3176
929.848	3275
929.953	3199
930.058	3154
930.163	2971
930.267	3047
930.372	3218
930.477	3020
930.581	3321
930.685	3161
930.79	3066
930.894	3093
930.998	3112
931.103	3302
931.207	2952
931.311	2960
931.415	2895
931.519	2792
931.623	2804
