Data from test_V78500241_988.txt Node
Date: Fri Mar 25 16:22:02 CST 2022
User: usil
Spectrometer: V785-0024
Trigger mode: 0
Integration Time (sec): 4.000000E-1
Scans to average: 1
Nonlinearity correction enabled: false
Boxcar width: 0
Storing dark spectrum: false
XAxis mode: Wavelengths
Number of Pixels in Spectrum: 1024
>>>>>Begin Spectral Data<<<<<
801.071	2956
801.214	2948
801.356	2857
801.499	2933
801.641	2864
801.783	2918
801.926	3036
802.068	2948
802.211	2994
802.353	3013
802.496	2982
802.638	2994
802.78	2994
802.923	3051
803.065	3036
803.208	2918
803.35	2933
803.492	2887
803.635	2937
803.777	2758
803.919	2880
804.061	3199
804.204	2922
804.346	2868
804.488	2823
804.63	2998
804.773	2864
804.915	2941
805.057	3066
805.199	2933
805.341	2956
805.483	3081
805.626	2986
805.768	2956
805.91	3066
806.052	3131
806.194	3036
806.336	3230
806.478	2994
806.62	2944
806.762	2986
806.904	3039
807.046	3176
807.188	2982
807.33	2887
807.472	2990
807.614	2906
807.756	2967
807.898	2910
808.04	2853
808.182	2960
808.324	2937
808.465	2910
808.607	2864
808.749	2769
808.891	2834
809.033	2998
809.174	2952
809.316	2880
809.458	2899
809.6	2766
809.741	2777
809.883	2754
810.025	2845
810.166	2864
810.308	2804
810.45	2842
810.591	2769
810.733	2766
810.875	2830
811.016	2785
811.158	2746
811.299	2811
811.441	2967
811.582	2853
811.724	2823
811.865	2800
812.007	2868
812.148	2887
812.29	2880
812.431	2883
812.573	2899
812.714	2960
812.855	3043
812.997	3013
813.138	3131
813.279	3009
813.421	2971
813.562	2971
813.703	2864
813.845	2899
813.986	2781
814.127	2708
814.268	2804
814.41	2845
814.551	2807
814.692	2872
814.833	2815
814.974	2880
815.115	2902
815.256	2830
815.397	2819
815.539	2838
815.68	2781
815.821	2788
815.962	2944
816.103	2918
816.244	2880
816.385	2887
816.526	2975
816.666	2918
816.807	2762
816.948	2914
817.089	2937
817.23	2838
817.371	2769
817.512	2826
817.653	2872
817.793	2826
817.934	2864
818.075	2967
818.216	2994
818.356	2986
818.497	2922
818.638	2773
818.778	2830
818.919	2773
819.06	2743
819.2	2857
819.341	2819
819.481	2804
819.622	2910
819.762	3104
819.903	3051
820.043	2906
820.184	2891
820.324	2887
820.465	3024
820.605	2990
820.746	3024
820.886	2952
821.026	3138
821.167	3188
821.307	3233
821.447	3291
821.588	3256
821.728	3207
821.868	3230
822.008	3077
822.149	3195
822.289	3222
822.429	3085
822.569	3123
822.709	3180
822.849	3028
822.99	3066
823.13	3142
823.27	3207
823.41	3100
823.55	3116
823.69	3142
823.83	3180
823.97	3074
824.11	3013
824.25	3001
824.389	3036
824.529	3116
824.669	3066
824.809	3192
824.949	3249
825.089	3207
825.228	3173
825.368	2986
825.508	2948
825.648	2975
825.787	2944
825.927	3043
826.067	2971
826.206	2975
826.346	3017
826.485	3055
826.625	3066
826.765	3306
826.904	3222
827.044	2967
827.183	2925
827.323	2849
827.462	2948
827.601	2891
827.741	2963
827.88	2929
828.02	2842
828.159	2994
828.298	3005
828.437	3097
828.577	3036
828.716	3199
828.855	3077
828.994	2925
829.134	2883
829.273	2925
829.412	2864
829.551	2842
829.69	2906
829.829	2986
829.968	3093
830.107	3009
830.246	3009
830.385	2929
830.524	2880
830.663	2796
830.802	2724
830.941	2648
831.08	2651
831.219	2739
831.357	2743
831.496	2929
831.635	2708
831.774	2674
831.913	2659
832.051	2545
832.19	2579
832.329	2655
832.467	2526
832.606	2480
832.744	2560
832.883	2594
833.022	2598
833.16	2613
833.299	2693
833.437	2697
833.576	2708
833.714	2697
833.852	2731
833.991	2762
834.129	2861
834.267	2838
834.406	2773
834.544	2876
834.682	2853
834.821	2857
834.959	3005
835.097	2883
835.235	3047
835.373	2971
835.511	2982
835.65	2967
835.788	2925
835.926	2834
836.064	2796
836.202	2834
836.34	3043
836.478	3173
836.615	3036
836.753	3104
836.891	3214
837.029	3161
837.167	3081
837.305	3028
837.443	3013
837.58	2982
837.718	3127
837.856	3093
837.993	2994
838.131	3176
838.269	3104
838.406	3100
838.544	3131
838.681	2914
838.819	2906
838.956	2819
839.094	2823
839.231	2861
839.369	2986
839.506	3374
839.643	3222
839.781	3017
839.918	2937
840.055	3051
840.193	3043
840.33	3051
840.467	3058
840.604	3135
840.742	3382
840.879	3036
841.016	2975
841.153	3097
841.29	3348
841.427	3298
841.564	3256
841.701	3336
841.838	3192
841.975	3195
842.112	3291
842.249	3081
842.385	3032
842.522	3237
842.659	3051
842.796	3051
842.933	3119
843.069	3028
843.206	2994
843.343	3165
843.479	3112
843.616	3142
843.752	2864
843.889	2830
844.025	3081
844.162	2872
844.298	3081
844.435	2910
844.571	2922
844.708	3039
844.844	3230
844.98	3184
845.117	3150
845.253	3070
845.389	2998
845.525	3085
845.661	3085
845.798	3017
845.934	3104
846.07	3039
846.206	3233
846.342	3306
846.478	3203
846.614	3081
846.75	3051
846.886	3009
847.022	3241
847.158	3131
847.294	3211
847.429	3256
847.565	3188
847.701	3523
847.837	3036
847.972	2998
848.108	3154
848.244	3154
848.379	3005
848.515	2910
848.65	2914
848.786	2963
848.921	2986
849.057	3104
849.192	3116
849.328	3070
849.463	3112
849.598	3100
849.734	3036
849.869	2994
850.004	2887
850.14	2963
850.275	2899
850.41	2849
850.545	2910
850.68	2906
850.815	2899
850.95	2906
851.085	3192
851.22	3077
851.355	3005
851.49	2994
851.625	3001
851.76	2998
851.895	2902
852.03	2887
852.165	3039
852.299	3093
852.434	3169
852.569	3112
852.703	3154
852.838	3222
852.973	3359
853.107	3321
853.242	3150
853.376	3077
853.511	2975
853.645	3039
853.78	3226
853.914	3085
854.048	3085
854.183	3043
854.317	3154
854.451	3275
854.585	3146
854.72	3066
854.854	3211
854.988	3104
855.122	3097
855.256	2944
855.39	3100
855.524	3233
855.658	3142
855.792	3135
855.926	3157
856.06	3154
856.194	3256
856.327	3150
856.461	3058
856.595	3074
856.729	3104
856.862	3176
856.996	3169
857.13	3192
857.263	3195
857.397	3245
857.53	3100
857.664	3176
857.797	3241
857.931	3214
858.064	3150
858.197	3230
858.331	3142
858.464	3070
858.597	3005
858.731	3100
858.864	3112
858.997	3077
859.13	3138
859.263	3127
859.396	3207
859.529	3055
859.662	3097
859.795	3058
859.928	3135
860.061	3241
860.194	3264
860.327	3119
860.46	3077
860.592	3226
860.725	3237
860.858	3256
860.99	3081
861.123	3028
861.256	3058
861.388	3142
861.521	3842
861.653	2986
861.786	2963
861.918	2998
862.05	3081
862.183	3116
862.315	3135
862.447	3123
862.58	3089
862.712	2918
862.844	2887
862.976	3009
863.108	3001
863.24	3374
863.372	2891
863.504	2937
863.636	2948
863.768	3020
863.9	2937
864.032	2933
864.164	2925
864.296	2979
864.428	3089
864.559	3077
864.691	3047
864.823	3066
864.954	3036
865.086	3017
865.217	2990
865.349	2944
865.48	2956
865.612	2998
865.743	3142
865.875	2967
866.006	2933
866.137	2933
866.269	2944
866.4	2967
866.531	2902
866.662	2861
866.793	2883
866.924	2910
867.055	2952
867.186	2887
867.317	2880
867.448	2819
867.579	2853
867.71	2842
867.841	2838
867.972	2902
868.103	2876
868.233	2838
868.364	2853
868.495	2906
868.625	3104
868.756	3192
868.886	2948
869.017	3001
869.147	3142
869.278	3131
869.408	3036
869.539	2998
869.669	3070
869.799	3047
869.929	3119
870.06	3077
870.19	3325
870.32	3264
870.45	3302
870.58	3374
870.71	3420
870.84	3431
870.97	3279
871.1	3253
871.23	3477
871.36	3412
871.489	3370
871.619	3397
871.749	3386
871.879	3401
872.008	3458
872.138	3378
872.267	3237
872.397	3176
872.526	3085
872.656	2990
872.785	3085
872.915	3218
873.044	3317
873.173	3207
873.303	3226
873.432	3253
873.561	3218
873.69	3135
873.819	3135
873.948	3195
874.077	3127
874.206	3024
874.335	3116
874.464	3184
874.593	3321
874.722	3207
874.851	3409
874.979	3329
875.108	3310
875.237	3165
875.365	3173
875.494	3165
875.623	3275
875.751	3066
875.88	3116
876.008	3207
876.136	3241
876.265	3378
876.393	3519
876.521	3382
876.65	3355
876.778	3287
876.906	3272
877.034	3207
877.162	3203
877.29	3192
877.418	3253
877.546	3222
877.674	3211
877.802	3207
877.93	3233
878.058	3150
878.185	3104
878.313	3207
878.441	3188
878.568	3074
878.696	3146
878.824	3268
878.951	3317
879.079	3435
879.206	3618
879.333	3439
879.461	3313
879.588	3351
879.715	3492
879.842	3614
879.97	3370
880.097	3192
880.224	3123
880.351	3154
880.478	3192
880.605	3169
880.732	3207
880.859	3500
880.986	3332
881.112	3351
881.239	3214
881.366	3100
881.493	3043
881.619	3005
881.746	3043
881.872	3070
881.999	3077
882.125	3127
882.252	3268
882.378	3256
882.505	3431
882.631	3294
882.757	3135
882.883	3188
883.01	3237
883.136	3173
883.262	3070
883.388	3104
883.514	3294
883.64	3348
883.766	3294
883.892	3161
884.018	3230
884.143	3382
884.269	3526
884.395	3199
884.52	3142
884.646	3138
884.772	3135
884.897	3089
885.023	3192
885.148	3302
885.274	3428
885.399	3359
885.524	3260
885.65	3256
885.775	3317
885.9	3283
886.025	3389
886.15	3378
886.275	3306
886.4	3253
886.525	3268
886.65	3264
886.775	3272
886.9	3507
887.025	3614
887.149	3431
887.274	3264
887.399	3169
887.523	3203
887.648	3180
887.773	3192
887.897	3332
888.021	3386
888.146	3275
888.27	3439
888.395	3530
888.519	3424
888.643	3428
888.767	3439
888.891	3302
889.015	3199
889.139	3291
889.263	3237
889.387	3389
889.511	3519
889.635	3443
889.759	3260
889.883	3256
890.006	3424
890.13	3462
890.254	3253
890.377	3325
890.501	3188
890.624	3188
890.748	3298
890.871	3192
890.995	3100
891.118	3001
891.241	3180
891.364	3222
891.488	3287
891.611	3169
891.734	3184
891.857	3283
891.98	3222
892.103	3340
892.226	3256
892.349	3230
892.471	3104
892.594	3253
892.717	3264
892.839	3249
892.962	3272
893.085	3321
893.207	3256
893.33	3146
893.452	3188
893.575	3348
893.697	3275
893.819	3435
893.941	3481
894.064	3443
894.186	3275
894.308	3237
894.43	3439
894.552	3530
894.674	3511
894.796	3283
894.918	3332
895.04	3279
895.161	3496
895.283	3378
895.405	3275
895.526	3329
895.648	3412
895.769	3393
895.891	3439
896.012	3466
896.134	3485
896.255	3397
896.376	3351
896.498	3363
896.619	3412
896.74	3370
896.861	3397
896.982	3682
897.103	3800
897.224	3576
897.345	3511
897.466	3397
897.587	3462
897.708	3603
897.828	3557
897.949	3462
898.07	3344
898.19	3389
898.311	3576
898.431	3458
898.552	3500
898.672	3538
898.792	3526
898.913	3507
899.033	3370
899.153	3298
899.273	3241
899.393	3275
899.513	3279
899.633	3298
899.753	3351
899.873	3294
899.993	3351
900.113	3363
900.232	3355
900.352	3329
900.472	3249
900.591	3226
900.711	3272
900.83	3249
900.95	3348
901.069	3443
901.189	3332
901.308	3188
901.427	3085
901.546	3176
901.665	3298
901.784	3272
901.904	3180
902.023	3116
902.141	2963
902.26	3017
902.379	3150
902.498	3119
902.617	3081
902.735	3207
902.854	3264
902.973	3192
903.091	3055
903.21	3036
903.328	3157
903.446	3062
903.565	3077
903.683	3203
903.801	3146
903.919	3226
904.038	3260
904.156	3157
904.274	3287
904.392	3218
904.51	3313
904.627	3321
904.745	3431
904.863	3477
904.981	3256
905.098	3192
905.216	3237
905.334	3260
905.451	3275
905.569	3275
905.686	3435
905.803	3416
905.921	3325
906.038	3409
906.155	3340
906.272	3302
906.389	3340
906.506	3203
906.623	3256
906.74	3245
906.857	3184
906.974	3253
907.091	3416
907.208	3534
907.324	3431
907.441	3386
907.557	3222
907.674	3237
907.79	3226
907.907	3287
908.023	3374
908.139	3359
908.256	3298
908.372	3344
908.488	3363
908.604	3275
908.72	3195
908.836	3294
908.952	3283
909.068	3310
909.184	3492
909.3	3382
909.415	3488
909.531	3492
909.647	3279
909.762	3306
909.878	3268
909.993	3325
910.108	3291
910.224	3359
910.339	3374
910.454	3329
910.57	3283
910.685	3253
910.8	3561
910.915	3504
911.03	3424
911.145	3272
911.259	3253
911.374	3317
911.489	3230
911.604	3199
911.718	3116
911.833	3146
911.947	3036
912.062	2982
912.176	3150
912.291	3161
912.405	3192
912.519	3412
912.633	3439
912.748	3321
912.862	3245
912.976	3127
913.09	3081
913.204	3127
913.318	3226
913.431	3329
913.545	3332
913.659	3382
913.772	3336
913.886	3218
914	3203
914.113	3359
914.226	3393
914.34	3336
914.453	3184
914.566	3382
914.68	3249
914.793	3340
914.906	3123
915.019	3097
915.132	3077
915.245	3161
915.358	3203
915.47	3230
915.583	3249
915.696	3275
915.809	3435
915.921	3382
916.034	3249
916.146	3211
916.259	3203
916.371	3370
916.483	3351
916.595	3264
916.708	3321
916.82	3317
916.932	3348
917.044	3367
917.156	3382
917.268	3256
917.38	3283
917.491	3310
917.603	3378
917.715	3435
917.826	3454
917.938	3348
918.049	3241
918.161	3439
918.272	3595
918.384	3545
918.495	3485
918.606	3351
918.717	3214
918.828	3363
918.939	3458
919.05	3268
919.161	3336
919.272	3214
919.383	3272
919.494	3515
919.604	3667
919.715	3458
919.826	3367
919.936	3462
920.047	3549
920.157	3530
920.267	3736
920.378	3625
920.488	3553
920.598	3759
920.708	3964
920.818	3835
920.928	3747
921.038	4048
921.148	3994
921.258	3694
921.368	3610
921.477	3538
921.587	3545
921.697	3485
921.806	3614
921.916	3500
922.025	3359
922.134	3317
922.244	3268
922.353	3424
922.462	3237
922.571	3237
922.68	3093
922.789	3055
922.898	3146
923.007	3112
923.116	3199
923.224	3180
923.333	3195
923.442	3100
923.55	3058
923.659	3127
923.767	3214
923.876	3116
923.984	3218
924.092	3074
924.201	3180
924.309	3214
924.417	3230
924.525	3161
924.633	3226
924.741	4154
924.849	3032
924.956	3279
925.064	3074
925.172	3005
925.279	3085
925.387	3218
925.494	3230
925.602	3351
925.709	3283
925.816	3157
925.924	3249
926.031	3378
926.138	3291
926.245	3329
926.352	3233
926.459	3405
926.566	3443
926.673	3302
926.779	3222
926.886	3237
926.993	3138
927.099	3119
927.206	3119
927.312	3108
927.419	3230
927.525	3169
927.631	3218
927.737	3108
927.843	3127
927.95	3032
928.056	3119
928.162	3150
928.267	3199
928.373	3842
928.479	3321
928.585	3062
928.69	3184
928.796	3275
928.901	3150
929.007	3039
929.112	3195
929.218	3154
929.323	3161
929.428	3150
929.533	3313
929.638	3097
929.743	3173
929.848	3260
929.953	3207
930.058	3116
930.163	3013
930.267	3039
930.372	3207
930.477	3036
930.581	3287
930.685	3146
930.79	3017
930.894	3135
930.998	3062
931.103	3272
931.207	2925
931.311	2918
931.415	2880
931.519	2785
931.623	2807
