Data from test_V78500241_1452.txt Node
Date: Fri Mar 25 16:25:15 CST 2022
User: usil
Spectrometer: V785-0024
Trigger mode: 0
Integration Time (sec): 4.000000E-1
Scans to average: 1
Nonlinearity correction enabled: false
Boxcar width: 0
Storing dark spectrum: false
XAxis mode: Wavelengths
Number of Pixels in Spectrum: 1024
>>>>>Begin Spectral Data<<<<<
801.071	2925
801.214	2967
801.356	2857
801.499	2891
801.641	2880
801.783	2899
801.926	3043
802.068	2979
802.211	2986
802.353	3043
802.496	2948
802.638	3047
802.78	3081
802.923	3081
803.065	2967
803.208	2895
803.35	2910
803.492	2956
803.635	2941
803.777	2731
803.919	2849
804.061	3173
804.204	2948
804.346	2910
804.488	2830
804.63	2956
804.773	2868
804.915	2910
805.057	3112
805.199	2956
805.341	3009
805.483	3089
805.626	3001
805.768	2971
805.91	3051
806.052	3119
806.194	3043
806.336	3256
806.478	3020
806.62	2925
806.762	3013
806.904	3032
807.046	3203
807.188	2990
807.33	2925
807.472	3039
807.614	2872
807.756	2994
807.898	2929
808.04	2895
808.182	2971
808.324	2941
808.465	2914
808.607	2872
808.749	2826
808.891	2823
809.033	2979
809.174	2998
809.316	2910
809.458	2876
809.6	2781
809.741	2762
809.883	2758
810.025	2838
810.166	2883
810.308	2838
810.45	2861
810.591	2796
810.733	2773
810.875	2811
811.016	2754
811.158	2769
811.299	2819
811.441	2933
811.582	2895
811.724	2826
811.865	2796
812.007	2906
812.148	2887
812.29	2823
812.431	2876
812.573	2960
812.714	2963
812.855	3024
812.997	3032
813.138	3154
813.279	2986
813.421	2956
813.562	2941
813.703	2899
813.845	2887
813.986	2807
814.127	2739
814.268	2823
814.41	2838
814.551	2815
814.692	2880
814.833	2819
814.974	2902
815.115	2933
815.256	2823
815.397	2804
815.539	2895
815.68	2807
815.821	2834
815.962	2990
816.103	2914
816.244	2864
816.385	2845
816.526	2982
816.666	2925
816.807	2731
816.948	2895
817.089	2891
817.23	2880
817.371	2788
817.512	2781
817.653	2842
817.793	2838
817.934	2868
818.075	2963
818.216	2986
818.356	3009
818.497	2891
818.638	2769
818.778	2785
818.919	2781
819.06	2766
819.2	2880
819.341	2758
819.481	2777
819.622	2944
819.762	3100
819.903	3028
820.043	2914
820.184	2914
820.324	2895
820.465	3051
820.605	2986
820.746	3051
820.886	2925
821.026	3089
821.167	3154
821.307	3260
821.447	3294
821.588	3241
821.728	3180
821.868	3157
822.008	3036
822.149	3150
822.289	3222
822.429	3135
822.569	3116
822.709	3150
822.849	3013
822.99	3081
823.13	3138
823.27	3218
823.41	3131
823.55	3154
823.69	3142
823.83	3199
823.97	3108
824.11	3039
824.25	2948
824.389	3074
824.529	3085
824.669	3074
824.809	3165
824.949	3241
825.089	3218
825.228	3146
825.368	2986
825.508	2979
825.648	2990
825.787	2982
825.927	3020
826.067	2971
826.206	2944
826.346	3055
826.485	3104
826.625	3100
826.765	3249
826.904	3211
827.044	2975
827.183	2914
827.323	2823
827.462	3009
827.601	2918
827.741	2933
827.88	2971
828.02	2845
828.159	2975
828.298	3017
828.437	3108
828.577	3047
828.716	3241
828.855	3081
828.994	2902
829.134	2883
829.273	2925
829.412	2861
829.551	2819
829.69	2899
829.829	2998
829.968	3135
830.107	3032
830.246	2990
830.385	2944
830.524	2910
830.663	2792
830.802	2697
830.941	2606
831.08	2629
831.219	2762
831.357	2758
831.496	2944
831.635	2708
831.774	2663
831.913	2598
832.051	2587
832.19	2602
832.329	2689
832.467	2518
832.606	2495
832.744	2625
832.883	2602
833.022	2587
833.16	2644
833.299	2674
833.437	2708
833.576	2689
833.714	2701
833.852	2716
833.991	2800
834.129	2826
834.267	2811
834.406	2769
834.544	2887
834.682	2876
834.821	2868
834.959	3077
835.097	2906
835.235	3036
835.373	2975
835.511	3032
835.65	2941
835.788	2967
835.926	2842
836.064	2804
836.202	2842
836.34	3077
836.478	3135
836.615	3077
836.753	3112
836.891	3199
837.029	3112
837.167	3081
837.305	3066
837.443	3043
837.58	2986
837.718	3123
837.856	3074
837.993	3051
838.131	3104
838.269	3074
838.406	3104
838.544	3043
838.681	2971
838.819	2922
838.956	2819
839.094	2826
839.231	2906
839.369	3032
839.506	3348
839.643	3218
839.781	3001
839.918	2971
840.055	3039
840.193	3013
840.33	3058
840.467	3070
840.604	3176
840.742	3359
840.879	3058
841.016	3036
841.153	3097
841.29	3325
841.427	3275
841.564	3207
841.701	3291
841.838	3184
841.975	3169
842.112	3245
842.249	3051
842.385	3013
842.522	3268
842.659	3093
842.796	3062
842.933	3123
843.069	3028
843.206	3028
843.343	3169
843.479	3097
843.616	3116
843.752	2891
843.889	2891
844.025	3070
844.162	2891
844.298	3085
844.435	2952
844.571	2914
844.708	3089
844.844	3195
844.98	3207
845.117	3195
845.253	3058
845.389	2994
845.525	3119
845.661	3112
845.798	3032
845.934	3097
846.07	3058
846.206	3207
846.342	3283
846.478	3222
846.614	3081
846.75	3058
846.886	3032
847.022	3222
847.158	3123
847.294	3195
847.429	3283
847.565	3199
847.701	3466
847.837	3047
847.972	3017
848.108	3138
848.244	3116
848.379	3001
848.515	2929
848.65	2933
848.786	2990
848.921	3001
849.057	3123
849.192	3127
849.328	3055
849.463	3119
849.598	3047
849.734	3036
849.869	2990
850.004	2933
850.14	2948
850.275	2933
850.41	2830
850.545	2868
850.68	2929
850.815	2963
850.95	2956
851.085	3188
851.22	3100
851.355	3058
851.49	2975
851.625	2982
851.76	3047
851.895	2960
852.03	2922
852.165	3039
852.299	3123
852.434	3165
852.569	3138
852.703	3154
852.838	3272
852.973	3355
853.107	3325
853.242	3135
853.376	3104
853.511	2963
853.645	3020
853.78	3199
853.914	3135
854.048	3116
854.183	3062
854.317	3131
854.451	3253
854.585	3123
854.72	3077
854.854	3199
854.988	3009
855.122	3036
855.256	2963
855.39	3100
855.524	3245
855.658	3180
855.792	3169
855.926	3165
856.06	3218
856.194	3237
856.327	3150
856.461	3089
856.595	3077
856.729	3093
856.862	3207
856.996	3169
857.13	3203
857.263	3237
857.397	3294
857.53	3127
857.664	3161
857.797	3214
857.931	3260
858.064	3165
858.197	3233
858.331	3123
858.464	3112
858.597	2994
858.731	3116
858.864	3112
858.997	3081
859.13	3135
859.263	3157
859.396	3192
859.529	3097
859.662	3089
859.795	3036
859.928	3112
860.061	3283
860.194	3298
860.327	3146
860.46	3100
860.592	3253
860.725	3272
860.858	3253
860.99	3100
861.123	3077
861.256	3062
861.388	3173
861.521	3827
861.653	2990
861.786	3013
861.918	2960
862.05	3081
862.183	3039
862.315	3123
862.447	3184
862.58	3081
862.712	2952
862.844	2887
862.976	2998
863.108	3017
863.24	3325
863.372	2876
863.504	2986
863.636	2933
863.768	3070
863.9	2956
864.032	2899
864.164	2914
864.296	3013
864.428	3089
864.559	3097
864.691	3077
864.823	3089
864.954	3032
865.086	3039
865.217	2979
865.349	2937
865.48	2982
865.612	3028
865.743	3150
865.875	2963
866.006	2944
866.137	2952
866.269	2918
866.4	2922
866.531	2914
866.662	2864
866.793	2914
866.924	2895
867.055	2986
867.186	2902
867.317	2906
867.448	2849
867.579	2849
867.71	2868
867.841	2834
867.972	2891
868.103	2899
868.233	2887
868.364	2861
868.495	2925
868.625	3081
868.756	3169
868.886	2944
869.017	3001
869.147	3184
869.278	3173
869.408	3001
869.539	3036
869.669	3104
869.799	3047
869.929	3131
870.06	3089
870.19	3298
870.32	3310
870.45	3302
870.58	3378
870.71	3466
870.84	3481
870.97	3294
871.1	3233
871.23	3481
871.36	3458
871.489	3348
871.619	3393
871.749	3409
871.879	3397
872.008	3488
872.138	3351
872.267	3226
872.397	3154
872.526	3108
872.656	3005
872.785	3077
872.915	3241
873.044	3317
873.173	3222
873.303	3226
873.432	3260
873.561	3237
873.69	3161
873.819	3104
873.948	3192
874.077	3066
874.206	3066
874.335	3085
874.464	3241
874.593	3344
874.722	3214
874.851	3412
874.979	3363
875.108	3302
875.237	3169
875.365	3173
875.494	3138
875.623	3264
875.751	3047
875.88	3089
876.008	3180
876.136	3188
876.265	3325
876.393	3485
876.521	3412
876.65	3374
876.778	3313
876.906	3230
877.034	3192
877.162	3241
877.29	3192
877.418	3264
877.546	3226
877.674	3249
877.802	3188
877.93	3203
878.058	3116
878.185	3100
878.313	3169
878.441	3211
878.568	3070
878.696	3127
878.824	3230
878.951	3283
879.079	3443
879.206	3629
879.333	3435
879.461	3329
879.588	3317
879.715	3473
879.842	3557
879.97	3401
880.097	3157
880.224	3161
880.351	3230
880.478	3203
880.605	3184
880.732	3169
880.859	3454
880.986	3294
881.112	3340
881.239	3188
881.366	3108
881.493	3024
881.619	3020
881.746	3043
881.872	3097
881.999	3077
882.125	3176
882.252	3260
882.378	3275
882.505	3393
882.631	3283
882.757	3157
882.883	3203
883.01	3214
883.136	3146
883.262	3112
883.388	3093
883.514	3329
883.64	3389
883.766	3302
883.892	3173
884.018	3249
884.143	3409
884.269	3523
884.395	3199
884.52	3135
884.646	3161
884.772	3150
884.897	3093
885.023	3192
885.148	3355
885.274	3409
885.399	3378
885.524	3291
885.65	3272
885.775	3306
885.9	3294
886.025	3447
886.15	3351
886.275	3294
886.4	3230
886.525	3302
886.65	3253
886.775	3268
886.9	3485
887.025	3606
887.149	3378
887.274	3241
887.399	3157
887.523	3195
887.648	3127
887.773	3169
887.897	3351
888.021	3401
888.146	3317
888.27	3431
888.395	3500
888.519	3450
888.643	3439
888.767	3458
888.891	3283
889.015	3241
889.139	3275
889.263	3237
889.387	3389
889.511	3515
889.635	3439
889.759	3317
889.883	3306
890.006	3374
890.13	3500
890.254	3256
890.377	3344
890.501	3218
890.624	3161
890.748	3283
890.871	3184
890.995	3100
891.118	3081
891.241	3161
891.364	3218
891.488	3310
891.611	3226
891.734	3211
891.857	3302
891.98	3245
892.103	3321
892.226	3283
892.349	3180
892.471	3104
892.594	3214
892.717	3279
892.839	3241
892.962	3279
893.085	3370
893.207	3268
893.33	3161
893.452	3230
893.575	3340
893.697	3272
893.819	3477
893.941	3515
894.064	3424
894.186	3207
894.308	3249
894.43	3412
894.552	3504
894.674	3462
894.796	3268
894.918	3298
895.04	3256
895.161	3428
895.283	3344
895.405	3294
895.526	3340
895.648	3431
895.769	3405
895.891	3447
896.012	3504
896.134	3458
896.255	3393
896.376	3351
896.498	3355
896.619	3443
896.74	3363
896.861	3393
896.982	3663
897.103	3819
897.224	3595
897.345	3439
897.466	3431
897.587	3477
897.708	3614
897.828	3561
897.949	3443
898.07	3351
898.19	3447
898.311	3622
898.431	3443
898.552	3538
898.672	3603
898.792	3545
898.913	3481
899.033	3389
899.153	3291
899.273	3268
899.393	3291
899.513	3283
899.633	3302
899.753	3325
899.873	3294
899.993	3397
900.113	3340
900.232	3409
900.352	3313
900.472	3272
900.591	3157
900.711	3329
900.83	3233
900.95	3435
901.069	3477
901.189	3310
901.308	3192
901.427	3123
901.546	3161
901.665	3302
901.784	3340
901.904	3222
902.023	3116
902.141	3020
902.26	3024
902.379	3119
902.498	3058
902.617	3070
902.735	3218
902.854	3249
902.973	3188
903.091	3032
903.21	3066
903.328	3131
903.446	3093
903.565	3097
903.683	3211
903.801	3142
903.919	3249
904.038	3298
904.156	3188
904.274	3272
904.392	3253
904.51	3325
904.627	3344
904.745	3458
904.863	3507
904.981	3237
905.098	3195
905.216	3237
905.334	3317
905.451	3302
905.569	3287
905.686	3424
905.803	3447
905.921	3268
906.038	3428
906.155	3382
906.272	3275
906.389	3298
906.506	3214
906.623	3283
906.74	3287
906.857	3218
906.974	3279
907.091	3431
907.208	3519
907.324	3507
907.441	3401
907.557	3203
907.674	3218
907.79	3192
907.907	3275
908.023	3374
908.139	3370
908.256	3340
908.372	3363
908.488	3363
908.604	3279
908.72	3241
908.836	3279
908.952	3245
909.068	3340
909.184	3473
909.3	3397
909.415	3500
909.531	3477
909.647	3268
909.762	3279
909.878	3249
909.993	3340
910.108	3378
910.224	3325
910.339	3386
910.454	3329
910.57	3294
910.685	3237
910.8	3595
910.915	3561
911.03	3431
911.145	3253
911.259	3249
911.374	3310
911.489	3192
911.604	3226
911.718	3081
911.833	3161
911.947	3028
912.062	2982
912.176	3119
912.291	3150
912.405	3222
912.519	3439
912.633	3473
912.748	3310
912.862	3287
912.976	3165
913.09	3028
913.204	3104
913.318	3218
913.431	3313
913.545	3363
913.659	3405
913.772	3348
913.886	3203
914	3180
914.113	3336
914.226	3401
914.34	3416
914.453	3214
914.566	3409
914.68	3268
914.793	3310
914.906	3127
915.019	3093
915.132	3081
915.245	3203
915.358	3184
915.47	3256
915.583	3260
915.696	3298
915.809	3378
915.921	3374
916.034	3233
916.146	3268
916.259	3192
916.371	3401
916.483	3370
916.595	3283
916.708	3321
916.82	3344
916.932	3340
917.044	3367
917.156	3382
917.268	3268
917.38	3241
917.491	3268
917.603	3344
917.715	3454
917.826	3462
917.938	3393
918.049	3272
918.161	3389
918.272	3534
918.384	3545
918.495	3469
918.606	3329
918.717	3279
918.828	3359
918.939	3397
919.05	3294
919.161	3363
919.272	3135
919.383	3298
919.494	3492
919.604	3679
919.715	3485
919.826	3409
919.936	3401
920.047	3557
920.157	3553
920.267	3747
920.378	3648
920.488	3595
920.598	3762
920.708	3972
920.818	3850
920.928	3850
921.038	4025
921.148	3972
921.258	3705
921.368	3599
921.477	3561
921.587	3542
921.697	3439
921.806	3599
921.916	3523
922.025	3397
922.134	3363
922.244	3340
922.353	3397
922.462	3313
922.571	3192
922.68	3104
922.789	3108
922.898	3173
923.007	3089
923.116	3184
923.224	3203
923.333	3237
923.442	3093
923.55	3089
923.659	3119
923.767	3195
923.876	3089
923.984	3233
924.092	3123
924.201	3195
924.309	3218
924.417	3249
924.525	3214
924.633	3237
924.741	4169
924.849	3039
924.956	3268
925.064	3097
925.172	3017
925.279	3077
925.387	3169
925.494	3192
925.602	3348
925.709	3317
925.816	3222
925.924	3306
926.031	3367
926.138	3359
926.245	3344
926.352	3249
926.459	3424
926.566	3439
926.673	3382
926.779	3291
926.886	3275
926.993	3146
927.099	3142
927.206	3157
927.312	3089
927.419	3237
927.525	3214
927.631	3249
927.737	3165
927.843	3119
927.95	3020
928.056	3154
928.162	3184
928.267	3226
928.373	3732
928.479	3302
928.585	3047
928.69	3241
928.796	3253
928.901	3176
929.007	3017
929.112	3207
929.218	3142
929.323	3154
929.428	3146
929.533	3336
929.638	3104
929.743	3150
929.848	3272
929.953	3203
930.058	3146
930.163	2990
930.267	3047
930.372	3176
930.477	3036
930.581	3294
930.685	3188
930.79	3062
930.894	3142
930.998	3093
931.103	3256
931.207	2952
931.311	2937
931.415	2902
931.519	2781
931.623	2807
