Data from test_V78500241_1428.txt Node
Date: Fri Mar 25 16:25:05 CST 2022
User: usil
Spectrometer: V785-0024
Trigger mode: 0
Integration Time (sec): 4.000000E-1
Scans to average: 1
Nonlinearity correction enabled: false
Boxcar width: 0
Storing dark spectrum: false
XAxis mode: Wavelengths
Number of Pixels in Spectrum: 1024
>>>>>Begin Spectral Data<<<<<
801.071	2876
801.214	2937
801.356	2872
801.499	2887
801.641	2857
801.783	2880
801.926	3036
802.068	2956
802.211	2963
802.353	3024
802.496	2971
802.638	3001
802.78	3085
802.923	3085
803.065	2994
803.208	2914
803.35	2834
803.492	2944
803.635	2891
803.777	2766
803.919	2826
804.061	3207
804.204	2914
804.346	2899
804.488	2857
804.63	3001
804.773	2864
804.915	2933
805.057	3051
805.199	2914
805.341	2963
805.483	3032
805.626	2994
805.768	2941
805.91	3104
806.052	3119
806.194	2979
806.336	3218
806.478	2975
806.62	2952
806.762	2933
806.904	3043
807.046	3169
807.188	2994
807.33	2925
807.472	2998
807.614	2857
807.756	2998
807.898	2883
808.04	2914
808.182	2998
808.324	2944
808.465	2899
808.607	2876
808.749	2804
808.891	2845
809.033	2963
809.174	2963
809.316	2906
809.458	2880
809.6	2766
809.741	2746
809.883	2746
810.025	2838
810.166	2834
810.308	2842
810.45	2830
810.591	2792
810.733	2777
810.875	2815
811.016	2796
811.158	2785
811.299	2815
811.441	2941
811.582	2895
811.724	2834
811.865	2861
812.007	2906
812.148	2906
812.29	2857
812.431	2853
812.573	2906
812.714	2948
812.855	3036
812.997	3051
813.138	3108
813.279	2979
813.421	2986
813.562	2975
813.703	2914
813.845	2899
813.986	2781
814.127	2739
814.268	2830
814.41	2834
814.551	2807
814.692	2830
814.833	2781
814.974	2906
815.115	2941
815.256	2826
815.397	2800
815.539	2861
815.68	2773
815.821	2838
815.962	2929
816.103	2937
816.244	2853
816.385	2842
816.526	2948
816.666	2891
816.807	2720
816.948	2887
817.089	2887
817.23	2804
817.371	2746
817.512	2796
817.653	2853
817.793	2842
817.934	2872
818.075	2963
818.216	2998
818.356	3024
818.497	2902
818.638	2807
818.778	2838
818.919	2796
819.06	2785
819.2	2880
819.341	2792
819.481	2819
819.622	2902
819.762	3116
819.903	3051
820.043	2914
820.184	2887
820.324	2876
820.465	2986
820.605	3013
820.746	2994
820.886	2937
821.026	3104
821.167	3154
821.307	3222
821.447	3336
821.588	3211
821.728	3173
821.868	3214
822.008	3112
822.149	3176
822.289	3226
822.429	3077
822.569	3089
822.709	3165
822.849	3013
822.99	3055
823.13	3161
823.27	3195
823.41	3066
823.55	3131
823.69	3146
823.83	3188
823.97	3074
824.11	3001
824.25	2979
824.389	3085
824.529	3100
824.669	3043
824.809	3241
824.949	3245
825.089	3203
825.228	3157
825.368	3024
825.508	2956
825.648	2979
825.787	3017
825.927	3009
826.067	2967
826.206	2944
826.346	3013
826.485	3051
826.625	3093
826.765	3256
826.904	3260
827.044	2994
827.183	2941
827.323	2849
827.462	2994
827.601	2922
827.741	2906
827.88	2914
828.02	2838
828.159	2971
828.298	3001
828.437	3077
828.577	3058
828.716	3249
828.855	3089
828.994	2922
829.134	2910
829.273	2910
829.412	2857
829.551	2842
829.69	2895
829.829	2982
829.968	3074
830.107	3024
830.246	3017
830.385	2944
830.524	2872
830.663	2815
830.802	2712
830.941	2636
831.08	2644
831.219	2766
831.357	2746
831.496	2944
831.635	2712
831.774	2651
831.913	2621
832.051	2522
832.19	2579
832.329	2686
832.467	2511
832.606	2465
832.744	2610
832.883	2583
833.022	2583
833.16	2625
833.299	2674
833.437	2693
833.576	2712
833.714	2716
833.852	2727
833.991	2743
834.129	2838
834.267	2834
834.406	2766
834.544	2872
834.682	2872
834.821	2906
834.959	3081
835.097	2872
835.235	3032
835.373	3001
835.511	3005
835.65	2979
835.788	2906
835.926	2819
836.064	2815
836.202	2819
836.34	3062
836.478	3131
836.615	3036
836.753	3131
836.891	3180
837.029	3123
837.167	3135
837.305	3097
837.443	3020
837.58	2948
837.718	3150
837.856	3062
837.993	3013
838.131	3142
838.269	3089
838.406	3085
838.544	3081
838.681	2952
838.819	2922
838.956	2792
839.094	2819
839.231	2914
839.369	3032
839.506	3401
839.643	3226
839.781	3024
839.918	2982
840.055	3047
840.193	3051
840.33	3028
840.467	3077
840.604	3142
840.742	3367
840.879	3055
841.016	3081
841.153	3074
841.29	3321
841.427	3302
841.564	3256
841.701	3287
841.838	3214
841.975	3184
842.112	3192
842.249	3066
842.385	2994
842.522	3268
842.659	3119
842.796	3081
842.933	3104
843.069	3032
843.206	2990
843.343	3169
843.479	3085
843.616	3123
843.752	2883
843.889	2880
844.025	3104
844.162	2861
844.298	3070
844.435	2922
844.571	2895
844.708	3058
844.844	3157
844.98	3245
845.117	3195
845.253	3066
845.389	3013
845.525	3070
845.661	3104
845.798	2994
845.934	3112
846.07	3077
846.206	3241
846.342	3313
846.478	3230
846.614	3074
846.75	3051
846.886	3020
847.022	3241
847.158	3131
847.294	3184
847.429	3253
847.565	3188
847.701	3485
847.837	3047
847.972	2986
848.108	3123
848.244	3119
848.379	3013
848.515	2960
848.65	2941
848.786	2948
848.921	3013
849.057	3085
849.192	3116
849.328	3039
849.463	3127
849.598	3051
849.734	3062
849.869	2967
850.004	2914
850.14	2956
850.275	2876
850.41	2838
850.545	2853
850.68	2933
850.815	2914
850.95	2982
851.085	3169
851.22	3116
851.355	3077
851.49	2963
851.625	2986
851.76	3047
851.895	2906
852.03	2902
852.165	3032
852.299	3100
852.434	3176
852.569	3112
852.703	3146
852.838	3237
852.973	3302
853.107	3298
853.242	3169
853.376	3062
853.511	3017
853.645	3024
853.78	3188
853.914	3108
854.048	3108
854.183	3119
854.317	3157
854.451	3279
854.585	3135
854.72	3097
854.854	3211
854.988	3005
855.122	3077
855.256	2998
855.39	3097
855.524	3195
855.658	3188
855.792	3135
855.926	3180
856.06	3226
856.194	3233
856.327	3100
856.461	3085
856.595	3074
856.729	3097
856.862	3180
856.996	3173
857.13	3203
857.263	3218
857.397	3268
857.53	3108
857.664	3161
857.797	3214
857.931	3241
858.064	3135
858.197	3195
858.331	3104
858.464	3100
858.597	3017
858.731	3127
858.864	3116
858.997	3097
859.13	3138
859.263	3165
859.396	3146
859.529	3077
859.662	3074
859.795	3017
859.928	3161
860.061	3298
860.194	3237
860.327	3123
860.46	3097
860.592	3256
860.725	3214
860.858	3245
860.99	3070
861.123	3081
861.256	3039
861.388	3161
861.521	3861
861.653	3009
861.786	2952
861.918	2986
862.05	3089
862.183	3100
862.315	3157
862.447	3184
862.58	3100
862.712	2937
862.844	2872
862.976	3043
863.108	3001
863.24	3317
863.372	2922
863.504	2971
863.636	2948
863.768	3047
863.9	2960
864.032	2902
864.164	2918
864.296	2998
864.428	3104
864.559	3123
864.691	3074
864.823	3062
864.954	3020
865.086	3028
865.217	2979
865.349	2960
865.48	2982
865.612	2998
865.743	3138
865.875	2990
866.006	2967
866.137	2944
866.269	2925
866.4	2922
866.531	2887
866.662	2899
866.793	2861
866.924	2876
867.055	2956
867.186	2902
867.317	2902
867.448	2838
867.579	2838
867.71	2838
867.841	2834
867.972	2895
868.103	2906
868.233	2910
868.364	2845
868.495	2887
868.625	3077
868.756	3203
868.886	2960
869.017	3005
869.147	3146
869.278	3165
869.408	3032
869.539	3017
869.669	3119
869.799	3039
869.929	3135
870.06	3093
870.19	3321
870.32	3275
870.45	3268
870.58	3340
870.71	3458
870.84	3439
870.97	3291
871.1	3241
871.23	3466
871.36	3428
871.489	3355
871.619	3386
871.749	3412
871.879	3424
872.008	3454
872.138	3401
872.267	3287
872.397	3100
872.526	3112
872.656	3001
872.785	3074
872.915	3245
873.044	3329
873.173	3233
873.303	3233
873.432	3211
873.561	3237
873.69	3169
873.819	3142
873.948	3173
874.077	3142
874.206	3058
874.335	3032
874.464	3169
874.593	3351
874.722	3253
874.851	3374
874.979	3348
875.108	3325
875.237	3192
875.365	3135
875.494	3165
875.623	3233
875.751	3123
875.88	3123
876.008	3188
876.136	3180
876.265	3359
876.393	3496
876.521	3409
876.65	3382
876.778	3329
876.906	3241
877.034	3230
877.162	3214
877.29	3169
877.418	3256
877.546	3279
877.674	3237
877.802	3211
877.93	3260
878.058	3142
878.185	3127
878.313	3211
878.441	3169
878.568	3070
878.696	3161
878.824	3211
878.951	3313
879.079	3443
879.206	3614
879.333	3424
879.461	3302
879.588	3336
879.715	3477
879.842	3572
879.97	3359
880.097	3188
880.224	3150
880.351	3195
880.478	3173
880.605	3199
880.732	3207
880.859	3469
880.986	3310
881.112	3283
881.239	3157
881.366	3104
881.493	3013
881.619	3005
881.746	3085
881.872	3058
881.999	3116
882.125	3150
882.252	3268
882.378	3287
882.505	3412
882.631	3264
882.757	3176
882.883	3230
883.01	3226
883.136	3150
883.262	3074
883.388	3089
883.514	3355
883.64	3382
883.766	3283
883.892	3188
884.018	3241
884.143	3428
884.269	3523
884.395	3184
884.52	3169
884.646	3165
884.772	3104
884.897	3097
885.023	3192
885.148	3291
885.274	3397
885.399	3344
885.524	3268
885.65	3241
885.775	3306
885.9	3294
886.025	3431
886.15	3367
886.275	3332
886.4	3222
886.525	3294
886.65	3260
886.775	3241
886.9	3488
887.025	3625
887.149	3458
887.274	3249
887.399	3195
887.523	3207
887.648	3165
887.773	3207
887.897	3340
888.021	3389
888.146	3336
888.27	3431
888.395	3523
888.519	3462
888.643	3428
888.767	3492
888.891	3321
889.015	3218
889.139	3275
889.263	3237
889.387	3401
889.511	3523
889.635	3473
889.759	3306
889.883	3264
890.006	3382
890.13	3488
890.254	3256
890.377	3355
890.501	3180
890.624	3180
890.748	3310
890.871	3157
890.995	3093
891.118	3036
891.241	3211
891.364	3211
891.488	3302
891.611	3184
891.734	3203
891.857	3253
891.98	3230
892.103	3317
892.226	3306
892.349	3195
892.471	3131
892.594	3241
892.717	3268
892.839	3294
892.962	3260
893.085	3359
893.207	3272
893.33	3127
893.452	3211
893.575	3313
893.697	3256
893.819	3477
893.941	3481
894.064	3458
894.186	3272
894.308	3256
894.43	3458
894.552	3515
894.674	3428
894.796	3245
894.918	3321
895.04	3287
895.161	3450
895.283	3386
895.405	3340
895.526	3370
895.648	3428
895.769	3416
895.891	3458
896.012	3515
896.134	3443
896.255	3389
896.376	3389
896.498	3340
896.619	3443
896.74	3370
896.861	3367
896.982	3679
897.103	3831
897.224	3561
897.345	3477
897.466	3412
897.587	3443
897.708	3648
897.828	3557
897.949	3454
898.07	3317
898.19	3405
898.311	3622
898.431	3447
898.552	3492
898.672	3580
898.792	3538
898.913	3526
899.033	3424
899.153	3287
899.273	3195
899.393	3264
899.513	3302
899.633	3310
899.753	3351
899.873	3310
899.993	3382
900.113	3317
900.232	3412
900.352	3321
900.472	3283
900.591	3237
900.711	3256
900.83	3256
900.95	3370
901.069	3488
901.189	3336
901.308	3165
901.427	3135
901.546	3184
901.665	3249
901.784	3332
901.904	3218
902.023	3169
902.141	3005
902.26	2986
902.379	3112
902.498	3089
902.617	3066
902.735	3203
902.854	3211
902.973	3176
903.091	3009
903.21	3081
903.328	3138
903.446	3127
903.565	3112
903.683	3253
903.801	3108
903.919	3237
904.038	3249
904.156	3192
904.274	3287
904.392	3272
904.51	3321
904.627	3344
904.745	3466
904.863	3466
904.981	3264
905.098	3142
905.216	3230
905.334	3313
905.451	3291
905.569	3272
905.686	3420
905.803	3462
905.921	3294
906.038	3477
906.155	3340
906.272	3233
906.389	3332
906.506	3211
906.623	3184
906.74	3233
906.857	3218
906.974	3245
907.091	3473
907.208	3553
907.324	3473
907.441	3401
907.557	3222
907.674	3218
907.79	3245
907.907	3268
908.023	3363
908.139	3355
908.256	3336
908.372	3374
908.488	3374
908.604	3230
908.72	3211
908.836	3256
908.952	3298
909.068	3359
909.184	3466
909.3	3378
909.415	3481
909.531	3469
909.647	3294
909.762	3294
909.878	3272
909.993	3329
910.108	3378
910.224	3332
910.339	3389
910.454	3363
910.57	3332
910.685	3260
910.8	3564
910.915	3538
911.03	3466
911.145	3264
911.259	3241
911.374	3325
911.489	3241
911.604	3233
911.718	3104
911.833	3138
911.947	3032
912.062	2994
912.176	3173
912.291	3173
912.405	3203
912.519	3439
912.633	3443
912.748	3325
912.862	3260
912.976	3150
913.09	3062
913.204	3135
913.318	3214
913.431	3329
913.545	3329
913.659	3401
913.772	3325
913.886	3226
914	3222
914.113	3336
914.226	3412
914.34	3370
914.453	3241
914.566	3469
914.68	3317
914.793	3279
914.906	3127
915.019	3138
915.132	3077
915.245	3180
915.358	3207
915.47	3237
915.583	3272
915.696	3287
915.809	3374
915.921	3435
916.034	3275
916.146	3256
916.259	3207
916.371	3382
916.483	3340
916.595	3279
916.708	3329
916.82	3340
916.932	3325
917.044	3355
917.156	3325
917.268	3218
917.38	3329
917.491	3302
917.603	3367
917.715	3439
917.826	3447
917.938	3397
918.049	3272
918.161	3439
918.272	3587
918.384	3576
918.495	3511
918.606	3313
918.717	3245
918.828	3321
918.939	3420
919.05	3310
919.161	3386
919.272	3173
919.383	3253
919.494	3454
919.604	3690
919.715	3450
919.826	3393
919.936	3469
920.047	3629
920.157	3542
920.267	3762
920.378	3591
920.488	3568
920.598	3800
920.708	3956
920.818	3793
920.928	3835
921.038	4036
921.148	4021
921.258	3717
921.368	3610
921.477	3618
921.587	3511
921.697	3485
921.806	3580
921.916	3553
922.025	3336
922.134	3351
922.244	3344
922.353	3428
922.462	3260
922.571	3222
922.68	3066
922.789	3036
922.898	3157
923.007	3089
923.116	3169
923.224	3195
923.333	3176
923.442	3104
923.55	3097
923.659	3146
923.767	3188
923.876	3123
923.984	3199
924.092	3104
924.201	3188
924.309	3211
924.417	3233
924.525	3154
924.633	3249
924.741	4192
924.849	3055
924.956	3260
925.064	3093
925.172	3020
925.279	3097
925.387	3188
925.494	3211
925.602	3348
925.709	3306
925.816	3188
925.924	3272
926.031	3374
926.138	3340
926.245	3359
926.352	3253
926.459	3447
926.566	3496
926.673	3336
926.779	3241
926.886	3237
926.993	3146
927.099	3104
927.206	3154
927.312	3108
927.419	3199
927.525	3184
927.631	3272
927.737	3119
927.843	3138
927.95	3039
928.056	3146
928.162	3157
928.267	3222
928.373	3838
928.479	3310
928.585	3081
928.69	3203
928.796	3237
928.901	3150
929.007	3055
929.112	3207
929.218	3207
929.323	3119
929.428	3142
929.533	3294
929.638	3138
929.743	3176
929.848	3230
929.953	3237
930.058	3138
930.163	3013
930.267	3081
930.372	3195
930.477	3020
930.581	3291
930.685	3173
930.79	3066
930.894	3112
930.998	3070
931.103	3298
931.207	2937
931.311	2948
931.415	2899
931.519	2781
931.623	2842
