Data from test_V78500241_243.txt Node
Date: Fri Mar 25 16:16:53 CST 2022
User: usil
Spectrometer: V785-0024
Trigger mode: 0
Integration Time (sec): 4.000000E-1
Scans to average: 1
Nonlinearity correction enabled: false
Boxcar width: 0
Storing dark spectrum: false
XAxis mode: Wavelengths
Number of Pixels in Spectrum: 1024
>>>>>Begin Spectral Data<<<<<
801.071	2906
801.214	2971
801.356	2842
801.499	2902
801.641	2868
801.783	2937
801.926	3039
802.068	3009
802.211	3028
802.353	3051
802.496	2967
802.638	2998
802.78	3051
802.923	3100
803.065	3028
803.208	2914
803.35	2906
803.492	2944
803.635	2918
803.777	2826
803.919	2849
804.061	3207
804.204	2982
804.346	2937
804.488	2857
804.63	2971
804.773	2910
804.915	2887
805.057	3100
805.199	2914
805.341	2952
805.483	3020
805.626	2986
805.768	2937
805.91	3112
806.052	3123
806.194	3051
806.336	3264
806.478	3020
806.62	2956
806.762	3005
806.904	3058
807.046	3169
807.188	2990
807.33	2914
807.472	3024
807.614	2918
807.756	3013
807.898	2910
808.04	2887
808.182	2994
808.324	2960
808.465	2899
808.607	2872
808.749	2800
808.891	2849
809.033	2979
809.174	2937
809.316	2906
809.458	2906
809.6	2758
809.741	2781
809.883	2758
810.025	2868
810.166	2838
810.308	2826
810.45	2853
810.591	2777
810.733	2769
810.875	2845
811.016	2819
811.158	2766
811.299	2815
811.441	2922
811.582	2895
811.724	2815
811.865	2845
812.007	2902
812.148	2876
812.29	2838
812.431	2922
812.573	2933
812.714	2994
812.855	3055
812.997	3070
813.138	3112
813.279	3005
813.421	2986
813.562	2982
813.703	2868
813.845	2937
813.986	2788
814.127	2731
814.268	2845
814.41	2811
814.551	2800
814.692	2887
814.833	2807
814.974	2864
815.115	2933
815.256	2849
815.397	2842
815.539	2861
815.68	2766
815.821	2811
815.962	2952
816.103	2910
816.244	2910
816.385	2872
816.526	2986
816.666	2906
816.807	2739
816.948	2902
817.089	2902
817.23	2868
817.371	2807
817.512	2788
817.653	2864
817.793	2823
817.934	2857
818.075	2971
818.216	3020
818.356	3028
818.497	2872
818.638	2743
818.778	2819
818.919	2788
819.06	2777
819.2	2838
819.341	2804
819.481	2769
819.622	2922
819.762	3089
819.903	3032
820.043	2883
820.184	2887
820.324	2902
820.465	3028
820.605	3074
820.746	3005
820.886	2982
821.026	3112
821.167	3135
821.307	3260
821.447	3317
821.588	3249
821.728	3214
821.868	3214
822.008	3066
822.149	3188
822.289	3199
822.429	3039
822.569	3100
822.709	3169
822.849	2986
822.99	3131
823.13	3169
823.27	3192
823.41	3142
823.55	3173
823.69	3192
823.83	3184
823.97	3112
824.11	3020
824.25	2986
824.389	3089
824.529	3123
824.669	3062
824.809	3192
824.949	3222
825.089	3218
825.228	3157
825.368	2971
825.508	2982
825.648	2982
825.787	2986
825.927	3036
826.067	2990
826.206	2960
826.346	3039
826.485	3051
826.625	3123
826.765	3249
826.904	3226
827.044	3039
827.183	2918
827.323	2861
827.462	3013
827.601	2948
827.741	2941
827.88	2948
828.02	2880
828.159	2967
828.298	3039
828.437	3097
828.577	3043
828.716	3287
828.855	3108
828.994	2918
829.134	2914
829.273	2918
829.412	2868
829.551	2845
829.69	2849
829.829	2963
829.968	3135
830.107	3020
830.246	3013
830.385	2937
830.524	2853
830.663	2804
830.802	2724
830.941	2674
831.08	2651
831.219	2758
831.357	2777
831.496	2937
831.635	2727
831.774	2636
831.913	2697
832.051	2533
832.19	2587
832.329	2678
832.467	2522
832.606	2480
832.744	2583
832.883	2587
833.022	2594
833.16	2659
833.299	2678
833.437	2712
833.576	2697
833.714	2724
833.852	2766
833.991	2743
834.129	2811
834.267	2845
834.406	2781
834.544	2899
834.682	2868
834.821	2906
834.959	3074
835.097	2914
835.235	3039
835.373	2998
835.511	3032
835.65	2960
835.788	2975
835.926	2834
836.064	2785
836.202	2826
836.34	3055
836.478	3165
836.615	3039
836.753	3135
836.891	3218
837.029	3161
837.167	3138
837.305	3089
837.443	3055
837.58	2956
837.718	3123
837.856	3024
837.993	3036
838.131	3077
838.269	3108
838.406	3146
838.544	3085
838.681	2963
838.819	2899
838.956	2819
839.094	2811
839.231	2910
839.369	3001
839.506	3374
839.643	3211
839.781	3017
839.918	2967
840.055	3055
840.193	3055
840.33	3089
840.467	3104
840.604	3154
840.742	3405
840.879	3055
841.016	3051
841.153	3116
841.29	3329
841.427	3306
841.564	3233
841.701	3317
841.838	3195
841.975	3233
842.112	3192
842.249	3070
842.385	3039
842.522	3256
842.659	3093
842.796	3036
842.933	3119
843.069	3047
843.206	3070
843.343	3195
843.479	3100
843.616	3188
843.752	2944
843.889	2857
844.025	3077
844.162	2914
844.298	3108
844.435	2929
844.571	2929
844.708	3123
844.844	3169
844.98	3222
845.117	3192
845.253	3081
845.389	3020
845.525	3127
845.661	3097
845.798	3020
845.934	3104
846.07	3066
846.206	3241
846.342	3306
846.478	3230
846.614	3112
846.75	3100
846.886	3043
847.022	3222
847.158	3108
847.294	3211
847.429	3264
847.565	3230
847.701	3447
847.837	2994
847.972	2998
848.108	3150
848.244	3135
848.379	2971
848.515	2956
848.65	2925
848.786	2963
848.921	3024
849.057	3085
849.192	3131
849.328	3074
849.463	3142
849.598	3077
849.734	3047
849.869	2979
850.004	2902
850.14	2979
850.275	2929
850.41	2857
850.545	2891
850.68	2922
850.815	2963
850.95	2944
851.085	3180
851.22	3093
851.355	3020
851.49	3005
851.625	3024
851.76	2994
851.895	2975
852.03	2899
852.165	3039
852.299	3104
852.434	3214
852.569	3150
852.703	3176
852.838	3294
852.973	3340
853.107	3351
853.242	3154
853.376	3104
853.511	2948
853.645	3070
853.78	3203
853.914	3146
854.048	3131
854.183	3070
854.317	3131
854.451	3332
854.585	3127
854.72	3108
854.854	3192
854.988	3104
855.122	3116
855.256	3001
855.39	3119
855.524	3253
855.658	3173
855.792	3142
855.926	3195
856.06	3237
856.194	3294
856.327	3150
856.461	3047
856.595	3085
856.729	3077
856.862	3214
856.996	3127
857.13	3173
857.263	3260
857.397	3264
857.53	3100
857.664	3192
857.797	3260
857.931	3230
858.064	3192
858.197	3214
858.331	3135
858.464	3093
858.597	3020
858.731	3108
858.864	3131
858.997	3142
859.13	3173
859.263	3188
859.396	3188
859.529	3070
859.662	3100
859.795	3028
859.928	3131
860.061	3268
860.194	3298
860.327	3097
860.46	3104
860.592	3230
860.725	3203
860.858	3245
860.99	3127
861.123	3039
861.256	3081
861.388	3142
861.521	3899
861.653	3024
861.786	2986
861.918	3001
862.05	3077
862.183	3066
862.315	3150
862.447	3195
862.58	3058
862.712	2944
862.844	2880
862.976	3017
863.108	2975
863.24	3287
863.372	2861
863.504	3001
863.636	2944
863.768	3036
863.9	2963
864.032	2922
864.164	2967
864.296	3036
864.428	3108
864.559	3127
864.691	3097
864.823	3070
864.954	3028
865.086	3070
865.217	3017
865.349	2998
865.48	2952
865.612	3043
865.743	3165
865.875	2998
866.006	2952
866.137	2994
866.269	2952
866.4	2952
866.531	2883
866.662	2899
866.793	2868
866.924	2902
867.055	2982
867.186	2929
867.317	2895
867.448	2845
867.579	2826
867.71	2883
867.841	2804
867.972	2895
868.103	2864
868.233	2872
868.364	2872
868.495	2914
868.625	3089
868.756	3173
868.886	2956
869.017	3043
869.147	3157
869.278	3127
869.408	3036
869.539	3024
869.669	3077
869.799	3032
869.929	3108
870.06	3112
870.19	3332
870.32	3310
870.45	3279
870.58	3378
870.71	3477
870.84	3454
870.97	3317
871.1	3233
871.23	3454
871.36	3458
871.489	3359
871.619	3397
871.749	3424
871.879	3458
872.008	3477
872.138	3397
872.267	3253
872.397	3161
872.526	3100
872.656	2956
872.785	3074
872.915	3241
873.044	3336
873.173	3264
873.303	3230
873.432	3237
873.561	3253
873.69	3180
873.819	3146
873.948	3203
874.077	3138
874.206	3047
874.335	3108
874.464	3233
874.593	3325
874.722	3253
874.851	3370
874.979	3351
875.108	3348
875.237	3211
875.365	3127
875.494	3188
875.623	3256
875.751	3074
875.88	3135
876.008	3203
876.136	3226
876.265	3382
876.393	3473
876.521	3393
876.65	3416
876.778	3287
876.906	3256
877.034	3184
877.162	3249
877.29	3176
877.418	3218
877.546	3241
877.674	3279
877.802	3218
877.93	3260
878.058	3154
878.185	3077
878.313	3176
878.441	3207
878.568	3051
878.696	3180
878.824	3211
878.951	3287
879.079	3496
879.206	3637
879.333	3454
879.461	3351
879.588	3355
879.715	3485
879.842	3587
879.97	3370
880.097	3173
880.224	3119
880.351	3169
880.478	3188
880.605	3203
880.732	3176
880.859	3477
880.986	3336
881.112	3329
881.239	3157
881.366	3089
881.493	3047
881.619	3036
881.746	3032
881.872	3085
881.999	3100
882.125	3119
882.252	3245
882.378	3321
882.505	3412
882.631	3321
882.757	3112
882.883	3199
883.01	3195
883.136	3154
883.262	3062
883.388	3112
883.514	3291
883.64	3389
883.766	3306
883.892	3218
884.018	3268
884.143	3397
884.269	3530
884.395	3214
884.52	3157
884.646	3211
884.772	3097
884.897	3104
885.023	3211
885.148	3310
885.274	3424
885.399	3348
885.524	3283
885.65	3260
885.775	3348
885.9	3287
886.025	3405
886.15	3348
886.275	3294
886.4	3256
886.525	3325
886.65	3279
886.775	3268
886.9	3500
887.025	3614
887.149	3405
887.274	3249
887.399	3192
887.523	3218
887.648	3199
887.773	3207
887.897	3393
888.021	3431
888.146	3264
888.27	3435
888.395	3504
888.519	3443
888.643	3485
888.767	3473
888.891	3317
889.015	3264
889.139	3253
889.263	3237
889.387	3367
889.511	3542
889.635	3454
889.759	3310
889.883	3287
890.006	3389
890.13	3507
890.254	3310
890.377	3363
890.501	3237
890.624	3192
890.748	3317
890.871	3169
890.995	3039
891.118	3062
891.241	3222
891.364	3249
891.488	3355
891.611	3161
891.734	3264
891.857	3298
891.98	3245
892.103	3329
892.226	3287
892.349	3199
892.471	3085
892.594	3260
892.717	3256
892.839	3306
892.962	3302
893.085	3336
893.207	3321
893.33	3119
893.452	3207
893.575	3287
893.697	3226
893.819	3447
893.941	3500
894.064	3447
894.186	3283
894.308	3325
894.43	3443
894.552	3523
894.674	3431
894.796	3272
894.918	3302
895.04	3291
895.161	3450
895.283	3382
895.405	3306
895.526	3393
895.648	3416
895.769	3386
895.891	3447
896.012	3431
896.134	3466
896.255	3412
896.376	3378
896.498	3389
896.619	3435
896.74	3409
896.861	3389
896.982	3694
897.103	3873
897.224	3595
897.345	3534
897.466	3462
897.587	3496
897.708	3610
897.828	3561
897.949	3443
898.07	3317
898.19	3386
898.311	3587
898.431	3458
898.552	3542
898.672	3564
898.792	3534
898.913	3545
899.033	3370
899.153	3332
899.273	3184
899.393	3287
899.513	3313
899.633	3344
899.753	3294
899.873	3272
899.993	3348
900.113	3329
900.232	3344
900.352	3298
900.472	3237
900.591	3173
900.711	3313
900.83	3222
900.95	3359
901.069	3485
901.189	3340
901.308	3165
901.427	3131
901.546	3211
901.665	3249
901.784	3287
901.904	3214
902.023	3161
902.141	3005
902.26	2990
902.379	3169
902.498	3081
902.617	3058
902.735	3173
902.854	3264
902.973	3195
903.091	3055
903.21	3024
903.328	3135
903.446	3100
903.565	3066
903.683	3207
903.801	3165
903.919	3264
904.038	3351
904.156	3169
904.274	3272
904.392	3287
904.51	3287
904.627	3348
904.745	3462
904.863	3523
904.981	3268
905.098	3192
905.216	3302
905.334	3332
905.451	3298
905.569	3329
905.686	3447
905.803	3447
905.921	3275
906.038	3492
906.155	3435
906.272	3317
906.389	3351
906.506	3260
906.623	3287
906.74	3302
906.857	3199
906.974	3291
907.091	3481
907.208	3625
907.324	3526
907.441	3435
907.557	3268
907.674	3260
907.79	3249
907.907	3283
908.023	3466
908.139	3409
908.256	3382
908.372	3382
908.488	3393
908.604	3287
908.72	3283
908.836	3344
908.952	3329
909.068	3363
909.184	3504
909.3	3443
909.415	3538
909.531	3507
909.647	3306
909.762	3344
909.878	3336
909.993	3416
910.108	3405
910.224	3382
910.339	3443
910.454	3405
910.57	3363
910.685	3313
910.8	3625
910.915	3542
911.03	3481
911.145	3355
911.259	3355
911.374	3355
911.489	3329
911.604	3260
911.718	3195
911.833	3188
911.947	3085
912.062	3032
912.176	3207
912.291	3226
912.405	3275
912.519	3481
912.633	3507
912.748	3340
912.862	3329
912.976	3214
913.09	3051
913.204	3180
913.318	3279
913.431	3378
913.545	3378
913.659	3477
913.772	3359
913.886	3249
914	3268
914.113	3393
914.226	3496
914.34	3386
914.453	3245
914.566	3466
914.68	3348
914.793	3374
914.906	3222
915.019	3104
915.132	3146
915.245	3218
915.358	3253
915.47	3287
915.583	3313
915.696	3310
915.809	3424
915.921	3447
916.034	3325
916.146	3321
916.259	3256
916.371	3431
916.483	3435
916.595	3298
916.708	3397
916.82	3416
916.932	3359
917.044	3370
917.156	3355
917.268	3279
917.38	3370
917.491	3313
917.603	3363
917.715	3523
917.826	3477
917.938	3420
918.049	3313
918.161	3504
918.272	3637
918.384	3587
918.495	3530
918.606	3370
918.717	3355
918.828	3401
918.939	3469
919.05	3344
919.161	3416
919.272	3226
919.383	3336
919.494	3542
919.604	3728
919.715	3519
919.826	3488
919.936	3538
920.047	3633
920.157	3538
920.267	3800
920.378	3625
920.488	3595
920.598	3827
920.708	4002
920.818	3865
920.928	3850
921.038	4067
921.148	4013
921.258	3778
921.368	3671
921.477	3606
921.587	3591
921.697	3473
921.806	3686
921.916	3584
922.025	3416
922.134	3405
922.244	3355
922.353	3492
922.462	3325
922.571	3306
922.68	3123
922.789	3100
922.898	3188
923.007	3135
923.116	3260
923.224	3230
923.333	3233
923.442	3169
923.55	3131
923.659	3195
923.767	3268
923.876	3176
923.984	3268
924.092	3176
924.201	3207
924.309	3268
924.417	3329
924.525	3241
924.633	3268
924.741	4230
924.849	3089
924.956	3325
925.064	3116
925.172	3074
925.279	3138
925.387	3241
925.494	3272
925.602	3389
925.709	3370
925.816	3203
925.924	3302
926.031	3462
926.138	3355
926.245	3363
926.352	3264
926.459	3447
926.566	3488
926.673	3359
926.779	3325
926.886	3313
926.993	3154
927.099	3176
927.206	3154
927.312	3146
927.419	3241
927.525	3237
927.631	3317
927.737	3218
927.843	3161
927.95	3062
928.056	3161
928.162	3176
928.267	3310
928.373	3934
928.479	3382
928.585	3138
928.69	3233
928.796	3310
928.901	3211
929.007	3055
929.112	3241
929.218	3226
929.323	3192
929.428	3176
929.533	3370
929.638	3169
929.743	3192
929.848	3336
929.953	3245
930.058	3150
930.163	3047
930.267	3085
930.372	3287
930.477	3058
930.581	3336
930.685	3230
930.79	3085
930.894	3116
930.998	3127
931.103	3329
931.207	2979
931.311	2975
931.415	2937
931.519	2838
931.623	2826
