Data from test_V78500241_313.txt Node
Date: Fri Mar 25 16:17:22 CST 2022
User: usil
Spectrometer: V785-0024
Trigger mode: 0
Integration Time (sec): 4.000000E-1
Scans to average: 1
Nonlinearity correction enabled: false
Boxcar width: 0
Storing dark spectrum: false
XAxis mode: Wavelengths
Number of Pixels in Spectrum: 1024
>>>>>Begin Spectral Data<<<<<
801.071	2910
801.214	2986
801.356	2899
801.499	2937
801.641	2864
801.783	2979
801.926	3066
802.068	3017
802.211	3028
802.353	3043
802.496	2986
802.638	3047
802.78	3070
802.923	3123
803.065	3017
803.208	2929
803.35	2929
803.492	2944
803.635	2956
803.777	2773
803.919	2838
804.061	3157
804.204	2971
804.346	2925
804.488	2883
804.63	3024
804.773	2891
804.915	2960
805.057	3138
805.199	2910
805.341	3001
805.483	3062
805.626	3047
805.768	3005
805.91	3100
806.052	3112
806.194	3051
806.336	3260
806.478	3062
806.62	2929
806.762	2998
806.904	3070
807.046	3154
807.188	3001
807.33	2922
807.472	2986
807.614	2933
807.756	3005
807.898	2922
808.04	2914
808.182	3017
808.324	2971
808.465	2899
808.607	2906
808.749	2804
808.891	2891
809.033	3024
809.174	2975
809.316	2922
809.458	2891
809.6	2758
809.741	2815
809.883	2788
810.025	2891
810.166	2883
810.308	2838
810.45	2849
810.591	2830
810.733	2788
810.875	2872
811.016	2785
811.158	2811
811.299	2819
811.441	2925
811.582	2922
811.724	2853
811.865	2857
812.007	2929
812.148	2891
812.29	2864
812.431	2922
812.573	2975
812.714	2979
812.855	3047
812.997	3051
813.138	3161
813.279	3024
813.421	2971
813.562	3024
813.703	2883
813.845	2899
813.986	2773
814.127	2750
814.268	2883
814.41	2861
814.551	2838
814.692	2895
814.833	2826
814.974	2891
815.115	2979
815.256	2842
815.397	2838
815.539	2857
815.68	2834
815.821	2792
815.962	2967
816.103	2971
816.244	2872
816.385	2880
816.526	2994
816.666	2937
816.807	2746
816.948	2910
817.089	2933
817.23	2845
817.371	2796
817.512	2857
817.653	2823
817.793	2849
817.934	2876
818.075	2994
818.216	3017
818.356	3062
818.497	2929
818.638	2819
818.778	2864
818.919	2819
819.06	2743
819.2	2895
819.341	2807
819.481	2796
819.622	2941
819.762	3108
819.903	3051
820.043	2925
820.184	2910
820.324	2906
820.465	3036
820.605	3001
820.746	3051
820.886	2944
821.026	3112
821.167	3195
821.307	3249
821.447	3310
821.588	3268
821.728	3233
821.868	3226
822.008	3070
822.149	3218
822.289	3256
822.429	3135
822.569	3097
822.709	3211
822.849	3039
822.99	3116
823.13	3192
823.27	3207
823.41	3104
823.55	3165
823.69	3165
823.83	3214
823.97	3112
824.11	3020
824.25	3001
824.389	3093
824.529	3116
824.669	3058
824.809	3233
824.949	3268
825.089	3260
825.228	3165
825.368	3020
825.508	2956
825.648	3001
825.787	3028
825.927	3024
826.067	2990
826.206	3001
826.346	3036
826.485	3108
826.625	3138
826.765	3279
826.904	3211
827.044	3024
827.183	2906
827.323	2883
827.462	2990
827.601	2910
827.741	2925
827.88	2963
828.02	2864
828.159	2986
828.298	3058
828.437	3104
828.577	3039
828.716	3287
828.855	3119
828.994	2933
829.134	2887
829.273	2960
829.412	2842
829.551	2853
829.69	2910
829.829	3020
829.968	3127
830.107	2967
830.246	3051
830.385	2929
830.524	2883
830.663	2811
830.802	2727
830.941	2663
831.08	2655
831.219	2705
831.357	2773
831.496	2948
831.635	2758
831.774	2678
831.913	2689
832.051	2568
832.19	2583
832.329	2708
832.467	2556
832.606	2488
832.744	2594
832.883	2610
833.022	2587
833.16	2716
833.299	2712
833.437	2754
833.576	2727
833.714	2750
833.852	2743
833.991	2788
834.129	2876
834.267	2861
834.406	2792
834.544	2880
834.682	2914
834.821	2906
834.959	3066
835.097	2906
835.235	3055
835.373	3009
835.511	2998
835.65	2960
835.788	2982
835.926	2883
836.064	2826
836.202	2853
836.34	3100
836.478	3165
836.615	3062
836.753	3154
836.891	3214
837.029	3165
837.167	3123
837.305	3093
837.443	3062
837.58	2994
837.718	3169
837.856	3070
837.993	3024
838.131	3104
838.269	3085
838.406	3131
838.544	3062
838.681	2956
838.819	2937
838.956	2823
839.094	2857
839.231	2914
839.369	3024
839.506	3370
839.643	3226
839.781	3013
839.918	2967
840.055	3036
840.193	3028
840.33	3066
840.467	3100
840.604	3157
840.742	3424
840.879	3039
841.016	3066
841.153	3116
841.29	3340
841.427	3275
841.564	3306
841.701	3275
841.838	3237
841.975	3226
842.112	3222
842.249	3070
842.385	3093
842.522	3275
842.659	3081
842.796	3085
842.933	3100
843.069	3066
843.206	3058
843.343	3218
843.479	3116
843.616	3138
843.752	2929
843.889	2914
844.025	3100
844.162	2883
844.298	3085
844.435	2929
844.571	2895
844.708	3077
844.844	3192
844.98	3218
845.117	3203
845.253	3093
845.389	2990
845.525	3100
845.661	3081
845.798	3001
845.934	3119
846.07	3081
846.206	3207
846.342	3279
846.478	3237
846.614	3112
846.75	3036
846.886	3017
847.022	3230
847.158	3119
847.294	3195
847.429	3230
847.565	3256
847.701	3447
847.837	3032
847.972	2994
848.108	3184
848.244	3165
848.379	2994
848.515	2967
848.65	2937
848.786	2982
848.921	3047
849.057	3112
849.192	3138
849.328	3081
849.463	3119
849.598	3089
849.734	3055
849.869	2986
850.004	2918
850.14	2960
850.275	2937
850.41	2823
850.545	2895
850.68	2918
850.815	2998
850.95	2990
851.085	3207
851.22	3104
851.355	3024
851.49	2941
851.625	3005
851.76	3051
851.895	2933
852.03	2914
852.165	3055
852.299	3116
852.434	3173
852.569	3165
852.703	3192
852.838	3211
852.973	3302
853.107	3310
853.242	3195
853.376	3070
853.511	2975
853.645	3058
853.78	3256
853.914	3127
854.048	3123
854.183	3070
854.317	3146
854.451	3291
854.585	3135
854.72	3123
854.854	3192
854.988	3089
855.122	3074
855.256	2994
855.39	3116
855.524	3241
855.658	3165
855.792	3165
855.926	3207
856.06	3237
856.194	3283
856.327	3173
856.461	3093
856.595	3123
856.729	3116
856.862	3218
856.996	3199
857.13	3207
857.263	3241
857.397	3306
857.53	3142
857.664	3192
857.797	3222
857.931	3275
858.064	3173
858.197	3188
858.331	3184
858.464	3058
858.597	2986
858.731	3093
858.864	3119
858.997	3097
859.13	3165
859.263	3165
859.396	3237
859.529	3081
859.662	3074
859.795	3085
859.928	3146
860.061	3291
860.194	3283
860.327	3142
860.46	3112
860.592	3268
860.725	3253
860.858	3260
860.99	3108
861.123	3058
861.256	3039
861.388	3142
861.521	3842
861.653	3020
861.786	3001
861.918	3001
862.05	3047
862.183	3112
862.315	3150
862.447	3199
862.58	3123
862.712	2982
862.844	2853
862.976	3020
863.108	3013
863.24	3294
863.372	2914
863.504	2998
863.636	2963
863.768	3028
863.9	2982
864.032	2914
864.164	2944
864.296	2998
864.428	3070
864.559	3100
864.691	3077
864.823	3112
864.954	3043
865.086	3043
865.217	2982
865.349	3013
865.48	2982
865.612	3039
865.743	3161
865.875	2986
866.006	2929
866.137	2967
866.269	2982
866.4	2891
866.531	2910
866.662	2868
866.793	2883
866.924	2925
867.055	2956
867.186	2910
867.317	2880
867.448	2849
867.579	2849
867.71	2849
867.841	2842
867.972	2929
868.103	2899
868.233	2876
868.364	2849
868.495	2899
868.625	3081
868.756	3195
868.886	2990
869.017	3017
869.147	3165
869.278	3131
869.408	3081
869.539	3032
869.669	3077
869.799	3032
869.929	3123
870.06	3104
870.19	3348
870.32	3264
870.45	3272
870.58	3378
870.71	3462
870.84	3439
870.97	3321
871.1	3233
871.23	3542
871.36	3481
871.489	3351
871.619	3431
871.749	3367
871.879	3428
872.008	3469
872.138	3351
872.267	3283
872.397	3150
872.526	3104
872.656	2990
872.785	3089
872.915	3233
873.044	3313
873.173	3233
873.303	3260
873.432	3222
873.561	3253
873.69	3165
873.819	3173
873.948	3195
874.077	3116
874.206	3070
874.335	3070
874.464	3214
874.593	3382
874.722	3233
874.851	3370
874.979	3332
875.108	3336
875.237	3199
875.365	3188
875.494	3165
875.623	3256
875.751	3070
875.88	3093
876.008	3195
876.136	3195
876.265	3351
876.393	3534
876.521	3393
876.65	3378
876.778	3367
876.906	3249
877.034	3188
877.162	3230
877.29	3188
877.418	3241
877.546	3245
877.674	3207
877.802	3249
877.93	3203
878.058	3150
878.185	3100
878.313	3157
878.441	3180
878.568	3074
878.696	3135
878.824	3249
878.951	3310
879.079	3469
879.206	3584
879.333	3409
879.461	3332
879.588	3344
879.715	3500
879.842	3553
879.97	3374
880.097	3146
880.224	3123
880.351	3157
880.478	3233
880.605	3230
880.732	3176
880.859	3473
880.986	3340
881.112	3298
881.239	3245
881.366	3066
881.493	3013
881.619	3036
881.746	3070
881.872	3112
881.999	3119
882.125	3138
882.252	3256
882.378	3294
882.505	3435
882.631	3275
882.757	3165
882.883	3207
883.01	3233
883.136	3157
883.262	3112
883.388	3123
883.514	3302
883.64	3359
883.766	3302
883.892	3218
884.018	3222
884.143	3447
884.269	3507
884.395	3157
884.52	3142
884.646	3180
884.772	3138
884.897	3119
885.023	3195
885.148	3340
885.274	3397
885.399	3367
885.524	3279
885.65	3256
885.775	3321
885.9	3287
886.025	3439
886.15	3344
886.275	3321
886.4	3192
886.525	3287
886.65	3245
886.775	3279
886.9	3523
887.025	3622
887.149	3458
887.274	3279
887.399	3184
887.523	3230
887.648	3184
887.773	3188
887.897	3389
888.021	3393
888.146	3317
888.27	3397
888.395	3515
888.519	3431
888.643	3477
888.767	3466
888.891	3325
889.015	3264
889.139	3294
889.263	3230
889.387	3405
889.511	3488
889.635	3389
889.759	3313
889.883	3287
890.006	3409
890.13	3477
890.254	3279
890.377	3325
890.501	3192
890.624	3188
890.748	3302
890.871	3222
890.995	3123
891.118	3093
891.241	3176
891.364	3199
891.488	3355
891.611	3199
891.734	3230
891.857	3279
891.98	3241
892.103	3321
892.226	3313
892.349	3241
892.471	3104
892.594	3226
892.717	3321
892.839	3283
892.962	3283
893.085	3355
893.207	3283
893.33	3146
893.452	3214
893.575	3325
893.697	3256
893.819	3473
893.941	3485
894.064	3466
894.186	3279
894.308	3283
894.43	3466
894.552	3485
894.674	3488
894.796	3283
894.918	3306
895.04	3298
895.161	3405
895.283	3393
895.405	3245
895.526	3382
895.648	3409
895.769	3450
895.891	3477
896.012	3492
896.134	3481
896.255	3409
896.376	3424
896.498	3355
896.619	3443
896.74	3336
896.861	3393
896.982	3682
897.103	3800
897.224	3576
897.345	3477
897.466	3447
897.587	3500
897.708	3599
897.828	3538
897.949	3473
898.07	3359
898.19	3370
898.311	3591
898.431	3405
898.552	3481
898.672	3603
898.792	3587
898.913	3519
899.033	3401
899.153	3275
899.273	3214
899.393	3279
899.513	3294
899.633	3294
899.753	3325
899.873	3310
899.993	3420
900.113	3321
900.232	3367
900.352	3313
900.472	3306
900.591	3199
900.711	3313
900.83	3230
900.95	3386
901.069	3496
901.189	3329
901.308	3211
901.427	3100
901.546	3195
901.665	3283
901.784	3348
901.904	3195
902.023	3146
902.141	3036
902.26	2998
902.379	3100
902.498	3062
902.617	3058
902.735	3176
902.854	3241
902.973	3211
903.091	3074
903.21	3055
903.328	3146
903.446	3112
903.565	3123
903.683	3180
903.801	3131
903.919	3237
904.038	3260
904.156	3180
904.274	3253
904.392	3253
904.51	3298
904.627	3389
904.745	3428
904.863	3485
904.981	3260
905.098	3214
905.216	3241
905.334	3283
905.451	3306
905.569	3268
905.686	3370
905.803	3416
905.921	3253
906.038	3416
906.155	3378
906.272	3249
906.389	3367
906.506	3214
906.623	3253
906.74	3287
906.857	3192
906.974	3245
907.091	3439
907.208	3595
907.324	3488
907.441	3401
907.557	3249
907.674	3237
907.79	3184
907.907	3272
908.023	3389
908.139	3378
908.256	3374
908.372	3359
908.488	3351
908.604	3264
908.72	3241
908.836	3287
908.952	3275
909.068	3306
909.184	3485
909.3	3363
909.415	3492
909.531	3473
909.647	3272
909.762	3298
909.878	3272
909.993	3336
910.108	3317
910.224	3367
910.339	3420
910.454	3351
910.57	3298
910.685	3233
910.8	3542
910.915	3542
911.03	3370
911.145	3294
911.259	3306
911.374	3332
911.489	3260
911.604	3233
911.718	3108
911.833	3127
911.947	3051
912.062	2979
912.176	3165
912.291	3207
912.405	3218
912.519	3431
912.633	3500
912.748	3302
912.862	3287
912.976	3138
913.09	3062
913.204	3135
913.318	3233
913.431	3294
913.545	3325
913.659	3393
913.772	3340
913.886	3226
914	3195
914.113	3378
914.226	3389
914.34	3367
914.453	3222
914.566	3412
914.68	3264
914.793	3310
914.906	3188
915.019	3127
915.132	3066
915.245	3184
915.358	3211
915.47	3218
915.583	3253
915.696	3287
915.809	3401
915.921	3378
916.034	3275
916.146	3253
916.259	3207
916.371	3378
916.483	3409
916.595	3249
916.708	3332
916.82	3355
916.932	3313
917.044	3336
917.156	3355
917.268	3222
917.38	3313
917.491	3325
917.603	3378
917.715	3466
917.826	3458
917.938	3382
918.049	3272
918.161	3428
918.272	3561
918.384	3576
918.495	3477
918.606	3344
918.717	3260
918.828	3367
918.939	3412
919.05	3321
919.161	3363
919.272	3211
919.383	3291
919.494	3526
919.604	3675
919.715	3481
919.826	3412
919.936	3469
920.047	3599
920.157	3564
920.267	3770
920.378	3584
920.488	3557
920.598	3797
920.708	3998
920.818	3808
920.928	3838
921.038	4040
921.148	4002
921.258	3694
921.368	3671
921.477	3591
921.587	3580
921.697	3435
921.806	3648
921.916	3500
922.025	3355
922.134	3340
922.244	3306
922.353	3416
922.462	3294
922.571	3249
922.68	3108
922.789	3074
922.898	3180
923.007	3077
923.116	3222
923.224	3154
923.333	3180
923.442	3089
923.55	3085
923.659	3150
923.767	3207
923.876	3150
923.984	3245
924.092	3116
924.201	3188
924.309	3260
924.417	3237
924.525	3173
924.633	3256
924.741	4249
924.849	3020
924.956	3291
925.064	3119
925.172	3100
925.279	3085
925.387	3192
925.494	3188
925.602	3344
925.709	3386
925.816	3199
925.924	3306
926.031	3363
926.138	3351
926.245	3321
926.352	3230
926.459	3412
926.566	3477
926.673	3310
926.779	3230
926.886	3294
926.993	3173
927.099	3138
927.206	3127
927.312	3104
927.419	3222
927.525	3211
927.631	3249
927.737	3123
927.843	3138
927.95	3013
928.056	3165
928.162	3165
928.267	3233
928.373	3842
928.479	3294
928.585	3097
928.69	3203
928.796	3294
928.901	3173
929.007	3070
929.112	3188
929.218	3142
929.323	3127
929.428	3157
929.533	3287
929.638	3081
929.743	3199
929.848	3264
929.953	3211
930.058	3123
930.163	3051
930.267	3047
930.372	3222
930.477	3062
930.581	3317
930.685	3154
930.79	3066
930.894	3119
930.998	3104
931.103	3313
931.207	2941
931.311	2937
931.415	2956
931.519	2819
931.623	2830
