Data from test_V78500241_285.txt Node
Date: Fri Mar 25 16:17:10 CST 2022
User: usil
Spectrometer: V785-0024
Trigger mode: 0
Integration Time (sec): 4.000000E-1
Scans to average: 1
Nonlinearity correction enabled: false
Boxcar width: 0
Storing dark spectrum: false
XAxis mode: Wavelengths
Number of Pixels in Spectrum: 1024
>>>>>Begin Spectral Data<<<<<
801.071	2906
801.214	2952
801.356	2857
801.499	2872
801.641	2853
801.783	2895
801.926	3043
802.068	2963
802.211	2982
802.353	3039
802.496	2982
802.638	3013
802.78	3028
802.923	3085
803.065	3013
803.208	2906
803.35	2929
803.492	2937
803.635	2925
803.777	2792
803.919	2849
804.061	3207
804.204	2986
804.346	2910
804.488	2872
804.63	2998
804.773	2861
804.915	2910
805.057	3066
805.199	2937
805.341	2975
805.483	3020
805.626	3013
805.768	2956
805.91	3066
806.052	3089
806.194	3051
806.336	3226
806.478	3028
806.62	2960
806.762	2990
806.904	3074
807.046	3195
807.188	2967
807.33	2914
807.472	2994
807.614	2883
807.756	3009
807.898	2922
808.04	2914
808.182	3017
808.324	2963
808.465	2883
808.607	2853
808.749	2796
808.891	2853
809.033	2971
809.174	2990
809.316	2864
809.458	2883
809.6	2758
809.741	2754
809.883	2735
810.025	2849
810.166	2819
810.308	2849
810.45	2830
810.591	2758
810.733	2739
810.875	2826
811.016	2819
811.158	2731
811.299	2819
811.441	2929
811.582	2944
811.724	2842
811.865	2849
812.007	2899
812.148	2899
812.29	2861
812.431	2880
812.573	2910
812.714	2979
812.855	3085
812.997	3005
813.138	3131
813.279	2998
813.421	2986
813.562	2967
813.703	2883
813.845	2902
813.986	2777
814.127	2739
814.268	2823
814.41	2853
814.551	2826
814.692	2864
814.833	2788
814.974	2861
815.115	2975
815.256	2838
815.397	2838
815.539	2864
815.68	2796
815.821	2804
815.962	2929
816.103	2918
816.244	2910
816.385	2864
816.526	2956
816.666	2918
816.807	2746
816.948	2906
817.089	2910
817.23	2845
817.371	2766
817.512	2766
817.653	2838
817.793	2842
817.934	2902
818.075	2963
818.216	2937
818.356	3032
818.497	2899
818.638	2823
818.778	2807
818.919	2811
819.06	2781
819.2	2902
819.341	2826
819.481	2769
819.622	2910
819.762	3119
819.903	3032
820.043	2914
820.184	2899
820.324	2906
820.465	3043
820.605	3001
820.746	3032
820.886	2948
821.026	3154
821.167	3176
821.307	3214
821.447	3283
821.588	3199
821.728	3233
821.868	3165
822.008	3089
822.149	3157
822.289	3253
822.429	3089
822.569	3058
822.709	3165
822.849	3013
822.99	3085
823.13	3165
823.27	3199
823.41	3112
823.55	3135
823.69	3142
823.83	3188
823.97	3135
824.11	3032
824.25	2986
824.389	3039
824.529	3142
824.669	3062
824.809	3237
824.949	3291
825.089	3207
825.228	3176
825.368	3009
825.508	2963
825.648	3013
825.787	3039
825.927	2990
826.067	3001
826.206	2990
826.346	3055
826.485	3058
826.625	3104
826.765	3279
826.904	3180
827.044	2982
827.183	2925
827.323	2857
827.462	2975
827.601	2918
827.741	2941
827.88	2944
828.02	2826
828.159	2956
828.298	3039
828.437	3104
828.577	3070
828.716	3230
828.855	3093
828.994	2963
829.134	2872
829.273	2906
829.412	2895
829.551	2883
829.69	2899
829.829	2960
829.968	3138
830.107	3024
830.246	3009
830.385	2952
830.524	2891
830.663	2823
830.802	2731
830.941	2663
831.08	2659
831.219	2727
831.357	2731
831.496	2960
831.635	2716
831.774	2667
831.913	2632
832.051	2541
832.19	2568
832.329	2670
832.467	2518
832.606	2488
832.744	2610
832.883	2602
833.022	2579
833.16	2678
833.299	2667
833.437	2716
833.576	2693
833.714	2731
833.852	2743
833.991	2785
834.129	2849
834.267	2788
834.406	2792
834.544	2864
834.682	2880
834.821	2842
834.959	3036
835.097	2899
835.235	3047
835.373	2986
835.511	3024
835.65	2960
835.788	2963
835.926	2868
836.064	2819
836.202	2857
836.34	3085
836.478	3184
836.615	3036
836.753	3119
836.891	3226
837.029	3176
837.167	3142
837.305	3047
837.443	3032
837.58	2982
837.718	3112
837.856	3093
837.993	3043
838.131	3119
838.269	3074
838.406	3116
838.544	3070
838.681	2948
838.819	2937
838.956	2807
839.094	2826
839.231	2895
839.369	3013
839.506	3386
839.643	3211
839.781	2994
839.918	2948
840.055	3028
840.193	3051
840.33	3081
840.467	3131
840.604	3157
840.742	3382
840.879	3047
841.016	3077
841.153	3081
841.29	3294
841.427	3260
841.564	3287
841.701	3313
841.838	3260
841.975	3211
842.112	3233
842.249	3077
842.385	3032
842.522	3264
842.659	3104
842.796	3043
842.933	3100
843.069	3039
843.206	3058
843.343	3180
843.479	3085
843.616	3131
843.752	2883
843.889	2876
844.025	3081
844.162	2857
844.298	3097
844.435	2922
844.571	2876
844.708	3058
844.844	3199
844.98	3256
845.117	3180
845.253	3055
845.389	2998
845.525	3123
845.661	3108
845.798	3017
845.934	3138
846.07	3058
846.206	3230
846.342	3321
846.478	3241
846.614	3066
846.75	3039
846.886	3005
847.022	3253
847.158	3127
847.294	3226
847.429	3268
847.565	3188
847.701	3447
847.837	3051
847.972	3028
848.108	3131
848.244	3119
848.379	3001
848.515	2960
848.65	2937
848.786	2960
848.921	3013
849.057	3127
849.192	3142
849.328	3039
849.463	3097
849.598	3039
849.734	3047
849.869	2956
850.004	2910
850.14	2963
850.275	2910
850.41	2830
850.545	2861
850.68	2929
850.815	2952
850.95	3001
851.085	3180
851.22	3104
851.355	3062
851.49	2963
851.625	3024
851.76	2990
851.895	2948
852.03	2887
852.165	3020
852.299	3108
852.434	3176
852.569	3142
852.703	3135
852.838	3275
852.973	3363
853.107	3317
853.242	3180
853.376	3081
853.511	2994
853.645	3058
853.78	3233
853.914	3097
854.048	3104
854.183	3077
854.317	3150
854.451	3260
854.585	3123
854.72	3097
854.854	3199
854.988	3055
855.122	3100
855.256	2956
855.39	3123
855.524	3275
855.658	3199
855.792	3157
855.926	3180
856.06	3241
856.194	3241
856.327	3169
856.461	3085
856.595	3089
856.729	3081
856.862	3230
856.996	3211
857.13	3176
857.263	3226
857.397	3275
857.53	3135
857.664	3233
857.797	3226
857.931	3268
858.064	3161
858.197	3199
858.331	3138
858.464	3108
858.597	2963
858.731	3104
858.864	3123
858.997	3123
859.13	3150
859.263	3211
859.396	3195
859.529	3093
859.662	3058
859.795	3070
859.928	3150
860.061	3287
860.194	3291
860.327	3123
860.46	3089
860.592	3241
860.725	3264
860.858	3256
860.99	3097
861.123	3051
861.256	3047
861.388	3108
861.521	3831
861.653	3020
861.786	3017
861.918	2979
862.05	3077
862.183	3093
862.315	3154
862.447	3226
862.58	3119
862.712	2895
862.844	2883
862.976	3039
863.108	2986
863.24	3237
863.372	2861
863.504	2994
863.636	2979
863.768	3001
863.9	2982
864.032	2899
864.164	2941
864.296	3051
864.428	3097
864.559	3097
864.691	3043
864.823	3077
864.954	3058
865.086	3043
865.217	2971
865.349	2948
865.48	2979
865.612	3024
865.743	3173
865.875	3009
866.006	2952
866.137	2998
866.269	2929
866.4	2891
866.531	2922
866.662	2895
866.793	2895
866.924	2899
867.055	2967
867.186	2925
867.317	2895
867.448	2834
867.579	2804
867.71	2868
867.841	2819
867.972	2902
868.103	2902
868.233	2861
868.364	2868
868.495	2922
868.625	3032
868.756	3157
868.886	2963
869.017	3039
869.147	3184
869.278	3165
869.408	3058
869.539	3028
869.669	3100
869.799	3032
869.929	3123
870.06	3135
870.19	3306
870.32	3264
870.45	3294
870.58	3363
870.71	3485
870.84	3412
870.97	3298
871.1	3230
871.23	3519
871.36	3416
871.489	3359
871.619	3389
871.749	3382
871.879	3458
872.008	3473
872.138	3382
872.267	3245
872.397	3108
872.526	3119
872.656	3039
872.785	3093
872.915	3245
873.044	3291
873.173	3245
873.303	3245
873.432	3233
873.561	3264
873.69	3161
873.819	3180
873.948	3180
874.077	3097
874.206	3020
874.335	3070
874.464	3222
874.593	3363
874.722	3222
874.851	3378
874.979	3359
875.108	3306
875.237	3176
875.365	3169
875.494	3161
875.623	3275
875.751	3074
875.88	3108
876.008	3180
876.136	3226
876.265	3393
876.393	3515
876.521	3416
876.65	3374
876.778	3336
876.906	3233
877.034	3222
877.162	3180
877.29	3180
877.418	3275
877.546	3279
877.674	3249
877.802	3237
877.93	3218
878.058	3127
878.185	3131
878.313	3195
878.441	3249
878.568	3062
878.696	3184
878.824	3211
878.951	3272
879.079	3409
879.206	3648
879.333	3435
879.461	3355
879.588	3363
879.715	3523
879.842	3614
879.97	3359
880.097	3146
880.224	3135
880.351	3195
880.478	3203
880.605	3230
880.732	3184
880.859	3454
880.986	3291
881.112	3332
881.239	3192
881.366	3058
881.493	3017
881.619	3020
881.746	3089
881.872	3081
881.999	3100
882.125	3131
882.252	3275
882.378	3313
882.505	3397
882.631	3272
882.757	3131
882.883	3237
883.01	3195
883.136	3173
883.262	3108
883.388	3135
883.514	3344
883.64	3370
883.766	3344
883.892	3192
884.018	3233
884.143	3393
884.269	3504
884.395	3195
884.52	3203
884.646	3176
884.772	3131
884.897	3112
885.023	3176
885.148	3344
885.274	3405
885.399	3397
885.524	3283
885.65	3298
885.775	3325
885.9	3302
886.025	3420
886.15	3363
886.275	3298
886.4	3245
886.525	3325
886.65	3256
886.775	3268
886.9	3473
887.025	3614
887.149	3386
887.274	3256
887.399	3173
887.523	3199
887.648	3214
887.773	3180
887.897	3363
888.021	3367
888.146	3306
888.27	3424
888.395	3511
888.519	3439
888.643	3477
888.767	3447
888.891	3294
889.015	3241
889.139	3291
889.263	3226
889.387	3397
889.511	3500
889.635	3443
889.759	3310
889.883	3313
890.006	3386
890.13	3504
890.254	3275
890.377	3351
890.501	3195
890.624	3195
890.748	3294
890.871	3188
890.995	3131
891.118	3074
891.241	3237
891.364	3226
891.488	3306
891.611	3146
891.734	3230
891.857	3268
891.98	3207
892.103	3329
892.226	3294
892.349	3218
892.471	3131
892.594	3245
892.717	3329
892.839	3264
892.962	3310
893.085	3340
893.207	3279
893.33	3142
893.452	3199
893.575	3332
893.697	3245
893.819	3523
893.941	3526
894.064	3473
894.186	3298
894.308	3256
894.43	3454
894.552	3538
894.674	3473
894.796	3245
894.918	3302
895.04	3294
895.161	3420
895.283	3370
895.405	3317
895.526	3370
895.648	3435
895.769	3393
895.891	3477
896.012	3454
896.134	3488
896.255	3374
896.376	3401
896.498	3397
896.619	3435
896.74	3344
896.861	3412
896.982	3648
897.103	3812
897.224	3629
897.345	3481
897.466	3416
897.587	3523
897.708	3625
897.828	3538
897.949	3435
898.07	3329
898.19	3420
898.311	3584
898.431	3477
898.552	3492
898.672	3599
898.792	3561
898.913	3492
899.033	3424
899.153	3298
899.273	3199
899.393	3294
899.513	3283
899.633	3329
899.753	3321
899.873	3336
899.993	3386
900.113	3393
900.232	3367
900.352	3325
900.472	3272
900.591	3226
900.711	3294
900.83	3237
900.95	3386
901.069	3473
901.189	3363
901.308	3154
901.427	3127
901.546	3214
901.665	3310
901.784	3332
901.904	3207
902.023	3157
902.141	3036
902.26	2982
902.379	3142
902.498	3047
902.617	3066
902.735	3192
902.854	3211
902.973	3226
903.091	3077
903.21	3097
903.328	3192
903.446	3100
903.565	3097
903.683	3192
903.801	3104
903.919	3233
904.038	3272
904.156	3146
904.274	3306
904.392	3256
904.51	3298
904.627	3332
904.745	3466
904.863	3523
904.981	3256
905.098	3157
905.216	3245
905.334	3302
905.451	3302
905.569	3302
905.686	3416
905.803	3409
905.921	3325
906.038	3458
906.155	3355
906.272	3279
906.389	3332
906.506	3253
906.623	3287
906.74	3233
906.857	3154
906.974	3272
907.091	3454
907.208	3572
907.324	3458
907.441	3412
907.557	3218
907.674	3233
907.79	3218
907.907	3264
908.023	3355
908.139	3363
908.256	3325
908.372	3389
908.488	3336
908.604	3272
908.72	3241
908.836	3264
908.952	3298
909.068	3325
909.184	3481
909.3	3462
909.415	3534
909.531	3466
909.647	3283
909.762	3279
909.878	3306
909.993	3363
910.108	3321
910.224	3310
910.339	3389
910.454	3336
910.57	3264
910.685	3256
910.8	3576
910.915	3530
911.03	3435
911.145	3317
911.259	3237
911.374	3325
911.489	3260
911.604	3249
911.718	3100
911.833	3146
911.947	3032
912.062	3024
912.176	3142
912.291	3211
912.405	3195
912.519	3439
912.633	3485
912.748	3329
912.862	3264
912.976	3146
913.09	3058
913.204	3161
913.318	3207
913.431	3367
913.545	3306
913.659	3431
913.772	3329
913.886	3188
914	3222
914.113	3355
914.226	3386
914.34	3367
914.453	3245
914.566	3458
914.68	3275
914.793	3344
914.906	3165
915.019	3135
915.132	3077
915.245	3207
915.358	3176
915.47	3207
915.583	3256
915.696	3272
915.809	3409
915.921	3409
916.034	3264
916.146	3294
916.259	3241
916.371	3359
916.483	3317
916.595	3253
916.708	3351
916.82	3393
916.932	3321
917.044	3389
917.156	3351
917.268	3256
917.38	3313
917.491	3298
917.603	3336
917.715	3473
917.826	3462
917.938	3374
918.049	3291
918.161	3420
918.272	3545
918.384	3557
918.495	3511
918.606	3401
918.717	3310
918.828	3340
918.939	3382
919.05	3321
919.161	3363
919.272	3199
919.383	3298
919.494	3462
919.604	3686
919.715	3519
919.826	3447
919.936	3439
920.047	3587
920.157	3542
920.267	3766
920.378	3644
920.488	3576
920.598	3762
920.708	3968
920.818	3819
920.928	3842
921.038	4025
921.148	3968
921.258	3724
921.368	3595
921.477	3545
921.587	3538
921.697	3420
921.806	3671
921.916	3500
922.025	3329
922.134	3367
922.244	3321
922.353	3458
922.462	3306
922.571	3211
922.68	3131
922.789	3066
922.898	3142
923.007	3093
923.116	3176
923.224	3203
923.333	3138
923.442	3085
923.55	3100
923.659	3146
923.767	3226
923.876	3093
923.984	3237
924.092	3081
924.201	3218
924.309	3226
924.417	3249
924.525	3192
924.633	3256
924.741	4188
924.849	3039
924.956	3275
925.064	3112
925.172	3043
925.279	3093
925.387	3211
925.494	3173
925.602	3359
925.709	3317
925.816	3195
925.924	3275
926.031	3359
926.138	3321
926.245	3367
926.352	3272
926.459	3424
926.566	3428
926.673	3336
926.779	3230
926.886	3226
926.993	3135
927.099	3135
927.206	3119
927.312	3112
927.419	3226
927.525	3180
927.631	3275
927.737	3127
927.843	3180
927.95	3039
928.056	3154
928.162	3127
928.267	3245
928.373	3869
928.479	3329
928.585	3066
928.69	3222
928.796	3302
928.901	3173
929.007	3043
929.112	3230
929.218	3157
929.323	3146
929.428	3165
929.533	3340
929.638	3104
929.743	3131
929.848	3226
929.953	3184
930.058	3142
930.163	3020
930.267	3077
930.372	3245
930.477	3032
930.581	3306
930.685	3195
930.79	3062
930.894	3119
930.998	3112
931.103	3283
931.207	2971
931.311	2929
931.415	2899
931.519	2743
931.623	2785
