Data from test_V78500241_1637.txt Node
Date: Fri Mar 25 16:26:32 CST 2022
User: usil
Spectrometer: V785-0024
Trigger mode: 0
Integration Time (sec): 4.000000E-1
Scans to average: 1
Nonlinearity correction enabled: false
Boxcar width: 0
Storing dark spectrum: false
XAxis mode: Wavelengths
Number of Pixels in Spectrum: 1024
>>>>>Begin Spectral Data<<<<<
801.071	2925
801.214	2956
801.356	2880
801.499	2933
801.641	2857
801.783	2952
801.926	3032
802.068	3005
802.211	3005
802.353	3070
802.496	2948
802.638	3047
802.78	3074
802.923	3039
803.065	3020
803.208	2933
803.35	2922
803.492	2929
803.635	2925
803.777	2792
803.919	2857
804.061	3184
804.204	2922
804.346	2941
804.488	2830
804.63	2975
804.773	2891
804.915	2929
805.057	3081
805.199	2963
805.341	2982
805.483	3058
805.626	3032
805.768	2986
805.91	3135
806.052	3131
806.194	3020
806.336	3249
806.478	3005
806.62	2941
806.762	2994
806.904	3058
807.046	3214
807.188	3005
807.33	2933
807.472	2986
807.614	2918
807.756	3009
807.898	2914
808.04	2933
808.182	2952
808.324	2948
808.465	2880
808.607	2868
808.749	2811
808.891	2861
809.033	2998
809.174	2963
809.316	2899
809.458	2887
809.6	2788
809.741	2773
809.883	2773
810.025	2861
810.166	2864
810.308	2845
810.45	2853
810.591	2773
810.733	2769
810.875	2815
811.016	2781
811.158	2788
811.299	2811
811.441	2929
811.582	2883
811.724	2815
811.865	2792
812.007	2929
812.148	2899
812.29	2876
812.431	2872
812.573	2918
812.714	2956
812.855	3051
812.997	3058
813.138	3135
813.279	3036
813.421	2979
813.562	2963
813.703	2872
813.845	2899
813.986	2773
814.127	2724
814.268	2826
814.41	2872
814.551	2826
814.692	2910
814.833	2857
814.974	2861
815.115	2918
815.256	2853
815.397	2868
815.539	2861
815.68	2773
815.821	2777
815.962	2914
816.103	2925
816.244	2899
816.385	2902
816.526	2952
816.666	2880
816.807	2773
816.948	2891
817.089	2899
817.23	2857
817.371	2758
817.512	2834
817.653	2842
817.793	2842
817.934	2910
818.075	2975
818.216	3005
818.356	2986
818.497	2868
818.638	2777
818.778	2826
818.919	2769
819.06	2750
819.2	2876
819.341	2830
819.481	2796
819.622	2944
819.762	3123
819.903	3043
820.043	2929
820.184	2883
820.324	2899
820.465	3051
820.605	2979
820.746	3024
820.886	2963
821.026	3089
821.167	3161
821.307	3237
821.447	3313
821.588	3253
821.728	3222
821.868	3241
822.008	3093
822.149	3203
822.289	3237
822.429	3123
822.569	3085
822.709	3199
822.849	3039
822.99	3093
823.13	3188
823.27	3211
823.41	3138
823.55	3161
823.69	3161
823.83	3176
823.97	3135
824.11	3009
824.25	3009
824.389	3074
824.529	3161
824.669	3077
824.809	3230
824.949	3306
825.089	3283
825.228	3188
825.368	3032
825.508	3001
825.648	3017
825.787	3047
825.927	3077
826.067	2990
826.206	2994
826.346	3085
826.485	3131
826.625	3135
826.765	3306
826.904	3253
827.044	3051
827.183	2948
827.323	2922
827.462	3005
827.601	2944
827.741	3017
827.88	3001
828.02	2902
828.159	3013
828.298	3070
828.437	3154
828.577	3097
828.716	3291
828.855	3138
828.994	2975
829.134	2918
829.273	2975
829.412	2941
829.551	2887
829.69	2937
829.829	3047
829.968	3176
830.107	3009
830.246	3058
830.385	2986
830.524	2922
830.663	2895
830.802	2769
830.941	2697
831.08	2689
831.219	2788
831.357	2758
831.496	2982
831.635	2781
831.774	2727
831.913	2697
832.051	2610
832.19	2625
832.329	2743
832.467	2545
832.606	2511
832.744	2625
832.883	2621
833.022	2594
833.16	2686
833.299	2762
833.437	2735
833.576	2762
833.714	2754
833.852	2773
833.991	2823
834.129	2876
834.267	2883
834.406	2815
834.544	2929
834.682	2838
834.821	2922
834.959	3112
835.097	2948
835.235	3085
835.373	3043
835.511	3062
835.65	2994
835.788	2990
835.926	2861
836.064	2861
836.202	2895
836.34	3123
836.478	3203
836.615	3093
836.753	3142
836.891	3233
837.029	3176
837.167	3157
837.305	3066
837.443	3070
837.58	3009
837.718	3123
837.856	3081
837.993	3089
838.131	3138
838.269	3176
838.406	3135
838.544	3116
838.681	2994
838.819	2941
838.956	2842
839.094	2868
839.231	2937
839.369	3066
839.506	3450
839.643	3233
839.781	3085
839.918	3009
840.055	3077
840.193	3108
840.33	3119
840.467	3138
840.604	3199
840.742	3420
840.879	3070
841.016	3074
841.153	3150
841.29	3382
841.427	3306
841.564	3340
841.701	3317
841.838	3241
841.975	3260
842.112	3241
842.249	3074
842.385	3055
842.522	3287
842.659	3116
842.796	3077
842.933	3150
843.069	3097
843.206	3112
843.343	3222
843.479	3066
843.616	3199
843.752	2937
843.889	2887
844.025	3112
844.162	2922
844.298	3097
844.435	2975
844.571	2948
844.708	3112
844.844	3222
844.98	3222
845.117	3180
845.253	3085
845.389	3066
845.525	3123
845.661	3135
845.798	3077
845.934	3135
846.07	3081
846.206	3241
846.342	3325
846.478	3264
846.614	3150
846.75	3089
846.886	3058
847.022	3272
847.158	3154
847.294	3253
847.429	3249
847.565	3237
847.701	3485
847.837	3097
847.972	3001
848.108	3203
848.244	3154
848.379	3032
848.515	2963
848.65	2944
848.786	3013
848.921	3009
849.057	3135
849.192	3207
849.328	3070
849.463	3157
849.598	3089
849.734	3077
849.869	3047
850.004	2963
850.14	2990
850.275	2948
850.41	2883
850.545	2887
850.68	2929
850.815	2963
850.95	3028
851.085	3218
851.22	3188
851.355	3020
851.49	3020
851.625	3085
851.76	3032
851.895	2986
852.03	2910
852.165	3032
852.299	3097
852.434	3192
852.569	3203
852.703	3211
852.838	3272
852.973	3378
853.107	3336
853.242	3150
853.376	3135
853.511	3055
853.645	3051
853.78	3256
853.914	3135
854.048	3131
854.183	3089
854.317	3173
854.451	3283
854.585	3150
854.72	3104
854.854	3214
854.988	3089
855.122	3104
855.256	3020
855.39	3169
855.524	3249
855.658	3218
855.792	3192
855.926	3176
856.06	3233
856.194	3291
856.327	3176
856.461	3127
856.595	3119
856.729	3127
856.862	3268
856.996	3165
857.13	3230
857.263	3279
857.397	3317
857.53	3157
857.664	3184
857.797	3272
857.931	3256
858.064	3199
858.197	3222
858.331	3142
858.464	3108
858.597	3028
858.731	3146
858.864	3138
858.997	3119
859.13	3195
859.263	3226
859.396	3245
859.529	3119
859.662	3135
859.795	3074
859.928	3161
860.061	3283
860.194	3302
860.327	3195
860.46	3119
860.592	3264
860.725	3268
860.858	3275
860.99	3146
861.123	3066
861.256	3112
861.388	3161
861.521	3903
861.653	3020
861.786	2982
861.918	2979
862.05	3089
862.183	3127
862.315	3180
862.447	3245
862.58	3085
862.712	2952
862.844	2895
862.976	3051
863.108	3058
863.24	3431
863.372	2922
863.504	2986
863.636	2971
863.768	3055
863.9	3017
864.032	2952
864.164	2956
864.296	3085
864.428	3131
864.559	3116
864.691	3119
864.823	3036
864.954	3058
865.086	3043
865.217	3032
865.349	2967
865.48	2986
865.612	3066
865.743	3176
865.875	3043
866.006	2975
866.137	2982
866.269	2971
866.4	2937
866.531	2948
866.662	2899
866.793	2899
866.924	2944
867.055	2994
867.186	2948
867.317	2895
867.448	2880
867.579	2868
867.71	2842
867.841	2857
867.972	2910
868.103	2929
868.233	2887
868.364	2895
868.495	2887
868.625	3093
868.756	3173
868.886	2994
869.017	3032
869.147	3214
869.278	3195
869.408	3043
869.539	3028
869.669	3138
869.799	3085
869.929	3165
870.06	3123
870.19	3332
870.32	3298
870.45	3302
870.58	3382
870.71	3477
870.84	3492
870.97	3310
871.1	3226
871.23	3523
871.36	3488
871.489	3370
871.619	3428
871.749	3374
871.879	3443
872.008	3477
872.138	3370
872.267	3260
872.397	3169
872.526	3116
872.656	3017
872.785	3116
872.915	3233
873.044	3298
873.173	3256
873.303	3283
873.432	3260
873.561	3279
873.69	3188
873.819	3176
873.948	3192
874.077	3127
874.206	3055
874.335	3116
874.464	3195
874.593	3386
874.722	3298
874.851	3420
874.979	3386
875.108	3291
875.237	3222
875.365	3222
875.494	3180
875.623	3283
875.751	3108
875.88	3146
876.008	3195
876.136	3253
876.265	3412
876.393	3488
876.521	3397
876.65	3431
876.778	3355
876.906	3260
877.034	3203
877.162	3233
877.29	3237
877.418	3264
877.546	3245
877.674	3249
877.802	3249
877.93	3233
878.058	3192
878.185	3138
878.313	3214
878.441	3222
878.568	3039
878.696	3146
878.824	3264
878.951	3325
879.079	3428
879.206	3614
879.333	3447
879.461	3329
879.588	3412
879.715	3507
879.842	3614
879.97	3412
880.097	3173
880.224	3176
880.351	3184
880.478	3233
880.605	3214
880.732	3207
880.859	3526
880.986	3306
881.112	3340
881.239	3207
881.366	3108
881.493	3043
881.619	3077
881.746	3093
881.872	3100
881.999	3089
882.125	3180
882.252	3268
882.378	3310
882.505	3485
882.631	3298
882.757	3131
882.883	3264
883.01	3264
883.136	3176
883.262	3123
883.388	3131
883.514	3298
883.64	3412
883.766	3313
883.892	3218
884.018	3241
884.143	3420
884.269	3542
884.395	3214
884.52	3218
884.646	3199
884.772	3165
884.897	3119
885.023	3256
885.148	3370
885.274	3435
885.399	3378
885.524	3287
885.65	3291
885.775	3279
885.9	3294
886.025	3431
886.15	3363
886.275	3298
886.4	3272
886.525	3310
886.65	3287
886.775	3275
886.9	3485
887.025	3641
887.149	3378
887.274	3268
887.399	3180
887.523	3195
887.648	3241
887.773	3249
887.897	3386
888.021	3393
888.146	3272
888.27	3458
888.395	3538
888.519	3458
888.643	3435
888.767	3469
888.891	3321
889.015	3245
889.139	3283
889.263	3275
889.387	3450
889.511	3519
889.635	3473
889.759	3291
889.883	3302
890.006	3439
890.13	3530
890.254	3306
890.377	3325
890.501	3184
890.624	3184
890.748	3287
890.871	3161
890.995	3146
891.118	3062
891.241	3195
891.364	3199
891.488	3344
891.611	3165
891.734	3256
891.857	3287
891.98	3245
892.103	3359
892.226	3291
892.349	3218
892.471	3135
892.594	3264
892.717	3302
892.839	3294
892.962	3310
893.085	3378
893.207	3336
893.33	3176
893.452	3245
893.575	3363
893.697	3287
893.819	3477
893.941	3519
894.064	3450
894.186	3260
894.308	3264
894.43	3492
894.552	3538
894.674	3488
894.796	3260
894.918	3355
895.04	3294
895.161	3439
895.283	3397
895.405	3325
895.526	3393
895.648	3458
895.769	3454
895.891	3443
896.012	3454
896.134	3515
896.255	3420
896.376	3393
896.498	3340
896.619	3462
896.74	3348
896.861	3409
896.982	3675
897.103	3835
897.224	3587
897.345	3515
897.466	3428
897.587	3519
897.708	3622
897.828	3549
897.949	3469
898.07	3317
898.19	3409
898.311	3587
898.431	3466
898.552	3606
898.672	3564
898.792	3595
898.913	3564
899.033	3420
899.153	3306
899.273	3233
899.393	3287
899.513	3329
899.633	3344
899.753	3329
899.873	3344
899.993	3401
900.113	3359
900.232	3424
900.352	3355
900.472	3306
900.591	3233
900.711	3325
900.83	3268
900.95	3405
901.069	3538
901.189	3310
901.308	3188
901.427	3131
901.546	3199
901.665	3294
901.784	3321
901.904	3226
902.023	3192
902.141	3032
902.26	2986
902.379	3154
902.498	3100
902.617	3089
902.735	3222
902.854	3241
902.973	3154
903.091	3017
903.21	3043
903.328	3165
903.446	3135
903.565	3085
903.683	3203
903.801	3154
903.919	3253
904.038	3272
904.156	3195
904.274	3310
904.392	3272
904.51	3317
904.627	3310
904.745	3454
904.863	3481
904.981	3233
905.098	3233
905.216	3245
905.334	3279
905.451	3317
905.569	3336
905.686	3458
905.803	3412
905.921	3283
906.038	3450
906.155	3313
906.272	3268
906.389	3367
906.506	3218
906.623	3249
906.74	3233
906.857	3211
906.974	3279
907.091	3458
907.208	3603
907.324	3485
907.441	3336
907.557	3256
907.674	3268
907.79	3207
907.907	3275
908.023	3424
908.139	3374
908.256	3321
908.372	3412
908.488	3367
908.604	3268
908.72	3264
908.836	3275
908.952	3264
909.068	3310
909.184	3557
909.3	3416
909.415	3549
909.531	3469
909.647	3310
909.762	3268
909.878	3256
909.993	3355
910.108	3348
910.224	3370
910.339	3393
910.454	3310
910.57	3275
910.685	3233
910.8	3599
910.915	3526
911.03	3435
911.145	3279
911.259	3291
911.374	3340
911.489	3237
911.604	3241
911.718	3116
911.833	3176
911.947	3013
912.062	2982
912.176	3203
912.291	3222
912.405	3222
912.519	3447
912.633	3458
912.748	3355
912.862	3272
912.976	3184
913.09	3062
913.204	3138
913.318	3211
913.431	3272
913.545	3370
913.659	3424
913.772	3355
913.886	3237
914	3218
914.113	3382
914.226	3416
914.34	3348
914.453	3241
914.566	3416
914.68	3302
914.793	3306
914.906	3146
915.019	3123
915.132	3100
915.245	3142
915.358	3203
915.47	3253
915.583	3233
915.696	3291
915.809	3412
915.921	3409
916.034	3275
916.146	3253
916.259	3226
916.371	3416
916.483	3374
916.595	3283
916.708	3340
916.82	3344
916.932	3370
917.044	3325
917.156	3340
917.268	3256
917.38	3302
917.491	3310
917.603	3370
917.715	3477
917.826	3454
917.938	3348
918.049	3253
918.161	3409
918.272	3553
918.384	3568
918.495	3462
918.606	3313
918.717	3260
918.828	3370
918.939	3439
919.05	3344
919.161	3386
919.272	3203
919.383	3264
919.494	3504
919.604	3705
919.715	3481
919.826	3416
919.936	3477
920.047	3572
920.157	3584
920.267	3797
920.378	3618
920.488	3568
920.598	3785
920.708	3941
920.818	3861
920.928	3846
921.038	4017
921.148	4082
921.258	3698
921.368	3606
921.477	3599
921.587	3553
921.697	3450
921.806	3587
921.916	3496
922.025	3332
922.134	3378
922.244	3302
922.353	3473
922.462	3279
922.571	3226
922.68	3127
922.789	3070
922.898	3135
923.007	3100
923.116	3218
923.224	3214
923.333	3188
923.442	3146
923.55	3108
923.659	3123
923.767	3211
923.876	3131
923.984	3237
924.092	3146
924.201	3226
924.309	3241
924.417	3237
924.525	3203
924.633	3226
924.741	4181
924.849	3047
924.956	3237
925.064	3100
925.172	3036
925.279	3085
925.387	3211
925.494	3184
925.602	3363
925.709	3355
925.816	3233
925.924	3283
926.031	3374
926.138	3317
926.245	3344
926.352	3287
926.459	3405
926.566	3488
926.673	3275
926.779	3237
926.886	3268
926.993	3165
927.099	3157
927.206	3116
927.312	3138
927.419	3222
927.525	3192
927.631	3249
927.737	3157
927.843	3104
927.95	3047
928.056	3135
928.162	3146
928.267	3241
928.373	3785
928.479	3256
928.585	3058
928.69	3214
928.796	3241
928.901	3188
929.007	3047
929.112	3218
929.218	3184
929.323	3157
929.428	3131
929.533	3332
929.638	3081
929.743	3230
929.848	3237
929.953	3233
930.058	3135
930.163	3005
930.267	3028
930.372	3211
930.477	3024
930.581	3332
930.685	3176
930.79	3043
930.894	3119
930.998	3081
931.103	3268
931.207	2998
931.311	2963
931.415	2899
931.519	2739
931.623	2800
