Data from test_V78500241_297.txt Node
Date: Fri Mar 25 16:17:15 CST 2022
User: usil
Spectrometer: V785-0024
Trigger mode: 0
Integration Time (sec): 4.000000E-1
Scans to average: 1
Nonlinearity correction enabled: false
Boxcar width: 0
Storing dark spectrum: false
XAxis mode: Wavelengths
Number of Pixels in Spectrum: 1024
>>>>>Begin Spectral Data<<<<<
801.071	2918
801.214	2937
801.356	2876
801.499	2880
801.641	2876
801.783	2868
801.926	2990
802.068	3005
802.211	2963
802.353	3039
802.496	2979
802.638	3001
802.78	3047
802.923	3093
803.065	2990
803.208	2914
803.35	2922
803.492	2944
803.635	2906
803.777	2815
803.919	2857
804.061	3165
804.204	2929
804.346	2925
804.488	2876
804.63	2941
804.773	2861
804.915	2937
805.057	3055
805.199	2944
805.341	2979
805.483	3020
805.626	2998
805.768	2948
805.91	3062
806.052	3135
806.194	3017
806.336	3211
806.478	3028
806.62	2925
806.762	2960
806.904	3028
807.046	3176
807.188	2963
807.33	2933
807.472	3013
807.614	2948
807.756	2990
807.898	2895
808.04	2914
808.182	2986
808.324	2929
808.465	2929
808.607	2845
808.749	2796
808.891	2830
809.033	2982
809.174	2960
809.316	2906
809.458	2899
809.6	2754
809.741	2769
809.883	2769
810.025	2853
810.166	2842
810.308	2838
810.45	2815
810.591	2769
810.733	2792
810.875	2819
811.016	2758
811.158	2769
811.299	2826
811.441	2929
811.582	2880
811.724	2807
811.865	2796
812.007	2891
812.148	2838
812.29	2830
812.431	2899
812.573	2937
812.714	2937
812.855	3013
812.997	3047
813.138	3089
813.279	2963
813.421	3020
813.562	2948
813.703	2861
813.845	2914
813.986	2777
814.127	2743
814.268	2807
814.41	2807
814.551	2842
814.692	2872
814.833	2857
814.974	2883
815.115	2906
815.256	2838
815.397	2830
815.539	2864
815.68	2769
815.821	2796
815.962	2979
816.103	2933
816.244	2853
816.385	2891
816.526	2979
816.666	2883
816.807	2754
816.948	2906
817.089	2914
817.23	2876
817.371	2781
817.512	2781
817.653	2842
817.793	2838
817.934	2910
818.075	3013
818.216	2963
818.356	3009
818.497	2910
818.638	2788
818.778	2838
818.919	2815
819.06	2773
819.2	2899
819.341	2811
819.481	2781
819.622	2929
819.762	3119
819.903	3020
820.043	2914
820.184	2906
820.324	2895
820.465	2990
820.605	3009
820.746	3005
820.886	2975
821.026	3104
821.167	3154
821.307	3264
821.447	3260
821.588	3264
821.728	3131
821.868	3214
822.008	3077
822.149	3138
822.289	3245
822.429	3104
822.569	3100
822.709	3184
822.849	3005
822.99	3047
823.13	3138
823.27	3214
823.41	3135
823.55	3154
823.69	3173
823.83	3184
823.97	3116
824.11	3005
824.25	3039
824.389	3058
824.529	3074
824.669	3070
824.809	3233
824.949	3302
825.089	3211
825.228	3195
825.368	3001
825.508	2941
825.648	2941
825.787	3017
825.927	3055
826.067	2952
826.206	2937
826.346	3055
826.485	3077
826.625	3119
826.765	3268
826.904	3192
827.044	2960
827.183	2948
827.323	2868
827.462	2975
827.601	2902
827.741	2941
827.88	2952
828.02	2815
828.159	2975
828.298	3032
828.437	3104
828.577	3020
828.716	3241
828.855	3070
828.994	2891
829.134	2880
829.273	2937
829.412	2849
829.551	2864
829.69	2876
829.829	2979
829.968	3123
830.107	3001
830.246	3009
830.385	2922
830.524	2880
830.663	2796
830.802	2716
830.941	2667
831.08	2648
831.219	2750
831.357	2773
831.496	2937
831.635	2682
831.774	2648
831.913	2663
832.051	2579
832.19	2564
832.329	2697
832.467	2507
832.606	2511
832.744	2598
832.883	2590
833.022	2587
833.16	2674
833.299	2678
833.437	2693
833.576	2701
833.714	2712
833.852	2731
833.991	2758
834.129	2800
834.267	2819
834.406	2815
834.544	2868
834.682	2902
834.821	2861
834.959	3085
835.097	2891
835.235	3058
835.373	3005
835.511	3024
835.65	2918
835.788	2956
835.926	2838
836.064	2777
836.202	2800
836.34	3081
836.478	3169
836.615	3081
836.753	3138
836.891	3207
837.029	3161
837.167	3123
837.305	3085
837.443	3024
837.58	2956
837.718	3097
837.856	3089
837.993	3017
838.131	3142
838.269	3085
838.406	3089
838.544	3097
838.681	2948
838.819	2918
838.956	2838
839.094	2823
839.231	2902
839.369	3017
839.506	3378
839.643	3211
839.781	2998
839.918	2960
840.055	3013
840.193	3028
840.33	3051
840.467	3097
840.604	3135
840.742	3370
840.879	3039
841.016	3039
841.153	3112
841.29	3329
841.427	3260
841.564	3272
841.701	3332
841.838	3226
841.975	3165
842.112	3214
842.249	3043
842.385	3009
842.522	3237
842.659	3070
842.796	3055
842.933	3135
843.069	3039
843.206	3039
843.343	3165
843.479	3119
843.616	3138
843.752	2868
843.889	2861
844.025	3066
844.162	2880
844.298	3097
844.435	2925
844.571	2929
844.708	3055
844.844	3199
844.98	3264
845.117	3157
845.253	3039
845.389	3036
845.525	3089
845.661	3081
845.798	3005
845.934	3138
846.07	3001
846.206	3233
846.342	3325
846.478	3195
846.614	3062
846.75	3020
846.886	3005
847.022	3264
847.158	3146
847.294	3192
847.429	3237
847.565	3222
847.701	3450
847.837	2979
847.972	2967
848.108	3131
848.244	3165
848.379	3005
848.515	2948
848.65	2922
848.786	2979
848.921	2979
849.057	3135
849.192	3154
849.328	3089
849.463	3074
849.598	3085
849.734	3028
849.869	2963
850.004	2906
850.14	2960
850.275	2918
850.41	2838
850.545	2864
850.68	2979
850.815	2933
850.95	2941
851.085	3207
851.22	3150
851.355	3024
851.49	2975
851.625	2952
851.76	2982
851.895	2929
852.03	2941
852.165	3001
852.299	3104
852.434	3146
852.569	3157
852.703	3157
852.838	3245
852.973	3321
853.107	3302
853.242	3112
853.376	3112
853.511	2960
853.645	3017
853.78	3241
853.914	3116
854.048	3104
854.183	3070
854.317	3131
854.451	3279
854.585	3131
854.72	3077
854.854	3203
854.988	3039
855.122	3104
855.256	2956
855.39	3104
855.524	3241
855.658	3157
855.792	3154
855.926	3154
856.06	3203
856.194	3245
856.327	3157
856.461	3058
856.595	3081
856.729	3047
856.862	3260
856.996	3150
857.13	3188
857.263	3272
857.397	3260
857.53	3127
857.664	3131
857.797	3214
857.931	3233
858.064	3116
858.197	3161
858.331	3074
858.464	3081
858.597	3001
858.731	3127
858.864	3093
858.997	3085
859.13	3161
859.263	3150
859.396	3195
859.529	3074
859.662	3047
859.795	3032
859.928	3135
860.061	3211
860.194	3302
860.327	3085
860.46	3123
860.592	3218
860.725	3222
860.858	3249
860.99	3081
861.123	3074
861.256	3055
861.388	3104
861.521	3846
861.653	2998
861.786	2967
861.918	2986
862.05	3097
862.183	3081
862.315	3188
862.447	3230
862.58	3039
862.712	2906
862.844	2864
862.976	3009
863.108	2971
863.24	3275
863.372	2891
863.504	2986
863.636	2922
863.768	3024
863.9	2986
864.032	2891
864.164	2941
864.296	2956
864.428	3066
864.559	3051
864.691	3062
864.823	3074
864.954	3020
865.086	3032
865.217	2963
865.349	2963
865.48	2990
865.612	3013
865.743	3154
865.875	2971
866.006	2902
866.137	2986
866.269	2925
866.4	2914
866.531	2937
866.662	2876
866.793	2876
866.924	2914
867.055	2960
867.186	2914
867.317	2906
867.448	2845
867.579	2845
867.71	2853
867.841	2807
867.972	2929
868.103	2929
868.233	2929
868.364	2842
868.495	2902
868.625	3085
868.756	3154
868.886	2994
869.017	2994
869.147	3112
869.278	3165
869.408	3036
869.539	3020
869.669	3123
869.799	3051
869.929	3127
870.06	3127
870.19	3367
870.32	3329
870.45	3310
870.58	3386
870.71	3500
870.84	3492
870.97	3313
871.1	3294
871.23	3519
871.36	3500
871.489	3370
871.619	3428
871.749	3454
871.879	3477
872.008	3511
872.138	3355
872.267	3336
872.397	3138
872.526	3188
872.656	3036
872.785	3142
872.915	3268
873.044	3359
873.173	3275
873.303	3317
873.432	3260
873.561	3287
873.69	3184
873.819	3237
873.948	3222
874.077	3127
874.206	3074
874.335	3138
874.464	3260
874.593	3386
874.722	3279
874.851	3424
874.979	3351
875.108	3336
875.237	3253
875.365	3199
875.494	3226
875.623	3302
875.751	3127
875.88	3131
876.008	3233
876.136	3294
876.265	3386
876.393	3530
876.521	3443
876.65	3409
876.778	3397
876.906	3317
877.034	3211
877.162	3275
877.29	3245
877.418	3306
877.546	3294
877.674	3332
877.802	3294
877.93	3256
878.058	3176
878.185	3154
878.313	3230
878.441	3233
878.568	3127
878.696	3165
878.824	3272
878.951	3355
879.079	3462
879.206	3667
879.333	3477
879.461	3348
879.588	3401
879.715	3526
879.842	3641
879.97	3439
880.097	3245
880.224	3203
880.351	3214
880.478	3233
880.605	3222
880.732	3230
880.859	3523
880.986	3359
881.112	3367
881.239	3245
881.366	3142
881.493	3032
881.619	3066
881.746	3127
881.872	3074
881.999	3146
882.125	3154
882.252	3279
882.378	3348
882.505	3454
882.631	3329
882.757	3188
882.883	3207
883.01	3245
883.136	3222
883.262	3108
883.388	3154
883.514	3348
883.64	3424
883.766	3317
883.892	3176
884.018	3279
884.143	3462
884.269	3572
884.395	3233
884.52	3161
884.646	3241
884.772	3169
884.897	3138
885.023	3253
885.148	3344
885.274	3439
885.399	3351
885.524	3317
885.65	3313
885.775	3355
885.9	3306
886.025	3477
886.15	3393
886.275	3332
886.4	3291
886.525	3355
886.65	3344
886.775	3233
886.9	3568
887.025	3675
887.149	3435
887.274	3275
887.399	3249
887.523	3230
887.648	3233
887.773	3207
887.897	3409
888.021	3488
888.146	3367
888.27	3435
888.395	3564
888.519	3458
888.643	3435
888.767	3515
888.891	3321
889.015	3298
889.139	3321
889.263	3279
889.387	3435
889.511	3568
889.635	3511
889.759	3306
889.883	3313
890.006	3416
890.13	3523
890.254	3313
890.377	3393
890.501	3237
890.624	3222
890.748	3355
890.871	3226
890.995	3169
891.118	3081
891.241	3233
891.364	3245
891.488	3344
891.611	3237
891.734	3249
891.857	3283
891.98	3230
892.103	3367
892.226	3313
892.349	3245
892.471	3184
892.594	3256
892.717	3340
892.839	3302
892.962	3325
893.085	3367
893.207	3287
893.33	3165
893.452	3260
893.575	3424
893.697	3306
893.819	3530
893.941	3542
894.064	3477
894.186	3298
894.308	3268
894.43	3523
894.552	3545
894.674	3481
894.796	3321
894.918	3298
895.04	3340
895.161	3466
895.283	3431
895.405	3340
895.526	3389
895.648	3477
895.769	3450
895.891	3466
896.012	3496
896.134	3469
896.255	3439
896.376	3412
896.498	3424
896.619	3466
896.74	3409
896.861	3492
896.982	3705
897.103	3880
897.224	3622
897.345	3542
897.466	3428
897.587	3519
897.708	3663
897.828	3618
897.949	3420
898.07	3348
898.19	3450
898.311	3618
898.431	3477
898.552	3549
898.672	3671
898.792	3591
898.913	3545
899.033	3447
899.153	3344
899.273	3214
899.393	3344
899.513	3306
899.633	3363
899.753	3378
899.873	3370
899.993	3450
900.113	3344
900.232	3416
900.352	3397
900.472	3287
900.591	3253
900.711	3325
900.83	3287
900.95	3462
901.069	3507
901.189	3355
901.308	3195
901.427	3180
901.546	3230
901.665	3275
901.784	3355
901.904	3249
902.023	3173
902.141	3017
902.26	3036
902.379	3165
902.498	3131
902.617	3077
902.735	3256
902.854	3218
902.973	3176
903.091	3055
903.21	3081
903.328	3165
903.446	3176
903.565	3154
903.683	3222
903.801	3169
903.919	3298
904.038	3340
904.156	3214
904.274	3332
904.392	3313
904.51	3317
904.627	3389
904.745	3496
904.863	3530
904.981	3264
905.098	3192
905.216	3275
905.334	3306
905.451	3325
905.569	3325
905.686	3431
905.803	3488
905.921	3291
906.038	3466
906.155	3393
906.272	3298
906.389	3344
906.506	3249
906.623	3306
906.74	3302
906.857	3233
906.974	3260
907.091	3473
907.208	3568
907.324	3477
907.441	3431
907.557	3260
907.674	3283
907.79	3233
907.907	3287
908.023	3401
908.139	3401
908.256	3355
908.372	3431
908.488	3389
908.604	3325
908.72	3283
908.836	3321
908.952	3313
909.068	3378
909.184	3511
909.3	3424
909.415	3534
909.531	3511
909.647	3275
909.762	3321
909.878	3249
909.993	3382
910.108	3386
910.224	3397
910.339	3374
910.454	3389
910.57	3329
910.685	3253
910.8	3587
910.915	3553
911.03	3473
911.145	3294
911.259	3306
911.374	3310
911.489	3245
911.604	3256
911.718	3138
911.833	3161
911.947	3058
912.062	3013
912.176	3195
912.291	3226
912.405	3260
912.519	3443
912.633	3485
912.748	3359
912.862	3291
912.976	3203
913.09	3093
913.204	3165
913.318	3241
913.431	3397
913.545	3344
913.659	3412
913.772	3348
913.886	3253
914	3195
914.113	3405
914.226	3420
914.34	3382
914.453	3211
914.566	3431
914.68	3325
914.793	3313
914.906	3184
915.019	3142
915.132	3100
915.245	3192
915.358	3226
915.47	3192
915.583	3294
915.696	3313
915.809	3412
915.921	3454
916.034	3275
916.146	3302
916.259	3245
916.371	3382
916.483	3428
916.595	3325
916.708	3329
916.82	3351
916.932	3420
917.044	3386
917.156	3378
917.268	3256
917.38	3272
917.491	3332
917.603	3389
917.715	3496
917.826	3481
917.938	3397
918.049	3306
918.161	3439
918.272	3603
918.384	3572
918.495	3515
918.606	3359
918.717	3291
918.828	3416
918.939	3420
919.05	3336
919.161	3386
919.272	3188
919.383	3264
919.494	3511
919.604	3701
919.715	3542
919.826	3443
919.936	3473
920.047	3633
920.157	3576
920.267	3762
920.378	3618
920.488	3568
920.598	3819
920.708	3956
920.818	3831
920.928	3842
921.038	4051
921.148	3994
921.258	3720
921.368	3648
921.477	3603
921.587	3542
921.697	3530
921.806	3591
921.916	3523
922.025	3378
922.134	3374
922.244	3325
922.353	3393
922.462	3272
922.571	3260
922.68	3116
922.789	3093
922.898	3100
923.007	3116
923.116	3226
923.224	3218
923.333	3169
923.442	3093
923.55	3108
923.659	3203
923.767	3218
923.876	3127
923.984	3226
924.092	3127
924.201	3230
924.309	3256
924.417	3298
924.525	3214
924.633	3283
924.741	4246
924.849	3093
924.956	3275
925.064	3131
925.172	3066
925.279	3108
925.387	3207
925.494	3264
925.602	3378
925.709	3363
925.816	3192
925.924	3317
926.031	3363
926.138	3374
926.245	3409
926.352	3268
926.459	3443
926.566	3523
926.673	3370
926.779	3260
926.886	3291
926.993	3180
927.099	3146
927.206	3135
927.312	3135
927.419	3249
927.525	3230
927.631	3302
927.737	3131
927.843	3131
927.95	3032
928.056	3146
928.162	3192
928.267	3260
928.373	3884
928.479	3291
928.585	3097
928.69	3245
928.796	3321
928.901	3176
929.007	3085
929.112	3188
929.218	3222
929.323	3138
929.428	3165
929.533	3325
929.638	3108
929.743	3218
929.848	3275
929.953	3272
930.058	3203
930.163	3017
930.267	3024
930.372	3230
930.477	3028
930.581	3351
930.685	3184
930.79	3089
930.894	3100
930.998	3089
931.103	3298
931.207	2971
931.311	2952
931.415	2922
931.519	2777
931.623	2807
