Data from test_V78500241_1072.txt Node
Date: Fri Mar 25 16:22:37 CST 2022
User: usil
Spectrometer: V785-0024
Trigger mode: 0
Integration Time (sec): 4.000000E-1
Scans to average: 1
Nonlinearity correction enabled: false
Boxcar width: 0
Storing dark spectrum: false
XAxis mode: Wavelengths
Number of Pixels in Spectrum: 1024
>>>>>Begin Spectral Data<<<<<
801.071	2895
801.214	2929
801.356	2872
801.499	2845
801.641	2880
801.783	2937
801.926	3017
802.068	2944
802.211	2986
802.353	3001
802.496	2944
802.638	2994
802.78	3020
802.923	3051
803.065	2986
803.208	2902
803.35	2929
803.492	2933
803.635	2948
803.777	2762
803.919	2838
804.061	3199
804.204	2979
804.346	2899
804.488	2845
804.63	2975
804.773	2895
804.915	2941
805.057	3074
805.199	2895
805.341	2956
805.483	3013
805.626	2998
805.768	2960
805.91	3055
806.052	3104
806.194	3043
806.336	3199
806.478	3043
806.62	2975
806.762	2998
806.904	3089
807.046	3119
807.188	2967
807.33	2929
807.472	2994
807.614	2918
807.756	2982
807.898	2933
808.04	2883
808.182	2956
808.324	2933
808.465	2868
808.607	2857
808.749	2815
808.891	2834
809.033	2967
809.174	2956
809.316	2906
809.458	2864
809.6	2766
809.741	2762
809.883	2720
810.025	2849
810.166	2887
810.308	2838
810.45	2857
810.591	2762
810.733	2777
810.875	2830
811.016	2766
811.158	2769
811.299	2811
811.441	2910
811.582	2891
811.724	2819
811.865	2800
812.007	2910
812.148	2910
812.29	2864
812.431	2887
812.573	2944
812.714	2941
812.855	3039
812.997	3047
813.138	3173
813.279	2994
813.421	2937
813.562	2933
813.703	2864
813.845	2864
813.986	2781
814.127	2724
814.268	2823
814.41	2853
814.551	2826
814.692	2887
814.833	2823
814.974	2899
815.115	2963
815.256	2842
815.397	2800
815.539	2849
815.68	2788
815.821	2785
815.962	2963
816.103	2918
816.244	2823
816.385	2861
816.526	2967
816.666	2887
816.807	2762
816.948	2906
817.089	2914
817.23	2861
817.371	2792
817.512	2804
817.653	2849
817.793	2807
817.934	2899
818.075	2967
818.216	2998
818.356	3039
818.497	2895
818.638	2788
818.778	2838
818.919	2796
819.06	2766
819.2	2895
819.341	2811
819.481	2796
819.622	2918
819.762	3077
819.903	3062
820.043	2918
820.184	2876
820.324	2857
820.465	3005
820.605	3024
820.746	3036
820.886	2918
821.026	3127
821.167	3188
821.307	3256
821.447	3287
821.588	3233
821.728	3203
821.868	3165
822.008	3066
822.149	3180
822.289	3214
822.429	3062
822.569	3070
822.709	3222
822.849	3020
822.99	3081
823.13	3135
823.27	3226
823.41	3108
823.55	3154
823.69	3161
823.83	3192
823.97	3039
824.11	2979
824.25	2986
824.389	3051
824.529	3097
824.669	3036
824.809	3154
824.949	3233
825.089	3207
825.228	3173
825.368	3028
825.508	2979
825.648	2975
825.787	2982
825.927	3043
826.067	2937
826.206	2937
826.346	3009
826.485	3070
826.625	3116
826.765	3249
826.904	3195
827.044	2975
827.183	2922
827.323	2876
827.462	3020
827.601	2914
827.741	2925
827.88	2960
828.02	2868
828.159	2922
828.298	3024
828.437	3085
828.577	3039
828.716	3218
828.855	3089
828.994	2922
829.134	2895
829.273	2914
829.412	2899
829.551	2864
829.69	2876
829.829	2979
829.968	3119
830.107	2982
830.246	3032
830.385	2914
830.524	2872
830.663	2800
830.802	2727
830.941	2640
831.08	2644
831.219	2792
831.357	2746
831.496	2986
831.635	2701
831.774	2644
831.913	2663
832.051	2541
832.19	2564
832.329	2712
832.467	2549
832.606	2488
832.744	2594
832.883	2571
833.022	2598
833.16	2636
833.299	2655
833.437	2716
833.576	2701
833.714	2739
833.852	2682
833.991	2773
834.129	2845
834.267	2834
834.406	2777
834.544	2857
834.682	2845
834.821	2853
834.959	3055
835.097	2883
835.235	3051
835.373	2982
835.511	3036
835.65	2998
835.788	2933
835.926	2864
836.064	2815
836.202	2826
836.34	3043
836.478	3116
836.615	3051
836.753	3116
836.891	3180
837.029	3192
837.167	3097
837.305	3097
837.443	3036
837.58	2948
837.718	3093
837.856	3085
837.993	3055
838.131	3100
838.269	3062
838.406	3062
838.544	3100
838.681	2895
838.819	2906
838.956	2785
839.094	2838
839.231	2906
839.369	3009
839.506	3348
839.643	3214
839.781	3039
839.918	2963
840.055	3055
840.193	3062
840.33	3112
840.467	3066
840.604	3097
840.742	3389
840.879	3020
841.016	3024
841.153	3081
841.29	3332
841.427	3268
841.564	3260
841.701	3310
841.838	3184
841.975	3154
842.112	3203
842.249	3097
842.385	3017
842.522	3241
842.659	3093
842.796	3032
842.933	3085
843.069	3013
843.206	3062
843.343	3192
843.479	3108
843.616	3138
843.752	2883
843.889	2868
844.025	3055
844.162	2887
844.298	3085
844.435	2948
844.571	2880
844.708	3058
844.844	3176
844.98	3291
845.117	3180
845.253	3032
845.389	2994
845.525	3104
845.661	3062
845.798	3020
845.934	3127
846.07	3058
846.206	3214
846.342	3310
846.478	3195
846.614	3039
846.75	3074
846.886	3028
847.022	3222
847.158	3127
847.294	3157
847.429	3241
847.565	3192
847.701	3462
847.837	3028
847.972	2994
848.108	3135
848.244	3138
848.379	2975
848.515	2941
848.65	2948
848.786	2979
848.921	3039
849.057	3100
849.192	3150
849.328	3062
849.463	3108
849.598	3062
849.734	3043
849.869	2982
850.004	2876
850.14	2937
850.275	2937
850.41	2849
850.545	2880
850.68	2941
850.815	2944
850.95	2971
851.085	3180
851.22	3093
851.355	3001
851.49	2982
851.625	2982
851.76	3039
851.895	2925
852.03	2891
852.165	3039
852.299	3142
852.434	3195
852.569	3104
852.703	3176
852.838	3230
852.973	3268
853.107	3336
853.242	3112
853.376	3100
853.511	2952
853.645	3032
853.78	3249
853.914	3119
854.048	3112
854.183	3085
854.317	3142
854.451	3256
854.585	3116
854.72	3093
854.854	3207
854.988	3062
855.122	3036
855.256	2971
855.39	3127
855.524	3226
855.658	3173
855.792	3150
855.926	3195
856.06	3180
856.194	3264
856.327	3176
856.461	3089
856.595	3081
856.729	3119
856.862	3214
856.996	3161
857.13	3195
857.263	3195
857.397	3260
857.53	3127
857.664	3245
857.797	3256
857.931	3230
858.064	3173
858.197	3222
858.331	3100
858.464	3119
858.597	2990
858.731	3123
858.864	3089
858.997	3104
859.13	3157
859.263	3180
859.396	3154
859.529	3070
859.662	3066
859.795	3028
859.928	3169
860.061	3264
860.194	3272
860.327	3135
860.46	3070
860.592	3230
860.725	3241
860.858	3241
860.99	3077
861.123	3062
861.256	3013
861.388	3127
861.521	3762
861.653	3020
861.786	2982
861.918	2994
862.05	3036
862.183	3116
862.315	3142
862.447	3230
862.58	3062
862.712	2929
862.844	2895
862.976	3009
863.108	2998
863.24	3272
863.372	2891
863.504	2986
863.636	2948
863.768	3005
863.9	2960
864.032	2895
864.164	2933
864.296	3043
864.428	3093
864.559	3108
864.691	3055
864.823	3043
864.954	3028
865.086	3028
865.217	3005
865.349	2952
865.48	2982
865.612	3020
865.743	3138
865.875	2960
866.006	2925
866.137	2975
866.269	2948
866.4	2948
866.531	2933
866.662	2876
866.793	2883
866.924	2899
867.055	2944
867.186	2910
867.317	2872
867.448	2819
867.579	2872
867.71	2849
867.841	2811
867.972	2960
868.103	2929
868.233	2872
868.364	2868
868.495	2891
868.625	3097
868.756	3192
868.886	2960
869.017	3013
869.147	3154
869.278	3138
869.408	3028
869.539	3024
869.669	3112
869.799	3058
869.929	3157
870.06	3066
870.19	3313
870.32	3272
870.45	3310
870.58	3329
870.71	3473
870.84	3450
870.97	3313
871.1	3233
871.23	3473
871.36	3405
871.489	3378
871.619	3374
871.749	3462
871.879	3439
872.008	3466
872.138	3386
872.267	3245
872.397	3138
872.526	3085
872.656	3032
872.785	3104
872.915	3222
873.044	3321
873.173	3214
873.303	3237
873.432	3241
873.561	3195
873.69	3127
873.819	3104
873.948	3157
874.077	3116
874.206	3036
874.335	3066
874.464	3226
874.593	3378
874.722	3245
874.851	3420
874.979	3321
875.108	3306
875.237	3211
875.365	3169
875.494	3154
875.623	3241
875.751	3093
875.88	3093
876.008	3188
876.136	3218
876.265	3378
876.393	3504
876.521	3386
876.65	3382
876.778	3359
876.906	3237
877.034	3161
877.162	3214
877.29	3184
877.418	3302
877.546	3256
877.674	3230
877.802	3222
877.93	3233
878.058	3135
878.185	3142
878.313	3184
878.441	3165
878.568	3077
878.696	3119
878.824	3249
878.951	3268
879.079	3447
879.206	3610
879.333	3443
879.461	3336
879.588	3325
879.715	3473
879.842	3584
879.97	3378
880.097	3169
880.224	3116
880.351	3176
880.478	3211
880.605	3188
880.732	3173
880.859	3492
880.986	3279
881.112	3317
881.239	3173
881.366	3074
881.493	3005
881.619	2990
881.746	3089
881.872	3066
881.999	3077
882.125	3157
882.252	3237
882.378	3272
882.505	3428
882.631	3275
882.757	3192
882.883	3180
883.01	3211
883.136	3157
883.262	3089
883.388	3074
883.514	3317
883.64	3367
883.766	3283
883.892	3165
884.018	3214
884.143	3386
884.269	3549
884.395	3184
884.52	3169
884.646	3180
884.772	3142
884.897	3066
885.023	3211
885.148	3325
885.274	3424
885.399	3367
885.524	3272
885.65	3253
885.775	3287
885.9	3253
886.025	3443
886.15	3370
886.275	3287
886.4	3222
886.525	3256
886.65	3241
886.775	3264
886.9	3473
887.025	3637
887.149	3378
887.274	3260
887.399	3150
887.523	3176
887.648	3142
887.773	3180
887.897	3389
888.021	3412
888.146	3317
888.27	3409
888.395	3549
888.519	3454
888.643	3393
888.767	3454
888.891	3260
889.015	3226
889.139	3272
889.263	3241
889.387	3382
889.511	3500
889.635	3469
889.759	3306
889.883	3310
890.006	3412
890.13	3458
890.254	3249
890.377	3306
890.501	3214
890.624	3154
890.748	3291
890.871	3214
890.995	3074
891.118	3077
891.241	3203
891.364	3199
891.488	3298
891.611	3169
891.734	3199
891.857	3294
891.98	3264
892.103	3329
892.226	3275
892.349	3218
892.471	3093
892.594	3230
892.717	3268
892.839	3237
892.962	3272
893.085	3359
893.207	3256
893.33	3173
893.452	3233
893.575	3325
893.697	3199
893.819	3462
893.941	3481
894.064	3454
894.186	3245
894.308	3256
894.43	3412
894.552	3530
894.674	3488
894.796	3294
894.918	3313
895.04	3275
895.161	3439
895.283	3359
895.405	3264
895.526	3355
895.648	3439
895.769	3382
895.891	3469
896.012	3458
896.134	3450
896.255	3386
896.376	3401
896.498	3355
896.619	3386
896.74	3382
896.861	3397
896.982	3682
897.103	3831
897.224	3618
897.345	3473
897.466	3409
897.587	3450
897.708	3637
897.828	3534
897.949	3420
898.07	3321
898.19	3397
898.311	3610
898.431	3420
898.552	3485
898.672	3595
898.792	3572
898.913	3492
899.033	3405
899.153	3256
899.273	3268
899.393	3275
899.513	3310
899.633	3306
899.753	3340
899.873	3310
899.993	3374
900.113	3370
900.232	3401
900.352	3336
900.472	3283
900.591	3195
900.711	3279
900.83	3253
900.95	3431
901.069	3469
901.189	3321
901.308	3173
901.427	3135
901.546	3135
901.665	3302
901.784	3340
901.904	3218
902.023	3150
902.141	3036
902.26	2986
902.379	3138
902.498	3112
902.617	3119
902.735	3211
902.854	3253
902.973	3226
903.091	2998
903.21	3039
903.328	3127
903.446	3112
903.565	3093
903.683	3184
903.801	3100
903.919	3237
904.038	3317
904.156	3161
904.274	3294
904.392	3241
904.51	3302
904.627	3298
904.745	3409
904.863	3488
904.981	3260
905.098	3119
905.216	3253
905.334	3298
905.451	3272
905.569	3313
905.686	3397
905.803	3424
905.921	3291
906.038	3431
906.155	3321
906.272	3302
906.389	3348
906.506	3203
906.623	3249
906.74	3256
906.857	3195
906.974	3249
907.091	3462
907.208	3576
907.324	3492
907.441	3397
907.557	3237
907.674	3241
907.79	3211
907.907	3268
908.023	3378
908.139	3355
908.256	3336
908.372	3336
908.488	3359
908.604	3253
908.72	3241
908.836	3275
908.952	3313
909.068	3340
909.184	3481
909.3	3340
909.415	3469
909.531	3496
909.647	3256
909.762	3275
909.878	3237
909.993	3374
910.108	3283
910.224	3340
910.339	3367
910.454	3321
910.57	3313
910.685	3245
910.8	3580
910.915	3523
911.03	3458
911.145	3241
911.259	3272
911.374	3329
911.489	3241
911.604	3264
911.718	3108
911.833	3116
911.947	3028
912.062	2990
912.176	3157
912.291	3169
912.405	3233
912.519	3469
912.633	3450
912.748	3363
912.862	3249
912.976	3150
913.09	3039
913.204	3142
913.318	3214
913.431	3344
913.545	3317
913.659	3412
913.772	3310
913.886	3233
914	3195
914.113	3336
914.226	3420
914.34	3355
914.453	3176
914.566	3393
914.68	3275
914.793	3336
914.906	3161
915.019	3119
915.132	3116
915.245	3161
915.358	3195
915.47	3245
915.583	3260
915.696	3291
915.809	3431
915.921	3409
916.034	3245
916.146	3272
916.259	3214
916.371	3382
916.483	3367
916.595	3264
916.708	3351
916.82	3306
916.932	3302
917.044	3351
917.156	3313
917.268	3249
917.38	3321
917.491	3272
917.603	3370
917.715	3447
917.826	3462
917.938	3405
918.049	3283
918.161	3409
918.272	3530
918.384	3564
918.495	3469
918.606	3291
918.717	3313
918.828	3374
918.939	3378
919.05	3325
919.161	3443
919.272	3184
919.383	3211
919.494	3534
919.604	3717
919.715	3496
919.826	3393
919.936	3477
920.047	3618
920.157	3534
920.267	3740
920.378	3618
920.488	3561
920.598	3751
920.708	3941
920.818	3850
920.928	3819
921.038	4010
921.148	3983
921.258	3690
921.368	3637
921.477	3576
921.587	3507
921.697	3428
921.806	3618
921.916	3507
922.025	3367
922.134	3401
922.244	3351
922.353	3401
922.462	3268
922.571	3241
922.68	3062
922.789	3085
922.898	3108
923.007	3047
923.116	3214
923.224	3169
923.333	3192
923.442	3123
923.55	3066
923.659	3135
923.767	3222
923.876	3157
923.984	3207
924.092	3051
924.201	3157
924.309	3211
924.417	3211
924.525	3154
924.633	3222
924.741	4173
924.849	3028
924.956	3249
925.064	3123
925.172	3047
925.279	3135
925.387	3176
925.494	3195
925.602	3359
925.709	3332
925.816	3214
925.924	3298
926.031	3363
926.138	3325
926.245	3351
926.352	3253
926.459	3389
926.566	3473
926.673	3310
926.779	3272
926.886	3237
926.993	3131
927.099	3119
927.206	3119
927.312	3074
927.419	3214
927.525	3203
927.631	3253
927.737	3165
927.843	3104
927.95	3009
928.056	3108
928.162	3180
928.267	3237
928.373	3869
928.479	3321
928.585	3028
928.69	3207
928.796	3253
928.901	3173
929.007	3032
929.112	3226
929.218	3184
929.323	3176
929.428	3123
929.533	3291
929.638	3135
929.743	3161
929.848	3264
929.953	3211
930.058	3116
930.163	2998
930.267	3043
930.372	3214
930.477	3043
930.581	3332
930.685	3188
930.79	3070
930.894	3142
930.998	3104
931.103	3275
931.207	2922
931.311	2944
931.415	2918
931.519	2788
931.623	2788
