Data from test_V78500241_606.txt Node
Date: Fri Mar 25 16:19:24 CST 2022
User: usil
Spectrometer: V785-0024
Trigger mode: 0
Integration Time (sec): 4.000000E-1
Scans to average: 1
Nonlinearity correction enabled: false
Boxcar width: 0
Storing dark spectrum: false
XAxis mode: Wavelengths
Number of Pixels in Spectrum: 1024
>>>>>Begin Spectral Data<<<<<
801.071	2937
801.214	2994
801.356	2887
801.499	2887
801.641	2910
801.783	2937
801.926	3058
802.068	2956
802.211	3017
802.353	3020
802.496	2982
802.638	2971
802.78	3043
802.923	3077
803.065	3047
803.208	2925
803.35	2963
803.492	2960
803.635	2956
803.777	2781
803.919	2883
804.061	3161
804.204	2956
804.346	2902
804.488	2815
804.63	2998
804.773	2853
804.915	2895
805.057	3070
805.199	2952
805.341	3005
805.483	3047
805.626	3028
805.768	3001
805.91	3077
806.052	3097
806.194	3039
806.336	3218
806.478	3062
806.62	2963
806.762	2990
806.904	3127
807.046	3154
807.188	2994
807.33	2899
807.472	2990
807.614	2937
807.756	2963
807.898	2952
808.04	2902
808.182	2952
808.324	2979
808.465	2864
808.607	2883
808.749	2807
808.891	2868
809.033	2990
809.174	2967
809.316	2929
809.458	2891
809.6	2777
809.741	2785
809.883	2788
810.025	2861
810.166	2887
810.308	2876
810.45	2864
810.591	2785
810.733	2777
810.875	2838
811.016	2777
811.158	2800
811.299	2842
811.441	2922
811.582	2906
811.724	2845
811.865	2845
812.007	2929
812.148	2880
812.29	2849
812.431	2891
812.573	2948
812.714	2971
812.855	3070
812.997	3077
813.138	3116
813.279	3024
813.421	2982
813.562	2952
813.703	2883
813.845	2956
813.986	2785
814.127	2773
814.268	2823
814.41	2861
814.551	2819
814.692	2899
814.833	2826
814.974	2914
815.115	2944
815.256	2857
815.397	2834
815.539	2872
815.68	2781
815.821	2800
815.962	2918
816.103	2925
816.244	2891
816.385	2876
816.526	3032
816.666	2933
816.807	2724
816.948	2910
817.089	2925
817.23	2842
817.371	2746
817.512	2842
817.653	2864
817.793	2823
817.934	2891
818.075	2986
818.216	3013
818.356	3005
818.497	2887
818.638	2769
818.778	2834
818.919	2800
819.06	2781
819.2	2864
819.341	2811
819.481	2792
819.622	2929
819.762	3100
819.903	3051
820.043	2948
820.184	2918
820.324	2895
820.465	3036
820.605	3013
820.746	3020
820.886	2941
821.026	3138
821.167	3146
821.307	3283
821.447	3253
821.588	3233
821.728	3226
821.868	3207
822.008	3123
822.149	3188
822.289	3268
822.429	3077
822.569	3077
822.709	3157
822.849	3013
822.99	3070
823.13	3165
823.27	3211
823.41	3093
823.55	3161
823.69	3184
823.83	3199
823.97	3089
824.11	2982
824.25	3036
824.389	3070
824.529	3150
824.669	3066
824.809	3154
824.949	3272
825.089	3222
825.228	3154
825.368	3017
825.508	2944
825.648	2941
825.787	3020
825.927	3028
826.067	2982
826.206	2963
826.346	3062
826.485	3074
826.625	3119
826.765	3279
826.904	3249
827.044	3005
827.183	2956
827.323	2872
827.462	2982
827.601	2918
827.741	2948
827.88	2975
828.02	2899
828.159	2979
828.298	3005
828.437	3123
828.577	3009
828.716	3279
828.855	3104
828.994	2933
829.134	2868
829.273	2918
829.412	2861
829.551	2864
829.69	2910
829.829	3001
829.968	3123
830.107	2994
830.246	3055
830.385	2902
830.524	2880
830.663	2819
830.802	2731
830.941	2651
831.08	2670
831.219	2750
831.357	2773
831.496	2948
831.635	2724
831.774	2659
831.913	2659
832.051	2568
832.19	2575
832.329	2701
832.467	2541
832.606	2442
832.744	2579
832.883	2602
833.022	2598
833.16	2629
833.299	2678
833.437	2693
833.576	2701
833.714	2735
833.852	2743
833.991	2762
834.129	2857
834.267	2815
834.406	2792
834.544	2895
834.682	2883
834.821	2880
834.959	3047
835.097	2880
835.235	3089
835.373	3017
835.511	3017
835.65	2948
835.788	2960
835.926	2815
836.064	2804
836.202	2823
836.34	3100
836.478	3131
836.615	3024
836.753	3142
836.891	3218
837.029	3150
837.167	3154
837.305	3047
837.443	3055
837.58	2944
837.718	3116
837.856	3081
837.993	3058
838.131	3116
838.269	3100
838.406	3089
838.544	3085
838.681	2918
838.819	2925
838.956	2800
839.094	2838
839.231	2956
839.369	3024
839.506	3370
839.643	3256
839.781	2986
839.918	2967
840.055	3039
840.193	3043
840.33	3100
840.467	3081
840.604	3135
840.742	3397
840.879	3051
841.016	3074
841.153	3112
841.29	3313
841.427	3291
841.564	3237
841.701	3325
841.838	3226
841.975	3142
842.112	3199
842.249	3043
842.385	3036
842.522	3256
842.659	3112
842.796	3077
842.933	3100
843.069	3024
843.206	3066
843.343	3203
843.479	3112
843.616	3199
843.752	2899
843.889	2891
844.025	3081
844.162	2861
844.298	3093
844.435	2914
844.571	2868
844.708	3055
844.844	3169
844.98	3256
845.117	3169
845.253	3062
845.389	2998
845.525	3077
845.661	3104
845.798	2994
845.934	3104
846.07	3051
846.206	3184
846.342	3283
846.478	3211
846.614	3077
846.75	3070
846.886	3062
847.022	3241
847.158	3131
847.294	3222
847.429	3233
847.565	3188
847.701	3488
847.837	2998
847.972	3005
848.108	3150
848.244	3138
848.379	2986
848.515	2937
848.65	2922
848.786	2982
848.921	2986
849.057	3093
849.192	3108
849.328	3077
849.463	3116
849.598	3036
849.734	3036
849.869	3009
850.004	2857
850.14	2956
850.275	2914
850.41	2845
850.545	2845
850.68	2918
850.815	2960
850.95	2956
851.085	3169
851.22	3119
851.355	3024
851.49	2963
851.625	2967
851.76	2986
851.895	2937
852.03	2902
852.165	3032
852.299	3123
852.434	3176
852.569	3157
852.703	3176
852.838	3249
852.973	3359
853.107	3344
853.242	3146
853.376	3138
853.511	2944
853.645	3024
853.78	3237
853.914	3112
854.048	3100
854.183	3127
854.317	3188
854.451	3294
854.585	3188
854.72	3119
854.854	3207
854.988	3085
855.122	3131
855.256	2994
855.39	3150
855.524	3253
855.658	3157
855.792	3195
855.926	3188
856.06	3264
856.194	3306
856.327	3169
856.461	3070
856.595	3100
856.729	3135
856.862	3264
856.996	3184
857.13	3214
857.263	3279
857.397	3306
857.53	3142
857.664	3222
857.797	3298
857.931	3287
858.064	3211
858.197	3294
858.331	3173
858.464	3119
858.597	3036
858.731	3165
858.864	3135
858.997	3138
859.13	3207
859.263	3195
859.396	3195
859.529	3131
859.662	3108
859.795	3077
859.928	3169
860.061	3329
860.194	3321
860.327	3180
860.46	3150
860.592	3272
860.725	3317
860.858	3291
860.99	3154
861.123	3104
861.256	3093
861.388	3176
861.521	3804
861.653	3074
861.786	3066
861.918	3036
862.05	3142
862.183	3146
862.315	3195
862.447	3256
862.58	3146
862.712	2963
862.844	2910
862.976	3066
863.108	3028
863.24	3477
863.372	2906
863.504	2944
863.636	3036
863.768	3070
863.9	3032
864.032	2925
864.164	2982
864.296	3051
864.428	3112
864.559	3116
864.691	3116
864.823	3093
864.954	3039
865.086	3074
865.217	3020
865.349	2979
865.48	3039
865.612	3017
865.743	3138
865.875	2998
866.006	2971
866.137	3020
866.269	2971
866.4	2963
866.531	2963
866.662	2941
866.793	2948
866.924	2880
867.055	2979
867.186	2975
867.317	2933
867.448	2883
867.579	2891
867.71	2906
867.841	2857
867.972	2899
868.103	2944
868.233	2925
868.364	2895
868.495	2963
868.625	3123
868.756	3184
868.886	2998
869.017	3024
869.147	3218
869.278	3226
869.408	3058
869.539	3070
869.669	3150
869.799	3085
869.929	3169
870.06	3165
870.19	3359
870.32	3298
870.45	3329
870.58	3401
870.71	3511
870.84	3469
870.97	3317
871.1	3249
871.23	3553
871.36	3447
871.489	3370
871.619	3424
871.749	3454
871.879	3405
872.008	3534
872.138	3405
872.267	3313
872.397	3180
872.526	3135
872.656	3051
872.785	3154
872.915	3253
873.044	3348
873.173	3256
873.303	3291
873.432	3283
873.561	3260
873.69	3188
873.819	3214
873.948	3195
874.077	3146
874.206	3070
874.335	3123
874.464	3226
874.593	3409
874.722	3272
874.851	3431
874.979	3386
875.108	3359
875.237	3264
875.365	3211
875.494	3188
875.623	3241
875.751	3127
875.88	3127
876.008	3233
876.136	3211
876.265	3397
876.393	3530
876.521	3431
876.65	3363
876.778	3344
876.906	3272
877.034	3245
877.162	3249
877.29	3195
877.418	3310
877.546	3256
877.674	3260
877.802	3253
877.93	3226
878.058	3192
878.185	3138
878.313	3249
878.441	3192
878.568	3146
878.696	3211
878.824	3283
878.951	3317
879.079	3462
879.206	3671
879.333	3447
879.461	3393
879.588	3397
879.715	3526
879.842	3610
879.97	3389
880.097	3195
880.224	3165
880.351	3192
880.478	3237
880.605	3268
880.732	3222
880.859	3481
880.986	3302
881.112	3359
881.239	3222
881.366	3150
881.493	3062
881.619	3001
881.746	3089
881.872	3108
881.999	3119
882.125	3173
882.252	3253
882.378	3287
882.505	3462
882.631	3321
882.757	3142
882.883	3233
883.01	3275
883.136	3222
883.262	3112
883.388	3138
883.514	3367
883.64	3378
883.766	3351
883.892	3233
884.018	3272
884.143	3447
884.269	3568
884.395	3211
884.52	3199
884.646	3199
884.772	3161
884.897	3157
885.023	3226
885.148	3348
885.274	3473
885.399	3393
885.524	3321
885.65	3256
885.775	3348
885.9	3351
886.025	3439
886.15	3412
886.275	3302
886.4	3249
886.525	3287
886.65	3287
886.775	3313
886.9	3530
887.025	3660
887.149	3428
887.274	3279
887.399	3230
887.523	3253
887.648	3214
887.773	3230
887.897	3424
888.021	3450
888.146	3283
888.27	3462
888.395	3564
888.519	3504
888.643	3469
888.767	3507
888.891	3344
889.015	3264
889.139	3294
889.263	3275
889.387	3412
889.511	3542
889.635	3488
889.759	3325
889.883	3348
890.006	3382
890.13	3496
890.254	3291
890.377	3332
890.501	3180
890.624	3226
890.748	3321
890.871	3218
890.995	3097
891.118	3077
891.241	3207
891.364	3218
891.488	3321
891.611	3218
891.734	3268
891.857	3336
891.98	3272
892.103	3325
892.226	3317
892.349	3218
892.471	3127
892.594	3253
892.717	3332
892.839	3310
892.962	3344
893.085	3405
893.207	3302
893.33	3161
893.452	3237
893.575	3363
893.697	3260
893.819	3488
893.941	3549
894.064	3466
894.186	3260
894.308	3298
894.43	3481
894.552	3564
894.674	3500
894.796	3268
894.918	3351
895.04	3302
895.161	3473
895.283	3416
895.405	3310
895.526	3336
895.648	3439
895.769	3454
895.891	3492
896.012	3519
896.134	3488
896.255	3458
896.376	3401
896.498	3374
896.619	3431
896.74	3378
896.861	3401
896.982	3682
897.103	3819
897.224	3595
897.345	3538
897.466	3450
897.587	3530
897.708	3625
897.828	3530
897.949	3488
898.07	3313
898.19	3439
898.311	3610
898.431	3469
898.552	3496
898.672	3591
898.792	3614
898.913	3504
899.033	3428
899.153	3310
899.273	3237
899.393	3302
899.513	3332
899.633	3382
899.753	3363
899.873	3313
899.993	3409
900.113	3321
900.232	3382
900.352	3363
900.472	3310
900.591	3249
900.711	3359
900.83	3241
900.95	3439
901.069	3519
901.189	3363
901.308	3154
901.427	3169
901.546	3249
901.665	3313
901.784	3344
901.904	3218
902.023	3184
902.141	3028
902.26	3028
902.379	3192
902.498	3093
902.617	3097
902.735	3214
902.854	3211
902.973	3218
903.091	3104
903.21	3100
903.328	3173
903.446	3104
903.565	3097
903.683	3195
903.801	3146
903.919	3287
904.038	3287
904.156	3203
904.274	3302
904.392	3272
904.51	3279
904.627	3313
904.745	3462
904.863	3488
904.981	3272
905.098	3207
905.216	3218
905.334	3287
905.451	3351
905.569	3302
905.686	3435
905.803	3477
905.921	3279
906.038	3458
906.155	3363
906.272	3245
906.389	3348
906.506	3283
906.623	3294
906.74	3249
906.857	3241
906.974	3264
907.091	3454
907.208	3614
907.324	3485
907.441	3393
907.557	3260
907.674	3241
907.79	3253
907.907	3310
908.023	3409
908.139	3389
908.256	3306
908.372	3401
908.488	3378
908.604	3264
908.72	3306
908.836	3325
908.952	3294
909.068	3321
909.184	3477
909.3	3409
909.415	3485
909.531	3466
909.647	3287
909.762	3306
909.878	3260
909.993	3405
910.108	3344
910.224	3340
910.339	3409
910.454	3374
910.57	3321
910.685	3226
910.8	3625
910.915	3545
911.03	3439
911.145	3268
911.259	3260
911.374	3325
911.489	3233
911.604	3230
911.718	3173
911.833	3146
911.947	3081
912.062	2998
912.176	3169
912.291	3203
912.405	3237
912.519	3458
912.633	3492
912.748	3355
912.862	3298
912.976	3161
913.09	3127
913.204	3131
913.318	3264
913.431	3325
913.545	3359
913.659	3409
913.772	3344
913.886	3192
914	3218
914.113	3351
914.226	3447
914.34	3397
914.453	3222
914.566	3412
914.68	3283
914.793	3344
914.906	3165
915.019	3127
915.132	3085
915.245	3184
915.358	3218
915.47	3245
915.583	3317
915.696	3294
915.809	3401
915.921	3435
916.034	3275
916.146	3272
916.259	3214
916.371	3374
916.483	3374
916.595	3283
916.708	3370
916.82	3370
916.932	3351
917.044	3351
917.156	3367
917.268	3279
917.38	3298
917.491	3298
917.603	3389
917.715	3473
917.826	3492
917.938	3409
918.049	3302
918.161	3428
918.272	3549
918.384	3622
918.495	3500
918.606	3344
918.717	3321
918.828	3363
918.939	3409
919.05	3306
919.161	3386
919.272	3173
919.383	3279
919.494	3492
919.604	3679
919.715	3454
919.826	3416
919.936	3477
920.047	3637
920.157	3549
920.267	3785
920.378	3618
920.488	3584
920.598	3800
920.708	4002
920.818	3804
920.928	3854
921.038	3991
921.148	3972
921.258	3736
921.368	3667
921.477	3584
921.587	3542
921.697	3469
921.806	3648
921.916	3523
922.025	3355
922.134	3351
922.244	3317
922.353	3473
922.462	3233
922.571	3218
922.68	3119
922.789	3055
922.898	3157
923.007	3116
923.116	3237
923.224	3176
923.333	3176
923.442	3089
923.55	3108
923.659	3127
923.767	3230
923.876	3119
923.984	3264
924.092	3051
924.201	3218
924.309	3207
924.417	3245
924.525	3165
924.633	3253
924.741	4029
924.849	3039
924.956	3272
925.064	3097
925.172	3074
925.279	3100
925.387	3214
925.494	3226
925.602	3344
925.709	3313
925.816	3195
925.924	3283
926.031	3370
926.138	3321
926.245	3363
926.352	3291
926.459	3431
926.566	3500
926.673	3370
926.779	3249
926.886	3279
926.993	3180
927.099	3123
927.206	3131
927.312	3112
927.419	3230
927.525	3199
927.631	3245
927.737	3146
927.843	3127
927.95	3047
928.056	3127
928.162	3176
928.267	3237
928.373	3797
928.479	3336
928.585	3077
928.69	3218
928.796	3249
928.901	3161
929.007	3039
929.112	3211
929.218	3199
929.323	3146
929.428	3142
929.533	3313
929.638	3123
929.743	3138
929.848	3237
929.953	3233
930.058	3161
930.163	3017
930.267	3036
930.372	3195
930.477	3009
930.581	3367
930.685	3127
930.79	3051
930.894	3119
930.998	3157
931.103	3253
931.207	2960
931.311	2979
931.415	2937
931.519	2788
931.623	2826
