Data from test_V78500241_1896.txt Node
Date: Fri Mar 25 16:28:20 CST 2022
User: usil
Spectrometer: V785-0024
Trigger mode: 0
Integration Time (sec): 4.000000E-1
Scans to average: 1
Nonlinearity correction enabled: false
Boxcar width: 0
Storing dark spectrum: false
XAxis mode: Wavelengths
Number of Pixels in Spectrum: 1024
>>>>>Begin Spectral Data<<<<<
801.071	2910
801.214	2902
801.356	2868
801.499	2910
801.641	2853
801.783	2895
801.926	3028
802.068	3020
802.211	3017
802.353	3020
802.496	2986
802.638	3013
802.78	3062
802.923	3097
803.065	3032
803.208	2902
803.35	2914
803.492	2925
803.635	2929
803.777	2781
803.919	2823
804.061	3192
804.204	2998
804.346	2906
804.488	2838
804.63	2963
804.773	2868
804.915	2902
805.057	3104
805.199	2891
805.341	2952
805.483	3043
805.626	3039
805.768	2929
805.91	3074
806.052	3085
806.194	3055
806.336	3230
806.478	3055
806.62	2941
806.762	3009
806.904	3036
807.046	3131
807.188	2982
807.33	2925
807.472	2990
807.614	2948
807.756	2971
807.898	2929
808.04	2899
808.182	2998
808.324	2941
808.465	2864
808.607	2872
808.749	2800
808.891	2811
809.033	2948
809.174	2956
809.316	2868
809.458	2906
809.6	2773
809.741	2762
809.883	2796
810.025	2864
810.166	2857
810.308	2830
810.45	2842
810.591	2750
810.733	2762
810.875	2823
811.016	2792
811.158	2762
811.299	2800
811.441	2910
811.582	2868
811.724	2834
811.865	2811
812.007	2910
812.148	2910
812.29	2826
812.431	2895
812.573	2918
812.714	2975
812.855	3024
812.997	3051
813.138	3119
813.279	3020
813.421	2979
813.562	2956
813.703	2868
813.845	2906
813.986	2769
814.127	2720
814.268	2807
814.41	2815
814.551	2823
814.692	2876
814.833	2823
814.974	2902
815.115	2986
815.256	2830
815.397	2811
815.539	2872
815.68	2769
815.821	2796
815.962	2933
816.103	2899
816.244	2891
816.385	2842
816.526	2956
816.666	2880
816.807	2731
816.948	2853
817.089	2914
817.23	2838
817.371	2750
817.512	2777
817.653	2823
817.793	2830
817.934	2887
818.075	2982
818.216	3005
818.356	3020
818.497	2849
818.638	2788
818.778	2800
818.919	2815
819.06	2750
819.2	2853
819.341	2796
819.481	2800
819.622	2914
819.762	3100
819.903	2982
820.043	2952
820.184	2861
820.324	2914
820.465	3013
820.605	3032
820.746	3013
820.886	2937
821.026	3047
821.167	3135
821.307	3222
821.447	3279
821.588	3211
821.728	3195
821.868	3165
822.008	3070
822.149	3188
822.289	3214
822.429	3112
822.569	3089
822.709	3176
822.849	3043
822.99	3047
823.13	3097
823.27	3184
823.41	3135
823.55	3100
823.69	3108
823.83	3157
823.97	3123
824.11	2986
824.25	2998
824.389	3066
824.529	3100
824.669	3074
824.809	3157
824.949	3275
825.089	3237
825.228	3169
825.368	2994
825.508	2960
825.648	2967
825.787	3039
825.927	3036
826.067	2971
826.206	2956
826.346	3024
826.485	3047
826.625	3077
826.765	3241
826.904	3233
827.044	2998
827.183	2929
827.323	2876
827.462	2990
827.601	2899
827.741	2944
827.88	2975
828.02	2857
828.159	2941
828.298	3013
828.437	3135
828.577	3001
828.716	3230
828.855	3070
828.994	2918
829.134	2925
829.273	2922
829.412	2830
829.551	2853
829.69	2876
829.829	2975
829.968	3089
830.107	3017
830.246	3024
830.385	2929
830.524	2891
830.663	2804
830.802	2708
830.941	2651
831.08	2640
831.219	2754
831.357	2773
831.496	2941
831.635	2708
831.774	2640
831.913	2640
832.051	2541
832.19	2579
832.329	2697
832.467	2503
832.606	2461
832.744	2560
832.883	2594
833.022	2568
833.16	2674
833.299	2674
833.437	2682
833.576	2712
833.714	2705
833.852	2731
833.991	2743
834.129	2842
834.267	2815
834.406	2788
834.544	2872
834.682	2857
834.821	2849
834.959	3036
835.097	2925
835.235	3047
835.373	2982
835.511	2998
835.65	2956
835.788	2906
835.926	2845
836.064	2766
836.202	2830
836.34	3062
836.478	3146
836.615	3024
836.753	3100
836.891	3226
837.029	3161
837.167	3116
837.305	3077
837.443	2986
837.58	2944
837.718	3142
837.856	3043
837.993	3020
838.131	3154
838.269	3112
838.406	3108
838.544	3093
838.681	2914
838.819	2895
838.956	2807
839.094	2811
839.231	2933
839.369	2994
839.506	3348
839.643	3150
839.781	3020
839.918	3009
840.055	3020
840.193	3032
840.33	3058
840.467	3093
840.604	3131
840.742	3370
840.879	3077
841.016	3017
841.153	3123
841.29	3306
841.427	3313
841.564	3241
841.701	3313
841.838	3207
841.975	3127
842.112	3214
842.249	3036
842.385	3039
842.522	3287
842.659	3055
842.796	3020
842.933	3108
843.069	3039
843.206	3047
843.343	3192
843.479	3097
843.616	3135
843.752	2906
843.889	2849
844.025	3058
844.162	2864
844.298	3081
844.435	2937
844.571	2948
844.708	3036
844.844	3199
844.98	3218
845.117	3233
845.253	3017
845.389	3001
845.525	3077
845.661	3093
845.798	2998
845.934	3116
846.07	3062
846.206	3199
846.342	3367
846.478	3207
846.614	3077
846.75	3013
846.886	3024
847.022	3226
847.158	3138
847.294	3165
847.429	3268
847.565	3192
847.701	3492
847.837	2986
847.972	2971
848.108	3161
848.244	3127
848.379	2971
848.515	2937
848.65	2910
848.786	2960
848.921	3005
849.057	3116
849.192	3112
849.328	3077
849.463	3100
849.598	3051
849.734	3017
849.869	2986
850.004	2952
850.14	2971
850.275	2861
850.41	2830
850.545	2895
850.68	2929
850.815	2963
850.95	3005
851.085	3180
851.22	3089
851.355	3009
851.49	3001
851.625	3028
851.76	3020
851.895	2933
852.03	2891
852.165	3032
852.299	3097
852.434	3169
852.569	3161
852.703	3150
852.838	3283
852.973	3329
853.107	3317
853.242	3157
853.376	3108
853.511	2979
853.645	3032
853.78	3207
853.914	3093
854.048	3100
854.183	3077
854.317	3123
854.451	3241
854.585	3131
854.72	3039
854.854	3184
854.988	3028
855.122	3119
855.256	2967
855.39	3116
855.524	3180
855.658	3169
855.792	3138
855.926	3169
856.06	3173
856.194	3226
856.327	3097
856.461	3074
856.595	3043
856.729	3013
856.862	3222
856.996	3154
857.13	3195
857.263	3233
857.397	3237
857.53	3131
857.664	3195
857.797	3241
857.931	3264
858.064	3135
858.197	3207
858.331	3104
858.464	3100
858.597	3036
858.731	3097
858.864	3119
858.997	3093
859.13	3161
859.263	3127
859.396	3199
859.529	3100
859.662	3028
859.795	3043
859.928	3104
860.061	3260
860.194	3272
860.327	3112
860.46	3093
860.592	3207
860.725	3203
860.858	3245
860.99	3100
861.123	3032
861.256	3058
861.388	3131
861.521	3827
861.653	3009
861.786	2963
861.918	2994
862.05	3032
862.183	3123
862.315	3131
862.447	3199
862.58	3081
862.712	2941
862.844	2876
862.976	3032
863.108	2963
863.24	3256
863.372	2891
863.504	2963
863.636	2895
863.768	2990
863.9	2956
864.032	2902
864.164	2979
864.296	2982
864.428	3066
864.559	3085
864.691	3062
864.823	3047
864.954	3024
865.086	3051
865.217	2986
865.349	2929
865.48	2982
865.612	2990
865.743	3157
865.875	2990
866.006	2956
866.137	2960
866.269	2933
866.4	2956
866.531	2910
866.662	2880
866.793	2868
866.924	2872
867.055	2971
867.186	2902
867.317	2838
867.448	2849
867.579	2834
867.71	2845
867.841	2826
867.972	2864
868.103	2861
868.233	2864
868.364	2876
868.495	2902
868.625	3062
868.756	3127
868.886	2948
869.017	3017
869.147	3176
869.278	3161
869.408	3028
869.539	3009
869.669	3085
869.799	3009
869.929	3138
870.06	3116
870.19	3344
870.32	3302
870.45	3317
870.58	3367
870.71	3424
870.84	3435
870.97	3256
871.1	3218
871.23	3458
871.36	3481
871.489	3344
871.619	3409
871.749	3378
871.879	3439
872.008	3477
872.138	3329
872.267	3264
872.397	3127
872.526	3108
872.656	3009
872.785	3108
872.915	3199
873.044	3313
873.173	3207
873.303	3241
873.432	3268
873.561	3199
873.69	3211
873.819	3135
873.948	3211
874.077	3100
874.206	3005
874.335	3104
874.464	3199
874.593	3287
874.722	3264
874.851	3382
874.979	3348
875.108	3294
875.237	3184
875.365	3154
875.494	3157
875.623	3272
875.751	3097
875.88	3123
876.008	3184
876.136	3253
876.265	3359
876.393	3477
876.521	3409
876.65	3367
876.778	3325
876.906	3226
877.034	3222
877.162	3230
877.29	3207
877.418	3241
877.546	3211
877.674	3207
877.802	3249
877.93	3218
878.058	3123
878.185	3081
878.313	3203
878.441	3214
878.568	3077
878.696	3138
878.824	3233
878.951	3348
879.079	3435
879.206	3610
879.333	3431
879.461	3351
879.588	3363
879.715	3500
879.842	3618
879.97	3412
880.097	3146
880.224	3146
880.351	3222
880.478	3203
880.605	3199
880.732	3188
880.859	3523
880.986	3321
881.112	3313
881.239	3192
881.366	3116
881.493	3051
881.619	3001
881.746	3043
881.872	3093
881.999	3081
882.125	3146
882.252	3233
882.378	3264
882.505	3454
882.631	3260
882.757	3123
882.883	3218
883.01	3199
883.136	3127
883.262	3108
883.388	3089
883.514	3344
883.64	3370
883.766	3306
883.892	3173
884.018	3237
884.143	3351
884.269	3504
884.395	3203
884.52	3157
884.646	3188
884.772	3112
884.897	3097
885.023	3214
885.148	3310
885.274	3389
885.399	3329
885.524	3325
885.65	3260
885.775	3302
885.9	3226
886.025	3431
886.15	3389
886.275	3291
886.4	3226
886.525	3275
886.65	3291
886.775	3294
886.9	3496
887.025	3614
887.149	3412
887.274	3214
887.399	3199
887.523	3195
887.648	3188
887.773	3188
887.897	3355
888.021	3405
888.146	3268
888.27	3431
888.395	3519
888.519	3412
888.643	3450
888.767	3481
888.891	3306
889.015	3199
889.139	3268
889.263	3237
889.387	3370
889.511	3469
889.635	3454
889.759	3306
889.883	3291
890.006	3351
890.13	3500
890.254	3264
890.377	3306
890.501	3165
890.624	3165
890.748	3298
890.871	3150
890.995	3074
891.118	3047
891.241	3188
891.364	3218
891.488	3279
891.611	3169
891.734	3214
891.857	3253
891.98	3233
892.103	3321
892.226	3294
892.349	3207
892.471	3104
892.594	3195
892.717	3253
892.839	3249
892.962	3302
893.085	3374
893.207	3298
893.33	3142
893.452	3199
893.575	3344
893.697	3264
893.819	3462
893.941	3515
894.064	3416
894.186	3237
894.308	3264
894.43	3439
894.552	3542
894.674	3443
894.796	3233
894.918	3302
895.04	3275
895.161	3424
895.283	3428
895.405	3310
895.526	3336
895.648	3431
895.769	3420
895.891	3469
896.012	3477
896.134	3462
896.255	3389
896.376	3298
896.498	3370
896.619	3431
896.74	3355
896.861	3416
896.982	3641
897.103	3854
897.224	3641
897.345	3504
897.466	3409
897.587	3466
897.708	3644
897.828	3519
897.949	3393
898.07	3313
898.19	3389
898.311	3591
898.431	3416
898.552	3511
898.672	3580
898.792	3595
898.913	3492
899.033	3401
899.153	3302
899.273	3203
899.393	3256
899.513	3298
899.633	3298
899.753	3370
899.873	3291
899.993	3409
900.113	3336
900.232	3351
900.352	3370
900.472	3260
900.591	3199
900.711	3245
900.83	3241
900.95	3428
901.069	3473
901.189	3344
901.308	3142
901.427	3123
901.546	3192
901.665	3317
901.784	3332
901.904	3214
902.023	3116
902.141	3024
902.26	2982
902.379	3161
902.498	3062
902.617	3051
902.735	3203
902.854	3192
902.973	3207
903.091	3043
903.21	3058
903.328	3169
903.446	3081
903.565	3131
903.683	3176
903.801	3127
903.919	3233
904.038	3302
904.156	3176
904.274	3260
904.392	3230
904.51	3294
904.627	3329
904.745	3405
904.863	3538
904.981	3241
905.098	3180
905.216	3222
905.334	3310
905.451	3253
905.569	3329
905.686	3420
905.803	3443
905.921	3249
906.038	3458
906.155	3355
906.272	3233
906.389	3340
906.506	3218
906.623	3222
906.74	3249
906.857	3180
906.974	3211
907.091	3469
907.208	3576
907.324	3462
907.441	3393
907.557	3256
907.674	3207
907.79	3211
907.907	3351
908.023	3389
908.139	3344
908.256	3310
908.372	3355
908.488	3310
908.604	3245
908.72	3233
908.836	3275
908.952	3260
909.068	3321
909.184	3477
909.3	3378
909.415	3492
909.531	3428
909.647	3226
909.762	3272
909.878	3256
909.993	3359
910.108	3302
910.224	3313
910.339	3454
910.454	3317
910.57	3313
910.685	3218
910.8	3595
910.915	3519
911.03	3420
911.145	3230
911.259	3233
911.374	3268
911.489	3241
911.604	3233
911.718	3108
911.833	3146
911.947	3043
912.062	2963
912.176	3173
912.291	3203
912.405	3249
912.519	3416
912.633	3462
912.748	3321
912.862	3256
912.976	3169
913.09	3051
913.204	3138
913.318	3237
913.431	3351
913.545	3310
913.659	3386
913.772	3359
913.886	3222
914	3207
914.113	3317
914.226	3382
914.34	3374
914.453	3222
914.566	3389
914.68	3272
914.793	3302
914.906	3135
915.019	3100
915.132	3108
915.245	3165
915.358	3203
915.47	3195
915.583	3214
915.696	3279
915.809	3416
915.921	3428
916.034	3256
916.146	3233
916.259	3161
916.371	3389
916.483	3348
916.595	3256
916.708	3332
916.82	3325
916.932	3329
917.044	3344
917.156	3340
917.268	3233
917.38	3344
917.491	3298
917.603	3321
917.715	3424
917.826	3458
917.938	3367
918.049	3245
918.161	3431
918.272	3553
918.384	3534
918.495	3481
918.606	3340
918.717	3260
918.828	3332
918.939	3378
919.05	3310
919.161	3367
919.272	3192
919.383	3325
919.494	3458
919.604	3641
919.715	3439
919.826	3401
919.936	3447
920.047	3572
920.157	3561
920.267	3747
920.378	3568
920.488	3572
920.598	3728
920.708	3987
920.818	3819
920.928	3800
921.038	4025
921.148	3953
921.258	3686
921.368	3641
921.477	3603
921.587	3542
921.697	3469
921.806	3614
921.916	3481
922.025	3313
922.134	3340
922.244	3279
922.353	3378
922.462	3321
922.571	3241
922.68	3100
922.789	3055
922.898	3112
923.007	3074
923.116	3184
923.224	3188
923.333	3150
923.442	3100
923.55	3089
923.659	3112
923.767	3180
923.876	3127
923.984	3249
924.092	3097
924.201	3203
924.309	3214
924.417	3226
924.525	3203
924.633	3218
924.741	3991
924.849	3032
924.956	3233
925.064	3089
925.172	3009
925.279	3070
925.387	3184
925.494	3188
925.602	3325
925.709	3294
925.816	3173
925.924	3272
926.031	3367
926.138	3313
926.245	3348
926.352	3233
926.459	3401
926.566	3492
926.673	3279
926.779	3253
926.886	3230
926.993	3154
927.099	3131
927.206	3127
927.312	3123
927.419	3226
927.525	3237
927.631	3226
927.737	3203
927.843	3135
927.95	3039
928.056	3173
928.162	3169
928.267	3268
928.373	3888
928.479	3355
928.585	3093
928.69	3237
928.796	3298
928.901	3180
929.007	3039
929.112	3230
929.218	3211
929.323	3203
929.428	3222
929.533	3310
929.638	3112
929.743	3192
929.848	3344
929.953	3268
930.058	3161
930.163	2990
930.267	3047
930.372	3237
930.477	3077
930.581	3397
930.685	3226
930.79	3097
930.894	3161
930.998	3157
931.103	3351
931.207	3009
931.311	2971
931.415	3005
931.519	2826
931.623	2823
