Data from test_V78500241_577.txt Node
Date: Fri Mar 25 16:19:12 CST 2022
User: usil
Spectrometer: V785-0024
Trigger mode: 0
Integration Time (sec): 4.000000E-1
Scans to average: 1
Nonlinearity correction enabled: false
Boxcar width: 0
Storing dark spectrum: false
XAxis mode: Wavelengths
Number of Pixels in Spectrum: 1024
>>>>>Begin Spectral Data<<<<<
801.071	2899
801.214	2922
801.356	2845
801.499	2910
801.641	2876
801.783	2960
801.926	3017
802.068	2971
802.211	3028
802.353	3013
802.496	2948
802.638	2963
802.78	3051
802.923	3062
803.065	2998
803.208	2883
803.35	2899
803.492	2941
803.635	2906
803.777	2777
803.919	2845
804.061	3176
804.204	2960
804.346	2914
804.488	2853
804.63	2998
804.773	2857
804.915	2963
805.057	3077
805.199	2906
805.341	2986
805.483	3032
805.626	3009
805.768	2971
805.91	3104
806.052	3135
806.194	3001
806.336	3275
806.478	3039
806.62	2948
806.762	2967
806.904	3062
807.046	3146
807.188	2967
807.33	2918
807.472	2960
807.614	2914
807.756	2960
807.898	2887
808.04	2876
808.182	2986
808.324	2937
808.465	2887
808.607	2868
808.749	2762
808.891	2861
809.033	2967
809.174	2944
809.316	2880
809.458	2918
809.6	2758
809.741	2746
809.883	2743
810.025	2845
810.166	2834
810.308	2823
810.45	2842
810.591	2796
810.733	2766
810.875	2834
811.016	2766
811.158	2762
811.299	2792
811.441	2906
811.582	2910
811.724	2781
811.865	2826
812.007	2899
812.148	2876
812.29	2834
812.431	2880
812.573	2948
812.714	2933
812.855	3077
812.997	3066
813.138	3081
813.279	3020
813.421	2963
813.562	2944
813.703	2864
813.845	2872
813.986	2754
814.127	2720
814.268	2804
814.41	2842
814.551	2773
814.692	2868
814.833	2845
814.974	2895
815.115	2990
815.256	2823
815.397	2819
815.539	2880
815.68	2769
815.821	2781
815.962	2944
816.103	2899
816.244	2853
816.385	2895
816.526	2952
816.666	2895
816.807	2746
816.948	2891
817.089	2902
817.23	2861
817.371	2781
817.512	2834
817.653	2807
817.793	2823
817.934	2914
818.075	2944
818.216	2982
818.356	2998
818.497	2868
818.638	2788
818.778	2819
818.919	2788
819.06	2766
819.2	2895
819.341	2792
819.481	2773
819.622	2883
819.762	3116
819.903	3020
820.043	2944
820.184	2960
820.324	2872
820.465	2979
820.605	3039
820.746	3055
820.886	2952
821.026	3119
821.167	3154
821.307	3253
821.447	3298
821.588	3237
821.728	3245
821.868	3150
822.008	3081
822.149	3199
822.289	3218
822.429	3081
822.569	3051
822.709	3173
822.849	3013
822.99	3036
823.13	3176
823.27	3199
823.41	3112
823.55	3127
823.69	3150
823.83	3207
823.97	3104
824.11	2986
824.25	2998
824.389	3104
824.529	3135
824.669	3043
824.809	3180
824.949	3268
825.089	3207
825.228	3119
825.368	2990
825.508	2941
825.648	2975
825.787	2982
825.927	3032
826.067	2960
826.206	2956
826.346	3066
826.485	3039
826.625	3074
826.765	3256
826.904	3226
827.044	2994
827.183	2918
827.323	2880
827.462	3005
827.601	2868
827.741	2922
827.88	2914
828.02	2845
828.159	2948
828.298	3028
828.437	3081
828.577	3043
828.716	3226
828.855	3089
828.994	2918
829.134	2864
829.273	2895
829.412	2849
829.551	2872
829.69	2864
829.829	2971
829.968	3142
830.107	2971
830.246	3009
830.385	2929
830.524	2876
830.663	2864
830.802	2701
830.941	2678
831.08	2613
831.219	2754
831.357	2735
831.496	2910
831.635	2686
831.774	2682
831.913	2659
832.051	2537
832.19	2610
832.329	2693
832.467	2533
832.606	2465
832.744	2564
832.883	2560
833.022	2579
833.16	2655
833.299	2678
833.437	2655
833.576	2693
833.714	2735
833.852	2735
833.991	2750
834.129	2842
834.267	2853
834.406	2777
834.544	2853
834.682	2864
834.821	2849
834.959	3051
835.097	2853
835.235	3005
835.373	2986
835.511	3009
835.65	2944
835.788	2960
835.926	2861
836.064	2823
836.202	2826
836.34	3077
836.478	3138
836.615	3020
836.753	3116
836.891	3188
837.029	3180
837.167	3066
837.305	3047
837.443	3028
837.58	2937
837.718	3135
837.856	3070
837.993	3028
838.131	3135
838.269	3116
838.406	3070
838.544	3085
838.681	2956
838.819	2872
838.956	2819
839.094	2819
839.231	2883
839.369	3070
839.506	3374
839.643	3230
839.781	3001
839.918	2948
840.055	3028
840.193	3017
840.33	3028
840.467	3100
840.604	3138
840.742	3405
840.879	3043
841.016	3062
841.153	3123
841.29	3294
841.427	3249
841.564	3230
841.701	3294
841.838	3203
841.975	3150
842.112	3165
842.249	3062
842.385	2994
842.522	3260
842.659	3077
842.796	3032
842.933	3097
843.069	3013
843.206	3047
843.343	3154
843.479	3093
843.616	3127
843.752	2883
843.889	2864
844.025	3055
844.162	2823
844.298	3028
844.435	2944
844.571	2891
844.708	3093
844.844	3180
844.98	3188
845.117	3157
845.253	3081
845.389	2994
845.525	3077
845.661	3085
845.798	2975
845.934	3104
846.07	3047
846.206	3203
846.342	3310
846.478	3195
846.614	3085
846.75	3024
846.886	3020
847.022	3214
847.158	3138
847.294	3237
847.429	3237
847.565	3218
847.701	3530
847.837	3032
847.972	3024
848.108	3123
848.244	3131
848.379	2963
848.515	2922
848.65	2925
848.786	2963
848.921	3032
849.057	3070
849.192	3150
849.328	3028
849.463	3100
849.598	3017
849.734	3024
849.869	3001
850.004	2910
850.14	2937
850.275	2876
850.41	2842
850.545	2872
850.68	2944
850.815	2941
850.95	2925
851.085	3188
851.22	3085
851.355	3017
851.49	3017
851.625	2998
851.76	2994
851.895	2933
852.03	2883
852.165	3005
852.299	3104
852.434	3135
852.569	3165
852.703	3173
852.838	3226
852.973	3336
853.107	3302
853.242	3154
853.376	3085
853.511	2971
853.645	3009
853.78	3230
853.914	3112
854.048	3081
854.183	3058
854.317	3123
854.451	3256
854.585	3165
854.72	3085
854.854	3188
854.988	3062
855.122	3066
855.256	2971
855.39	3097
855.524	3226
855.658	3176
855.792	3108
855.926	3165
856.06	3199
856.194	3241
856.327	3131
856.461	3070
856.595	3081
856.729	3062
856.862	3218
856.996	3135
857.13	3222
857.263	3237
857.397	3272
857.53	3097
857.664	3192
857.797	3241
857.931	3260
858.064	3188
858.197	3207
858.331	3135
858.464	3066
858.597	2975
858.731	3089
858.864	3108
858.997	3085
859.13	3184
859.263	3165
859.396	3192
859.529	3028
859.662	3089
859.795	3055
859.928	3135
860.061	3222
860.194	3245
860.327	3135
860.46	3062
860.592	3253
860.725	3218
860.858	3230
860.99	3116
861.123	3039
861.256	3039
861.388	3123
861.521	3701
861.653	2994
861.786	2975
861.918	2990
862.05	3032
862.183	3100
862.315	3131
862.447	3176
862.58	3055
862.712	2918
862.844	2861
862.976	3013
863.108	2994
863.24	3370
863.372	2880
863.504	2967
863.636	2956
863.768	2990
863.9	2948
864.032	2880
864.164	2929
864.296	2998
864.428	3074
864.559	3051
864.691	3058
864.823	3055
864.954	2994
865.086	3017
865.217	2971
865.349	2937
865.48	2971
865.612	3005
865.743	3108
865.875	2963
866.006	2910
866.137	2963
866.269	2933
866.4	2925
866.531	2899
866.662	2891
866.793	2910
866.924	2906
867.055	2956
867.186	2910
867.317	2883
867.448	2796
867.579	2830
867.71	2804
867.841	2788
867.972	2891
868.103	2876
868.233	2891
868.364	2868
868.495	2899
868.625	3043
868.756	3192
868.886	2967
869.017	3039
869.147	3169
869.278	3142
869.408	3024
869.539	3020
869.669	3077
869.799	3028
869.929	3089
870.06	3081
870.19	3313
870.32	3272
870.45	3279
870.58	3389
870.71	3488
870.84	3439
870.97	3253
871.1	3272
871.23	3473
871.36	3435
871.489	3332
871.619	3412
871.749	3405
871.879	3443
872.008	3507
872.138	3389
872.267	3287
872.397	3131
872.526	3104
872.656	3032
872.785	3142
872.915	3275
873.044	3367
873.173	3218
873.303	3283
873.432	3279
873.561	3275
873.69	3157
873.819	3169
873.948	3233
874.077	3135
874.206	3062
874.335	3123
874.464	3253
874.593	3336
874.722	3302
874.851	3389
874.979	3424
875.108	3317
875.237	3249
875.365	3165
875.494	3173
875.623	3291
875.751	3131
875.88	3127
876.008	3207
876.136	3272
876.265	3401
876.393	3538
876.521	3439
876.65	3477
876.778	3355
876.906	3275
877.034	3233
877.162	3253
877.29	3211
877.418	3283
877.546	3230
877.674	3272
877.802	3275
877.93	3237
878.058	3207
878.185	3150
878.313	3226
878.441	3237
878.568	3127
878.696	3176
878.824	3294
878.951	3340
879.079	3462
879.206	3698
879.333	3450
879.461	3370
879.588	3405
879.715	3549
879.842	3618
879.97	3401
880.097	3169
880.224	3157
880.351	3195
880.478	3264
880.605	3199
880.732	3253
880.859	3538
880.986	3401
881.112	3363
881.239	3268
881.366	3127
881.493	3104
881.619	3089
881.746	3074
881.872	3123
881.999	3119
882.125	3161
882.252	3260
882.378	3359
882.505	3485
882.631	3283
882.757	3180
882.883	3302
883.01	3279
883.136	3207
883.262	3123
883.388	3108
883.514	3367
883.64	3424
883.766	3306
883.892	3218
884.018	3310
884.143	3428
884.269	3549
884.395	3222
884.52	3176
884.646	3203
884.772	3150
884.897	3131
885.023	3237
885.148	3355
885.274	3431
885.399	3424
885.524	3313
885.65	3325
885.775	3325
885.9	3329
886.025	3435
886.15	3374
886.275	3348
886.4	3272
886.525	3348
886.65	3268
886.775	3321
886.9	3462
887.025	3610
887.149	3431
887.274	3291
887.399	3180
887.523	3241
887.648	3199
887.773	3245
887.897	3405
888.021	3431
888.146	3325
888.27	3447
888.395	3538
888.519	3526
888.643	3515
888.767	3492
888.891	3355
889.015	3298
889.139	3310
889.263	3291
889.387	3431
889.511	3504
889.635	3477
889.759	3275
889.883	3336
890.006	3409
890.13	3553
890.254	3302
890.377	3348
890.501	3218
890.624	3230
890.748	3348
890.871	3218
890.995	3165
891.118	3135
891.241	3218
891.364	3249
891.488	3344
891.611	3207
891.734	3272
891.857	3306
891.98	3275
892.103	3370
892.226	3321
892.349	3214
892.471	3116
892.594	3241
892.717	3287
892.839	3294
892.962	3291
893.085	3477
893.207	3313
893.33	3180
893.452	3214
893.575	3336
893.697	3264
893.819	3492
893.941	3519
894.064	3477
894.186	3306
894.308	3291
894.43	3428
894.552	3549
894.674	3488
894.796	3283
894.918	3329
895.04	3329
895.161	3454
895.283	3386
895.405	3344
895.526	3409
895.648	3443
895.769	3409
895.891	3515
896.012	3504
896.134	3507
896.255	3447
896.376	3409
896.498	3409
896.619	3447
896.74	3367
896.861	3409
896.982	3743
897.103	3903
897.224	3587
897.345	3557
897.466	3469
897.587	3481
897.708	3652
897.828	3610
897.949	3469
898.07	3367
898.19	3397
898.311	3625
898.431	3477
898.552	3568
898.672	3625
898.792	3599
898.913	3549
899.033	3424
899.153	3302
899.273	3241
899.393	3317
899.513	3359
899.633	3317
899.753	3363
899.873	3336
899.993	3412
900.113	3340
900.232	3401
900.352	3359
900.472	3313
900.591	3249
900.711	3302
900.83	3249
900.95	3416
901.069	3549
901.189	3359
901.308	3256
901.427	3165
901.546	3230
901.665	3287
901.784	3378
901.904	3230
902.023	3195
902.141	3093
902.26	3032
902.379	3169
902.498	3093
902.617	3047
902.735	3180
902.854	3233
902.973	3237
903.091	3055
903.21	3074
903.328	3157
903.446	3142
903.565	3116
903.683	3272
903.801	3138
903.919	3275
904.038	3325
904.156	3169
904.274	3275
904.392	3264
904.51	3302
904.627	3351
904.745	3473
904.863	3504
904.981	3287
905.098	3222
905.216	3249
905.334	3344
905.451	3336
905.569	3325
905.686	3466
905.803	3435
905.921	3298
906.038	3450
906.155	3382
906.272	3321
906.389	3378
906.506	3272
906.623	3306
906.74	3294
906.857	3214
906.974	3253
907.091	3488
907.208	3603
907.324	3526
907.441	3412
907.557	3214
907.674	3268
907.79	3214
907.907	3272
908.023	3409
908.139	3416
908.256	3344
908.372	3386
908.488	3310
908.604	3241
908.72	3230
908.836	3321
908.952	3313
909.068	3348
909.184	3488
909.3	3435
909.415	3561
909.531	3473
909.647	3321
909.762	3325
909.878	3275
909.993	3405
910.108	3348
910.224	3351
910.339	3424
910.454	3363
910.57	3317
910.685	3233
910.8	3625
910.915	3610
911.03	3450
911.145	3306
911.259	3317
911.374	3329
911.489	3256
911.604	3245
911.718	3192
911.833	3180
911.947	3062
912.062	3017
912.176	3161
912.291	3203
912.405	3241
912.519	3439
912.633	3454
912.748	3340
912.862	3283
912.976	3211
913.09	3108
913.204	3154
913.318	3256
913.431	3393
913.545	3374
913.659	3401
913.772	3348
913.886	3256
914	3188
914.113	3332
914.226	3447
914.34	3389
914.453	3268
914.566	3409
914.68	3329
914.793	3310
914.906	3169
915.019	3097
915.132	3100
915.245	3169
915.358	3241
915.47	3260
915.583	3306
915.696	3374
915.809	3443
915.921	3466
916.034	3268
916.146	3294
916.259	3264
916.371	3393
916.483	3355
916.595	3279
916.708	3409
916.82	3359
916.932	3359
917.044	3359
917.156	3348
917.268	3264
917.38	3313
917.491	3310
917.603	3370
917.715	3466
917.826	3428
917.938	3405
918.049	3283
918.161	3481
918.272	3553
918.384	3538
918.495	3466
918.606	3363
918.717	3287
918.828	3367
918.939	3454
919.05	3313
919.161	3393
919.272	3218
919.383	3310
919.494	3504
919.604	3667
919.715	3473
919.826	3443
919.936	3515
920.047	3572
920.157	3576
920.267	3740
920.378	3591
920.488	3568
920.598	3747
920.708	3953
920.818	3838
920.928	3842
921.038	4032
921.148	3983
921.258	3728
921.368	3660
921.477	3637
921.587	3526
921.697	3462
921.806	3618
921.916	3545
922.025	3382
922.134	3393
922.244	3310
922.353	3424
922.462	3230
922.571	3253
922.68	3093
922.789	3081
922.898	3150
923.007	3112
923.116	3214
923.224	3230
923.333	3192
923.442	3119
923.55	3142
923.659	3176
923.767	3241
923.876	3154
923.984	3260
924.092	3127
924.201	3218
924.309	3230
924.417	3199
924.525	3211
924.633	3253
924.741	4025
924.849	3089
924.956	3275
925.064	3157
925.172	3074
925.279	3116
925.387	3180
925.494	3211
925.602	3340
925.709	3348
925.816	3199
925.924	3313
926.031	3389
926.138	3351
926.245	3340
926.352	3249
926.459	3401
926.566	3500
926.673	3351
926.779	3245
926.886	3260
926.993	3188
927.099	3123
927.206	3142
927.312	3127
927.419	3203
927.525	3226
927.631	3329
927.737	3138
927.843	3169
927.95	3020
928.056	3150
928.162	3165
928.267	3275
928.373	3793
928.479	3306
928.585	3081
928.69	3218
928.796	3264
928.901	3169
929.007	3051
929.112	3192
929.218	3146
929.323	3169
929.428	3161
929.533	3344
929.638	3119
929.743	3176
929.848	3233
929.953	3233
930.058	3161
930.163	3039
930.267	3039
930.372	3203
930.477	3028
930.581	3321
930.685	3176
930.79	3055
930.894	3157
930.998	3070
931.103	3306
931.207	2941
931.311	2937
931.415	2918
931.519	2800
931.623	2823
