Data from test_V78500241_333.txt Node
Date: Fri Mar 25 16:17:30 CST 2022
User: usil
Spectrometer: V785-0024
Trigger mode: 0
Integration Time (sec): 4.000000E-1
Scans to average: 1
Nonlinearity correction enabled: false
Boxcar width: 0
Storing dark spectrum: false
XAxis mode: Wavelengths
Number of Pixels in Spectrum: 1024
>>>>>Begin Spectral Data<<<<<
801.071	2899
801.214	2948
801.356	2849
801.499	2918
801.641	2883
801.783	2899
801.926	3070
802.068	2914
802.211	2952
802.353	3047
802.496	2986
802.638	3001
802.78	3051
802.923	3058
803.065	2982
803.208	2906
803.35	2914
803.492	2918
803.635	2944
803.777	2758
803.919	2849
804.061	3230
804.204	2929
804.346	2899
804.488	2842
804.63	2975
804.773	2883
804.915	2895
805.057	3058
805.199	2906
805.341	2979
805.483	2994
805.626	2986
805.768	2960
805.91	3047
806.052	3116
806.194	3070
806.336	3211
806.478	3028
806.62	2998
806.762	2986
806.904	3051
807.046	3157
807.188	2952
807.33	2902
807.472	3028
807.614	2876
807.756	3001
807.898	2933
808.04	2891
808.182	2948
808.324	2963
808.465	2880
808.607	2861
808.749	2838
808.891	2868
809.033	2967
809.174	2967
809.316	2895
809.458	2883
809.6	2777
809.741	2750
809.883	2773
810.025	2857
810.166	2899
810.308	2849
810.45	2880
810.591	2766
810.733	2781
810.875	2830
811.016	2766
811.158	2762
811.299	2800
811.441	2948
811.582	2872
811.724	2830
811.865	2845
812.007	2929
812.148	2838
812.29	2826
812.431	2891
812.573	2929
812.714	2994
812.855	3024
812.997	3062
813.138	3119
813.279	2994
813.421	2948
813.562	2933
813.703	2868
813.845	2895
813.986	2750
814.127	2724
814.268	2826
814.41	2823
814.551	2792
814.692	2883
814.833	2815
814.974	2914
815.115	2967
815.256	2811
815.397	2807
815.539	2845
815.68	2815
815.821	2785
815.962	2887
816.103	2933
816.244	2883
816.385	2864
816.526	2982
816.666	2948
816.807	2735
816.948	2887
817.089	2918
817.23	2819
817.371	2785
817.512	2804
817.653	2811
817.793	2880
817.934	2891
818.075	3017
818.216	2979
818.356	3024
818.497	2925
818.638	2777
818.778	2830
818.919	2762
819.06	2758
819.2	2872
819.341	2773
819.481	2785
819.622	2910
819.762	3070
819.903	3062
820.043	2948
820.184	2914
820.324	2910
820.465	3017
820.605	3005
820.746	3005
820.886	2975
821.026	3123
821.167	3230
821.307	3249
821.447	3283
821.588	3207
821.728	3222
821.868	3180
822.008	3058
822.149	3195
822.289	3233
822.429	3100
822.569	3089
822.709	3180
822.849	3028
822.99	3093
823.13	3180
823.27	3192
823.41	3100
823.55	3131
823.69	3169
823.83	3165
823.97	3074
824.11	3009
824.25	2979
824.389	3051
824.529	3127
824.669	3047
824.809	3195
824.949	3249
825.089	3192
825.228	3154
825.368	2979
825.508	2956
825.648	2952
825.787	3028
825.927	3024
826.067	2971
826.206	2941
826.346	3028
826.485	3024
826.625	3066
826.765	3233
826.904	3241
827.044	2967
827.183	2937
827.323	2880
827.462	2963
827.601	2925
827.741	2933
827.88	2982
828.02	2830
828.159	2963
828.298	3024
828.437	3119
828.577	3028
828.716	3226
828.855	3085
828.994	2948
829.134	2895
829.273	2910
829.412	2872
829.551	2880
829.69	2868
829.829	2922
829.968	3138
830.107	3032
830.246	3047
830.385	2895
830.524	2876
830.663	2804
830.802	2758
830.941	2636
831.08	2659
831.219	2758
831.357	2773
831.496	2910
831.635	2758
831.774	2686
831.913	2663
832.051	2511
832.19	2552
832.329	2678
832.467	2560
832.606	2492
832.744	2587
832.883	2560
833.022	2575
833.16	2636
833.299	2670
833.437	2689
833.576	2731
833.714	2689
833.852	2735
833.991	2769
834.129	2838
834.267	2819
834.406	2785
834.544	2853
834.682	2857
834.821	2883
834.959	3051
835.097	2910
835.235	3055
835.373	3009
835.511	3051
835.65	2990
835.788	2956
835.926	2785
836.064	2811
836.202	2849
836.34	3108
836.478	3184
836.615	3032
836.753	3138
836.891	3165
837.029	3127
837.167	3097
837.305	3043
837.443	3036
837.58	2994
837.718	3135
837.856	3024
837.993	3028
838.131	3093
838.269	3085
838.406	3097
838.544	3081
838.681	2918
838.819	2929
838.956	2807
839.094	2823
839.231	2910
839.369	2994
839.506	3409
839.643	3211
839.781	3032
839.918	2956
840.055	3074
840.193	3036
840.33	3062
840.467	3135
840.604	3138
840.742	3428
840.879	3058
841.016	3032
841.153	3112
841.29	3348
841.427	3253
841.564	3249
841.701	3283
841.838	3195
841.975	3146
842.112	3222
842.249	3066
842.385	3005
842.522	3260
842.659	3123
842.796	3051
842.933	3104
843.069	3032
843.206	3032
843.343	3165
843.479	3116
843.616	3138
843.752	2899
843.889	2887
844.025	3085
844.162	2883
844.298	3062
844.435	2956
844.571	2899
844.708	3051
844.844	3173
844.98	3207
845.117	3195
845.253	3066
845.389	3013
845.525	3104
845.661	3108
845.798	3013
845.934	3104
846.07	3005
846.206	3241
846.342	3291
846.478	3207
846.614	3058
846.75	3074
846.886	3020
847.022	3237
847.158	3146
847.294	3192
847.429	3214
847.565	3233
847.701	3519
847.837	3009
847.972	2982
848.108	3154
848.244	3097
848.379	2948
848.515	2971
848.65	2925
848.786	2941
848.921	3036
849.057	3070
849.192	3127
849.328	3062
849.463	3100
849.598	3051
849.734	3066
849.869	2979
850.004	2891
850.14	2952
850.275	2880
850.41	2826
850.545	2880
850.68	2918
850.815	2941
850.95	2937
851.085	3192
851.22	3108
851.355	3055
851.49	3001
851.625	2986
851.76	3001
851.895	2948
852.03	2914
852.165	2998
852.299	3116
852.434	3211
852.569	3131
852.703	3184
852.838	3230
852.973	3336
853.107	3332
853.242	3157
853.376	3074
853.511	2937
853.645	3047
853.78	3226
853.914	3123
854.048	3138
854.183	3119
854.317	3119
854.451	3306
854.585	3131
854.72	3089
854.854	3222
854.988	3043
855.122	3116
855.256	2967
855.39	3127
855.524	3226
855.658	3169
855.792	3119
855.926	3226
856.06	3241
856.194	3233
856.327	3184
856.461	3062
856.595	3112
856.729	3077
856.862	3214
856.996	3180
857.13	3226
857.263	3245
857.397	3260
857.53	3093
857.664	3176
857.797	3256
857.931	3272
858.064	3146
858.197	3222
858.331	3112
858.464	3077
858.597	2979
858.731	3123
858.864	3142
858.997	3055
859.13	3142
859.263	3161
859.396	3207
859.529	3104
859.662	3081
859.795	3055
859.928	3207
860.061	3249
860.194	3291
860.327	3123
860.46	3104
860.592	3214
860.725	3241
860.858	3230
860.99	3131
861.123	3047
861.256	3039
861.388	3146
861.521	3838
861.653	2986
861.786	2979
861.918	3001
862.05	3070
862.183	3074
862.315	3116
862.447	3264
862.58	3116
862.712	2944
862.844	2891
862.976	3028
863.108	2994
863.24	3317
863.372	2880
863.504	2948
863.636	2956
863.768	3047
863.9	2967
864.032	2918
864.164	2925
864.296	2979
864.428	3055
864.559	3062
864.691	3055
864.823	3051
864.954	3028
865.086	3043
865.217	2986
865.349	2933
865.48	2941
865.612	3001
865.743	3142
865.875	2967
866.006	2933
866.137	2960
866.269	2982
866.4	2937
866.531	2933
866.662	2895
866.793	2895
866.924	2891
867.055	2944
867.186	2933
867.317	2891
867.448	2811
867.579	2849
867.71	2819
867.841	2815
867.972	2891
868.103	2895
868.233	2876
868.364	2868
868.495	2906
868.625	3062
868.756	3142
868.886	2944
869.017	2960
869.147	3184
869.278	3173
869.408	3017
869.539	3032
869.669	3097
869.799	3039
869.929	3127
870.06	3112
870.19	3329
870.32	3302
870.45	3291
870.58	3378
870.71	3435
870.84	3450
870.97	3253
871.1	3245
871.23	3473
871.36	3431
871.489	3344
871.619	3405
871.749	3397
871.879	3405
872.008	3477
872.138	3340
872.267	3268
872.397	3154
872.526	3127
872.656	2994
872.785	3112
872.915	3245
873.044	3283
873.173	3176
873.303	3245
873.432	3199
873.561	3260
873.69	3173
873.819	3157
873.948	3188
874.077	3119
874.206	3047
874.335	3066
874.464	3253
874.593	3325
874.722	3222
874.851	3397
874.979	3363
875.108	3351
875.237	3195
875.365	3135
875.494	3180
875.623	3233
875.751	3100
875.88	3108
876.008	3150
876.136	3211
876.265	3367
876.393	3511
876.521	3370
876.65	3378
876.778	3306
876.906	3249
877.034	3199
877.162	3233
877.29	3161
877.418	3268
877.546	3233
877.674	3226
877.802	3260
877.93	3230
878.058	3173
878.185	3108
878.313	3192
878.441	3218
878.568	3058
878.696	3154
878.824	3287
878.951	3317
879.079	3462
879.206	3618
879.333	3431
879.461	3313
879.588	3348
879.715	3481
879.842	3610
879.97	3348
880.097	3165
880.224	3097
880.351	3150
880.478	3188
880.605	3237
880.732	3169
880.859	3473
880.986	3253
881.112	3313
881.239	3184
881.366	3108
881.493	3047
881.619	2994
881.746	3043
881.872	3055
881.999	3100
882.125	3161
882.252	3226
882.378	3313
882.505	3435
882.631	3279
882.757	3157
882.883	3218
883.01	3184
883.136	3154
883.262	3085
883.388	3093
883.514	3325
883.64	3405
883.766	3294
883.892	3195
884.018	3256
884.143	3386
884.269	3519
884.395	3192
884.52	3157
884.646	3176
884.772	3116
884.897	3138
885.023	3211
885.148	3321
885.274	3431
885.399	3351
885.524	3283
885.65	3230
885.775	3332
885.9	3272
886.025	3424
886.15	3329
886.275	3313
886.4	3207
886.525	3291
886.65	3256
886.775	3283
886.9	3542
887.025	3660
887.149	3393
887.274	3249
887.399	3169
887.523	3226
887.648	3199
887.773	3199
887.897	3389
888.021	3393
888.146	3264
888.27	3428
888.395	3549
888.519	3424
888.643	3401
888.767	3466
888.891	3253
889.015	3253
889.139	3256
889.263	3256
889.387	3424
889.511	3523
889.635	3447
889.759	3275
889.883	3279
890.006	3382
890.13	3485
890.254	3287
890.377	3313
890.501	3222
890.624	3169
890.748	3298
890.871	3207
890.995	3108
891.118	3055
891.241	3142
891.364	3237
891.488	3310
891.611	3192
891.734	3237
891.857	3264
891.98	3275
892.103	3340
892.226	3264
892.349	3218
892.471	3074
892.594	3222
892.717	3268
892.839	3249
892.962	3268
893.085	3355
893.207	3313
893.33	3173
893.452	3241
893.575	3348
893.697	3256
893.819	3447
893.941	3481
894.064	3450
894.186	3233
894.308	3272
894.43	3443
894.552	3538
894.674	3443
894.796	3272
894.918	3317
895.04	3306
895.161	3409
895.283	3405
895.405	3294
895.526	3348
895.648	3386
895.769	3416
895.891	3450
896.012	3477
896.134	3458
896.255	3386
896.376	3367
896.498	3340
896.619	3401
896.74	3344
896.861	3393
896.982	3656
897.103	3842
897.224	3576
897.345	3496
897.466	3389
897.587	3458
897.708	3641
897.828	3564
897.949	3454
898.07	3344
898.19	3397
898.311	3591
898.431	3424
898.552	3511
898.672	3599
898.792	3526
898.913	3553
899.033	3374
899.153	3245
899.273	3222
899.393	3264
899.513	3310
899.633	3310
899.753	3310
899.873	3237
899.993	3374
900.113	3325
900.232	3363
900.352	3294
900.472	3260
900.591	3211
900.711	3279
900.83	3218
900.95	3435
901.069	3443
901.189	3370
901.308	3203
901.427	3116
901.546	3195
901.665	3253
901.784	3279
901.904	3218
902.023	3161
902.141	3020
902.26	3039
902.379	3127
902.498	3085
902.617	3043
902.735	3207
902.854	3207
902.973	3211
903.091	3051
903.21	3081
903.328	3119
903.446	3093
903.565	3085
903.683	3211
903.801	3108
903.919	3253
904.038	3287
904.156	3169
904.274	3291
904.392	3249
904.51	3340
904.627	3321
904.745	3466
904.863	3542
904.981	3283
905.098	3192
905.216	3214
905.334	3256
905.451	3306
905.569	3321
905.686	3458
905.803	3469
905.921	3287
906.038	3447
906.155	3355
906.272	3310
906.389	3359
906.506	3237
906.623	3321
906.74	3344
906.857	3214
906.974	3272
907.091	3477
907.208	3584
907.324	3526
907.441	3416
907.557	3283
907.674	3256
907.79	3222
907.907	3325
908.023	3412
908.139	3450
908.256	3340
908.372	3405
908.488	3363
908.604	3298
908.72	3313
908.836	3321
908.952	3332
909.068	3370
909.184	3496
909.3	3435
909.415	3557
909.531	3500
909.647	3310
909.762	3329
909.878	3306
909.993	3378
910.108	3382
910.224	3367
910.339	3469
910.454	3348
910.57	3294
910.685	3256
910.8	3629
910.915	3549
911.03	3469
911.145	3283
911.259	3298
911.374	3355
911.489	3272
911.604	3279
911.718	3142
911.833	3199
911.947	3093
912.062	3001
912.176	3203
912.291	3260
912.405	3256
912.519	3481
912.633	3492
912.748	3378
912.862	3321
912.976	3203
913.09	3116
913.204	3222
913.318	3291
913.431	3370
913.545	3378
913.659	3496
913.772	3412
913.886	3283
914	3249
914.113	3370
914.226	3447
914.34	3412
914.453	3264
914.566	3458
914.68	3344
914.793	3332
914.906	3192
915.019	3169
915.132	3127
915.245	3207
915.358	3237
915.47	3245
915.583	3294
915.696	3310
915.809	3462
915.921	3447
916.034	3256
916.146	3268
916.259	3245
916.371	3424
916.483	3428
916.595	3317
916.708	3389
916.82	3386
916.932	3378
917.044	3420
917.156	3405
917.268	3306
917.38	3363
917.491	3287
917.603	3412
917.715	3507
917.826	3492
917.938	3420
918.049	3294
918.161	3500
918.272	3614
918.384	3587
918.495	3515
918.606	3340
918.717	3294
918.828	3420
918.939	3439
919.05	3344
919.161	3378
919.272	3195
919.383	3306
919.494	3553
919.604	3713
919.715	3515
919.826	3462
919.936	3469
920.047	3622
920.157	3591
920.267	3751
920.378	3633
920.488	3561
920.598	3808
920.708	4006
920.818	3892
920.928	3880
921.038	4051
921.148	4013
921.258	3755
921.368	3667
921.477	3648
921.587	3572
921.697	3492
921.806	3652
921.916	3572
922.025	3367
922.134	3359
922.244	3336
922.353	3435
922.462	3272
922.571	3256
922.68	3146
922.789	3123
922.898	3150
923.007	3131
923.116	3233
923.224	3214
923.333	3222
923.442	3138
923.55	3127
923.659	3188
923.767	3272
923.876	3150
923.984	3283
924.092	3138
924.201	3241
924.309	3241
924.417	3272
924.525	3237
924.633	3317
924.741	4234
924.849	3077
924.956	3279
925.064	3146
925.172	3089
925.279	3119
925.387	3245
925.494	3264
925.602	3401
925.709	3378
925.816	3256
925.924	3348
926.031	3412
926.138	3359
926.245	3378
926.352	3260
926.459	3428
926.566	3477
926.673	3344
926.779	3306
926.886	3253
926.993	3180
927.099	3173
927.206	3135
927.312	3154
927.419	3268
927.525	3268
927.631	3363
927.737	3165
927.843	3169
927.95	3066
928.056	3165
928.162	3192
928.267	3310
928.373	3915
928.479	3355
928.585	3119
928.69	3226
928.796	3306
928.901	3192
929.007	3058
929.112	3275
929.218	3211
929.323	3176
929.428	3222
929.533	3336
929.638	3161
929.743	3180
929.848	3321
929.953	3245
930.058	3180
930.163	3047
930.267	3070
930.372	3226
930.477	3043
930.581	3374
930.685	3230
930.79	3085
930.894	3169
930.998	3112
931.103	3317
931.207	2986
931.311	2944
931.415	2933
931.519	2762
931.623	2853
