Data from test_V78500241_36.txt Node
Date: Fri Mar 25 16:15:27 CST 2022
User: usil
Spectrometer: V785-0024
Trigger mode: 0
Integration Time (sec): 4.000000E-1
Scans to average: 1
Nonlinearity correction enabled: false
Boxcar width: 0
Storing dark spectrum: false
XAxis mode: Wavelengths
Number of Pixels in Spectrum: 1024
>>>>>Begin Spectral Data<<<<<
801.071	2986
801.214	2990
801.356	2906
801.499	2914
801.641	2876
801.783	2986
801.926	3089
802.068	3043
802.211	3024
802.353	3051
802.496	2994
802.638	3017
802.78	3036
802.923	3112
803.065	3055
803.208	2937
803.35	2963
803.492	2971
803.635	2982
803.777	2769
803.919	2876
804.061	3218
804.204	3013
804.346	2971
804.488	2891
804.63	3039
804.773	2899
804.915	2971
805.057	3119
805.199	2960
805.341	2963
805.483	3077
805.626	3051
805.768	3001
805.91	3123
806.052	3097
806.194	3104
806.336	3264
806.478	3066
806.62	3001
806.762	3013
806.904	3097
807.046	3203
807.188	3009
807.33	2956
807.472	2998
807.614	2952
807.756	3028
807.898	2960
808.04	2929
808.182	3013
808.324	3009
808.465	2899
808.607	2925
808.749	2834
808.891	2876
809.033	2986
809.174	3017
809.316	2948
809.458	2910
809.6	2800
809.741	2815
809.883	2785
810.025	2899
810.166	2876
810.308	2864
810.45	2925
810.591	2811
810.733	2811
810.875	2872
811.016	2819
811.158	2792
811.299	2861
811.441	2986
811.582	2922
811.724	2838
811.865	2861
812.007	2956
812.148	2941
812.29	2895
812.431	2910
812.573	2975
812.714	2986
812.855	3089
812.997	3070
813.138	3131
813.279	3062
813.421	2998
813.562	2998
813.703	2918
813.845	2925
813.986	2842
814.127	2746
814.268	2868
814.41	2883
814.551	2830
814.692	2902
814.833	2872
814.974	2918
815.115	3005
815.256	2880
815.397	2849
815.539	2910
815.68	2830
815.821	2819
815.962	2975
816.103	2979
816.244	2933
816.385	2906
816.526	2982
816.666	2960
816.807	2773
816.948	2937
817.089	2963
817.23	2914
817.371	2853
817.512	2811
817.653	2868
817.793	2857
817.934	2922
818.075	3028
818.216	3062
818.356	3036
818.497	2899
818.638	2807
818.778	2826
818.919	2838
819.06	2777
819.2	2899
819.341	2845
819.481	2834
819.622	2979
819.762	3135
819.903	3085
820.043	2956
820.184	2910
820.324	2925
820.465	3024
820.605	3001
820.746	3043
820.886	2971
821.026	3100
821.167	3203
821.307	3302
821.447	3321
821.588	3283
821.728	3260
821.868	3233
822.008	3127
822.149	3226
822.289	3275
822.429	3131
822.569	3150
822.709	3237
822.849	3085
822.99	3074
823.13	3169
823.27	3214
823.41	3188
823.55	3169
823.69	3165
823.83	3226
823.97	3135
824.11	3081
824.25	3020
824.389	3112
824.529	3157
824.669	3070
824.809	3253
824.949	3283
825.089	3245
825.228	3218
825.368	3024
825.508	2994
825.648	2998
825.787	3043
825.927	3036
826.067	2960
826.206	3036
826.346	3085
826.485	3142
826.625	3112
826.765	3275
826.904	3233
827.044	3013
827.183	2944
827.323	2883
827.462	3017
827.601	2967
827.741	2944
827.88	2979
828.02	2864
828.159	3001
828.298	3070
828.437	3131
828.577	3028
828.716	3298
828.855	3108
828.994	2982
829.134	2906
829.273	2933
829.412	2910
829.551	2891
829.69	2941
829.829	3017
829.968	3195
830.107	3062
830.246	3055
830.385	2944
830.524	2925
830.663	2861
830.802	2750
830.941	2682
831.08	2655
831.219	2777
831.357	2769
831.496	2998
831.635	2712
831.774	2674
831.913	2705
832.051	2602
832.19	2564
832.329	2693
832.467	2568
832.606	2518
832.744	2617
832.883	2594
833.022	2629
833.16	2670
833.299	2701
833.437	2746
833.576	2727
833.714	2804
833.852	2773
833.991	2804
834.129	2849
834.267	2864
834.406	2838
834.544	2842
834.682	2899
834.821	2910
834.959	3047
835.097	2925
835.235	3066
835.373	3036
835.511	3066
835.65	2963
835.788	2956
835.926	2861
836.064	2845
836.202	2861
836.34	3100
836.478	3157
836.615	3077
836.753	3146
836.891	3203
837.029	3195
837.167	3142
837.305	3100
837.443	3066
837.58	2994
837.718	3173
837.856	3077
837.993	3070
838.131	3176
838.269	3119
838.406	3195
838.544	3116
838.681	2944
838.819	2925
838.956	2826
839.094	2857
839.231	2948
839.369	3058
839.506	3485
839.643	3275
839.781	3020
839.918	2982
840.055	3131
840.193	3077
840.33	3085
840.467	3085
840.604	3188
840.742	3450
840.879	3081
841.016	3074
841.153	3154
841.29	3386
841.427	3291
841.564	3302
841.701	3355
841.838	3241
841.975	3249
842.112	3275
842.249	3127
842.385	3093
842.522	3298
842.659	3085
842.796	3062
842.933	3161
843.069	3093
843.206	3085
843.343	3230
843.479	3123
843.616	3173
843.752	2895
843.889	2910
844.025	3119
844.162	2899
844.298	3108
844.435	2998
844.571	2941
844.708	3142
844.844	3188
844.98	3260
845.117	3230
845.253	3055
845.389	3005
845.525	3127
845.661	3097
845.798	3055
845.934	3131
846.07	3089
846.206	3222
846.342	3325
846.478	3279
846.614	3097
846.75	3100
846.886	3032
847.022	3287
847.158	3161
847.294	3222
847.429	3237
847.565	3264
847.701	3519
847.837	3066
847.972	3024
848.108	3192
848.244	3195
848.379	3024
848.515	2963
848.65	2982
848.786	3005
848.921	3039
849.057	3093
849.192	3184
849.328	3085
849.463	3108
849.598	3108
849.734	3028
849.869	3001
850.004	2944
850.14	3005
850.275	2922
850.41	2899
850.545	2937
850.68	2944
850.815	3009
850.95	2956
851.085	3188
851.22	3093
851.355	3017
851.49	2998
851.625	3051
851.76	3058
851.895	2952
852.03	2914
852.165	3070
852.299	3165
852.434	3211
852.569	3161
852.703	3253
852.838	3279
852.973	3397
853.107	3367
853.242	3154
853.376	3085
853.511	2979
853.645	3017
853.78	3264
853.914	3116
854.048	3165
854.183	3112
854.317	3161
854.451	3329
854.585	3192
854.72	3161
854.854	3230
854.988	3062
855.122	3112
855.256	2990
855.39	3161
855.524	3313
855.658	3230
855.792	3184
855.926	3233
856.06	3245
856.194	3321
856.327	3211
856.461	3176
856.595	3131
856.729	3154
856.862	3218
856.996	3214
857.13	3230
857.263	3294
857.397	3313
857.53	3135
857.664	3245
857.797	3291
857.931	3325
858.064	3233
858.197	3310
858.331	3226
858.464	3138
858.597	3070
858.731	3199
858.864	3180
858.997	3116
859.13	3264
859.263	3268
859.396	3256
859.529	3184
859.662	3154
859.795	3173
859.928	3218
860.061	3344
860.194	3359
860.327	3199
860.46	3161
860.592	3344
860.725	3348
860.858	3351
860.99	3161
861.123	3142
861.256	3131
861.388	3207
861.521	3941
861.653	3089
861.786	3112
861.918	3097
862.05	3138
862.183	3154
862.315	3256
862.447	3279
862.58	3176
862.712	3039
862.844	2960
862.976	3081
863.108	3070
863.24	3519
863.372	2971
863.504	2986
863.636	3005
863.768	3127
863.9	3070
864.032	3001
864.164	3036
864.296	3112
864.428	3161
864.559	3165
864.691	3161
864.823	3123
864.954	3108
865.086	3142
865.217	3028
865.349	3013
865.48	3039
865.612	3032
865.743	3237
865.875	3005
866.006	3009
866.137	3028
866.269	3017
866.4	3013
866.531	2979
866.662	2982
866.793	2956
866.924	2967
867.055	3077
867.186	2979
867.317	2925
867.448	2922
867.579	2918
867.71	2937
867.841	2891
867.972	2979
868.103	2986
868.233	2944
868.364	2937
868.495	2956
868.625	3161
868.756	3256
868.886	3032
869.017	3081
869.147	3279
869.278	3230
869.408	3119
869.539	3081
869.669	3135
869.799	3119
869.929	3176
870.06	3203
870.19	3389
870.32	3329
870.45	3363
870.58	3477
870.71	3507
870.84	3511
870.97	3389
871.1	3332
871.23	3572
871.36	3519
871.489	3443
871.619	3488
871.749	3485
871.879	3530
872.008	3580
872.138	3416
872.267	3325
872.397	3218
872.526	3180
872.656	3070
872.785	3165
872.915	3325
873.044	3405
873.173	3298
873.303	3332
873.432	3332
873.561	3287
873.69	3233
873.819	3230
873.948	3275
874.077	3180
874.206	3116
874.335	3165
874.464	3287
874.593	3416
874.722	3298
874.851	3466
874.979	3416
875.108	3363
875.237	3264
875.365	3230
875.494	3237
875.623	3348
875.751	3097
875.88	3142
876.008	3283
876.136	3287
876.265	3424
876.393	3618
876.521	3477
876.65	3450
876.778	3386
876.906	3351
877.034	3298
877.162	3306
877.29	3233
877.418	3359
877.546	3321
877.674	3310
877.802	3336
877.93	3313
878.058	3218
878.185	3184
878.313	3306
878.441	3272
878.568	3119
878.696	3241
878.824	3359
878.951	3378
879.079	3545
879.206	3698
879.333	3515
879.461	3428
879.588	3412
879.715	3568
879.842	3679
879.97	3450
880.097	3268
880.224	3218
880.351	3253
880.478	3325
880.605	3264
880.732	3249
880.859	3584
880.986	3393
881.112	3397
881.239	3268
881.366	3214
881.493	3127
881.619	3097
881.746	3104
881.872	3176
881.999	3150
882.125	3260
882.252	3302
882.378	3382
882.505	3530
882.631	3378
882.757	3237
882.883	3279
883.01	3302
883.136	3264
883.262	3195
883.388	3173
883.514	3420
883.64	3473
883.766	3393
883.892	3268
884.018	3291
884.143	3450
884.269	3637
884.395	3283
884.52	3211
884.646	3272
884.772	3199
884.897	3154
885.023	3313
885.148	3431
885.274	3492
885.399	3469
885.524	3351
885.65	3359
885.775	3351
885.9	3310
886.025	3534
886.15	3462
886.275	3363
886.4	3317
886.525	3382
886.65	3363
886.775	3348
886.9	3595
887.025	3759
887.149	3496
887.274	3325
887.399	3230
887.523	3298
887.648	3268
887.773	3283
887.897	3473
888.021	3515
888.146	3378
888.27	3481
888.395	3618
888.519	3526
888.643	3500
888.767	3568
888.891	3424
889.015	3287
889.139	3386
889.263	3313
889.387	3477
889.511	3625
889.635	3507
889.759	3317
889.883	3351
890.006	3458
890.13	3538
890.254	3329
890.377	3435
890.501	3283
890.624	3272
890.748	3382
890.871	3264
890.995	3169
891.118	3157
891.241	3283
891.364	3272
891.488	3416
891.611	3253
891.734	3313
891.857	3370
891.98	3329
892.103	3424
892.226	3329
892.349	3279
892.471	3211
892.594	3313
892.717	3313
892.839	3317
892.962	3348
893.085	3431
893.207	3378
893.33	3214
893.452	3272
893.575	3409
893.697	3283
893.819	3545
893.941	3561
894.064	3534
894.186	3332
894.308	3363
894.43	3469
894.552	3595
894.674	3587
894.796	3332
894.918	3409
895.04	3348
895.161	3519
895.283	3443
895.405	3374
895.526	3439
895.648	3500
895.769	3496
895.891	3534
896.012	3572
896.134	3561
896.255	3488
896.376	3462
896.498	3439
896.619	3469
896.74	3469
896.861	3504
896.982	3732
897.103	3911
897.224	3694
897.345	3568
897.466	3488
897.587	3580
897.708	3724
897.828	3610
897.949	3507
898.07	3370
898.19	3500
898.311	3660
898.431	3504
898.552	3530
898.672	3686
898.792	3701
898.913	3576
899.033	3500
899.153	3386
899.273	3359
899.393	3340
899.513	3401
899.633	3382
899.753	3416
899.873	3370
899.993	3447
900.113	3424
900.232	3511
900.352	3424
900.472	3344
900.591	3253
900.711	3359
900.83	3298
900.95	3488
901.069	3591
901.189	3428
901.308	3222
901.427	3192
901.546	3272
901.665	3359
901.784	3450
901.904	3272
902.023	3161
902.141	3055
902.26	3039
902.379	3184
902.498	3138
902.617	3108
902.735	3275
902.854	3283
902.973	3260
903.091	3127
903.21	3131
903.328	3226
903.446	3150
903.565	3154
903.683	3294
903.801	3199
903.919	3279
904.038	3325
904.156	3222
904.274	3370
904.392	3336
904.51	3298
904.627	3412
904.745	3447
904.863	3561
904.981	3367
905.098	3241
905.216	3306
905.334	3351
905.451	3370
905.569	3401
905.686	3473
905.803	3485
905.921	3348
906.038	3507
906.155	3393
906.272	3340
906.389	3424
906.506	3283
906.623	3294
906.74	3336
906.857	3245
906.974	3332
907.091	3515
907.208	3603
907.324	3519
907.441	3523
907.557	3283
907.674	3321
907.79	3275
907.907	3329
908.023	3458
908.139	3412
908.256	3420
908.372	3435
908.488	3447
908.604	3348
908.72	3283
908.836	3374
908.952	3367
909.068	3401
909.184	3568
909.3	3485
909.415	3564
909.531	3595
909.647	3340
909.762	3336
909.878	3348
909.993	3439
910.108	3393
910.224	3412
910.339	3477
910.454	3378
910.57	3355
910.685	3325
910.8	3641
910.915	3595
911.03	3507
911.145	3348
911.259	3332
911.374	3367
911.489	3321
911.604	3279
911.718	3203
911.833	3211
911.947	3097
912.062	3058
912.176	3260
912.291	3275
912.405	3306
912.519	3504
912.633	3507
912.748	3409
912.862	3329
912.976	3230
913.09	3093
913.204	3222
913.318	3283
913.431	3397
913.545	3424
913.659	3466
913.772	3382
913.886	3268
914	3226
914.113	3412
914.226	3500
914.34	3393
914.453	3294
914.566	3466
914.68	3344
914.793	3363
914.906	3195
915.019	3173
915.132	3119
915.245	3241
915.358	3275
915.47	3279
915.583	3321
915.696	3351
915.809	3469
915.921	3492
916.034	3313
916.146	3321
916.259	3287
916.371	3409
916.483	3428
916.595	3359
916.708	3409
916.82	3389
916.932	3389
917.044	3405
917.156	3405
917.268	3348
917.38	3401
917.491	3363
917.603	3454
917.715	3523
917.826	3481
917.938	3435
918.049	3348
918.161	3473
918.272	3618
918.384	3641
918.495	3557
918.606	3420
918.717	3325
918.828	3420
918.939	3473
919.05	3370
919.161	3424
919.272	3211
919.383	3370
919.494	3580
919.604	3713
919.715	3557
919.826	3466
919.936	3511
920.047	3599
920.157	3603
920.267	3819
920.378	3648
920.488	3614
920.598	3838
920.708	4025
920.818	3930
920.928	3903
921.038	4059
921.148	4071
921.258	3747
921.368	3682
921.477	3595
921.587	3633
921.697	3469
921.806	3686
921.916	3591
922.025	3424
922.134	3428
922.244	3378
922.353	3458
922.462	3310
922.571	3275
922.68	3142
922.789	3100
922.898	3207
923.007	3150
923.116	3272
923.224	3214
923.333	3275
923.442	3142
923.55	3157
923.659	3199
923.767	3298
923.876	3184
923.984	3268
924.092	3192
924.201	3256
924.309	3306
924.417	3317
924.525	3249
924.633	3260
924.741	4253
924.849	3142
924.956	3367
925.064	3184
925.172	3097
925.279	3173
925.387	3249
925.494	3302
925.602	3412
925.709	3435
925.816	3260
925.924	3367
926.031	3443
926.138	3428
926.245	3412
926.352	3340
926.459	3557
926.566	3587
926.673	3397
926.779	3306
926.886	3344
926.993	3256
927.099	3226
927.206	3218
927.312	3207
927.419	3310
927.525	3283
927.631	3367
927.737	3237
927.843	3226
927.95	3116
928.056	3256
928.162	3237
928.267	3348
928.373	3873
928.479	3382
928.585	3161
928.69	3283
928.796	3340
928.901	3226
929.007	3119
929.112	3291
929.218	3256
929.323	3222
929.428	3218
929.533	3420
929.638	3230
929.743	3283
929.848	3340
929.953	3298
930.058	3272
930.163	3077
930.267	3097
930.372	3291
930.477	3161
930.581	3401
930.685	3260
930.79	3157
930.894	3233
930.998	3169
931.103	3382
931.207	3081
931.311	3024
931.415	3001
931.519	2861
931.623	2910
