Data from test_V78500241_1633.txt Node
Date: Fri Mar 25 16:26:30 CST 2022
User: usil
Spectrometer: V785-0024
Trigger mode: 0
Integration Time (sec): 4.000000E-1
Scans to average: 1
Nonlinearity correction enabled: false
Boxcar width: 0
Storing dark spectrum: false
XAxis mode: Wavelengths
Number of Pixels in Spectrum: 1024
>>>>>Begin Spectral Data<<<<<
801.071	2899
801.214	2944
801.356	2902
801.499	2925
801.641	2861
801.783	2937
801.926	3047
802.068	2948
802.211	2994
802.353	3032
802.496	2941
802.638	2998
802.78	3028
802.923	3043
803.065	2979
803.208	2914
803.35	2922
803.492	2925
803.635	2925
803.777	2762
803.919	2899
804.061	3203
804.204	2922
804.346	2941
804.488	2853
804.63	2944
804.773	2883
804.915	2906
805.057	3085
805.199	2899
805.341	2982
805.483	3009
805.626	2979
805.768	2979
805.91	3070
806.052	3085
806.194	3009
806.336	3192
806.478	3043
806.62	2971
806.762	2960
806.904	3062
807.046	3184
807.188	3001
807.33	2933
807.472	2990
807.614	2883
807.756	2986
807.898	2914
808.04	2914
808.182	2952
808.324	2941
808.465	2880
808.607	2868
808.749	2819
808.891	2872
809.033	2960
809.174	2956
809.316	2883
809.458	2880
809.6	2773
809.741	2754
809.883	2785
810.025	2845
810.166	2887
810.308	2826
810.45	2842
810.591	2743
810.733	2777
810.875	2853
811.016	2777
811.158	2773
811.299	2830
811.441	2929
811.582	2899
811.724	2845
811.865	2830
812.007	2944
812.148	2883
812.29	2830
812.431	2906
812.573	2937
812.714	2975
812.855	3024
812.997	3074
813.138	3127
813.279	3043
813.421	2967
813.562	2956
813.703	2868
813.845	2937
813.986	2758
814.127	2739
814.268	2800
814.41	2845
814.551	2830
814.692	2845
814.833	2800
814.974	2925
815.115	2971
815.256	2842
815.397	2845
815.539	2853
815.68	2746
815.821	2823
815.962	2933
816.103	2918
816.244	2876
816.385	2826
816.526	2952
816.666	2883
816.807	2739
816.948	2845
817.089	2891
817.23	2815
817.371	2773
817.512	2792
817.653	2864
817.793	2811
817.934	2853
818.075	2963
818.216	3009
818.356	2982
818.497	2895
818.638	2781
818.778	2857
818.919	2781
819.06	2739
819.2	2887
819.341	2853
819.481	2796
819.622	2902
819.762	3089
819.903	3066
820.043	2956
820.184	2891
820.324	2910
820.465	3028
820.605	2994
820.746	3013
820.886	2918
821.026	3077
821.167	3131
821.307	3249
821.447	3264
821.588	3241
821.728	3192
821.868	3211
822.008	3070
822.149	3173
822.289	3226
822.429	3089
822.569	3100
822.709	3199
822.849	3013
822.99	3077
823.13	3150
823.27	3199
823.41	3077
823.55	3161
823.69	3150
823.83	3199
823.97	3116
824.11	2990
824.25	2982
824.389	3043
824.529	3112
824.669	3089
824.809	3154
824.949	3218
825.089	3245
825.228	3142
825.368	2998
825.508	2971
825.648	2982
825.787	2998
825.927	2990
826.067	2956
826.206	2944
826.346	3028
826.485	3055
826.625	3112
826.765	3272
826.904	3195
827.044	2971
827.183	2952
827.323	2842
827.462	2963
827.601	2929
827.741	2906
827.88	2963
828.02	2842
828.159	2979
828.298	3020
828.437	3119
828.577	3066
828.716	3218
828.855	3108
828.994	2929
829.134	2853
829.273	2918
829.412	2838
829.551	2895
829.69	2895
829.829	2998
829.968	3108
830.107	2990
830.246	3013
830.385	2914
830.524	2864
830.663	2807
830.802	2720
830.941	2625
831.08	2682
831.219	2788
831.357	2743
831.496	2895
831.635	2712
831.774	2629
831.913	2648
832.051	2552
832.19	2583
832.329	2640
832.467	2545
832.606	2480
832.744	2575
832.883	2575
833.022	2594
833.16	2667
833.299	2689
833.437	2686
833.576	2655
833.714	2682
833.852	2731
833.991	2746
834.129	2842
834.267	2811
834.406	2800
834.544	2872
834.682	2838
834.821	2868
834.959	3055
835.097	2895
835.235	3055
835.373	2963
835.511	3009
835.65	2963
835.788	2971
835.926	2845
836.064	2804
836.202	2845
836.34	3085
836.478	3161
836.615	3024
836.753	3116
836.891	3188
837.029	3161
837.167	3097
837.305	3055
837.443	3055
837.58	2944
837.718	3131
837.856	3043
837.993	2994
838.131	3097
838.269	3081
838.406	3077
838.544	3081
838.681	2937
838.819	2883
838.956	2781
839.094	2811
839.231	2922
839.369	3036
839.506	3355
839.643	3211
839.781	3017
839.918	2975
840.055	3077
840.193	3009
840.33	3039
840.467	3108
840.604	3112
840.742	3420
840.879	3047
841.016	3047
841.153	3119
841.29	3302
841.427	3306
841.564	3253
841.701	3302
841.838	3188
841.975	3169
842.112	3218
842.249	3077
842.385	3062
842.522	3279
842.659	3116
842.796	3020
842.933	3142
843.069	3020
843.206	3009
843.343	3157
843.479	3112
843.616	3138
843.752	2914
843.889	2845
844.025	3066
844.162	2891
844.298	3017
844.435	2956
844.571	2918
844.708	3089
844.844	3203
844.98	3283
845.117	3180
845.253	3028
845.389	2986
845.525	3104
845.661	3036
845.798	3020
845.934	3108
846.07	3047
846.206	3207
846.342	3321
846.478	3230
846.614	3100
846.75	3020
846.886	2990
847.022	3214
847.158	3100
847.294	3184
847.429	3264
847.565	3237
847.701	3458
847.837	3047
847.972	3017
848.108	3138
848.244	3146
848.379	2998
848.515	2948
848.65	2929
848.786	2975
848.921	3017
849.057	3116
849.192	3127
849.328	3066
849.463	3108
849.598	3070
849.734	3020
849.869	2971
850.004	2925
850.14	2948
850.275	2937
850.41	2849
850.545	2880
850.68	2925
850.815	2963
850.95	2963
851.085	3203
851.22	3112
851.355	3039
851.49	2982
851.625	3039
851.76	3009
851.895	2937
852.03	2918
852.165	3047
852.299	3138
852.434	3146
852.569	3150
852.703	3135
852.838	3249
852.973	3332
853.107	3294
853.242	3184
853.376	3089
853.511	2960
853.645	3028
853.78	3218
853.914	3119
854.048	3112
854.183	3089
854.317	3119
854.451	3268
854.585	3097
854.72	3051
854.854	3230
854.988	3036
855.122	3097
855.256	2986
855.39	3085
855.524	3230
855.658	3207
855.792	3142
855.926	3165
856.06	3195
856.194	3233
856.327	3180
856.461	3077
856.595	3077
856.729	3066
856.862	3230
856.996	3165
857.13	3173
857.263	3230
857.397	3249
857.53	3123
857.664	3195
857.797	3230
857.931	3272
858.064	3131
858.197	3173
858.331	3173
858.464	3074
858.597	3028
858.731	3146
858.864	3119
858.997	3051
859.13	3165
859.263	3173
859.396	3192
859.529	3093
859.662	3051
859.795	3032
859.928	3074
860.061	3260
860.194	3211
860.327	3142
860.46	3089
860.592	3211
860.725	3233
860.858	3260
860.99	3085
861.123	3032
861.256	3032
861.388	3127
861.521	3861
861.653	3009
861.786	2975
861.918	2982
862.05	3047
862.183	3062
862.315	3119
862.447	3192
862.58	3077
862.712	2948
862.844	2857
862.976	3009
863.108	2967
863.24	3405
863.372	2834
863.504	2960
863.636	2925
863.768	3039
863.9	2994
864.032	2933
864.164	2967
864.296	3020
864.428	3070
864.559	3138
864.691	3051
864.823	3039
864.954	3039
865.086	3032
865.217	2956
865.349	2952
865.48	2994
865.612	3009
865.743	3131
865.875	2990
866.006	2948
866.137	2994
866.269	2933
866.4	2922
866.531	2906
866.662	2914
866.793	2922
866.924	2838
867.055	2960
867.186	2910
867.317	2902
867.448	2826
867.579	2845
867.71	2826
867.841	2800
867.972	2910
868.103	2914
868.233	2872
868.364	2868
868.495	2891
868.625	3070
868.756	3180
868.886	2990
869.017	3043
869.147	3150
869.278	3173
869.408	3047
869.539	3017
869.669	3100
869.799	2994
869.929	3116
870.06	3104
870.19	3283
870.32	3287
870.45	3291
870.58	3397
870.71	3416
870.84	3409
870.97	3291
871.1	3222
871.23	3504
871.36	3454
871.489	3348
871.619	3355
871.749	3420
871.879	3405
872.008	3485
872.138	3306
872.267	3268
872.397	3154
872.526	3116
872.656	2979
872.785	3093
872.915	3233
873.044	3287
873.173	3195
873.303	3256
873.432	3283
873.561	3203
873.69	3119
873.819	3127
873.948	3214
874.077	3108
874.206	3074
874.335	3066
874.464	3211
874.593	3374
874.722	3195
874.851	3367
874.979	3329
875.108	3310
875.237	3226
875.365	3157
875.494	3173
875.623	3272
875.751	3097
875.88	3112
876.008	3192
876.136	3241
876.265	3340
876.393	3469
876.521	3424
876.65	3374
876.778	3348
876.906	3253
877.034	3180
877.162	3230
877.29	3127
877.418	3260
877.546	3245
877.674	3268
877.802	3245
877.93	3245
878.058	3142
878.185	3108
878.313	3203
878.441	3260
878.568	3066
878.696	3154
878.824	3253
878.951	3306
879.079	3439
879.206	3625
879.333	3431
879.461	3363
879.588	3367
879.715	3473
879.842	3557
879.97	3386
880.097	3169
880.224	3123
880.351	3184
880.478	3207
880.605	3211
880.732	3169
880.859	3496
880.986	3302
881.112	3291
881.239	3199
881.366	3085
881.493	3028
881.619	2979
881.746	3051
881.872	3093
881.999	3100
882.125	3184
882.252	3230
882.378	3272
882.505	3389
882.631	3306
882.757	3154
882.883	3218
883.01	3180
883.136	3154
883.262	3100
883.388	3112
883.514	3313
883.64	3397
883.766	3306
883.892	3195
884.018	3233
884.143	3416
884.269	3530
884.395	3211
884.52	3150
884.646	3131
884.772	3169
884.897	3077
885.023	3218
885.148	3344
885.274	3409
885.399	3355
885.524	3310
885.65	3272
885.775	3336
885.9	3291
886.025	3450
886.15	3325
886.275	3283
886.4	3256
886.525	3302
886.65	3214
886.775	3268
886.9	3481
887.025	3644
887.149	3374
887.274	3275
887.399	3154
887.523	3176
887.648	3150
887.773	3192
887.897	3336
888.021	3424
888.146	3329
888.27	3458
888.395	3492
888.519	3420
888.643	3450
888.767	3431
888.891	3317
889.015	3211
889.139	3253
889.263	3237
889.387	3435
889.511	3515
889.635	3454
889.759	3317
889.883	3283
890.006	3378
890.13	3447
890.254	3283
890.377	3344
890.501	3199
890.624	3207
890.748	3279
890.871	3188
890.995	3104
891.118	3043
891.241	3176
891.364	3195
891.488	3325
891.611	3188
891.734	3218
891.857	3275
891.98	3218
892.103	3321
892.226	3268
892.349	3237
892.471	3104
892.594	3230
892.717	3302
892.839	3264
892.962	3291
893.085	3355
893.207	3291
893.33	3123
893.452	3203
893.575	3332
893.697	3256
893.819	3473
893.941	3477
894.064	3466
894.186	3256
894.308	3283
894.43	3428
894.552	3549
894.674	3462
894.796	3275
894.918	3332
895.04	3249
895.161	3439
895.283	3393
895.405	3302
895.526	3378
895.648	3424
895.769	3435
895.891	3435
896.012	3469
896.134	3469
896.255	3412
896.376	3367
896.498	3370
896.619	3439
896.74	3397
896.861	3378
896.982	3705
897.103	3819
897.224	3591
897.345	3538
897.466	3401
897.587	3496
897.708	3591
897.828	3534
897.949	3439
898.07	3310
898.19	3351
898.311	3629
898.431	3389
898.552	3515
898.672	3564
898.792	3545
898.913	3549
899.033	3378
899.153	3321
899.273	3230
899.393	3260
899.513	3321
899.633	3325
899.753	3348
899.873	3298
899.993	3382
900.113	3329
900.232	3336
900.352	3310
900.472	3306
900.591	3203
900.711	3260
900.83	3253
900.95	3348
901.069	3450
901.189	3313
901.308	3184
901.427	3138
901.546	3157
901.665	3321
901.784	3313
901.904	3230
902.023	3180
902.141	2979
902.26	3009
902.379	3135
902.498	3051
902.617	3070
902.735	3211
902.854	3211
902.973	3203
903.091	3074
903.21	3039
903.328	3119
903.446	3127
903.565	3085
903.683	3195
903.801	3104
903.919	3272
904.038	3283
904.156	3142
904.274	3302
904.392	3237
904.51	3283
904.627	3321
904.745	3454
904.863	3519
904.981	3268
905.098	3173
905.216	3214
905.334	3294
905.451	3253
905.569	3275
905.686	3409
905.803	3416
905.921	3317
906.038	3424
906.155	3348
906.272	3245
906.389	3313
906.506	3260
906.623	3253
906.74	3253
906.857	3180
906.974	3237
907.091	3401
907.208	3553
907.324	3481
907.441	3374
907.557	3237
907.674	3199
907.79	3222
907.907	3256
908.023	3370
908.139	3386
908.256	3325
908.372	3401
908.488	3359
908.604	3264
908.72	3245
908.836	3291
908.952	3272
909.068	3317
909.184	3469
909.3	3367
909.415	3519
909.531	3515
909.647	3294
909.762	3256
909.878	3283
909.993	3344
910.108	3336
910.224	3302
910.339	3424
910.454	3325
910.57	3283
910.685	3256
910.8	3610
910.915	3549
911.03	3435
911.145	3279
911.259	3302
911.374	3321
911.489	3275
911.604	3222
911.718	3146
911.833	3173
911.947	3043
912.062	2975
912.176	3157
912.291	3188
912.405	3264
912.519	3409
912.633	3485
912.748	3340
912.862	3264
912.976	3169
913.09	3093
913.204	3161
913.318	3176
913.431	3317
913.545	3340
913.659	3393
913.772	3291
913.886	3222
914	3180
914.113	3374
914.226	3393
914.34	3370
914.453	3230
914.566	3401
914.68	3275
914.793	3332
914.906	3135
915.019	3097
915.132	3100
915.245	3161
915.358	3157
915.47	3249
915.583	3241
915.696	3279
915.809	3416
915.921	3416
916.034	3249
916.146	3256
916.259	3207
916.371	3382
916.483	3389
916.595	3249
916.708	3344
916.82	3336
916.932	3340
917.044	3370
917.156	3389
917.268	3291
917.38	3294
917.491	3283
917.603	3378
917.715	3458
917.826	3477
917.938	3397
918.049	3260
918.161	3443
918.272	3595
918.384	3587
918.495	3462
918.606	3325
918.717	3233
918.828	3401
918.939	3424
919.05	3298
919.161	3329
919.272	3169
919.383	3287
919.494	3511
919.604	3675
919.715	3473
919.826	3439
919.936	3481
920.047	3587
920.157	3534
920.267	3766
920.378	3591
920.488	3553
920.598	3804
920.708	3968
920.818	3827
920.928	3827
921.038	4017
921.148	3968
921.258	3717
921.368	3625
921.477	3549
921.587	3526
921.697	3466
921.806	3633
921.916	3481
922.025	3344
922.134	3336
922.244	3340
922.353	3481
922.462	3294
922.571	3245
922.68	3104
922.789	3108
922.898	3157
923.007	3093
923.116	3180
923.224	3180
923.333	3176
923.442	3077
923.55	3077
923.659	3157
923.767	3233
923.876	3062
923.984	3241
924.092	3097
924.201	3211
924.309	3241
924.417	3275
924.525	3192
924.633	3195
924.741	4173
924.849	3097
924.956	3256
925.064	3097
925.172	3036
925.279	3047
925.387	3173
925.494	3188
925.602	3370
925.709	3321
925.816	3211
925.924	3264
926.031	3382
926.138	3317
926.245	3370
926.352	3222
926.459	3412
926.566	3477
926.673	3340
926.779	3226
926.886	3230
926.993	3176
927.099	3108
927.206	3108
927.312	3127
927.419	3245
927.525	3211
927.631	3272
927.737	3135
927.843	3104
927.95	3024
928.056	3138
928.162	3173
928.267	3249
928.373	3835
928.479	3294
928.585	3043
928.69	3192
928.796	3249
928.901	3157
929.007	3024
929.112	3203
929.218	3165
929.323	3138
929.428	3157
929.533	3313
929.638	3104
929.743	3169
929.848	3241
929.953	3203
930.058	3138
930.163	2979
930.267	3066
930.372	3207
930.477	3032
930.581	3291
930.685	3146
930.79	3058
930.894	3108
930.998	3116
931.103	3321
931.207	2952
931.311	2925
931.415	2902
931.519	2792
931.623	2796
