Data from test_V78500241_1071.txt Node
Date: Fri Mar 25 16:22:37 CST 2022
User: usil
Spectrometer: V785-0024
Trigger mode: 0
Integration Time (sec): 4.000000E-1
Scans to average: 1
Nonlinearity correction enabled: false
Boxcar width: 0
Storing dark spectrum: false
XAxis mode: Wavelengths
Number of Pixels in Spectrum: 1024
>>>>>Begin Spectral Data<<<<<
801.071	2883
801.214	2960
801.356	2826
801.499	2910
801.641	2868
801.783	2906
801.926	3077
802.068	2960
802.211	2994
802.353	3024
802.496	2937
802.638	3020
802.78	3062
802.923	3081
803.065	3001
803.208	2861
803.35	2887
803.492	2933
803.635	2895
803.777	2769
803.919	2895
804.061	3218
804.204	2956
804.346	2918
804.488	2834
804.63	3005
804.773	2899
804.915	2929
805.057	3043
805.199	2910
805.341	3020
805.483	3036
805.626	3036
805.768	2941
805.91	3093
806.052	3119
806.194	3024
806.336	3214
806.478	3017
806.62	2956
806.762	2982
806.904	3081
807.046	3188
807.188	3001
807.33	2899
807.472	2982
807.614	2941
807.756	2971
807.898	2960
808.04	2861
808.182	2948
808.324	2925
808.465	2899
808.607	2902
808.749	2819
808.891	2834
809.033	2994
809.174	2956
809.316	2906
809.458	2887
809.6	2773
809.741	2773
809.883	2781
810.025	2853
810.166	2891
810.308	2849
810.45	2864
810.591	2785
810.733	2781
810.875	2792
811.016	2777
811.158	2746
811.299	2800
811.441	2925
811.582	2883
811.724	2830
811.865	2830
812.007	2891
812.148	2876
812.29	2845
812.431	2880
812.573	2979
812.714	2952
812.855	3055
812.997	2994
813.138	3138
813.279	2998
813.421	2979
813.562	2952
813.703	2872
813.845	2868
813.986	2762
814.127	2727
814.268	2804
814.41	2815
814.551	2807
814.692	2864
814.833	2819
814.974	2891
815.115	2967
815.256	2781
815.397	2868
815.539	2834
815.68	2762
815.821	2769
815.962	2914
816.103	2990
816.244	2861
816.385	2876
816.526	2990
816.666	2941
816.807	2735
816.948	2876
817.089	2933
817.23	2880
817.371	2777
817.512	2800
817.653	2842
817.793	2823
817.934	2883
818.075	2929
818.216	3005
818.356	3009
818.497	2891
818.638	2819
818.778	2796
818.919	2811
819.06	2781
819.2	2880
819.341	2807
819.481	2804
819.622	2937
819.762	3081
819.903	3051
820.043	2929
820.184	2914
820.324	2895
820.465	3028
820.605	3032
820.746	3013
820.886	2925
821.026	3116
821.167	3214
821.307	3249
821.447	3275
821.588	3218
821.728	3165
821.868	3199
822.008	3051
822.149	3214
822.289	3214
822.429	3116
822.569	3085
822.709	3154
822.849	3024
822.99	3051
823.13	3169
823.27	3211
823.41	3127
823.55	3142
823.69	3150
823.83	3188
823.97	3097
824.11	3009
824.25	2990
824.389	3043
824.529	3100
824.669	3051
824.809	3199
824.949	3211
825.089	3192
825.228	3142
825.368	3043
825.508	2910
825.648	2925
825.787	3020
825.927	3043
826.067	2960
826.206	2956
826.346	3020
826.485	3055
826.625	3062
826.765	3256
826.904	3214
827.044	3024
827.183	2929
827.323	2872
827.462	2990
827.601	2887
827.741	2899
827.88	2937
828.02	2883
828.159	2948
828.298	3005
828.437	3070
828.577	3055
828.716	3222
828.855	3058
828.994	2899
829.134	2883
829.273	2918
829.412	2872
829.551	2853
829.69	2922
829.829	2979
829.968	3112
830.107	3024
830.246	3017
830.385	2937
830.524	2887
830.663	2826
830.802	2712
830.941	2625
831.08	2651
831.219	2754
831.357	2746
831.496	2922
831.635	2716
831.774	2648
831.913	2651
832.051	2499
832.19	2587
832.329	2682
832.467	2526
832.606	2476
832.744	2617
832.883	2564
833.022	2602
833.16	2655
833.299	2693
833.437	2682
833.576	2705
833.714	2712
833.852	2705
833.991	2781
834.129	2864
834.267	2853
834.406	2773
834.544	2864
834.682	2887
834.821	2868
834.959	3036
835.097	2876
835.235	3047
835.373	2971
835.511	3001
835.65	2941
835.788	2933
835.926	2849
836.064	2819
836.202	2826
836.34	3085
836.478	3123
836.615	3032
836.753	3123
836.891	3150
837.029	3192
837.167	3089
837.305	3047
837.443	2979
837.58	2941
837.718	3119
837.856	3062
837.993	3051
838.131	3119
838.269	3089
838.406	3074
838.544	3089
838.681	2914
838.819	2899
838.956	2777
839.094	2864
839.231	2895
839.369	2982
839.506	3348
839.643	3199
839.781	3020
839.918	2933
840.055	3032
840.193	3047
840.33	3081
840.467	3081
840.604	3123
840.742	3405
840.879	3039
841.016	3036
841.153	3127
841.29	3294
841.427	3306
841.564	3237
841.701	3310
841.838	3241
841.975	3184
842.112	3207
842.249	3093
842.385	3051
842.522	3169
842.659	3123
842.796	3062
842.933	3104
843.069	2998
843.206	3043
843.343	3150
843.479	3077
843.616	3112
843.752	2880
843.889	2868
844.025	3108
844.162	2902
844.298	3032
844.435	2925
844.571	2887
844.708	3043
844.844	3176
844.98	3241
845.117	3218
845.253	3032
845.389	3001
845.525	3104
845.661	3085
845.798	2963
845.934	3123
846.07	3062
846.206	3211
846.342	3298
846.478	3279
846.614	3058
846.75	3005
846.886	3032
847.022	3268
847.158	3112
847.294	3157
847.429	3245
847.565	3195
847.701	3428
847.837	3028
847.972	2986
848.108	3150
848.244	3138
848.379	3009
848.515	2975
848.65	2906
848.786	2941
848.921	3043
849.057	3116
849.192	3119
849.328	3116
849.463	3135
849.598	3039
849.734	3070
849.869	2975
850.004	2918
850.14	2956
850.275	2925
850.41	2842
850.545	2880
850.68	2925
850.815	2914
850.95	2963
851.085	3169
851.22	3127
851.355	3047
851.49	2971
851.625	2986
851.76	3017
851.895	2929
852.03	2899
852.165	3051
852.299	3104
852.434	3165
852.569	3116
852.703	3169
852.838	3233
852.973	3359
853.107	3370
853.242	3135
853.376	3119
853.511	2971
853.645	3032
853.78	3233
853.914	3085
854.048	3112
854.183	3093
854.317	3157
854.451	3310
854.585	3138
854.72	3081
854.854	3165
854.988	3036
855.122	3127
855.256	2960
855.39	3123
855.524	3233
855.658	3180
855.792	3188
855.926	3169
856.06	3188
856.194	3237
856.327	3165
856.461	3070
856.595	3055
856.729	3116
856.862	3192
856.996	3150
857.13	3146
857.263	3226
857.397	3313
857.53	3108
857.664	3169
857.797	3237
857.931	3241
858.064	3146
858.197	3195
858.331	3150
858.464	3093
858.597	3001
858.731	3100
858.864	3104
858.997	3077
859.13	3138
859.263	3146
859.396	3169
859.529	3070
859.662	3032
859.795	3047
859.928	3146
860.061	3260
860.194	3264
860.327	3119
860.46	3066
860.592	3241
860.725	3226
860.858	3313
860.99	3074
861.123	3051
861.256	3051
861.388	3123
861.521	3793
861.653	3001
861.786	2948
861.918	2998
862.05	3047
862.183	3104
862.315	3131
862.447	3226
862.58	3077
862.712	2960
862.844	2887
862.976	3020
863.108	3009
863.24	3306
863.372	2872
863.504	2975
863.636	2933
863.768	3001
863.9	3013
864.032	2910
864.164	2937
864.296	3013
864.428	3089
864.559	3066
864.691	3058
864.823	3100
864.954	3043
865.086	3039
865.217	2998
865.349	2937
865.48	2960
865.612	3005
865.743	3184
865.875	2948
866.006	2929
866.137	2963
866.269	2933
866.4	2899
866.531	2883
866.662	2872
866.793	2868
866.924	2902
867.055	2952
867.186	2925
867.317	2887
867.448	2849
867.579	2830
867.71	2838
867.841	2826
867.972	2914
868.103	2918
868.233	2895
868.364	2845
868.495	2914
868.625	3081
868.756	3173
868.886	2944
869.017	3017
869.147	3180
869.278	3154
869.408	3032
869.539	3009
869.669	3097
869.799	3066
869.929	3161
870.06	3135
870.19	3336
870.32	3294
870.45	3321
870.58	3397
870.71	3462
870.84	3450
870.97	3294
871.1	3199
871.23	3477
871.36	3424
871.489	3348
871.619	3367
871.749	3424
871.879	3469
872.008	3477
872.138	3370
872.267	3275
872.397	3112
872.526	3119
872.656	2982
872.785	3131
872.915	3245
873.044	3340
873.173	3157
873.303	3249
873.432	3241
873.561	3230
873.69	3184
873.819	3142
873.948	3207
874.077	3100
874.206	3009
874.335	3100
874.464	3150
874.593	3340
874.722	3207
874.851	3424
874.979	3344
875.108	3294
875.237	3192
875.365	3119
875.494	3142
875.623	3237
875.751	3062
875.88	3119
876.008	3207
876.136	3230
876.265	3378
876.393	3488
876.521	3405
876.65	3416
876.778	3329
876.906	3241
877.034	3195
877.162	3214
877.29	3142
877.418	3241
877.546	3256
877.674	3253
877.802	3230
877.93	3214
878.058	3146
878.185	3081
878.313	3184
878.441	3188
878.568	3074
878.696	3138
878.824	3253
878.951	3275
879.079	3466
879.206	3637
879.333	3424
879.461	3329
879.588	3378
879.715	3473
879.842	3587
879.97	3348
880.097	3150
880.224	3154
880.351	3203
880.478	3218
880.605	3195
880.732	3161
880.859	3473
880.986	3317
881.112	3325
881.239	3195
881.366	3089
881.493	3017
881.619	3013
881.746	3051
881.872	3089
881.999	3138
882.125	3135
882.252	3249
882.378	3249
882.505	3405
882.631	3275
882.757	3127
882.883	3245
883.01	3241
883.136	3161
883.262	3062
883.388	3089
883.514	3351
883.64	3363
883.766	3302
883.892	3154
884.018	3199
884.143	3370
884.269	3515
884.395	3169
884.52	3188
884.646	3195
884.772	3138
884.897	3055
885.023	3184
885.148	3329
885.274	3386
885.399	3386
885.524	3294
885.65	3237
885.775	3306
885.9	3287
886.025	3431
886.15	3344
886.275	3313
886.4	3195
886.525	3306
886.65	3249
886.775	3272
886.9	3481
887.025	3614
887.149	3412
887.274	3294
887.399	3150
887.523	3203
887.648	3169
887.773	3214
887.897	3359
888.021	3389
888.146	3298
888.27	3397
888.395	3538
888.519	3424
888.643	3469
888.767	3458
888.891	3298
889.015	3211
889.139	3275
889.263	3233
889.387	3405
889.511	3473
889.635	3428
889.759	3283
889.883	3313
890.006	3367
890.13	3500
890.254	3275
890.377	3370
890.501	3195
890.624	3154
890.748	3283
890.871	3180
890.995	3070
891.118	3051
891.241	3192
891.364	3230
891.488	3291
891.611	3199
891.734	3256
891.857	3294
891.98	3218
892.103	3329
892.226	3272
892.349	3230
892.471	3127
892.594	3283
892.717	3256
892.839	3306
892.962	3321
893.085	3359
893.207	3313
893.33	3116
893.452	3203
893.575	3332
893.697	3222
893.819	3492
893.941	3477
894.064	3477
894.186	3264
894.308	3233
894.43	3412
894.552	3519
894.674	3500
894.796	3264
894.918	3291
895.04	3279
895.161	3424
895.283	3393
895.405	3313
895.526	3344
895.648	3405
895.769	3397
895.891	3424
896.012	3447
896.134	3458
896.255	3397
896.376	3397
896.498	3363
896.619	3447
896.74	3431
896.861	3378
896.982	3682
897.103	3842
897.224	3595
897.345	3492
897.466	3450
897.587	3488
897.708	3606
897.828	3553
897.949	3481
898.07	3367
898.19	3405
898.311	3595
898.431	3428
898.552	3492
898.672	3576
898.792	3587
898.913	3496
899.033	3405
899.153	3294
899.273	3222
899.393	3268
899.513	3291
899.633	3298
899.753	3340
899.873	3302
899.993	3363
900.113	3313
900.232	3386
900.352	3291
900.472	3272
900.591	3237
900.711	3283
900.83	3222
900.95	3393
901.069	3523
901.189	3370
901.308	3146
901.427	3150
901.546	3226
901.665	3325
901.784	3359
901.904	3173
902.023	3154
902.141	2944
902.26	2975
902.379	3123
902.498	3058
902.617	3032
902.735	3226
902.854	3237
902.973	3173
903.091	3043
903.21	3100
903.328	3165
903.446	3100
903.565	3097
903.683	3188
903.801	3142
903.919	3222
904.038	3291
904.156	3146
904.274	3298
904.392	3226
904.51	3287
904.627	3298
904.745	3447
904.863	3450
904.981	3275
905.098	3157
905.216	3226
905.334	3275
905.451	3321
905.569	3294
905.686	3428
905.803	3443
905.921	3279
906.038	3409
906.155	3325
906.272	3233
906.389	3340
906.506	3226
906.623	3294
906.74	3245
906.857	3138
906.974	3256
907.091	3458
907.208	3587
907.324	3481
907.441	3439
907.557	3241
907.674	3256
907.79	3195
907.907	3287
908.023	3386
908.139	3374
908.256	3291
908.372	3340
908.488	3382
908.604	3275
908.72	3237
908.836	3302
908.952	3298
909.068	3336
909.184	3500
909.3	3389
909.415	3553
909.531	3439
909.647	3268
909.762	3298
909.878	3287
909.993	3344
910.108	3370
910.224	3340
910.339	3420
910.454	3336
910.57	3268
910.685	3241
910.8	3572
910.915	3523
911.03	3416
911.145	3283
911.259	3279
911.374	3325
911.489	3233
911.604	3214
911.718	3097
911.833	3180
911.947	3043
912.062	2975
912.176	3173
912.291	3192
912.405	3207
912.519	3435
912.633	3428
912.748	3313
912.862	3268
912.976	3188
913.09	3112
913.204	3104
913.318	3192
913.431	3336
913.545	3306
913.659	3409
913.772	3321
913.886	3199
914	3218
914.113	3370
914.226	3397
914.34	3306
914.453	3195
914.566	3416
914.68	3313
914.793	3302
914.906	3142
915.019	3157
915.132	3028
915.245	3203
915.358	3211
915.47	3222
915.583	3226
915.696	3272
915.809	3409
915.921	3443
916.034	3237
916.146	3214
916.259	3203
916.371	3370
916.483	3359
916.595	3275
916.708	3306
916.82	3321
916.932	3313
917.044	3329
917.156	3317
917.268	3283
917.38	3325
917.491	3279
917.603	3374
917.715	3443
917.826	3443
917.938	3351
918.049	3302
918.161	3443
918.272	3553
918.384	3580
918.495	3515
918.606	3363
918.717	3233
918.828	3374
918.939	3416
919.05	3264
919.161	3317
919.272	3127
919.383	3291
919.494	3450
919.604	3698
919.715	3477
919.826	3393
919.936	3466
920.047	3603
920.157	3542
920.267	3747
920.378	3644
920.488	3572
920.598	3800
920.708	3941
920.818	3755
920.928	3819
921.038	4036
921.148	4032
921.258	3713
921.368	3614
921.477	3572
921.587	3534
921.697	3420
921.806	3648
921.916	3511
922.025	3382
922.134	3321
922.244	3317
922.353	3420
922.462	3264
922.571	3203
922.68	3093
922.789	3097
922.898	3142
923.007	3066
923.116	3207
923.224	3203
923.333	3176
923.442	3089
923.55	3100
923.659	3150
923.767	3233
923.876	3123
923.984	3233
924.092	3112
924.201	3169
924.309	3230
924.417	3237
924.525	3188
924.633	3253
924.741	4158
924.849	3089
924.956	3268
925.064	3066
925.172	3001
925.279	3093
925.387	3188
925.494	3188
925.602	3359
925.709	3275
925.816	3192
925.924	3256
926.031	3355
926.138	3291
926.245	3412
926.352	3256
926.459	3374
926.566	3443
926.673	3302
926.779	3256
926.886	3222
926.993	3176
927.099	3123
927.206	3097
927.312	3127
927.419	3195
927.525	3207
927.631	3264
927.737	3135
927.843	3127
927.95	3009
928.056	3146
928.162	3165
928.267	3222
928.373	3876
928.479	3291
928.585	3085
928.69	3218
928.796	3241
928.901	3146
929.007	3066
929.112	3188
929.218	3161
929.323	3165
929.428	3165
929.533	3253
929.638	3138
929.743	3192
929.848	3226
929.953	3214
930.058	3131
930.163	3013
930.267	3085
930.372	3180
930.477	3032
930.581	3370
930.685	3176
930.79	3043
930.894	3123
930.998	3104
931.103	3241
931.207	2967
931.311	2971
931.415	2895
931.519	2788
931.623	2800
