Data from test_V78500241_1719.txt Node
Date: Fri Mar 25 16:27:06 CST 2022
User: usil
Spectrometer: V785-0024
Trigger mode: 0
Integration Time (sec): 4.000000E-1
Scans to average: 1
Nonlinearity correction enabled: false
Boxcar width: 0
Storing dark spectrum: false
XAxis mode: Wavelengths
Number of Pixels in Spectrum: 1024
>>>>>Begin Spectral Data<<<<<
801.071	2929
801.214	2922
801.356	2872
801.499	2922
801.641	2895
801.783	2899
801.926	3055
802.068	3001
802.211	2982
802.353	3005
802.496	2971
802.638	2982
802.78	3028
802.923	3089
803.065	2975
803.208	2872
803.35	2910
803.492	2891
803.635	2918
803.777	2773
803.919	2853
804.061	3173
804.204	2944
804.346	2899
804.488	2815
804.63	2998
804.773	2842
804.915	2933
805.057	3077
805.199	2891
805.341	2952
805.483	3066
805.626	3009
805.768	2952
805.91	3058
806.052	3097
806.194	3051
806.336	3203
806.478	2967
806.62	2944
806.762	3001
806.904	3047
807.046	3154
807.188	2941
807.33	2918
807.472	2971
807.614	2929
807.756	2975
807.898	2925
808.04	2914
808.182	2975
808.324	2933
808.465	2883
808.607	2861
808.749	2807
808.891	2845
809.033	3001
809.174	2941
809.316	2902
809.458	2868
809.6	2754
809.741	2781
809.883	2781
810.025	2842
810.166	2815
810.308	2815
810.45	2838
810.591	2773
810.733	2777
810.875	2804
811.016	2758
811.158	2766
811.299	2807
811.441	2910
811.582	2887
811.724	2815
811.865	2823
812.007	2925
812.148	2842
812.29	2849
812.431	2876
812.573	2925
812.714	2918
812.855	3058
812.997	3062
813.138	3142
813.279	3020
813.421	2960
813.562	2948
813.703	2864
813.845	2902
813.986	2769
814.127	2735
814.268	2842
814.41	2800
814.551	2834
814.692	2887
814.833	2781
814.974	2937
815.115	2944
815.256	2830
815.397	2785
815.539	2868
815.68	2788
815.821	2781
815.962	2902
816.103	2864
816.244	2887
816.385	2861
816.526	2960
816.666	2899
816.807	2727
816.948	2868
817.089	2910
817.23	2853
817.371	2781
817.512	2815
817.653	2823
817.793	2815
817.934	2876
818.075	2933
818.216	2994
818.356	3001
818.497	2883
818.638	2773
818.778	2811
818.919	2773
819.06	2750
819.2	2872
819.341	2788
819.481	2777
819.622	2910
819.762	3142
819.903	3032
820.043	2902
820.184	2861
820.324	2891
820.465	3001
820.605	3013
820.746	3028
820.886	2937
821.026	3093
821.167	3161
821.307	3260
821.447	3245
821.588	3218
821.728	3184
821.868	3184
822.008	3077
822.149	3161
822.289	3207
822.429	3077
822.569	3066
822.709	3169
822.849	3032
822.99	3093
823.13	3180
823.27	3165
823.41	3108
823.55	3135
823.69	3157
823.83	3207
823.97	3089
824.11	3024
824.25	2998
824.389	3116
824.529	3150
824.669	3028
824.809	3188
824.949	3253
825.089	3180
825.228	3165
825.368	3005
825.508	2982
825.648	2967
825.787	2990
825.927	3036
826.067	2979
826.206	2960
826.346	3051
826.485	3081
826.625	3119
826.765	3230
826.904	3230
827.044	3001
827.183	2952
827.323	2849
827.462	2975
827.601	2918
827.741	2925
827.88	2960
828.02	2842
828.159	2960
828.298	3009
828.437	3093
828.577	3043
828.716	3226
828.855	3081
828.994	2906
829.134	2880
829.273	2925
829.412	2876
829.551	2830
829.69	2876
829.829	2967
829.968	3085
830.107	3024
830.246	3017
830.385	2925
830.524	2880
830.663	2834
830.802	2720
830.941	2678
831.08	2644
831.219	2731
831.357	2735
831.496	2952
831.635	2727
831.774	2629
831.913	2648
832.051	2492
832.19	2530
832.329	2655
832.467	2503
832.606	2488
832.744	2590
832.883	2613
833.022	2537
833.16	2640
833.299	2689
833.437	2693
833.576	2678
833.714	2705
833.852	2689
833.991	2735
834.129	2826
834.267	2834
834.406	2781
834.544	2853
834.682	2849
834.821	2872
834.959	3043
835.097	2891
835.235	3036
835.373	2967
835.511	3005
835.65	2956
835.788	2929
835.926	2845
836.064	2785
836.202	2826
836.34	3081
836.478	3135
836.615	3036
836.753	3146
836.891	3214
837.029	3150
837.167	3116
837.305	3055
837.443	3001
837.58	2933
837.718	3077
837.856	3074
837.993	3001
838.131	3108
838.269	3104
838.406	3055
838.544	3077
838.681	2899
838.819	2899
838.956	2834
839.094	2807
839.231	2868
839.369	3032
839.506	3382
839.643	3157
839.781	3001
839.918	2960
840.055	2986
840.193	3013
840.33	3032
840.467	3074
840.604	3127
840.742	3386
840.879	3028
841.016	3077
841.153	3062
841.29	3317
841.427	3241
841.564	3218
841.701	3306
841.838	3203
841.975	3188
842.112	3176
842.249	3074
842.385	2986
842.522	3237
842.659	3051
842.796	3058
842.933	3093
843.069	3024
843.206	3013
843.343	3161
843.479	3100
843.616	3150
843.752	2842
843.889	2838
844.025	3070
844.162	2834
844.298	3077
844.435	2944
844.571	2868
844.708	3043
844.844	3173
844.98	3218
845.117	3161
845.253	3039
845.389	2986
845.525	3077
845.661	3146
845.798	2963
845.934	3123
846.07	3036
846.206	3176
846.342	3275
846.478	3245
846.614	3081
846.75	3047
846.886	3024
847.022	3203
847.158	3108
847.294	3176
847.429	3226
847.565	3188
847.701	3435
847.837	3024
847.972	2990
848.108	3173
848.244	3165
848.379	2975
848.515	2906
848.65	2918
848.786	2956
848.921	3005
849.057	3097
849.192	3112
849.328	3017
849.463	3104
849.598	3066
849.734	3005
849.869	2960
850.004	2922
850.14	2941
850.275	2887
850.41	2823
850.545	2883
850.68	2933
850.815	2941
850.95	2975
851.085	3203
851.22	3112
851.355	3039
851.49	2960
851.625	2971
851.76	3005
851.895	2944
852.03	2910
852.165	3039
852.299	3135
852.434	3180
852.569	3123
852.703	3173
852.838	3245
852.973	3313
853.107	3313
853.242	3154
853.376	3089
853.511	2952
853.645	3024
853.78	3203
853.914	3119
854.048	3112
854.183	3051
854.317	3135
854.451	3253
854.585	3123
854.72	3055
854.854	3150
854.988	3043
855.122	3058
855.256	2982
855.39	3123
855.524	3230
855.658	3123
855.792	3135
855.926	3146
856.06	3180
856.194	3264
856.327	3169
856.461	3032
856.595	3085
856.729	3123
856.862	3207
856.996	3123
857.13	3157
857.263	3203
857.397	3287
857.53	3135
857.664	3165
857.797	3222
857.931	3264
858.064	3176
858.197	3173
858.331	3131
858.464	3085
858.597	2998
858.731	3081
858.864	3116
858.997	3047
859.13	3104
859.263	3192
859.396	3157
859.529	3085
859.662	3100
859.795	2986
859.928	3146
860.061	3249
860.194	3260
860.327	3100
860.46	3070
860.592	3245
860.725	3260
860.858	3226
860.99	3093
861.123	3017
861.256	3005
861.388	3138
861.521	3907
861.653	2986
861.786	2960
861.918	2994
862.05	3062
862.183	3070
862.315	3169
862.447	3138
862.58	3093
862.712	2944
862.844	2857
862.976	2979
863.108	3028
863.24	3435
863.372	2834
863.504	2956
863.636	2929
863.768	2990
863.9	2975
864.032	2876
864.164	2952
864.296	2986
864.428	3077
864.559	3089
864.691	3058
864.823	3024
864.954	3009
865.086	3039
865.217	2963
865.349	2918
865.48	2948
865.612	2963
865.743	3157
865.875	2975
866.006	2925
866.137	2948
866.269	2937
866.4	2910
866.531	2864
866.662	2853
866.793	2868
866.924	2887
867.055	2937
867.186	2891
867.317	2876
867.448	2826
867.579	2807
867.71	2834
867.841	2811
867.972	2823
868.103	2883
868.233	2857
868.364	2857
868.495	2834
868.625	3024
868.756	3154
868.886	2952
869.017	2990
869.147	3093
869.278	3123
869.408	3032
869.539	2979
869.669	3066
869.799	3017
869.929	3135
870.06	3051
870.19	3298
870.32	3275
870.45	3279
870.58	3329
870.71	3420
870.84	3454
870.97	3287
871.1	3211
871.23	3530
871.36	3454
871.489	3340
871.619	3370
871.749	3420
871.879	3424
872.008	3469
872.138	3386
872.267	3317
872.397	3230
872.526	3093
872.656	3043
872.785	3116
872.915	3203
873.044	3302
873.173	3230
873.303	3233
873.432	3222
873.561	3275
873.69	3184
873.819	3165
873.948	3199
874.077	3131
874.206	3058
874.335	3093
874.464	3264
874.593	3382
874.722	3268
874.851	3450
874.979	3405
875.108	3332
875.237	3214
875.365	3173
875.494	3154
875.623	3313
875.751	3112
875.88	3176
876.008	3203
876.136	3226
876.265	3378
876.393	3530
876.521	3428
876.65	3443
876.778	3355
876.906	3279
877.034	3275
877.162	3283
877.29	3226
877.418	3256
877.546	3283
877.674	3283
877.802	3287
877.93	3237
878.058	3184
878.185	3146
878.313	3287
878.441	3226
878.568	3131
878.696	3211
878.824	3287
878.951	3344
879.079	3477
879.206	3633
879.333	3443
879.461	3344
879.588	3389
879.715	3519
879.842	3648
879.97	3424
880.097	3218
880.224	3211
880.351	3233
880.478	3275
880.605	3218
880.732	3218
880.859	3584
880.986	3340
881.112	3351
881.239	3241
881.366	3150
881.493	3024
881.619	3055
881.746	3123
881.872	3093
881.999	3135
882.125	3180
882.252	3287
882.378	3351
882.505	3443
882.631	3336
882.757	3176
882.883	3230
883.01	3233
883.136	3142
883.262	3150
883.388	3161
883.514	3344
883.64	3435
883.766	3298
883.892	3211
884.018	3275
884.143	3466
884.269	3595
884.395	3233
884.52	3203
884.646	3188
884.772	3195
884.897	3154
885.023	3222
885.148	3370
885.274	3477
885.399	3386
885.524	3287
885.65	3313
885.775	3363
885.9	3298
886.025	3466
886.15	3367
886.275	3317
886.4	3253
886.525	3325
886.65	3279
886.775	3363
886.9	3507
887.025	3686
887.149	3439
887.274	3264
887.399	3199
887.523	3222
887.648	3211
887.773	3253
887.897	3370
888.021	3435
888.146	3329
888.27	3485
888.395	3538
888.519	3443
888.643	3458
888.767	3485
888.891	3332
889.015	3260
889.139	3306
889.263	3237
889.387	3458
889.511	3561
889.635	3458
889.759	3321
889.883	3321
890.006	3386
890.13	3504
890.254	3294
890.377	3401
890.501	3211
890.624	3188
890.748	3325
890.871	3176
890.995	3123
891.118	3097
891.241	3211
891.364	3245
891.488	3317
891.611	3176
891.734	3256
891.857	3294
891.98	3287
892.103	3355
892.226	3313
892.349	3253
892.471	3127
892.594	3249
892.717	3340
892.839	3249
892.962	3351
893.085	3389
893.207	3325
893.33	3184
893.452	3233
893.575	3397
893.697	3268
893.819	3500
893.941	3530
894.064	3450
894.186	3287
894.308	3291
894.43	3447
894.552	3561
894.674	3515
894.796	3287
894.918	3344
895.04	3325
895.161	3481
895.283	3431
895.405	3355
895.526	3382
895.648	3401
895.769	3454
895.891	3439
896.012	3507
896.134	3473
896.255	3466
896.376	3439
896.498	3374
896.619	3435
896.74	3386
896.861	3412
896.982	3709
897.103	3846
897.224	3614
897.345	3538
897.466	3450
897.587	3557
897.708	3625
897.828	3568
897.949	3458
898.07	3348
898.19	3409
898.311	3625
898.431	3485
898.552	3538
898.672	3576
898.792	3587
898.913	3538
899.033	3428
899.153	3302
899.273	3272
899.393	3306
899.513	3351
899.633	3321
899.753	3344
899.873	3367
899.993	3386
900.113	3382
900.232	3389
900.352	3359
900.472	3291
900.591	3283
900.711	3329
900.83	3298
900.95	3424
901.069	3542
901.189	3363
901.308	3176
901.427	3150
901.546	3211
901.665	3321
901.784	3310
901.904	3233
902.023	3154
902.141	3055
902.26	3009
902.379	3176
902.498	3089
902.617	3043
902.735	3245
902.854	3233
902.973	3256
903.091	3085
903.21	3058
903.328	3184
903.446	3154
903.565	3127
903.683	3226
903.801	3138
903.919	3253
904.038	3325
904.156	3249
904.274	3306
904.392	3233
904.51	3329
904.627	3367
904.745	3469
904.863	3523
904.981	3279
905.098	3211
905.216	3237
905.334	3367
905.451	3332
905.569	3363
905.686	3443
905.803	3473
905.921	3317
906.038	3466
906.155	3378
906.272	3298
906.389	3351
906.506	3253
906.623	3306
906.74	3325
906.857	3226
906.974	3321
907.091	3462
907.208	3614
907.324	3496
907.441	3397
907.557	3260
907.674	3279
907.79	3230
907.907	3275
908.023	3393
908.139	3397
908.256	3348
908.372	3386
908.488	3386
908.604	3264
908.72	3256
908.836	3310
908.952	3260
909.068	3382
909.184	3488
909.3	3443
909.415	3492
909.531	3473
909.647	3283
909.762	3332
909.878	3310
909.993	3332
910.108	3370
910.224	3363
910.339	3420
910.454	3367
910.57	3348
910.685	3260
910.8	3629
910.915	3530
911.03	3454
911.145	3325
911.259	3310
911.374	3317
911.489	3279
911.604	3302
911.718	3169
911.833	3157
911.947	3043
912.062	2971
912.176	3188
912.291	3195
912.405	3237
912.519	3488
912.633	3507
912.748	3355
912.862	3302
912.976	3211
913.09	3097
913.204	3192
913.318	3245
913.431	3393
913.545	3367
913.659	3462
913.772	3348
913.886	3245
914	3226
914.113	3386
914.226	3428
914.34	3374
914.453	3211
914.566	3466
914.68	3283
914.793	3310
914.906	3169
915.019	3150
915.132	3081
915.245	3169
915.358	3245
915.47	3260
915.583	3291
915.696	3325
915.809	3416
915.921	3439
916.034	3291
916.146	3287
916.259	3253
916.371	3454
916.483	3393
916.595	3294
916.708	3355
916.82	3389
916.932	3340
917.044	3389
917.156	3351
917.268	3275
917.38	3321
917.491	3340
917.603	3367
917.715	3466
917.826	3454
917.938	3401
918.049	3329
918.161	3443
918.272	3618
918.384	3557
918.495	3561
918.606	3401
918.717	3317
918.828	3416
918.939	3416
919.05	3348
919.161	3412
919.272	3192
919.383	3332
919.494	3526
919.604	3679
919.715	3500
919.826	3443
919.936	3492
920.047	3595
920.157	3545
920.267	3774
920.378	3618
920.488	3545
920.598	3789
920.708	3983
920.818	3876
920.928	3850
921.038	4032
921.148	4013
921.258	3732
921.368	3652
921.477	3610
921.587	3591
921.697	3485
921.806	3675
921.916	3530
922.025	3412
922.134	3370
922.244	3359
922.353	3469
922.462	3294
922.571	3222
922.68	3116
922.789	3085
922.898	3161
923.007	3123
923.116	3233
923.224	3203
923.333	3173
923.442	3074
923.55	3119
923.659	3165
923.767	3241
923.876	3184
923.984	3241
924.092	3119
924.201	3237
924.309	3226
924.417	3253
924.525	3165
924.633	3256
924.741	4006
924.849	3024
924.956	3272
925.064	3150
925.172	3062
925.279	3097
925.387	3195
925.494	3207
925.602	3386
925.709	3351
925.816	3218
925.924	3233
926.031	3420
926.138	3332
926.245	3340
926.352	3245
926.459	3416
926.566	3515
926.673	3310
926.779	3275
926.886	3264
926.993	3154
927.099	3135
927.206	3131
927.312	3142
927.419	3249
927.525	3214
927.631	3332
927.737	3150
927.843	3157
927.95	3032
928.056	3146
928.162	3233
928.267	3237
928.373	3903
928.479	3329
928.585	3070
928.69	3241
928.796	3283
928.901	3233
929.007	3077
929.112	3253
929.218	3207
929.323	3165
929.428	3157
929.533	3313
929.638	3135
929.743	3184
929.848	3268
929.953	3214
930.058	3173
930.163	2975
930.267	3062
930.372	3188
930.477	3024
930.581	3321
930.685	3180
930.79	3066
930.894	3150
930.998	3093
931.103	3275
931.207	2994
931.311	2967
931.415	2933
931.519	2785
931.623	2807
