Data from test_V78500241_730.txt Node
Date: Fri Mar 25 16:20:15 CST 2022
User: usil
Spectrometer: V785-0024
Trigger mode: 0
Integration Time (sec): 4.000000E-1
Scans to average: 1
Nonlinearity correction enabled: false
Boxcar width: 0
Storing dark spectrum: false
XAxis mode: Wavelengths
Number of Pixels in Spectrum: 1024
>>>>>Begin Spectral Data<<<<<
801.071	2891
801.214	2956
801.356	2853
801.499	2922
801.641	2883
801.783	2925
801.926	3066
802.068	2998
802.211	2994
802.353	3043
802.496	3009
802.638	3013
802.78	3081
802.923	3047
803.065	3013
803.208	2883
803.35	2967
803.492	2944
803.635	2918
803.777	2724
803.919	2861
804.061	3226
804.204	2967
804.346	2910
804.488	2872
804.63	3009
804.773	2864
804.915	2918
805.057	3127
805.199	2963
805.341	2979
805.483	3036
805.626	3024
805.768	2971
805.91	3104
806.052	3138
806.194	3077
806.336	3233
806.478	3024
806.62	2956
806.762	2994
806.904	3062
807.046	3188
807.188	2994
807.33	2910
807.472	3009
807.614	2937
807.756	3028
807.898	2937
808.04	2895
808.182	2998
808.324	2948
808.465	2887
808.607	2887
808.749	2800
808.891	2861
809.033	2990
809.174	2956
809.316	2918
809.458	2864
809.6	2766
809.741	2762
809.883	2773
810.025	2838
810.166	2880
810.308	2864
810.45	2849
810.591	2766
810.733	2746
810.875	2834
811.016	2788
811.158	2758
811.299	2834
811.441	2925
811.582	2891
811.724	2804
811.865	2823
812.007	2925
812.148	2880
812.29	2872
812.431	2910
812.573	2956
812.714	2979
812.855	3055
812.997	3055
813.138	3154
813.279	3009
813.421	2963
813.562	2937
813.703	2887
813.845	2887
813.986	2750
814.127	2727
814.268	2842
814.41	2849
814.551	2826
814.692	2876
814.833	2868
814.974	2872
815.115	3005
815.256	2830
815.397	2861
815.539	2868
815.68	2792
815.821	2796
815.962	2956
816.103	2925
816.244	2899
816.385	2864
816.526	2971
816.666	2944
816.807	2746
816.948	2864
817.089	2887
817.23	2838
817.371	2785
817.512	2796
817.653	2826
817.793	2842
817.934	2868
818.075	2914
818.216	2998
818.356	3020
818.497	2891
818.638	2758
818.778	2857
818.919	2785
819.06	2762
819.2	2891
819.341	2804
819.481	2788
819.622	2880
819.762	3081
819.903	3062
820.043	2910
820.184	2910
820.324	2910
820.465	2979
820.605	3020
820.746	2994
820.886	2941
821.026	3066
821.167	3131
821.307	3245
821.447	3260
821.588	3241
821.728	3173
821.868	3207
822.008	3100
822.149	3192
822.289	3226
822.429	3112
822.569	3081
822.709	3195
822.849	3020
822.99	3047
823.13	3165
823.27	3226
823.41	3127
823.55	3142
823.69	3127
823.83	3184
823.97	3081
824.11	3039
824.25	2967
824.389	3074
824.529	3150
824.669	3036
824.809	3218
824.949	3256
825.089	3222
825.228	3131
825.368	2994
825.508	2982
825.648	2986
825.787	3051
825.927	3005
826.067	2971
826.206	2963
826.346	3001
826.485	3051
826.625	3146
826.765	3272
826.904	3180
827.044	2998
827.183	2960
827.323	2868
827.462	2982
827.601	2895
827.741	2929
827.88	2956
828.02	2849
828.159	2994
828.298	3055
828.437	3104
828.577	3051
828.716	3279
828.855	3085
828.994	2922
829.134	2876
829.273	2906
829.412	2864
829.551	2902
829.69	2883
829.829	2937
829.968	3173
830.107	3024
830.246	3009
830.385	2906
830.524	2883
830.663	2815
830.802	2716
830.941	2667
831.08	2648
831.219	2773
831.357	2739
831.496	2967
831.635	2762
831.774	2644
831.913	2644
832.051	2518
832.19	2613
832.329	2705
832.467	2545
832.606	2495
832.744	2549
832.883	2564
833.022	2590
833.16	2632
833.299	2720
833.437	2686
833.576	2693
833.714	2693
833.852	2701
833.991	2743
834.129	2853
834.267	2872
834.406	2804
834.544	2880
834.682	2914
834.821	2891
834.959	3070
835.097	2922
835.235	3077
835.373	2979
835.511	3017
835.65	2967
835.788	2933
835.926	2811
836.064	2819
836.202	2857
836.34	3097
836.478	3157
836.615	3032
836.753	3146
836.891	3184
837.029	3138
837.167	3161
837.305	3055
837.443	3043
837.58	2952
837.718	3116
837.856	3058
837.993	3005
838.131	3131
838.269	3085
838.406	3070
838.544	3070
838.681	2967
838.819	2933
838.956	2807
839.094	2864
839.231	2929
839.369	3009
839.506	3367
839.643	3211
839.781	3039
839.918	2937
840.055	3058
840.193	3058
840.33	3039
840.467	3097
840.604	3108
840.742	3401
840.879	3055
841.016	3043
841.153	3135
841.29	3367
841.427	3268
841.564	3249
841.701	3298
841.838	3211
841.975	3184
842.112	3249
842.249	3085
842.385	3039
842.522	3268
842.659	3070
842.796	3093
842.933	3093
843.069	3058
843.206	3039
843.343	3169
843.479	3085
843.616	3161
843.752	2861
843.889	2880
844.025	3062
844.162	2887
844.298	3093
844.435	2910
844.571	2906
844.708	3074
844.844	3165
844.98	3241
845.117	3184
845.253	3066
845.389	3001
845.525	3123
845.661	3089
845.798	3005
845.934	3135
846.07	3066
846.206	3192
846.342	3317
846.478	3195
846.614	3081
846.75	3062
846.886	3005
847.022	3226
847.158	3104
847.294	3176
847.429	3245
847.565	3203
847.701	3488
847.837	3009
847.972	2994
848.108	3142
848.244	3127
848.379	2994
848.515	2929
848.65	2918
848.786	2971
848.921	3062
849.057	3104
849.192	3135
849.328	3077
849.463	3097
849.598	3077
849.734	3009
849.869	2963
850.004	2937
850.14	2982
850.275	2948
850.41	2819
850.545	2857
850.68	2944
850.815	2944
850.95	2986
851.085	3180
851.22	3097
851.355	3036
851.49	2990
851.625	3001
851.76	3051
851.895	2937
852.03	2922
852.165	3058
852.299	3093
852.434	3176
852.569	3135
852.703	3142
852.838	3272
852.973	3389
853.107	3313
853.242	3112
853.376	3043
853.511	2982
853.645	3020
853.78	3211
853.914	3104
854.048	3123
854.183	3039
854.317	3108
854.451	3249
854.585	3127
854.72	3047
854.854	3207
854.988	3047
855.122	3097
855.256	2941
855.39	3116
855.524	3249
855.658	3180
855.792	3165
855.926	3165
856.06	3264
856.194	3241
856.327	3119
856.461	3077
856.595	3081
856.729	3112
856.862	3249
856.996	3127
857.13	3233
857.263	3226
857.397	3245
857.53	3127
857.664	3173
857.797	3218
857.931	3275
858.064	3157
858.197	3237
858.331	3116
858.464	3112
858.597	2956
858.731	3123
858.864	3131
858.997	3089
859.13	3146
859.263	3157
859.396	3199
859.529	3093
859.662	3093
859.795	3032
859.928	3085
860.061	3256
860.194	3355
860.327	3070
860.46	3112
860.592	3245
860.725	3214
860.858	3268
860.99	3093
861.123	3028
861.256	3028
861.388	3131
861.521	3797
861.653	3013
861.786	2986
861.918	2994
862.05	3051
862.183	3108
862.315	3127
862.447	3176
862.58	3093
862.712	2971
862.844	2849
862.976	3009
863.108	2998
863.24	3416
863.372	2891
863.504	2944
863.636	2967
863.768	2990
863.9	2986
864.032	2887
864.164	2918
864.296	3051
864.428	3062
864.559	3112
864.691	3043
864.823	3077
864.954	3028
865.086	3055
865.217	3017
865.349	2929
865.48	2971
865.612	3013
865.743	3157
865.875	2994
866.006	2933
866.137	2990
866.269	2933
866.4	2948
866.531	2922
866.662	2887
866.793	2887
866.924	2910
867.055	2971
867.186	2891
867.317	2864
867.448	2838
867.579	2853
867.71	2853
867.841	2777
867.972	2910
868.103	2918
868.233	2906
868.364	2876
868.495	2880
868.625	3077
868.756	3165
868.886	2986
869.017	3009
869.147	3169
869.278	3173
869.408	3055
869.539	3024
869.669	3093
869.799	3066
869.929	3108
870.06	3074
870.19	3291
870.32	3287
870.45	3283
870.58	3355
870.71	3428
870.84	3439
870.97	3279
871.1	3211
871.23	3447
871.36	3428
871.489	3313
871.619	3367
871.749	3393
871.879	3424
872.008	3481
872.138	3336
872.267	3272
872.397	3116
872.526	3119
872.656	3005
872.785	3066
872.915	3233
873.044	3340
873.173	3184
873.303	3272
873.432	3264
873.561	3218
873.69	3146
873.819	3180
873.948	3184
874.077	3108
874.206	3066
874.335	3077
874.464	3199
874.593	3363
874.722	3275
874.851	3355
874.979	3359
875.108	3344
875.237	3199
875.365	3165
875.494	3135
875.623	3214
875.751	3062
875.88	3116
876.008	3176
876.136	3245
876.265	3359
876.393	3496
876.521	3393
876.65	3397
876.778	3325
876.906	3256
877.034	3173
877.162	3233
877.29	3176
877.418	3245
877.546	3268
877.674	3249
877.802	3211
877.93	3253
878.058	3169
878.185	3097
878.313	3176
878.441	3154
878.568	3062
878.696	3135
878.824	3214
878.951	3317
879.079	3431
879.206	3622
879.333	3424
879.461	3351
879.588	3363
879.715	3454
879.842	3580
879.97	3397
880.097	3157
880.224	3123
880.351	3226
880.478	3237
880.605	3173
880.732	3184
880.859	3507
880.986	3321
881.112	3306
881.239	3173
881.366	3097
881.493	3020
881.619	3051
881.746	3055
881.872	3093
881.999	3108
882.125	3146
882.252	3230
882.378	3336
882.505	3450
882.631	3256
882.757	3157
882.883	3195
883.01	3195
883.136	3192
883.262	3097
883.388	3116
883.514	3298
883.64	3332
883.766	3298
883.892	3176
884.018	3237
884.143	3397
884.269	3504
884.395	3184
884.52	3165
884.646	3146
884.772	3081
884.897	3100
885.023	3230
885.148	3336
885.274	3416
885.399	3348
885.524	3275
885.65	3237
885.775	3294
885.9	3302
886.025	3405
886.15	3340
886.275	3272
886.4	3264
886.525	3310
886.65	3264
886.775	3291
886.9	3469
887.025	3629
887.149	3443
887.274	3253
887.399	3199
887.523	3203
887.648	3195
887.773	3211
887.897	3393
888.021	3428
888.146	3291
888.27	3435
888.395	3519
888.519	3393
888.643	3428
888.767	3473
888.891	3306
889.015	3222
889.139	3287
889.263	3237
889.387	3405
889.511	3511
889.635	3473
889.759	3298
889.883	3302
890.006	3355
890.13	3519
890.254	3279
890.377	3367
890.501	3184
890.624	3195
890.748	3310
890.871	3211
890.995	3100
891.118	3077
891.241	3192
891.364	3203
891.488	3302
891.611	3199
891.734	3195
891.857	3306
891.98	3218
892.103	3355
892.226	3279
892.349	3207
892.471	3127
892.594	3256
892.717	3294
892.839	3272
892.962	3287
893.085	3359
893.207	3306
893.33	3154
893.452	3161
893.575	3325
893.697	3176
893.819	3447
893.941	3519
894.064	3450
894.186	3294
894.308	3291
894.43	3409
894.552	3545
894.674	3488
894.796	3256
894.918	3279
895.04	3287
895.161	3428
895.283	3412
895.405	3291
895.526	3374
895.648	3412
895.769	3386
895.891	3450
896.012	3473
896.134	3466
896.255	3443
896.376	3340
896.498	3355
896.619	3393
896.74	3348
896.861	3363
896.982	3671
897.103	3835
897.224	3534
897.345	3485
897.466	3424
897.587	3485
897.708	3603
897.828	3553
897.949	3428
898.07	3332
898.19	3412
898.311	3599
898.431	3443
898.552	3488
898.672	3603
898.792	3587
898.913	3530
899.033	3420
899.153	3287
899.273	3275
899.393	3272
899.513	3313
899.633	3310
899.753	3321
899.873	3294
899.993	3420
900.113	3329
900.232	3389
900.352	3317
900.472	3279
900.591	3199
900.711	3310
900.83	3241
900.95	3389
901.069	3454
901.189	3355
901.308	3150
901.427	3108
901.546	3176
901.665	3275
901.784	3351
901.904	3211
902.023	3119
902.141	3020
902.26	3013
902.379	3123
902.498	3051
902.617	3062
902.735	3199
902.854	3230
902.973	3195
903.091	3051
903.21	3009
903.328	3142
903.446	3058
903.565	3089
903.683	3241
903.801	3108
903.919	3253
904.038	3298
904.156	3135
904.274	3272
904.392	3245
904.51	3294
904.627	3321
904.745	3412
904.863	3488
904.981	3268
905.098	3135
905.216	3230
905.334	3332
905.451	3302
905.569	3310
905.686	3435
905.803	3409
905.921	3287
906.038	3439
906.155	3275
906.272	3268
906.389	3336
906.506	3233
906.623	3233
906.74	3260
906.857	3184
906.974	3272
907.091	3492
907.208	3542
907.324	3443
907.441	3370
907.557	3226
907.674	3237
907.79	3241
907.907	3253
908.023	3370
908.139	3370
908.256	3355
908.372	3382
908.488	3359
908.604	3294
908.72	3218
908.836	3279
908.952	3264
909.068	3317
909.184	3485
909.3	3405
909.415	3492
909.531	3477
909.647	3218
909.762	3275
909.878	3291
909.993	3363
910.108	3310
910.224	3344
910.339	3405
910.454	3374
910.57	3272
910.685	3245
910.8	3553
910.915	3553
911.03	3443
911.145	3245
911.259	3291
911.374	3321
911.489	3237
911.604	3260
911.718	3127
911.833	3150
911.947	3028
912.062	2963
912.176	3173
912.291	3184
912.405	3188
912.519	3386
912.633	3454
912.748	3329
912.862	3264
912.976	3142
913.09	3062
913.204	3146
913.318	3192
913.431	3348
913.545	3332
913.659	3386
913.772	3348
913.886	3226
914	3199
914.113	3351
914.226	3439
914.34	3355
914.453	3237
914.566	3389
914.68	3310
914.793	3317
914.906	3123
915.019	3077
915.132	3047
915.245	3203
915.358	3199
915.47	3195
915.583	3241
915.696	3287
915.809	3405
915.921	3405
916.034	3218
916.146	3264
916.259	3222
916.371	3389
916.483	3378
916.595	3275
916.708	3355
916.82	3344
916.932	3355
917.044	3344
917.156	3359
917.268	3253
917.38	3321
917.491	3298
917.603	3378
917.715	3420
917.826	3439
917.938	3420
918.049	3256
918.161	3401
918.272	3603
918.384	3530
918.495	3485
918.606	3344
918.717	3298
918.828	3344
918.939	3435
919.05	3294
919.161	3378
919.272	3173
919.383	3313
919.494	3488
919.604	3686
919.715	3515
919.826	3431
919.936	3447
920.047	3576
920.157	3538
920.267	3778
920.378	3599
920.488	3523
920.598	3785
920.708	3964
920.818	3835
920.928	3899
921.038	4025
921.148	3987
921.258	3667
921.368	3625
921.477	3591
921.587	3526
921.697	3401
921.806	3614
921.916	3507
922.025	3348
922.134	3359
922.244	3310
922.353	3405
922.462	3306
922.571	3226
922.68	3093
922.789	3066
922.898	3173
923.007	3127
923.116	3226
923.224	3173
923.333	3150
923.442	3100
923.55	3108
923.659	3127
923.767	3173
923.876	3100
923.984	3241
924.092	3089
924.201	3211
924.309	3211
924.417	3222
924.525	3173
924.633	3218
924.741	4154
924.849	3058
924.956	3241
925.064	3089
925.172	3028
925.279	3127
925.387	3188
925.494	3199
925.602	3325
925.709	3359
925.816	3173
925.924	3283
926.031	3340
926.138	3298
926.245	3344
926.352	3283
926.459	3431
926.566	3439
926.673	3283
926.779	3253
926.886	3260
926.993	3112
927.099	3138
927.206	3104
927.312	3112
927.419	3249
927.525	3188
927.631	3237
927.737	3119
927.843	3123
927.95	3039
928.056	3138
928.162	3146
928.267	3207
928.373	3850
928.479	3302
928.585	3066
928.69	3192
928.796	3272
928.901	3180
929.007	3020
929.112	3214
929.218	3176
929.323	3165
929.428	3154
929.533	3340
929.638	3081
929.743	3176
929.848	3264
929.953	3218
930.058	3154
930.163	3039
930.267	3036
930.372	3184
930.477	3009
930.581	3291
930.685	3188
930.79	3066
930.894	3089
930.998	3097
931.103	3253
931.207	2956
931.311	2979
931.415	2918
931.519	2788
931.623	2792
