Data from test_V78500241_611.txt Node
Date: Fri Mar 25 16:19:26 CST 2022
User: usil
Spectrometer: V785-0024
Trigger mode: 0
Integration Time (sec): 4.000000E-1
Scans to average: 1
Nonlinearity correction enabled: false
Boxcar width: 0
Storing dark spectrum: false
XAxis mode: Wavelengths
Number of Pixels in Spectrum: 1024
>>>>>Begin Spectral Data<<<<<
801.071	2906
801.214	2925
801.356	2872
801.499	2876
801.641	2834
801.783	2929
801.926	3043
802.068	2941
802.211	3001
802.353	3032
802.496	2956
802.638	2986
802.78	3051
802.923	3089
803.065	2986
803.208	2902
803.35	2914
803.492	2925
803.635	2929
803.777	2762
803.919	2868
804.061	3176
804.204	2975
804.346	2914
804.488	2823
804.63	2998
804.773	2872
804.915	2864
805.057	3077
805.199	2929
805.341	2929
805.483	3036
805.626	3020
805.768	2982
805.91	3081
806.052	3135
806.194	3032
806.336	3203
806.478	3024
806.62	2937
806.762	2971
806.904	3062
807.046	3180
807.188	2914
807.33	2910
807.472	2971
807.614	2899
807.756	2986
807.898	2906
808.04	2914
808.182	2998
808.324	2956
808.465	2883
808.607	2853
808.749	2796
808.891	2815
809.033	2963
809.174	2982
809.316	2880
809.458	2937
809.6	2746
809.741	2743
809.883	2819
810.025	2853
810.166	2849
810.308	2857
810.45	2883
810.591	2758
810.733	2754
810.875	2834
811.016	2769
811.158	2716
811.299	2796
811.441	2925
811.582	2902
811.724	2842
811.865	2792
812.007	2918
812.148	2902
812.29	2834
812.431	2906
812.573	2952
812.714	2986
812.855	3028
812.997	3028
813.138	3112
813.279	2986
813.421	3017
813.562	2990
813.703	2887
813.845	2872
813.986	2766
814.127	2727
814.268	2804
814.41	2861
814.551	2838
814.692	2883
814.833	2777
814.974	2887
815.115	2952
815.256	2815
815.397	2800
815.539	2872
815.68	2766
815.821	2804
815.962	2914
816.103	2941
816.244	2891
816.385	2861
816.526	2975
816.666	2922
816.807	2724
816.948	2918
817.089	2895
817.23	2819
817.371	2746
817.512	2792
817.653	2830
817.793	2834
817.934	2876
818.075	2975
818.216	3001
818.356	3005
818.497	2918
818.638	2777
818.778	2811
818.919	2826
819.06	2750
819.2	2849
819.341	2804
819.481	2826
819.622	2918
819.762	3085
819.903	3085
820.043	2937
820.184	2880
820.324	2929
820.465	3005
820.605	3005
820.746	3009
820.886	2975
821.026	3051
821.167	3154
821.307	3249
821.447	3241
821.588	3253
821.728	3211
821.868	3157
822.008	3077
822.149	3176
822.289	3226
822.429	3093
822.569	3112
822.709	3176
822.849	3013
822.99	3066
823.13	3135
823.27	3207
823.41	3097
823.55	3131
823.69	3131
823.83	3195
823.97	3074
824.11	3017
824.25	2990
824.389	3036
824.529	3135
824.669	3036
824.809	3180
824.949	3253
825.089	3241
825.228	3188
825.368	2982
825.508	2956
825.648	2944
825.787	3009
825.927	3070
826.067	2933
826.206	2937
826.346	3032
826.485	3062
826.625	3062
826.765	3268
826.904	3222
827.044	2975
827.183	2902
827.323	2838
827.462	3009
827.601	2902
827.741	2880
827.88	2941
828.02	2864
828.159	2979
828.298	2971
828.437	3123
828.577	3039
828.716	3222
828.855	3051
828.994	2872
829.134	2876
829.273	2933
829.412	2868
829.551	2876
829.69	2899
829.829	3032
829.968	3104
830.107	2994
830.246	3051
830.385	2899
830.524	2914
830.663	2815
830.802	2731
830.941	2651
831.08	2632
831.219	2769
831.357	2746
831.496	2918
831.635	2708
831.774	2659
831.913	2689
832.051	2526
832.19	2560
832.329	2670
832.467	2530
832.606	2457
832.744	2564
832.883	2583
833.022	2568
833.16	2651
833.299	2659
833.437	2686
833.576	2701
833.714	2735
833.852	2724
833.991	2758
834.129	2857
834.267	2830
834.406	2815
834.544	2849
834.682	2876
834.821	2853
834.959	3051
835.097	2891
835.235	3077
835.373	3009
835.511	3009
835.65	2941
835.788	2960
835.926	2815
836.064	2811
836.202	2811
836.34	3127
836.478	3119
836.615	3058
836.753	3116
836.891	3260
837.029	3123
837.167	3077
837.305	3070
837.443	2986
837.58	2971
837.718	3135
837.856	3066
837.993	3032
838.131	3089
838.269	3093
838.406	3104
838.544	3085
838.681	2918
838.819	2902
838.956	2785
839.094	2853
839.231	2891
839.369	3013
839.506	3378
839.643	3241
839.781	2982
839.918	2948
840.055	3036
840.193	3055
840.33	3043
840.467	3116
840.604	3146
840.742	3374
840.879	3036
841.016	3036
841.153	3138
841.29	3351
841.427	3310
841.564	3256
841.701	3272
841.838	3203
841.975	3161
842.112	3211
842.249	3097
842.385	3039
842.522	3241
842.659	3112
842.796	3112
842.933	3112
843.069	3020
843.206	3058
843.343	3180
843.479	3081
843.616	3131
843.752	2922
843.889	2845
844.025	3081
844.162	2857
844.298	3066
844.435	2937
844.571	2902
844.708	3055
844.844	3188
844.98	3237
845.117	3207
845.253	3058
845.389	3032
845.525	3104
845.661	3108
845.798	2998
845.934	3119
846.07	3032
846.206	3222
846.342	3291
846.478	3222
846.614	3051
846.75	3066
846.886	3001
847.022	3214
847.158	3089
847.294	3207
847.429	3230
847.565	3211
847.701	3443
847.837	3055
847.972	3036
848.108	3146
848.244	3131
848.379	3020
848.515	2906
848.65	2944
848.786	2967
848.921	2998
849.057	3089
849.192	3123
849.328	3058
849.463	3112
849.598	3020
849.734	3032
849.869	2952
850.004	2922
850.14	2948
850.275	2887
850.41	2849
850.545	2876
850.68	2967
850.815	2933
850.95	2994
851.085	3169
851.22	3055
851.355	3032
851.49	2948
851.625	2963
851.76	3013
851.895	2925
852.03	2880
852.165	3024
852.299	3123
852.434	3188
852.569	3100
852.703	3142
852.838	3249
852.973	3329
853.107	3317
853.242	3142
853.376	3070
853.511	2952
853.645	3024
853.78	3237
853.914	3142
854.048	3104
854.183	3070
854.317	3154
854.451	3321
854.585	3112
854.72	3077
854.854	3192
854.988	3051
855.122	3119
855.256	2979
855.39	3097
855.524	3218
855.658	3176
855.792	3142
855.926	3211
856.06	3173
856.194	3249
856.327	3116
856.461	3047
856.595	3100
856.729	3077
856.862	3203
856.996	3127
857.13	3176
857.263	3211
857.397	3279
857.53	3089
857.664	3195
857.797	3226
857.931	3211
858.064	3169
858.197	3249
858.331	3135
858.464	3131
858.597	3009
858.731	3081
858.864	3123
858.997	3051
859.13	3161
859.263	3199
859.396	3211
859.529	3104
859.662	3077
859.795	2990
859.928	3116
860.061	3245
860.194	3211
860.327	3081
860.46	3066
860.592	3230
860.725	3268
860.858	3245
860.99	3074
861.123	3047
861.256	3047
861.388	3146
861.521	3717
861.653	3036
861.786	2960
861.918	2990
862.05	3024
862.183	3104
862.315	3127
862.447	3195
862.58	3093
862.712	2937
862.844	2880
862.976	2986
863.108	3017
863.24	3412
863.372	2899
863.504	2990
863.636	2982
863.768	3013
863.9	3001
864.032	2895
864.164	3001
864.296	3017
864.428	3085
864.559	3074
864.691	3039
864.823	3058
864.954	3036
865.086	3077
865.217	2986
865.349	2922
865.48	2990
865.612	2994
865.743	3119
865.875	2937
866.006	2944
866.137	2971
866.269	2944
866.4	2918
866.531	2967
866.662	2876
866.793	2887
866.924	2876
867.055	2944
867.186	2887
867.317	2883
867.448	2845
867.579	2872
867.71	2845
867.841	2800
867.972	2910
868.103	2929
868.233	2883
868.364	2880
868.495	2883
868.625	3066
868.756	3161
868.886	2982
869.017	3009
869.147	3180
869.278	3154
869.408	3055
869.539	2998
869.669	3131
869.799	3009
869.929	3131
870.06	3100
870.19	3329
870.32	3272
870.45	3272
870.58	3370
870.71	3424
870.84	3462
870.97	3310
871.1	3180
871.23	3424
871.36	3481
871.489	3351
871.619	3355
871.749	3401
871.879	3409
872.008	3428
872.138	3355
872.267	3260
872.397	3165
872.526	3085
872.656	2990
872.785	3089
872.915	3230
873.044	3298
873.173	3237
873.303	3218
873.432	3237
873.561	3230
873.69	3142
873.819	3142
873.948	3173
874.077	3093
874.206	3017
874.335	3055
874.464	3173
874.593	3310
874.722	3188
874.851	3374
874.979	3363
875.108	3310
875.237	3207
875.365	3154
875.494	3142
875.623	3222
875.751	3081
875.88	3097
876.008	3192
876.136	3230
876.265	3374
876.393	3473
876.521	3397
876.65	3374
876.778	3313
876.906	3272
877.034	3203
877.162	3199
877.29	3165
877.418	3264
877.546	3230
877.674	3222
877.802	3218
877.93	3218
878.058	3146
878.185	3104
878.313	3214
878.441	3184
878.568	3051
878.696	3199
878.824	3260
878.951	3340
879.079	3435
879.206	3633
879.333	3443
879.461	3321
879.588	3370
879.715	3454
879.842	3625
879.97	3397
880.097	3173
880.224	3112
880.351	3188
880.478	3260
880.605	3180
880.732	3169
880.859	3523
880.986	3302
881.112	3317
881.239	3226
881.366	3127
881.493	3032
881.619	2963
881.746	3077
881.872	3081
881.999	3077
882.125	3146
882.252	3222
882.378	3306
882.505	3401
882.631	3298
882.757	3157
882.883	3218
883.01	3226
883.136	3123
883.262	3093
883.388	3085
883.514	3313
883.64	3374
883.766	3321
883.892	3188
884.018	3226
884.143	3431
884.269	3515
884.395	3211
884.52	3173
884.646	3230
884.772	3112
884.897	3123
885.023	3165
885.148	3329
885.274	3409
885.399	3386
885.524	3275
885.65	3241
885.775	3302
885.9	3268
886.025	3416
886.15	3359
886.275	3310
886.4	3230
886.525	3275
886.65	3294
886.775	3287
886.9	3473
887.025	3580
887.149	3424
887.274	3264
887.399	3184
887.523	3165
887.648	3161
887.773	3176
887.897	3363
888.021	3382
888.146	3256
888.27	3447
888.395	3538
888.519	3409
888.643	3469
888.767	3477
888.891	3268
889.015	3230
889.139	3294
889.263	3214
889.387	3389
889.511	3504
889.635	3477
889.759	3306
889.883	3306
890.006	3370
890.13	3477
890.254	3291
890.377	3321
890.501	3184
890.624	3188
890.748	3310
890.871	3138
890.995	3081
891.118	3081
891.241	3176
891.364	3195
891.488	3298
891.611	3176
891.734	3233
891.857	3317
891.98	3214
892.103	3351
892.226	3287
892.349	3222
892.471	3089
892.594	3226
892.717	3283
892.839	3275
892.962	3249
893.085	3351
893.207	3298
893.33	3123
893.452	3214
893.575	3306
893.697	3245
893.819	3466
893.941	3496
894.064	3454
894.186	3237
894.308	3253
894.43	3435
894.552	3519
894.674	3450
894.796	3245
894.918	3325
895.04	3256
895.161	3393
895.283	3382
895.405	3298
895.526	3367
895.648	3447
895.769	3382
895.891	3447
896.012	3496
896.134	3504
896.255	3409
896.376	3382
896.498	3340
896.619	3462
896.74	3355
896.861	3401
896.982	3667
897.103	3804
897.224	3610
897.345	3500
897.466	3389
897.587	3504
897.708	3610
897.828	3561
897.949	3405
898.07	3340
898.19	3397
898.311	3637
898.431	3416
898.552	3568
898.672	3580
898.792	3580
898.913	3515
899.033	3386
899.153	3321
899.273	3214
899.393	3302
899.513	3310
899.633	3313
899.753	3310
899.873	3294
899.993	3409
900.113	3336
900.232	3370
900.352	3336
900.472	3253
900.591	3184
900.711	3306
900.83	3214
900.95	3409
901.069	3500
901.189	3306
901.308	3127
901.427	3127
901.546	3192
901.665	3272
901.784	3351
901.904	3207
902.023	3150
902.141	3032
902.26	3032
902.379	3154
902.498	3077
902.617	3085
902.735	3180
902.854	3241
902.973	3165
903.091	3070
903.21	3051
903.328	3108
903.446	3100
903.565	3119
903.683	3161
903.801	3157
903.919	3237
904.038	3237
904.156	3169
904.274	3283
904.392	3222
904.51	3298
904.627	3302
904.745	3405
904.863	3507
904.981	3253
905.098	3142
905.216	3192
905.334	3283
905.451	3283
905.569	3298
905.686	3454
905.803	3424
905.921	3287
906.038	3416
906.155	3336
906.272	3268
906.389	3348
906.506	3233
906.623	3249
906.74	3268
906.857	3207
906.974	3241
907.091	3416
907.208	3584
907.324	3443
907.441	3401
907.557	3218
907.674	3233
907.79	3195
907.907	3260
908.023	3386
908.139	3325
908.256	3329
908.372	3370
908.488	3321
908.604	3272
908.72	3218
908.836	3302
908.952	3275
909.068	3351
909.184	3466
909.3	3367
909.415	3473
909.531	3496
909.647	3260
909.762	3283
909.878	3245
909.993	3382
910.108	3321
910.224	3317
910.339	3374
910.454	3355
910.57	3279
910.685	3256
910.8	3599
910.915	3538
911.03	3447
911.145	3275
911.259	3291
911.374	3294
911.489	3222
911.604	3233
911.718	3138
911.833	3154
911.947	2982
912.062	2979
912.176	3176
912.291	3184
912.405	3203
912.519	3431
912.633	3488
912.748	3332
912.862	3268
912.976	3165
913.09	3058
913.204	3123
913.318	3184
913.431	3325
913.545	3332
913.659	3397
913.772	3351
913.886	3214
914	3237
914.113	3348
914.226	3443
914.34	3382
914.453	3195
914.566	3409
914.68	3294
914.793	3340
914.906	3085
915.019	3081
915.132	3074
915.245	3176
915.358	3218
915.47	3195
915.583	3279
915.696	3272
915.809	3409
915.921	3443
916.034	3264
916.146	3233
916.259	3207
916.371	3382
916.483	3367
916.595	3298
916.708	3340
916.82	3283
916.932	3332
917.044	3351
917.156	3298
917.268	3283
917.38	3272
917.491	3260
917.603	3367
917.715	3450
917.826	3435
917.938	3370
918.049	3268
918.161	3443
918.272	3542
918.384	3523
918.495	3496
918.606	3310
918.717	3283
918.828	3389
918.939	3374
919.05	3313
919.161	3397
919.272	3192
919.383	3245
919.494	3458
919.604	3637
919.715	3450
919.826	3386
919.936	3435
920.047	3599
920.157	3542
920.267	3770
920.378	3587
920.488	3584
920.598	3789
920.708	3934
920.818	3812
920.928	3838
921.038	4013
921.148	4006
921.258	3709
921.368	3614
921.477	3553
921.587	3542
921.697	3458
921.806	3587
921.916	3500
922.025	3378
922.134	3348
922.244	3291
922.353	3416
922.462	3287
922.571	3226
922.68	3135
922.789	3051
922.898	3070
923.007	3108
923.116	3176
923.224	3131
923.333	3214
923.442	3112
923.55	3074
923.659	3135
923.767	3233
923.876	3116
923.984	3214
924.092	3104
924.201	3195
924.309	3214
924.417	3233
924.525	3176
924.633	3222
924.741	4025
924.849	3020
924.956	3268
925.064	3100
925.172	3020
925.279	3081
925.387	3157
925.494	3176
925.602	3363
925.709	3344
925.816	3173
925.924	3268
926.031	3359
926.138	3336
926.245	3344
926.352	3253
926.459	3409
926.566	3439
926.673	3313
926.779	3241
926.886	3279
926.993	3119
927.099	3150
927.206	3089
927.312	3100
927.419	3203
927.525	3218
927.631	3275
927.737	3119
927.843	3150
927.95	3036
928.056	3127
928.162	3173
928.267	3184
928.373	3797
928.479	3313
928.585	3051
928.69	3184
928.796	3275
928.901	3180
929.007	3032
929.112	3173
929.218	3161
929.323	3108
929.428	3150
929.533	3279
929.638	3123
929.743	3161
929.848	3237
929.953	3192
930.058	3176
930.163	2967
930.267	3074
930.372	3203
930.477	2990
930.581	3298
930.685	3161
930.79	3070
930.894	3119
930.998	3119
931.103	3294
931.207	2971
931.311	2956
931.415	2937
931.519	2758
931.623	2792
