Data from test_V78500241_796.txt Node
Date: Fri Mar 25 16:20:43 CST 2022
User: usil
Spectrometer: V785-0024
Trigger mode: 0
Integration Time (sec): 4.000000E-1
Scans to average: 1
Nonlinearity correction enabled: false
Boxcar width: 0
Storing dark spectrum: false
XAxis mode: Wavelengths
Number of Pixels in Spectrum: 1024
>>>>>Begin Spectral Data<<<<<
801.071	2910
801.214	2982
801.356	2883
801.499	2922
801.641	2864
801.783	2948
801.926	3085
802.068	2986
802.211	3005
802.353	3058
802.496	2941
802.638	2979
802.78	3028
802.923	3116
803.065	2960
803.208	2925
803.35	2925
803.492	2937
803.635	2998
803.777	2766
803.919	2880
804.061	3211
804.204	2967
804.346	2937
804.488	2838
804.63	2998
804.773	2857
804.915	2887
805.057	3093
805.199	2929
805.341	2982
805.483	3032
805.626	3005
805.768	2998
805.91	3089
806.052	3119
806.194	2990
806.336	3268
806.478	3009
806.62	2952
806.762	2990
806.904	3047
807.046	3169
807.188	3001
807.33	2910
807.472	2963
807.614	2902
807.756	2979
807.898	2891
808.04	2956
808.182	3001
808.324	2922
808.465	2823
808.607	2899
808.749	2804
808.891	2823
809.033	3001
809.174	2960
809.316	2868
809.458	2899
809.6	2769
809.741	2792
809.883	2785
810.025	2838
810.166	2868
810.308	2815
810.45	2853
810.591	2773
810.733	2788
810.875	2883
811.016	2792
811.158	2769
811.299	2807
811.441	2941
811.582	2902
811.724	2838
811.865	2811
812.007	2914
812.148	2899
812.29	2819
812.431	2902
812.573	2937
812.714	2948
812.855	3047
812.997	3047
813.138	3100
813.279	3001
813.421	2986
813.562	2956
813.703	2864
813.845	2864
813.986	2754
814.127	2731
814.268	2819
814.41	2842
814.551	2792
814.692	2887
814.833	2819
814.974	2899
815.115	2902
815.256	2826
815.397	2830
815.539	2876
815.68	2766
815.821	2769
815.962	2963
816.103	2922
816.244	2887
816.385	2876
816.526	2967
816.666	2914
816.807	2727
816.948	2899
817.089	2895
817.23	2845
817.371	2785
817.512	2826
817.653	2857
817.793	2838
817.934	2887
818.075	2952
818.216	2982
818.356	2990
818.497	2887
818.638	2781
818.778	2807
818.919	2830
819.06	2727
819.2	2872
819.341	2800
819.481	2807
819.622	2922
819.762	3058
819.903	3028
820.043	2914
820.184	2861
820.324	2918
820.465	2990
820.605	3001
820.746	2990
820.886	2899
821.026	3112
821.167	3173
821.307	3233
821.447	3283
821.588	3268
821.728	3180
821.868	3173
822.008	3108
822.149	3211
822.289	3241
822.429	3066
822.569	3074
822.709	3180
822.849	3024
822.99	3051
823.13	3146
823.27	3176
823.41	3097
823.55	3119
823.69	3138
823.83	3127
823.97	3077
824.11	3013
824.25	2967
824.389	3066
824.529	3089
824.669	3085
824.809	3188
824.949	3287
825.089	3241
825.228	3188
825.368	3020
825.508	2952
825.648	2937
825.787	3036
825.927	3013
826.067	2990
826.206	2941
826.346	3017
826.485	3043
826.625	3077
826.765	3256
826.904	3207
827.044	2998
827.183	2925
827.323	2845
827.462	2982
827.601	2880
827.741	2895
827.88	2948
828.02	2830
828.159	2975
828.298	3020
828.437	3127
828.577	3028
828.716	3214
828.855	3070
828.994	2895
829.134	2868
829.273	2883
829.412	2887
829.551	2849
829.69	2887
829.829	2975
829.968	3112
830.107	2998
830.246	3028
830.385	2906
830.524	2887
830.663	2834
830.802	2735
830.941	2689
831.08	2625
831.219	2739
831.357	2769
831.496	2937
831.635	2735
831.774	2648
831.913	2640
832.051	2511
832.19	2568
832.329	2659
832.467	2564
832.606	2492
832.744	2587
832.883	2621
833.022	2571
833.16	2621
833.299	2674
833.437	2670
833.576	2689
833.714	2689
833.852	2762
833.991	2785
834.129	2842
834.267	2819
834.406	2777
834.544	2872
834.682	2861
834.821	2861
834.959	3058
835.097	2876
835.235	3020
835.373	2979
835.511	2986
835.65	2925
835.788	2975
835.926	2796
836.064	2815
836.202	2845
836.34	3051
836.478	3112
836.615	3051
836.753	3154
836.891	3192
837.029	3165
837.167	3077
837.305	3051
837.443	3028
837.58	2979
837.718	3123
837.856	3043
837.993	3024
838.131	3112
838.269	3066
838.406	3074
838.544	3093
838.681	2914
838.819	2895
838.956	2815
839.094	2826
839.231	2872
839.369	2994
839.506	3348
839.643	3214
839.781	2982
839.918	2963
840.055	3032
840.193	3028
840.33	3024
840.467	3089
840.604	3108
840.742	3416
840.879	3058
841.016	3039
841.153	3070
841.29	3329
841.427	3268
841.564	3226
841.701	3298
841.838	3199
841.975	3176
842.112	3180
842.249	3055
842.385	3058
842.522	3230
842.659	3112
842.796	3028
842.933	3089
843.069	3070
843.206	3039
843.343	3161
843.479	3108
843.616	3161
843.752	2895
843.889	2845
844.025	3104
844.162	2876
844.298	3062
844.435	2937
844.571	2895
844.708	3058
844.844	3184
844.98	3211
845.117	3192
845.253	3055
845.389	2975
845.525	3116
845.661	3089
845.798	2994
845.934	3135
846.07	3032
846.206	3214
846.342	3279
846.478	3237
846.614	3123
846.75	3070
846.886	3020
847.022	3207
847.158	3146
847.294	3214
847.429	3253
847.565	3173
847.701	3469
847.837	3001
847.972	2971
848.108	3161
848.244	3138
848.379	2986
848.515	2937
848.65	2887
848.786	2922
848.921	2986
849.057	3089
849.192	3150
849.328	3062
849.463	3127
849.598	3055
849.734	3020
849.869	2994
850.004	2910
850.14	2982
850.275	2910
850.41	2845
850.545	2849
850.68	2948
850.815	2922
850.95	2956
851.085	3207
851.22	3119
851.355	3032
851.49	2937
851.625	3005
851.76	3001
851.895	2899
852.03	2937
852.165	3055
852.299	3127
852.434	3207
852.569	3104
852.703	3165
852.838	3256
852.973	3325
853.107	3317
853.242	3127
853.376	3085
853.511	2963
853.645	3047
853.78	3230
853.914	3097
854.048	3093
854.183	3089
854.317	3161
854.451	3279
854.585	3097
854.72	3051
854.854	3237
854.988	3058
855.122	3097
855.256	2956
855.39	3142
855.524	3245
855.658	3237
855.792	3169
855.926	3165
856.06	3226
856.194	3264
856.327	3119
856.461	3112
856.595	3066
856.729	3093
856.862	3218
856.996	3192
857.13	3218
857.263	3226
857.397	3268
857.53	3104
857.664	3184
857.797	3253
857.931	3222
858.064	3169
858.197	3203
858.331	3119
858.464	3077
858.597	3009
858.731	3066
858.864	3131
858.997	3081
859.13	3169
859.263	3142
859.396	3207
859.529	3108
859.662	3081
859.795	3047
859.928	3123
860.061	3283
860.194	3283
860.327	3108
860.46	3089
860.592	3260
860.725	3199
860.858	3249
860.99	3089
861.123	3043
861.256	3020
861.388	3176
861.521	3937
861.653	2994
861.786	3005
861.918	2979
862.05	3070
862.183	3085
862.315	3176
862.447	3157
862.58	3112
862.712	2933
862.844	2849
862.976	3020
863.108	2963
863.24	3317
863.372	2876
863.504	2956
863.636	2956
863.768	3028
863.9	2982
864.032	2880
864.164	2967
864.296	2998
864.428	3093
864.559	3077
864.691	3085
864.823	3055
864.954	3032
865.086	3032
865.217	2998
865.349	2941
865.48	2975
865.612	3051
865.743	3104
865.875	2979
866.006	2910
866.137	3001
866.269	2937
866.4	2914
866.531	2922
866.662	2883
866.793	2861
866.924	2902
867.055	2967
867.186	2899
867.317	2864
867.448	2842
867.579	2842
867.71	2838
867.841	2853
867.972	2883
868.103	2906
868.233	2880
868.364	2883
868.495	2891
868.625	3089
868.756	3150
868.886	2952
869.017	3039
869.147	3142
869.278	3142
869.408	3047
869.539	3009
869.669	3085
869.799	3039
869.929	3108
870.06	3089
870.19	3279
870.32	3272
870.45	3291
870.58	3348
870.71	3447
870.84	3466
870.97	3264
871.1	3279
871.23	3473
871.36	3439
871.489	3325
871.619	3393
871.749	3382
871.879	3428
872.008	3450
872.138	3374
872.267	3245
872.397	3138
872.526	3070
872.656	3005
872.785	3077
872.915	3199
873.044	3321
873.173	3199
873.303	3230
873.432	3195
873.561	3241
873.69	3176
873.819	3165
873.948	3195
874.077	3097
874.206	3058
874.335	3112
874.464	3214
874.593	3313
874.722	3264
874.851	3412
874.979	3336
875.108	3287
875.237	3199
875.365	3165
875.494	3138
875.623	3241
875.751	3051
875.88	3116
876.008	3165
876.136	3180
876.265	3348
876.393	3492
876.521	3431
876.65	3420
876.778	3329
876.906	3233
877.034	3203
877.162	3195
877.29	3169
877.418	3226
877.546	3214
877.674	3233
877.802	3237
877.93	3253
878.058	3154
878.185	3074
878.313	3180
878.441	3154
878.568	3036
878.696	3131
878.824	3230
878.951	3237
879.079	3397
879.206	3625
879.333	3401
879.461	3340
879.588	3370
879.715	3450
879.842	3648
879.97	3355
880.097	3123
880.224	3104
880.351	3165
880.478	3203
880.605	3161
880.732	3169
880.859	3515
880.986	3253
881.112	3325
881.239	3176
881.366	3062
881.493	2998
881.619	3009
881.746	3077
881.872	3097
881.999	3077
882.125	3112
882.252	3188
882.378	3268
882.505	3401
882.631	3264
882.757	3135
882.883	3192
883.01	3192
883.136	3108
883.262	3070
883.388	3112
883.514	3313
883.64	3378
883.766	3310
883.892	3180
884.018	3230
884.143	3382
884.269	3511
884.395	3180
884.52	3138
884.646	3161
884.772	3108
884.897	3093
885.023	3233
885.148	3291
885.274	3397
885.399	3355
885.524	3287
885.65	3245
885.775	3340
885.9	3298
886.025	3477
886.15	3336
886.275	3310
886.4	3272
886.525	3298
886.65	3279
886.775	3241
886.9	3515
887.025	3644
887.149	3424
887.274	3298
887.399	3188
887.523	3207
887.648	3195
887.773	3253
887.897	3351
888.021	3416
888.146	3317
888.27	3450
888.395	3545
888.519	3443
888.643	3496
888.767	3488
888.891	3313
889.015	3272
889.139	3329
889.263	3298
889.387	3462
889.511	3553
889.635	3488
889.759	3397
889.883	3317
890.006	3458
890.13	3458
890.254	3302
890.377	3389
890.501	3245
890.624	3241
890.748	3317
890.871	3214
890.995	3131
891.118	3097
891.241	3230
891.364	3253
891.488	3336
891.611	3211
891.734	3272
891.857	3344
891.98	3272
892.103	3336
892.226	3275
892.349	3211
892.471	3184
892.594	3294
892.717	3363
892.839	3306
892.962	3294
893.085	3393
893.207	3298
893.33	3188
893.452	3226
893.575	3351
893.697	3310
893.819	3500
893.941	3515
894.064	3485
894.186	3313
894.308	3325
894.43	3450
894.552	3553
894.674	3515
894.796	3313
894.918	3332
895.04	3348
895.161	3447
895.283	3450
895.405	3401
895.526	3435
895.648	3450
895.769	3500
895.891	3477
896.012	3523
896.134	3507
896.255	3454
896.376	3428
896.498	3397
896.619	3458
896.74	3386
896.861	3462
896.982	3724
897.103	3888
897.224	3606
897.345	3568
897.466	3469
897.587	3534
897.708	3625
897.828	3587
897.949	3481
898.07	3355
898.19	3409
898.311	3625
898.431	3473
898.552	3564
898.672	3625
898.792	3629
898.913	3561
899.033	3424
899.153	3340
899.273	3245
899.393	3325
899.513	3355
899.633	3340
899.753	3382
899.873	3359
899.993	3401
900.113	3363
900.232	3405
900.352	3359
900.472	3310
900.591	3245
900.711	3313
900.83	3294
900.95	3485
901.069	3526
901.189	3393
901.308	3184
901.427	3165
901.546	3241
901.665	3340
901.784	3405
901.904	3260
902.023	3169
902.141	3032
902.26	3020
902.379	3184
902.498	3104
902.617	3112
902.735	3253
902.854	3287
902.973	3226
903.091	3085
903.21	3081
903.328	3157
903.446	3184
903.565	3146
903.683	3199
903.801	3135
903.919	3279
904.038	3294
904.156	3203
904.274	3317
904.392	3283
904.51	3310
904.627	3351
904.745	3439
904.863	3496
904.981	3256
905.098	3214
905.216	3306
905.334	3283
905.451	3332
905.569	3348
905.686	3458
905.803	3466
905.921	3306
906.038	3435
906.155	3378
906.272	3294
906.389	3321
906.506	3249
906.623	3291
906.74	3294
906.857	3207
906.974	3264
907.091	3504
907.208	3633
907.324	3481
907.441	3393
907.557	3260
907.674	3272
907.79	3253
907.907	3313
908.023	3393
908.139	3401
908.256	3355
908.372	3405
908.488	3367
908.604	3306
908.72	3279
908.836	3317
908.952	3321
909.068	3329
909.184	3538
909.3	3458
909.415	3526
909.531	3485
909.647	3313
909.762	3291
909.878	3306
909.993	3389
910.108	3389
910.224	3351
910.339	3428
910.454	3370
910.57	3306
910.685	3272
910.8	3606
910.915	3591
911.03	3477
911.145	3287
911.259	3298
911.374	3336
911.489	3294
911.604	3272
911.718	3142
911.833	3169
911.947	3077
912.062	2998
912.176	3211
912.291	3230
912.405	3222
912.519	3424
912.633	3538
912.748	3367
912.862	3325
912.976	3188
913.09	3043
913.204	3154
913.318	3279
913.431	3340
913.545	3344
913.659	3428
913.772	3367
913.886	3249
914	3241
914.113	3420
914.226	3424
914.34	3420
914.453	3241
914.566	3481
914.68	3329
914.793	3367
914.906	3157
915.019	3154
915.132	3097
915.245	3203
915.358	3218
915.47	3268
915.583	3310
915.696	3317
915.809	3431
915.921	3412
916.034	3272
916.146	3306
916.259	3233
916.371	3416
916.483	3424
916.595	3272
916.708	3340
916.82	3321
916.932	3374
917.044	3344
917.156	3386
917.268	3256
917.38	3348
917.491	3321
917.603	3409
917.715	3462
917.826	3454
917.938	3431
918.049	3321
918.161	3485
918.272	3629
918.384	3584
918.495	3523
918.606	3351
918.717	3355
918.828	3378
918.939	3447
919.05	3291
919.161	3397
919.272	3173
919.383	3283
919.494	3530
919.604	3705
919.715	3530
919.826	3397
919.936	3492
920.047	3580
920.157	3553
920.267	3774
920.378	3637
920.488	3587
920.598	3785
920.708	3934
920.818	3842
920.928	3831
921.038	4029
921.148	4025
921.258	3713
921.368	3686
921.477	3576
921.587	3591
921.697	3466
921.806	3660
921.916	3530
922.025	3401
922.134	3344
922.244	3332
922.353	3443
922.462	3291
922.571	3253
922.68	3104
922.789	3100
922.898	3173
923.007	3119
923.116	3249
923.224	3199
923.333	3188
923.442	3112
923.55	3112
923.659	3161
923.767	3256
923.876	3142
923.984	3287
924.092	3135
924.201	3245
924.309	3237
924.417	3256
924.525	3218
924.633	3298
924.741	4238
924.849	3081
924.956	3249
925.064	3119
925.172	3047
925.279	3119
925.387	3260
925.494	3218
925.602	3359
925.709	3355
925.816	3222
925.924	3310
926.031	3397
926.138	3397
926.245	3401
926.352	3279
926.459	3462
926.566	3507
926.673	3351
926.779	3260
926.886	3287
926.993	3211
927.099	3184
927.206	3097
927.312	3138
927.419	3249
927.525	3245
927.631	3287
927.737	3173
927.843	3116
927.95	3051
928.056	3154
928.162	3222
928.267	3275
928.373	3827
928.479	3317
928.585	3089
928.69	3256
928.796	3268
928.901	3184
929.007	3039
929.112	3230
929.218	3245
929.323	3165
929.428	3192
929.533	3348
929.638	3131
929.743	3146
929.848	3249
929.953	3253
930.058	3169
930.163	3039
930.267	3036
930.372	3214
930.477	3062
930.581	3294
930.685	3161
930.79	3097
930.894	3135
930.998	3131
931.103	3291
931.207	2960
931.311	2963
931.415	2914
931.519	2792
931.623	2857
