Data from test_V78500241_679.txt Node
Date: Fri Mar 25 16:19:54 CST 2022
User: usil
Spectrometer: V785-0024
Trigger mode: 0
Integration Time (sec): 4.000000E-1
Scans to average: 1
Nonlinearity correction enabled: false
Boxcar width: 0
Storing dark spectrum: false
XAxis mode: Wavelengths
Number of Pixels in Spectrum: 1024
>>>>>Begin Spectral Data<<<<<
801.071	2887
801.214	2967
801.356	2834
801.499	2883
801.641	2864
801.783	2899
801.926	3024
802.068	2971
802.211	2998
802.353	3005
802.496	2948
802.638	3020
802.78	3020
802.923	3047
803.065	2975
803.208	2902
803.35	2944
803.492	2922
803.635	2948
803.777	2769
803.919	2872
804.061	3184
804.204	2906
804.346	2925
804.488	2807
804.63	3001
804.773	2864
804.915	2937
805.057	3089
805.199	2891
805.341	2960
805.483	3028
805.626	3009
805.768	2944
805.91	3081
806.052	3093
806.194	3028
806.336	3218
806.478	2967
806.62	2941
806.762	2986
806.904	3036
807.046	3138
807.188	2979
807.33	2902
807.472	2998
807.614	2941
807.756	2963
807.898	2933
808.04	2880
808.182	2933
808.324	2937
808.465	2872
808.607	2849
808.749	2792
808.891	2819
809.033	2967
809.174	2975
809.316	2849
809.458	2887
809.6	2762
809.741	2724
809.883	2754
810.025	2849
810.166	2834
810.308	2834
810.45	2834
810.591	2815
810.733	2758
810.875	2826
811.016	2750
811.158	2796
811.299	2826
811.441	2929
811.582	2876
811.724	2811
811.865	2861
812.007	2861
812.148	2861
812.29	2849
812.431	2868
812.573	2937
812.714	2918
812.855	3039
812.997	3005
813.138	3123
813.279	3020
813.421	2963
813.562	2941
813.703	2864
813.845	2876
813.986	2785
814.127	2708
814.268	2792
814.41	2845
814.551	2800
814.692	2883
814.833	2815
814.974	2883
815.115	2929
815.256	2845
815.397	2781
815.539	2868
815.68	2769
815.821	2800
815.962	2933
816.103	2922
816.244	2849
816.385	2891
816.526	2941
816.666	2891
816.807	2754
816.948	2857
817.089	2864
817.23	2834
817.371	2735
817.512	2769
817.653	2830
817.793	2792
817.934	2872
818.075	2998
818.216	2960
818.356	3005
818.497	2899
818.638	2781
818.778	2830
818.919	2762
819.06	2758
819.2	2902
819.341	2788
819.481	2792
819.622	2902
819.762	3058
819.903	3024
820.043	2902
820.184	2868
820.324	2868
820.465	2975
820.605	3009
820.746	3024
820.886	2948
821.026	3081
821.167	3184
821.307	3256
821.447	3230
821.588	3230
821.728	3226
821.868	3165
822.008	3081
822.149	3165
822.289	3211
822.429	3077
822.569	3066
822.709	3176
822.849	2998
822.99	3051
823.13	3169
823.27	3211
823.41	3104
823.55	3176
823.69	3154
823.83	3184
823.97	3070
824.11	2998
824.25	2982
824.389	3100
824.529	3089
824.669	3055
824.809	3199
824.949	3294
825.089	3188
825.228	3157
825.368	3013
825.508	2960
825.648	2960
825.787	2982
825.927	3024
826.067	2952
826.206	2933
826.346	3017
826.485	3089
826.625	3112
826.765	3222
826.904	3188
827.044	2960
827.183	2948
827.323	2849
827.462	2967
827.601	2895
827.741	2910
827.88	2956
828.02	2864
828.159	2944
828.298	3036
828.437	3093
828.577	3051
828.716	3253
828.855	3097
828.994	2910
829.134	2880
829.273	2895
829.412	2887
829.551	2872
829.69	2838
829.829	2979
829.968	3112
830.107	3043
830.246	2975
830.385	2902
830.524	2872
830.663	2788
830.802	2716
830.941	2659
831.08	2663
831.219	2727
831.357	2735
831.496	2899
831.635	2697
831.774	2610
831.913	2667
832.051	2526
832.19	2571
832.329	2663
832.467	2530
832.606	2499
832.744	2556
832.883	2575
833.022	2602
833.16	2651
833.299	2689
833.437	2686
833.576	2689
833.714	2727
833.852	2720
833.991	2785
834.129	2781
834.267	2804
834.406	2811
834.544	2872
834.682	2845
834.821	2842
834.959	3066
835.097	2895
835.235	3085
835.373	2998
835.511	3055
835.65	2902
835.788	2963
835.926	2845
836.064	2815
836.202	2819
836.34	3123
836.478	3131
836.615	3017
836.753	3108
836.891	3173
837.029	3138
837.167	3104
837.305	3058
837.443	3013
837.58	2948
837.718	3165
837.856	3077
837.993	3005
838.131	3062
838.269	3081
838.406	3066
838.544	3070
838.681	2941
838.819	2906
838.956	2815
839.094	2819
839.231	2922
839.369	3047
839.506	3336
839.643	3222
839.781	2979
839.918	2963
840.055	3055
840.193	3020
840.33	3043
840.467	3081
840.604	3112
840.742	3393
840.879	3017
841.016	3058
841.153	3074
841.29	3272
841.427	3291
841.564	3203
841.701	3348
841.838	3237
841.975	3146
842.112	3199
842.249	3085
842.385	2982
842.522	3283
842.659	3070
842.796	3081
842.933	3100
843.069	3039
843.206	2998
843.343	3161
843.479	3051
843.616	3150
843.752	2895
843.889	2849
844.025	3081
844.162	2834
844.298	3047
844.435	2956
844.571	2918
844.708	3066
844.844	3157
844.98	3176
845.117	3157
845.253	3047
845.389	3020
845.525	3066
845.661	3100
845.798	2986
845.934	3119
846.07	3020
846.206	3226
846.342	3275
846.478	3184
846.614	3089
846.75	3020
846.886	3005
847.022	3241
847.158	3157
847.294	3199
847.429	3230
847.565	3211
847.701	3443
847.837	3017
847.972	3024
848.108	3135
848.244	3108
848.379	2971
848.515	2895
848.65	2922
848.786	2933
848.921	2975
849.057	3089
849.192	3154
849.328	3077
849.463	3097
849.598	3062
849.734	3032
849.869	2990
850.004	2941
850.14	2967
850.275	2887
850.41	2815
850.545	2842
850.68	2925
850.815	2944
850.95	2963
851.085	3176
851.22	3108
851.355	3013
851.49	2982
851.625	2960
851.76	2998
851.895	2941
852.03	2872
852.165	3036
852.299	3077
852.434	3180
852.569	3123
852.703	3131
852.838	3249
852.973	3359
853.107	3329
853.242	3100
853.376	3070
853.511	2982
853.645	3017
853.78	3245
853.914	3116
854.048	3104
854.183	3039
854.317	3131
854.451	3298
854.585	3123
854.72	3066
854.854	3218
854.988	3009
855.122	3093
855.256	2963
855.39	3093
855.524	3169
855.658	3184
855.792	3138
855.926	3184
856.06	3199
856.194	3249
856.327	3100
856.461	3028
856.595	3055
856.729	3077
856.862	3199
856.996	3116
857.13	3203
857.263	3237
857.397	3272
857.53	3104
857.664	3188
857.797	3180
857.931	3233
858.064	3165
858.197	3195
858.331	3077
858.464	3066
858.597	2986
858.731	3112
858.864	3116
858.997	3123
859.13	3119
859.263	3116
859.396	3195
859.529	3074
859.662	3058
859.795	3047
859.928	3127
860.061	3230
860.194	3249
860.327	3093
860.46	3097
860.592	3230
860.725	3230
860.858	3195
860.99	3081
861.123	3024
861.256	3043
861.388	3157
861.521	3918
861.653	3009
861.786	2975
861.918	2979
862.05	3074
862.183	3085
862.315	3157
862.447	3173
862.58	3119
862.712	2937
862.844	2853
862.976	3043
863.108	3017
863.24	3466
863.372	2910
863.504	2967
863.636	2986
863.768	3047
863.9	3013
864.032	2937
864.164	3005
864.296	3024
864.428	3131
864.559	3093
864.691	3051
864.823	3085
864.954	3051
865.086	3058
865.217	3039
865.349	2971
865.48	2990
865.612	3036
865.743	3207
865.875	3017
866.006	2994
866.137	2990
866.269	2933
866.4	2979
866.531	2960
866.662	2925
866.793	2941
866.924	2929
867.055	3043
867.186	2982
867.317	2967
867.448	2891
867.579	2899
867.71	2899
867.841	2853
867.972	2956
868.103	2929
868.233	2914
868.364	2925
868.495	2914
868.625	3047
868.756	3199
868.886	3047
869.017	3055
869.147	3214
869.278	3199
869.408	3077
869.539	3070
869.669	3123
869.799	3077
869.929	3173
870.06	3142
870.19	3351
870.32	3275
870.45	3329
870.58	3416
870.71	3492
870.84	3511
870.97	3302
871.1	3306
871.23	3481
871.36	3488
871.489	3374
871.619	3409
871.749	3447
871.879	3477
872.008	3507
872.138	3386
872.267	3298
872.397	3188
872.526	3108
872.656	3070
872.785	3112
872.915	3279
873.044	3344
873.173	3249
873.303	3302
873.432	3245
873.561	3264
873.69	3184
873.819	3176
873.948	3260
874.077	3119
874.206	3055
874.335	3081
874.464	3264
874.593	3363
874.722	3283
874.851	3439
874.979	3401
875.108	3336
875.237	3218
875.365	3207
875.494	3173
875.623	3313
875.751	3116
875.88	3123
876.008	3192
876.136	3233
876.265	3401
876.393	3561
876.521	3462
876.65	3435
876.778	3332
876.906	3256
877.034	3211
877.162	3264
877.29	3207
877.418	3298
877.546	3272
877.674	3291
877.802	3268
877.93	3245
878.058	3169
878.185	3131
878.313	3256
878.441	3241
878.568	3131
878.696	3203
878.824	3298
878.951	3336
879.079	3473
879.206	3656
879.333	3443
879.461	3317
879.588	3412
879.715	3530
879.842	3641
879.97	3424
880.097	3169
880.224	3131
880.351	3222
880.478	3226
880.605	3222
880.732	3211
880.859	3492
880.986	3310
881.112	3348
881.239	3241
881.366	3089
881.493	3058
881.619	3032
881.746	3085
881.872	3123
881.999	3119
882.125	3180
882.252	3283
882.378	3302
882.505	3462
882.631	3302
882.757	3176
882.883	3245
883.01	3249
883.136	3180
883.262	3161
883.388	3165
883.514	3344
883.64	3355
883.766	3325
883.892	3218
884.018	3268
884.143	3450
884.269	3549
884.395	3237
884.52	3188
884.646	3203
884.772	3157
884.897	3127
885.023	3268
885.148	3359
885.274	3466
885.399	3374
885.524	3268
885.65	3287
885.775	3355
885.9	3287
886.025	3454
886.15	3393
886.275	3332
886.4	3237
886.525	3378
886.65	3310
886.775	3317
886.9	3496
887.025	3660
887.149	3439
887.274	3279
887.399	3218
887.523	3192
887.648	3214
887.773	3245
887.897	3397
888.021	3431
888.146	3351
888.27	3481
888.395	3534
888.519	3462
888.643	3435
888.767	3473
888.891	3321
889.015	3249
889.139	3336
889.263	3256
889.387	3424
889.511	3519
889.635	3473
889.759	3283
889.883	3348
890.006	3420
890.13	3542
890.254	3283
890.377	3401
890.501	3199
890.624	3218
890.748	3313
890.871	3230
890.995	3119
891.118	3100
891.241	3222
891.364	3176
891.488	3348
891.611	3192
891.734	3233
891.857	3287
891.98	3260
892.103	3344
892.226	3306
892.349	3241
892.471	3165
892.594	3245
892.717	3321
892.839	3287
892.962	3310
893.085	3359
893.207	3321
893.33	3253
893.452	3268
893.575	3443
893.697	3306
893.819	3500
893.941	3515
894.064	3462
894.186	3298
894.308	3317
894.43	3458
894.552	3553
894.674	3454
894.796	3279
894.918	3325
895.04	3287
895.161	3454
895.283	3435
895.405	3287
895.526	3393
895.648	3458
895.769	3477
895.891	3519
896.012	3496
896.134	3439
896.255	3409
896.376	3378
896.498	3370
896.619	3428
896.74	3409
896.861	3401
896.982	3698
897.103	3896
897.224	3584
897.345	3523
897.466	3477
897.587	3523
897.708	3633
897.828	3553
897.949	3454
898.07	3348
898.19	3412
898.311	3622
898.431	3447
898.552	3526
898.672	3576
898.792	3606
898.913	3526
899.033	3428
899.153	3294
899.273	3222
899.393	3283
899.513	3283
899.633	3359
899.753	3329
899.873	3332
899.993	3405
900.113	3351
900.232	3389
900.352	3348
900.472	3302
900.591	3230
900.711	3310
900.83	3256
900.95	3424
901.069	3473
901.189	3370
901.308	3222
901.427	3135
901.546	3211
901.665	3359
901.784	3367
901.904	3233
902.023	3188
902.141	3051
902.26	2967
902.379	3203
902.498	3108
902.617	3047
902.735	3195
902.854	3268
902.973	3203
903.091	3047
903.21	3104
903.328	3154
903.446	3116
903.565	3138
903.683	3249
903.801	3154
903.919	3233
904.038	3306
904.156	3218
904.274	3321
904.392	3245
904.51	3291
904.627	3370
904.745	3462
904.863	3538
904.981	3294
905.098	3169
905.216	3233
905.334	3294
905.451	3336
905.569	3332
905.686	3401
905.803	3469
905.921	3367
906.038	3469
906.155	3355
906.272	3310
906.389	3348
906.506	3268
906.623	3310
906.74	3321
906.857	3176
906.974	3272
907.091	3443
907.208	3572
907.324	3519
907.441	3439
907.557	3256
907.674	3245
907.79	3241
907.907	3287
908.023	3409
908.139	3374
908.256	3374
908.372	3378
908.488	3393
908.604	3260
908.72	3249
908.836	3302
908.952	3302
909.068	3340
909.184	3477
909.3	3405
909.415	3488
909.531	3523
909.647	3306
909.762	3321
909.878	3253
909.993	3409
910.108	3370
910.224	3348
910.339	3439
910.454	3351
910.57	3325
910.685	3279
910.8	3595
910.915	3511
911.03	3481
911.145	3310
911.259	3291
911.374	3317
911.489	3268
911.604	3275
911.718	3119
911.833	3169
911.947	3051
912.062	3020
912.176	3180
912.291	3199
912.405	3218
912.519	3420
912.633	3481
912.748	3401
912.862	3298
912.976	3154
913.09	3081
913.204	3195
913.318	3264
913.431	3329
913.545	3359
913.659	3447
913.772	3351
913.886	3249
914	3211
914.113	3374
914.226	3443
914.34	3370
914.453	3241
914.566	3431
914.68	3306
914.793	3332
914.906	3146
915.019	3146
915.132	3062
915.245	3203
915.358	3214
915.47	3256
915.583	3283
915.696	3321
915.809	3416
915.921	3466
916.034	3279
916.146	3283
916.259	3207
916.371	3409
916.483	3374
916.595	3245
916.708	3336
916.82	3306
916.932	3321
917.044	3359
917.156	3363
917.268	3256
917.38	3329
917.491	3321
917.603	3416
917.715	3454
917.826	3488
917.938	3416
918.049	3302
918.161	3450
918.272	3587
918.384	3576
918.495	3545
918.606	3363
918.717	3302
918.828	3439
918.939	3424
919.05	3355
919.161	3367
919.272	3188
919.383	3294
919.494	3515
919.604	3633
919.715	3507
919.826	3412
919.936	3488
920.047	3584
920.157	3568
920.267	3751
920.378	3629
920.488	3641
920.598	3827
920.708	3956
920.818	3861
920.928	3819
921.038	4025
921.148	3972
921.258	3709
921.368	3625
921.477	3568
921.587	3549
921.697	3443
921.806	3648
921.916	3549
922.025	3348
922.134	3374
922.244	3306
922.353	3435
922.462	3317
922.571	3249
922.68	3142
922.789	3097
922.898	3123
923.007	3112
923.116	3199
923.224	3199
923.333	3268
923.442	3154
923.55	3100
923.659	3119
923.767	3192
923.876	3127
923.984	3272
924.092	3097
924.201	3180
924.309	3211
924.417	3306
924.525	3192
924.633	3272
924.741	4029
924.849	3051
924.956	3256
925.064	3077
925.172	3074
925.279	3108
925.387	3169
925.494	3214
925.602	3397
925.709	3344
925.816	3214
925.924	3272
926.031	3367
926.138	3355
926.245	3416
926.352	3245
926.459	3447
926.566	3450
926.673	3325
926.779	3272
926.886	3291
926.993	3142
927.099	3157
927.206	3161
927.312	3085
927.419	3233
927.525	3195
927.631	3245
927.737	3135
927.843	3165
927.95	3047
928.056	3097
928.162	3192
928.267	3317
928.373	3819
928.479	3317
928.585	3104
928.69	3264
928.796	3298
928.901	3138
929.007	3047
929.112	3211
929.218	3192
929.323	3161
929.428	3165
929.533	3329
929.638	3127
929.743	3184
929.848	3275
929.953	3272
930.058	3138
930.163	3051
930.267	3077
930.372	3173
930.477	3070
930.581	3374
930.685	3195
930.79	3081
930.894	3127
930.998	3135
931.103	3291
931.207	2979
931.311	3001
931.415	3001
931.519	2796
931.623	2838
