Data from test_V78500241_1568.txt Node
Date: Fri Mar 25 16:26:03 CST 2022
User: usil
Spectrometer: V785-0024
Trigger mode: 0
Integration Time (sec): 4.000000E-1
Scans to average: 1
Nonlinearity correction enabled: false
Boxcar width: 0
Storing dark spectrum: false
XAxis mode: Wavelengths
Number of Pixels in Spectrum: 1024
>>>>>Begin Spectral Data<<<<<
801.071	2944
801.214	2960
801.356	2899
801.499	2906
801.641	2914
801.783	2929
801.926	3066
802.068	2979
802.211	2994
802.353	3047
802.496	3009
802.638	3074
802.78	3055
802.923	3089
803.065	3001
803.208	2899
803.35	2929
803.492	2948
803.635	2941
803.777	2773
803.919	2868
804.061	3214
804.204	2948
804.346	2914
804.488	2880
804.63	3001
804.773	2887
804.915	2944
805.057	3077
805.199	2937
805.341	2971
805.483	3074
805.626	3017
805.768	3005
805.91	3116
806.052	3093
806.194	3047
806.336	3241
806.478	3009
806.62	3028
806.762	2982
806.904	3066
807.046	3173
807.188	2986
807.33	2868
807.472	3020
807.614	2937
807.756	2998
807.898	2944
808.04	2929
808.182	2982
808.324	2971
808.465	2914
808.607	2891
808.749	2826
808.891	2876
809.033	3005
809.174	2971
809.316	2891
809.458	2880
809.6	2781
809.741	2785
809.883	2773
810.025	2853
810.166	2853
810.308	2853
810.45	2861
810.591	2777
810.733	2785
810.875	2899
811.016	2766
811.158	2762
811.299	2838
811.441	2948
811.582	2910
811.724	2857
811.865	2853
812.007	2918
812.148	2899
812.29	2857
812.431	2857
812.573	2948
812.714	2971
812.855	3043
812.997	3066
813.138	3119
813.279	3009
813.421	2994
813.562	2975
813.703	2910
813.845	2906
813.986	2796
814.127	2743
814.268	2811
814.41	2861
814.551	2834
814.692	2899
814.833	2880
814.974	2910
815.115	2971
815.256	2857
815.397	2796
815.539	2868
815.68	2830
815.821	2804
815.962	2937
816.103	2937
816.244	2876
816.385	2868
816.526	2998
816.666	2944
816.807	2769
816.948	2868
817.089	2918
817.23	2895
817.371	2773
817.512	2792
817.653	2830
817.793	2845
817.934	2895
818.075	2979
818.216	2956
818.356	3020
818.497	2880
818.638	2811
818.778	2849
818.919	2769
819.06	2735
819.2	2899
819.341	2785
819.481	2815
819.622	2944
819.762	3104
819.903	3108
820.043	2902
820.184	2887
820.324	2902
820.465	3020
820.605	2979
820.746	3036
820.886	2975
821.026	3070
821.167	3176
821.307	3264
821.447	3256
821.588	3245
821.728	3211
821.868	3214
822.008	3089
822.149	3188
822.289	3253
822.429	3138
822.569	3108
822.709	3176
822.849	3051
822.99	3058
823.13	3142
823.27	3161
823.41	3085
823.55	3169
823.69	3169
823.83	3207
823.97	3097
824.11	2994
824.25	3032
824.389	3093
824.529	3089
824.669	3055
824.809	3199
824.949	3203
825.089	3233
825.228	3173
825.368	3020
825.508	2986
825.648	2990
825.787	3020
825.927	3024
826.067	2956
826.206	2948
826.346	3051
826.485	3104
826.625	3116
826.765	3283
826.904	3241
827.044	2971
827.183	2918
827.323	2861
827.462	3005
827.601	2887
827.741	2971
827.88	2979
828.02	2849
828.159	2994
828.298	3017
828.437	3116
828.577	3058
828.716	3253
828.855	3100
828.994	2910
829.134	2895
829.273	2929
829.412	2868
829.551	2853
829.69	2864
829.829	3009
829.968	3123
830.107	3043
830.246	3013
830.385	2906
830.524	2902
830.663	2823
830.802	2727
830.941	2678
831.08	2651
831.219	2766
831.357	2777
831.496	2948
831.635	2727
831.774	2667
831.913	2663
832.051	2560
832.19	2556
832.329	2712
832.467	2545
832.606	2480
832.744	2587
832.883	2587
833.022	2594
833.16	2667
833.299	2712
833.437	2701
833.576	2697
833.714	2731
833.852	2731
833.991	2746
834.129	2842
834.267	2834
834.406	2796
834.544	2823
834.682	2883
834.821	2842
834.959	3062
835.097	2838
835.235	3081
835.373	3005
835.511	2994
835.65	2948
835.788	2941
835.926	2834
836.064	2781
836.202	2830
836.34	3085
836.478	3161
836.615	3043
836.753	3135
836.891	3218
837.029	3188
837.167	3081
837.305	3047
837.443	3036
837.58	2994
837.718	3161
837.856	3081
837.993	3043
838.131	3127
838.269	3097
838.406	3112
838.544	3093
838.681	2914
838.819	2895
838.956	2807
839.094	2823
839.231	2918
839.369	3051
839.506	3359
839.643	3207
839.781	3032
839.918	2937
840.055	3017
840.193	3043
840.33	3058
840.467	3039
840.604	3146
840.742	3412
840.879	3017
841.016	3104
841.153	3097
841.29	3340
841.427	3302
841.564	3275
841.701	3298
841.838	3226
841.975	3176
842.112	3184
842.249	3093
842.385	3070
842.522	3264
842.659	3093
842.796	3055
842.933	3100
843.069	2998
843.206	3028
843.343	3165
843.479	3077
843.616	3169
843.752	2887
843.889	2868
844.025	3104
844.162	2857
844.298	3070
844.435	2925
844.571	2922
844.708	3070
844.844	3165
844.98	3230
845.117	3199
845.253	3047
845.389	2990
845.525	3138
845.661	3119
845.798	3024
845.934	3138
846.07	3043
846.206	3256
846.342	3287
846.478	3218
846.614	3077
846.75	3024
846.886	3009
847.022	3211
847.158	3123
847.294	3203
847.429	3230
847.565	3264
847.701	3507
847.837	3032
847.972	3039
848.108	3165
848.244	3150
848.379	2956
848.515	2922
848.65	2910
848.786	2937
848.921	3005
849.057	3119
849.192	3150
849.328	3074
849.463	3081
849.598	3058
849.734	3009
849.869	2982
850.004	2914
850.14	2975
850.275	2910
850.41	2819
850.545	2842
850.68	2929
850.815	2941
850.95	2929
851.085	3199
851.22	3100
851.355	3032
851.49	2975
851.625	2971
851.76	3013
851.895	2922
852.03	2887
852.165	3024
852.299	3100
852.434	3195
852.569	3116
852.703	3161
852.838	3268
852.973	3306
853.107	3348
853.242	3165
853.376	3039
853.511	2956
853.645	3001
853.78	3226
853.914	3135
854.048	3066
854.183	3074
854.317	3165
854.451	3256
854.585	3131
854.72	3097
854.854	3199
854.988	3089
855.122	3058
855.256	2948
855.39	3104
855.524	3237
855.658	3157
855.792	3150
855.926	3173
856.06	3173
856.194	3279
856.327	3127
856.461	3100
856.595	3097
856.729	3081
856.862	3180
856.996	3142
857.13	3169
857.263	3214
857.397	3291
857.53	3108
857.664	3192
857.797	3237
857.931	3260
858.064	3169
858.197	3214
858.331	3150
858.464	3100
858.597	3001
858.731	3108
858.864	3131
858.997	3081
859.13	3142
859.263	3169
859.396	3199
859.529	3097
859.662	3074
859.795	3043
859.928	3112
860.061	3272
860.194	3268
860.327	3123
860.46	3074
860.592	3249
860.725	3279
860.858	3245
860.99	3135
861.123	3081
861.256	3043
861.388	3131
861.521	3854
861.653	3020
861.786	2990
861.918	2986
862.05	3070
862.183	3089
862.315	3157
862.447	3169
862.58	3093
862.712	2933
862.844	2842
862.976	2990
863.108	3009
863.24	3294
863.372	2864
863.504	2960
863.636	2948
863.768	3020
863.9	2990
864.032	2899
864.164	2952
864.296	3005
864.428	3066
864.559	3112
864.691	3066
864.823	3047
864.954	3024
865.086	3013
865.217	2960
865.349	2925
865.48	3005
865.612	3047
865.743	3127
865.875	2967
866.006	2941
866.137	2990
866.269	2929
866.4	2895
866.531	2937
866.662	2872
866.793	2906
866.924	2899
867.055	2925
867.186	2929
867.317	2872
867.448	2849
867.579	2853
867.71	2872
867.841	2842
867.972	2880
868.103	2925
868.233	2868
868.364	2902
868.495	2895
868.625	3055
868.756	3146
868.886	2982
869.017	3024
869.147	3192
869.278	3195
869.408	3051
869.539	3017
869.669	3089
869.799	3039
869.929	3097
870.06	3116
870.19	3298
870.32	3302
870.45	3294
870.58	3351
870.71	3401
870.84	3450
870.97	3302
871.1	3230
871.23	3473
871.36	3458
871.489	3332
871.619	3409
871.749	3401
871.879	3466
872.008	3447
872.138	3355
872.267	3233
872.397	3142
872.526	3097
872.656	3020
872.785	3104
872.915	3222
873.044	3340
873.173	3245
873.303	3268
873.432	3218
873.561	3233
873.69	3157
873.819	3157
873.948	3192
874.077	3100
874.206	3077
874.335	3055
874.464	3279
874.593	3344
874.722	3249
874.851	3389
874.979	3351
875.108	3321
875.237	3176
875.365	3146
875.494	3142
875.623	3253
875.751	3070
875.88	3100
876.008	3184
876.136	3214
876.265	3351
876.393	3496
876.521	3409
876.65	3416
876.778	3336
876.906	3230
877.034	3195
877.162	3214
877.29	3157
877.418	3245
877.546	3207
877.674	3241
877.802	3230
877.93	3237
878.058	3142
878.185	3116
878.313	3214
878.441	3188
878.568	3036
878.696	3131
878.824	3207
878.951	3310
879.079	3466
879.206	3576
879.333	3420
879.461	3321
879.588	3351
879.715	3481
879.842	3564
879.97	3355
880.097	3157
880.224	3108
880.351	3230
880.478	3222
880.605	3192
880.732	3146
880.859	3538
880.986	3264
881.112	3329
881.239	3207
881.366	3093
881.493	3032
881.619	3039
881.746	3047
881.872	3131
881.999	3123
882.125	3127
882.252	3264
882.378	3291
882.505	3450
882.631	3279
882.757	3173
882.883	3214
883.01	3222
883.136	3146
883.262	3112
883.388	3085
883.514	3298
883.64	3351
883.766	3302
883.892	3157
884.018	3192
884.143	3435
884.269	3561
884.395	3214
884.52	3180
884.646	3154
884.772	3131
884.897	3081
885.023	3222
885.148	3329
885.274	3393
885.399	3321
885.524	3268
885.65	3268
885.775	3317
885.9	3256
886.025	3435
886.15	3370
886.275	3344
886.4	3241
886.525	3302
886.65	3256
886.775	3291
886.9	3496
887.025	3625
887.149	3405
887.274	3253
887.399	3176
887.523	3192
887.648	3161
887.773	3188
887.897	3370
888.021	3367
888.146	3264
888.27	3454
888.395	3519
888.519	3431
888.643	3412
888.767	3424
888.891	3313
889.015	3249
889.139	3279
889.263	3245
889.387	3416
889.511	3496
889.635	3450
889.759	3260
889.883	3287
890.006	3409
890.13	3504
890.254	3260
890.377	3332
890.501	3192
890.624	3131
890.748	3294
890.871	3142
890.995	3123
891.118	3070
891.241	3222
891.364	3233
891.488	3302
891.611	3157
891.734	3230
891.857	3279
891.98	3211
892.103	3340
892.226	3310
892.349	3207
892.471	3127
892.594	3241
892.717	3317
892.839	3256
892.962	3272
893.085	3359
893.207	3279
893.33	3142
893.452	3203
893.575	3325
893.697	3283
893.819	3458
893.941	3500
894.064	3420
894.186	3253
894.308	3291
894.43	3435
894.552	3523
894.674	3462
894.796	3253
894.918	3294
895.04	3283
895.161	3435
895.283	3367
895.405	3313
895.526	3340
895.648	3412
895.769	3439
895.891	3439
896.012	3477
896.134	3450
896.255	3435
896.376	3374
896.498	3355
896.619	3466
896.74	3332
896.861	3412
896.982	3648
897.103	3838
897.224	3572
897.345	3473
897.466	3435
897.587	3458
897.708	3622
897.828	3561
897.949	3447
898.07	3351
898.19	3393
898.311	3561
898.431	3424
898.552	3485
898.672	3568
898.792	3576
898.913	3462
899.033	3435
899.153	3253
899.273	3237
899.393	3264
899.513	3279
899.633	3344
899.753	3348
899.873	3298
899.993	3359
900.113	3348
900.232	3389
900.352	3344
900.472	3306
900.591	3207
900.711	3313
900.83	3218
900.95	3435
901.069	3504
901.189	3321
901.308	3146
901.427	3173
901.546	3173
901.665	3294
901.784	3294
901.904	3218
902.023	3150
902.141	3017
902.26	2986
902.379	3123
902.498	3089
902.617	3097
902.735	3233
902.854	3230
902.973	3233
903.091	3028
903.21	3051
903.328	3146
903.446	3123
903.565	3112
903.683	3173
903.801	3131
903.919	3272
904.038	3340
904.156	3154
904.274	3294
904.392	3272
904.51	3287
904.627	3302
904.745	3450
904.863	3511
904.981	3230
905.098	3192
905.216	3230
905.334	3272
905.451	3325
905.569	3306
905.686	3386
905.803	3447
905.921	3317
906.038	3382
906.155	3370
906.272	3260
906.389	3302
906.506	3218
906.623	3283
906.74	3256
906.857	3199
906.974	3279
907.091	3488
907.208	3534
907.324	3431
907.441	3378
907.557	3249
907.674	3230
907.79	3253
907.907	3283
908.023	3332
908.139	3370
908.256	3340
908.372	3374
908.488	3336
908.604	3218
908.72	3211
908.836	3298
908.952	3279
909.068	3344
909.184	3439
909.3	3374
909.415	3507
909.531	3439
909.647	3275
909.762	3268
909.878	3237
909.993	3370
910.108	3344
910.224	3294
910.339	3405
910.454	3306
910.57	3294
910.685	3264
910.8	3614
910.915	3530
911.03	3450
911.145	3298
911.259	3279
911.374	3291
911.489	3241
911.604	3211
911.718	3100
911.833	3154
911.947	3017
912.062	2967
912.176	3150
912.291	3173
912.405	3230
912.519	3447
912.633	3466
912.748	3344
912.862	3260
912.976	3142
913.09	3039
913.204	3127
913.318	3241
913.431	3370
913.545	3321
913.659	3412
913.772	3351
913.886	3180
914	3176
914.113	3317
914.226	3397
914.34	3363
914.453	3230
914.566	3443
914.68	3287
914.793	3321
914.906	3138
915.019	3077
915.132	3077
915.245	3146
915.358	3207
915.47	3249
915.583	3256
915.696	3310
915.809	3405
915.921	3378
916.034	3241
916.146	3233
916.259	3222
916.371	3393
916.483	3374
916.595	3298
916.708	3298
916.82	3332
916.932	3321
917.044	3359
917.156	3351
917.268	3256
917.38	3313
917.491	3279
917.603	3359
917.715	3428
917.826	3473
917.938	3351
918.049	3218
918.161	3450
918.272	3591
918.384	3549
918.495	3462
918.606	3313
918.717	3317
918.828	3351
918.939	3389
919.05	3310
919.161	3363
919.272	3176
919.383	3294
919.494	3485
919.604	3701
919.715	3496
919.826	3412
919.936	3492
920.047	3618
920.157	3542
920.267	3774
920.378	3576
920.488	3572
920.598	3800
920.708	3949
920.818	3819
920.928	3800
921.038	4010
921.148	3968
921.258	3759
921.368	3633
921.477	3568
921.587	3580
921.697	3454
921.806	3622
921.916	3515
922.025	3370
922.134	3370
922.244	3279
922.353	3401
922.462	3211
922.571	3218
922.68	3112
922.789	3097
922.898	3138
923.007	3051
923.116	3195
923.224	3211
923.333	3184
923.442	3077
923.55	3104
923.659	3112
923.767	3222
923.876	3138
923.984	3230
924.092	3085
924.201	3214
924.309	3192
924.417	3260
924.525	3195
924.633	3233
924.741	4196
924.849	3066
924.956	3264
925.064	3100
925.172	3066
925.279	3081
925.387	3199
925.494	3211
925.602	3325
925.709	3313
925.816	3199
925.924	3298
926.031	3378
926.138	3336
926.245	3351
926.352	3275
926.459	3416
926.566	3496
926.673	3325
926.779	3233
926.886	3260
926.993	3154
927.099	3138
927.206	3119
927.312	3142
927.419	3207
927.525	3192
927.631	3313
927.737	3150
927.843	3119
927.95	3017
928.056	3165
928.162	3176
928.267	3226
928.373	3876
928.479	3302
928.585	3062
928.69	3207
928.796	3275
928.901	3165
929.007	3077
929.112	3203
929.218	3188
929.323	3165
929.428	3157
929.533	3348
929.638	3157
929.743	3169
929.848	3241
929.953	3184
930.058	3135
930.163	2944
930.267	3017
930.372	3211
930.477	3032
930.581	3321
930.685	3199
930.79	3074
930.894	3112
930.998	3112
931.103	3272
931.207	2918
931.311	2933
931.415	2922
931.519	2788
931.623	2834
