Data from test_V78500241_616.txt Node
Date: Fri Mar 25 16:19:28 CST 2022
User: usil
Spectrometer: V785-0024
Trigger mode: 0
Integration Time (sec): 4.000000E-1
Scans to average: 1
Nonlinearity correction enabled: false
Boxcar width: 0
Storing dark spectrum: false
XAxis mode: Wavelengths
Number of Pixels in Spectrum: 1024
>>>>>Begin Spectral Data<<<<<
801.071	2918
801.214	2963
801.356	2899
801.499	2956
801.641	2834
801.783	2922
801.926	3047
802.068	2979
802.211	2975
802.353	3017
802.496	2998
802.638	3013
802.78	3066
802.923	3055
803.065	2963
803.208	2910
803.35	2914
803.492	2910
803.635	2922
803.777	2796
803.919	2891
804.061	3230
804.204	2960
804.346	2895
804.488	2861
804.63	2982
804.773	2876
804.915	2910
805.057	3039
805.199	2952
805.341	2941
805.483	3066
805.626	3009
805.768	2956
805.91	3066
806.052	3150
806.194	3074
806.336	3237
806.478	3074
806.62	2929
806.762	2979
806.904	3039
807.046	3195
807.188	3005
807.33	2922
807.472	3009
807.614	2929
807.756	2982
807.898	2925
808.04	2914
808.182	2979
808.324	2941
808.465	2910
808.607	2906
808.749	2800
808.891	2880
809.033	2979
809.174	2982
809.316	2902
809.458	2853
809.6	2766
809.741	2766
809.883	2750
810.025	2830
810.166	2826
810.308	2880
810.45	2883
810.591	2788
810.733	2788
810.875	2857
811.016	2769
811.158	2754
811.299	2842
811.441	2952
811.582	2929
811.724	2857
811.865	2842
812.007	2895
812.148	2868
812.29	2834
812.431	2918
812.573	2975
812.714	2971
812.855	3058
812.997	3039
813.138	3108
813.279	2967
813.421	3001
813.562	2979
813.703	2849
813.845	2883
813.986	2819
814.127	2769
814.268	2830
814.41	2830
814.551	2773
814.692	2849
814.833	2834
814.974	2902
815.115	2967
815.256	2815
815.397	2792
815.539	2891
815.68	2811
815.821	2811
815.962	2967
816.103	2933
816.244	2887
816.385	2853
816.526	2963
816.666	2891
816.807	2758
816.948	2876
817.089	2910
817.23	2853
817.371	2788
817.512	2819
817.653	2857
817.793	2823
817.934	2906
818.075	2967
818.216	2990
818.356	3032
818.497	2906
818.638	2788
818.778	2815
818.919	2800
819.06	2766
819.2	2857
819.341	2823
819.481	2766
819.622	2925
819.762	3108
819.903	3043
820.043	2914
820.184	2910
820.324	2918
820.465	3047
820.605	2979
820.746	3017
820.886	2963
821.026	3112
821.167	3169
821.307	3264
821.447	3329
821.588	3226
821.728	3207
821.868	3233
822.008	3108
822.149	3195
822.289	3211
822.429	3085
822.569	3100
822.709	3180
822.849	3055
822.99	3104
823.13	3165
823.27	3195
823.41	3116
823.55	3195
823.69	3157
823.83	3199
823.97	3077
824.11	3009
824.25	2982
824.389	3043
824.529	3085
824.669	3085
824.809	3173
824.949	3256
825.089	3195
825.228	3127
825.368	2998
825.508	2967
825.648	2971
825.787	3039
825.927	3077
826.067	2960
826.206	2944
826.346	3043
826.485	3051
826.625	3127
826.765	3233
826.904	3180
827.044	3036
827.183	2902
827.323	2834
827.462	2971
827.601	2887
827.741	2929
827.88	2967
828.02	2872
828.159	2960
828.298	3036
828.437	3135
828.577	3058
828.716	3211
828.855	3066
828.994	2910
829.134	2899
829.273	2914
829.412	2899
829.551	2887
829.69	2864
829.829	2979
829.968	3104
830.107	3039
830.246	3017
830.385	2929
830.524	2861
830.663	2849
830.802	2720
830.941	2636
831.08	2648
831.219	2773
831.357	2754
831.496	2975
831.635	2720
831.774	2621
831.913	2697
832.051	2556
832.19	2590
832.329	2682
832.467	2537
832.606	2473
832.744	2590
832.883	2621
833.022	2568
833.16	2636
833.299	2663
833.437	2670
833.576	2682
833.714	2674
833.852	2731
833.991	2739
834.129	2864
834.267	2842
834.406	2788
834.544	2876
834.682	2880
834.821	2876
834.959	3051
835.097	2887
835.235	3051
835.373	2975
835.511	3024
835.65	2975
835.788	2922
835.926	2826
836.064	2826
836.202	2868
836.34	3081
836.478	3138
836.615	3062
836.753	3150
836.891	3199
837.029	3146
837.167	3131
837.305	3085
837.443	3062
837.58	2963
837.718	3131
837.856	3043
837.993	3024
838.131	3093
838.269	3089
838.406	3104
838.544	3097
838.681	2922
838.819	2906
838.956	2804
839.094	2845
839.231	2883
839.369	3066
839.506	3393
839.643	3192
839.781	2990
839.918	2956
840.055	3017
840.193	3058
840.33	3036
840.467	3123
840.604	3165
840.742	3405
840.879	3024
841.016	3009
841.153	3119
841.29	3336
841.427	3302
841.564	3256
841.701	3294
841.838	3207
841.975	3199
842.112	3192
842.249	3070
842.385	3047
842.522	3222
842.659	3047
842.796	3055
842.933	3097
843.069	3005
843.206	3020
843.343	3192
843.479	3112
843.616	3135
843.752	2876
843.889	2864
844.025	3089
844.162	2868
844.298	3039
844.435	2952
844.571	2910
844.708	3051
844.844	3176
844.98	3214
845.117	3203
845.253	3081
845.389	2994
845.525	3070
845.661	3070
845.798	3024
845.934	3116
846.07	3077
846.206	3192
846.342	3283
846.478	3211
846.614	3093
846.75	3024
846.886	3036
847.022	3279
847.158	3146
847.294	3203
847.429	3218
847.565	3199
847.701	3492
847.837	3036
847.972	2986
848.108	3142
848.244	3188
848.379	2998
848.515	2941
848.65	2960
848.786	2933
848.921	3001
849.057	3112
849.192	3131
849.328	3043
849.463	3097
849.598	3028
849.734	3039
849.869	2986
850.004	2910
850.14	2986
850.275	2887
850.41	2823
850.545	2864
850.68	2941
850.815	2941
850.95	2971
851.085	3154
851.22	3058
851.355	3001
851.49	2956
851.625	3001
851.76	2998
851.895	2933
852.03	2902
852.165	3020
852.299	3112
852.434	3146
852.569	3116
852.703	3214
852.838	3272
852.973	3310
853.107	3325
853.242	3135
853.376	3081
853.511	2971
853.645	3024
853.78	3253
853.914	3104
854.048	3112
854.183	3058
854.317	3184
854.451	3294
854.585	3077
854.72	3047
854.854	3199
854.988	3032
855.122	3093
855.256	2971
855.39	3138
855.524	3230
855.658	3184
855.792	3138
855.926	3195
856.06	3169
856.194	3233
856.327	3146
856.461	3051
856.595	3089
856.729	3123
856.862	3203
856.996	3081
857.13	3214
857.263	3233
857.397	3272
857.53	3116
857.664	3192
857.797	3249
857.931	3256
858.064	3150
858.197	3237
858.331	3131
858.464	3074
858.597	2990
858.731	3093
858.864	3142
858.997	3051
859.13	3104
859.263	3165
859.396	3188
859.529	3081
859.662	3085
859.795	3070
859.928	3142
860.061	3253
860.194	3287
860.327	3157
860.46	3100
860.592	3207
860.725	3192
860.858	3233
860.99	3100
861.123	3039
861.256	3058
861.388	3150
861.521	3667
861.653	3001
861.786	2994
861.918	3001
862.05	3085
862.183	3104
862.315	3188
862.447	3184
862.58	3077
862.712	2918
862.844	2895
862.976	3039
863.108	3013
863.24	3428
863.372	2887
863.504	2960
863.636	2952
863.768	3017
863.9	3005
864.032	2868
864.164	2944
864.296	2979
864.428	3058
864.559	3081
864.691	3081
864.823	3043
864.954	3036
865.086	3017
865.217	2994
865.349	2941
865.48	2941
865.612	3024
865.743	3123
865.875	3028
866.006	2910
866.137	2971
866.269	2914
866.4	2891
866.531	2925
866.662	2899
866.793	2872
866.924	2895
867.055	2967
867.186	2910
867.317	2891
867.448	2815
867.579	2845
867.71	2838
867.841	2815
867.972	2914
868.103	2887
868.233	2880
868.364	2868
868.495	2899
868.625	3066
868.756	3173
868.886	2963
869.017	3020
869.147	3176
869.278	3157
869.408	3077
869.539	3013
869.669	3089
869.799	3036
869.929	3127
870.06	3085
870.19	3329
870.32	3264
870.45	3264
870.58	3393
870.71	3431
870.84	3450
870.97	3298
871.1	3230
871.23	3458
871.36	3458
871.489	3370
871.619	3359
871.749	3428
871.879	3435
872.008	3488
872.138	3336
872.267	3272
872.397	3123
872.526	3097
872.656	3005
872.785	3074
872.915	3272
873.044	3291
873.173	3199
873.303	3226
873.432	3218
873.561	3245
873.69	3203
873.819	3116
873.948	3188
874.077	3081
874.206	3017
874.335	3089
874.464	3188
874.593	3386
874.722	3253
874.851	3351
874.979	3351
875.108	3279
875.237	3192
875.365	3192
875.494	3150
875.623	3233
875.751	3058
875.88	3085
876.008	3230
876.136	3268
876.265	3378
876.393	3515
876.521	3424
876.65	3393
876.778	3332
876.906	3268
877.034	3188
877.162	3207
877.29	3154
877.418	3230
877.546	3241
877.674	3214
877.802	3237
877.93	3199
878.058	3100
878.185	3070
878.313	3173
878.441	3203
878.568	3074
878.696	3165
878.824	3230
878.951	3260
879.079	3412
879.206	3595
879.333	3447
879.461	3336
879.588	3351
879.715	3454
879.842	3591
879.97	3374
880.097	3173
880.224	3119
880.351	3207
880.478	3222
880.605	3207
880.732	3195
880.859	3469
880.986	3306
881.112	3378
881.239	3199
881.366	3089
881.493	2990
881.619	3013
881.746	3062
881.872	3100
881.999	3119
882.125	3135
882.252	3237
882.378	3298
882.505	3397
882.631	3283
882.757	3184
882.883	3192
883.01	3245
883.136	3154
883.262	3146
883.388	3093
883.514	3313
883.64	3431
883.766	3283
883.892	3184
884.018	3218
884.143	3405
884.269	3561
884.395	3192
884.52	3112
884.646	3108
884.772	3116
884.897	3081
885.023	3233
885.148	3344
885.274	3409
885.399	3329
885.524	3275
885.65	3268
885.775	3325
885.9	3253
886.025	3454
886.15	3355
886.275	3302
886.4	3249
886.525	3321
886.65	3272
886.775	3302
886.9	3477
887.025	3641
887.149	3409
887.274	3233
887.399	3222
887.523	3214
887.648	3157
887.773	3123
887.897	3336
888.021	3409
888.146	3298
888.27	3428
888.395	3504
888.519	3405
888.643	3454
888.767	3439
888.891	3291
889.015	3279
889.139	3283
889.263	3218
889.387	3363
889.511	3481
889.635	3428
889.759	3306
889.883	3291
890.006	3325
890.13	3424
890.254	3275
890.377	3386
890.501	3192
890.624	3195
890.748	3291
890.871	3207
890.995	3116
891.118	3070
891.241	3180
891.364	3222
891.488	3317
891.611	3184
891.734	3218
891.857	3241
891.98	3249
892.103	3340
892.226	3249
892.349	3241
892.471	3123
892.594	3260
892.717	3283
892.839	3260
892.962	3287
893.085	3359
893.207	3298
893.33	3116
893.452	3173
893.575	3310
893.697	3222
893.819	3500
893.941	3481
894.064	3424
894.186	3253
894.308	3226
894.43	3439
894.552	3526
894.674	3511
894.796	3253
894.918	3287
895.04	3291
895.161	3466
895.283	3416
895.405	3310
895.526	3378
895.648	3393
895.769	3420
895.891	3450
896.012	3450
896.134	3454
896.255	3351
896.376	3367
896.498	3344
896.619	3401
896.74	3374
896.861	3405
896.982	3637
897.103	3762
897.224	3572
897.345	3534
897.466	3409
897.587	3481
897.708	3641
897.828	3553
897.949	3431
898.07	3313
898.19	3424
898.311	3584
898.431	3428
898.552	3504
898.672	3595
898.792	3561
898.913	3507
899.033	3386
899.153	3306
899.273	3233
899.393	3275
899.513	3306
899.633	3325
899.753	3329
899.873	3310
899.993	3359
900.113	3313
900.232	3389
900.352	3340
900.472	3294
900.591	3214
900.711	3287
900.83	3230
900.95	3420
901.069	3526
901.189	3348
901.308	3146
901.427	3131
901.546	3207
901.665	3253
901.784	3317
901.904	3218
902.023	3135
902.141	2994
902.26	3005
902.379	3112
902.498	3085
902.617	3070
902.735	3184
902.854	3230
902.973	3195
903.091	3055
903.21	3039
903.328	3100
903.446	3077
903.565	3119
903.683	3233
903.801	3104
903.919	3237
904.038	3287
904.156	3165
904.274	3283
904.392	3256
904.51	3272
904.627	3348
904.745	3450
904.863	3500
904.981	3272
905.098	3169
905.216	3188
905.334	3302
905.451	3332
905.569	3317
905.686	3435
905.803	3447
905.921	3291
906.038	3409
906.155	3370
906.272	3256
906.389	3344
906.506	3218
906.623	3222
906.74	3294
906.857	3180
906.974	3222
907.091	3450
907.208	3599
907.324	3481
907.441	3363
907.557	3218
907.674	3226
907.79	3233
907.907	3279
908.023	3363
908.139	3409
908.256	3340
908.372	3363
908.488	3325
908.604	3253
908.72	3222
908.836	3260
908.952	3298
909.068	3344
909.184	3511
909.3	3355
909.415	3545
909.531	3488
909.647	3306
909.762	3283
909.878	3279
909.993	3344
910.108	3332
910.224	3321
910.339	3382
910.454	3355
910.57	3249
910.685	3218
910.8	3584
910.915	3500
911.03	3428
911.145	3264
911.259	3287
911.374	3298
911.489	3233
911.604	3230
911.718	3123
911.833	3161
911.947	3047
912.062	2990
912.176	3161
912.291	3233
912.405	3157
912.519	3454
912.633	3481
912.748	3355
912.862	3268
912.976	3157
913.09	3055
913.204	3146
913.318	3214
913.431	3310
913.545	3329
913.659	3428
913.772	3310
913.886	3184
914	3207
914.113	3329
914.226	3454
914.34	3332
914.453	3226
914.566	3405
914.68	3245
914.793	3306
914.906	3146
915.019	3138
915.132	3085
915.245	3180
915.358	3214
915.47	3203
915.583	3287
915.696	3294
915.809	3355
915.921	3420
916.034	3264
916.146	3260
916.259	3233
916.371	3348
916.483	3351
916.595	3245
916.708	3359
916.82	3348
916.932	3344
917.044	3302
917.156	3348
917.268	3287
917.38	3310
917.491	3283
917.603	3405
917.715	3454
917.826	3454
917.938	3363
918.049	3253
918.161	3424
918.272	3572
918.384	3572
918.495	3507
918.606	3302
918.717	3287
918.828	3412
918.939	3412
919.05	3329
919.161	3351
919.272	3199
919.383	3264
919.494	3504
919.604	3644
919.715	3477
919.826	3405
919.936	3443
920.047	3572
920.157	3545
920.267	3690
920.378	3584
920.488	3542
920.598	3793
920.708	3964
920.818	3850
920.928	3816
921.038	3994
921.148	4010
921.258	3686
921.368	3679
921.477	3557
921.587	3538
921.697	3450
921.806	3599
921.916	3519
922.025	3367
922.134	3355
922.244	3348
922.353	3424
922.462	3294
922.571	3211
922.68	3116
922.789	3093
922.898	3142
923.007	3077
923.116	3222
923.224	3146
923.333	3135
923.442	3085
923.55	3116
923.659	3131
923.767	3233
923.876	3146
923.984	3253
924.092	3112
924.201	3199
924.309	3214
924.417	3275
924.525	3173
924.633	3218
924.741	4029
924.849	3024
924.956	3245
925.064	3108
925.172	3028
925.279	3089
925.387	3218
925.494	3214
925.602	3363
925.709	3336
925.816	3218
925.924	3294
926.031	3370
926.138	3336
926.245	3386
926.352	3230
926.459	3477
926.566	3458
926.673	3310
926.779	3264
926.886	3268
926.993	3142
927.099	3135
927.206	3135
927.312	3093
927.419	3192
927.525	3161
927.631	3272
927.737	3169
927.843	3112
927.95	3043
928.056	3138
928.162	3173
928.267	3253
928.373	3770
928.479	3374
928.585	3058
928.69	3211
928.796	3268
928.901	3161
929.007	3058
929.112	3199
929.218	3188
929.323	3161
929.428	3123
929.533	3279
929.638	3104
929.743	3154
929.848	3287
929.953	3180
930.058	3093
930.163	2998
930.267	3013
930.372	3218
930.477	3036
930.581	3306
930.685	3157
930.79	3066
930.894	3142
930.998	3104
931.103	3306
931.207	2929
931.311	2929
931.415	2929
931.519	2785
931.623	2792
