Data from test_V78500241_993.txt Node
Date: Fri Mar 25 16:22:04 CST 2022
User: usil
Spectrometer: V785-0024
Trigger mode: 0
Integration Time (sec): 4.000000E-1
Scans to average: 1
Nonlinearity correction enabled: false
Boxcar width: 0
Storing dark spectrum: false
XAxis mode: Wavelengths
Number of Pixels in Spectrum: 1024
>>>>>Begin Spectral Data<<<<<
801.071	2922
801.214	2963
801.356	2925
801.499	2880
801.641	2891
801.783	2944
801.926	3062
802.068	2937
802.211	2963
802.353	3047
802.496	2975
802.638	3013
802.78	3043
802.923	3043
803.065	2975
803.208	2868
803.35	2883
803.492	2899
803.635	2906
803.777	2735
803.919	2861
804.061	3173
804.204	2906
804.346	2864
804.488	2853
804.63	2952
804.773	2811
804.915	2914
805.057	3085
805.199	2914
805.341	2963
805.483	3055
805.626	2990
805.768	2941
805.91	3097
806.052	3085
806.194	3036
806.336	3226
806.478	2971
806.62	2994
806.762	2979
806.904	3036
807.046	3123
807.188	2929
807.33	2895
807.472	2967
807.614	2918
807.756	2971
807.898	2922
808.04	2887
808.182	2979
808.324	2902
808.465	2891
808.607	2872
808.749	2800
808.891	2826
809.033	2971
809.174	2960
809.316	2902
809.458	2944
809.6	2769
809.741	2750
809.883	2769
810.025	2868
810.166	2853
810.308	2857
810.45	2861
810.591	2739
810.733	2773
810.875	2819
811.016	2766
811.158	2754
811.299	2785
811.441	2929
811.582	2918
811.724	2807
811.865	2796
812.007	2864
812.148	2864
812.29	2864
812.431	2895
812.573	2948
812.714	2937
812.855	3009
812.997	3058
813.138	3169
813.279	2986
813.421	2963
813.562	2941
813.703	2857
813.845	2899
813.986	2785
814.127	2720
814.268	2807
814.41	2796
814.551	2785
814.692	2876
814.833	2811
814.974	2899
815.115	2960
815.256	2815
815.397	2792
815.539	2857
815.68	2762
815.821	2811
815.962	2948
816.103	2937
816.244	2834
816.385	2864
816.526	2975
816.666	2925
816.807	2727
816.948	2864
817.089	2918
817.23	2849
817.371	2769
817.512	2807
817.653	2826
817.793	2826
817.934	2906
818.075	2941
818.216	2979
818.356	3039
818.497	2883
818.638	2781
818.778	2800
818.919	2804
819.06	2766
819.2	2849
819.341	2834
819.481	2807
819.622	2899
819.762	3070
819.903	3024
820.043	2880
820.184	2880
820.324	2876
820.465	2948
820.605	2990
820.746	3020
820.886	2952
821.026	3070
821.167	3138
821.307	3253
821.447	3241
821.588	3222
821.728	3188
821.868	3150
822.008	3085
822.149	3184
822.289	3214
822.429	3070
822.569	3104
822.709	3195
822.849	3036
822.99	3074
823.13	3135
823.27	3195
823.41	3100
823.55	3135
823.69	3165
823.83	3169
823.97	3112
824.11	3013
824.25	2971
824.389	3039
824.529	3138
824.669	3032
824.809	3169
824.949	3260
825.089	3226
825.228	3146
825.368	2994
825.508	2948
825.648	2933
825.787	3009
825.927	3036
826.067	2975
826.206	2941
826.346	3070
826.485	3055
826.625	3097
826.765	3237
826.904	3211
827.044	3001
827.183	2941
827.323	2842
827.462	2982
827.601	2899
827.741	2899
827.88	2914
828.02	2857
828.159	2967
828.298	3036
828.437	3097
828.577	3017
828.716	3203
828.855	3028
828.994	2929
829.134	2895
829.273	2887
829.412	2880
829.551	2823
829.69	2906
829.829	2933
829.968	3112
830.107	3013
830.246	3005
830.385	2918
830.524	2899
830.663	2804
830.802	2708
830.941	2651
831.08	2636
831.219	2758
831.357	2746
831.496	2933
831.635	2731
831.774	2625
831.913	2636
832.051	2564
832.19	2564
832.329	2678
832.467	2533
832.606	2469
832.744	2610
832.883	2590
833.022	2556
833.16	2640
833.299	2655
833.437	2682
833.576	2674
833.714	2697
833.852	2701
833.991	2746
834.129	2857
834.267	2830
834.406	2781
834.544	2857
834.682	2857
834.821	2823
834.959	3062
835.097	2861
835.235	3058
835.373	2990
835.511	2979
835.65	2937
835.788	2956
835.926	2830
836.064	2800
836.202	2853
836.34	3116
836.478	3169
836.615	2998
836.753	3100
836.891	3195
837.029	3131
837.167	3100
837.305	3055
837.443	2994
837.58	2960
837.718	3089
837.856	3043
837.993	3024
838.131	3089
838.269	3055
838.406	3100
838.544	3108
838.681	2925
838.819	2899
838.956	2826
839.094	2804
839.231	2899
839.369	3009
839.506	3363
839.643	3176
839.781	2998
839.918	2910
840.055	3047
840.193	3039
840.33	3043
840.467	3108
840.604	3154
840.742	3355
840.879	3058
841.016	3066
841.153	3085
841.29	3367
841.427	3310
841.564	3249
841.701	3287
841.838	3222
841.975	3157
842.112	3214
842.249	3017
842.385	3013
842.522	3249
842.659	3081
842.796	3066
842.933	3119
843.069	3043
843.206	3024
843.343	3135
843.479	3104
843.616	3100
843.752	2853
843.889	2857
844.025	3070
844.162	2868
844.298	3039
844.435	2944
844.571	2891
844.708	3051
844.844	3154
844.98	3218
845.117	3230
845.253	3017
845.389	2975
845.525	3104
845.661	3062
845.798	2994
845.934	3081
846.07	3043
846.206	3203
846.342	3287
846.478	3222
846.614	3077
846.75	3017
846.886	3028
847.022	3218
847.158	3154
847.294	3199
847.429	3199
847.565	3176
847.701	3473
847.837	3028
847.972	2975
848.108	3161
848.244	3131
848.379	2956
848.515	2906
848.65	2910
848.786	2918
848.921	3028
849.057	3081
849.192	3138
849.328	3028
849.463	3104
849.598	3055
849.734	3024
849.869	2975
850.004	2914
850.14	2967
850.275	2887
850.41	2845
850.545	2864
850.68	2952
850.815	2914
850.95	2948
851.085	3184
851.22	3093
851.355	3020
851.49	2986
851.625	2979
851.76	2982
851.895	2925
852.03	2895
852.165	3051
852.299	3108
852.434	3199
852.569	3135
852.703	3146
852.838	3211
852.973	3298
853.107	3351
853.242	3112
853.376	3081
853.511	2952
853.645	3058
853.78	3199
853.914	3104
854.048	3051
854.183	3108
854.317	3089
854.451	3256
854.585	3127
854.72	3085
854.854	3207
854.988	3013
855.122	3024
855.256	2990
855.39	3104
855.524	3203
855.658	3154
855.792	3146
855.926	3116
856.06	3173
856.194	3249
856.327	3157
856.461	3024
856.595	3058
856.729	3039
856.862	3237
856.996	3150
857.13	3169
857.263	3218
857.397	3245
857.53	3104
857.664	3192
857.797	3218
857.931	3199
858.064	3169
858.197	3203
858.331	3116
858.464	3074
858.597	2998
858.731	3062
858.864	3104
858.997	3138
859.13	3089
859.263	3112
859.396	3161
859.529	3093
859.662	3036
859.795	3020
859.928	3093
860.061	3306
860.194	3279
860.327	3157
860.46	3081
860.592	3241
860.725	3203
860.858	3279
860.99	3055
861.123	3077
861.256	3047
861.388	3108
861.521	3778
861.653	2982
861.786	2990
861.918	2986
862.05	3020
862.183	3055
862.315	3169
862.447	3207
862.58	3127
862.712	2902
862.844	2838
862.976	3062
863.108	3017
863.24	3393
863.372	2895
863.504	2952
863.636	2956
863.768	3001
863.9	2979
864.032	2918
864.164	3001
864.296	2990
864.428	3089
864.559	3108
864.691	3036
864.823	3062
864.954	3070
865.086	3055
865.217	3032
865.349	2937
865.48	3017
865.612	3036
865.743	3173
865.875	2986
866.006	2971
866.137	3020
866.269	2986
866.4	2960
866.531	2960
866.662	2891
866.793	2925
866.924	2925
867.055	2998
867.186	2937
867.317	2922
867.448	2922
867.579	2857
867.71	2883
867.841	2861
867.972	2956
868.103	2922
868.233	2960
868.364	2922
868.495	2941
868.625	3127
868.756	3218
868.886	3005
869.017	3028
869.147	3195
869.278	3237
869.408	3100
869.539	3066
869.669	3138
869.799	3085
869.929	3161
870.06	3138
870.19	3367
870.32	3294
870.45	3351
870.58	3386
870.71	3454
870.84	3473
870.97	3321
871.1	3306
871.23	3500
871.36	3500
871.489	3370
871.619	3412
871.749	3439
871.879	3473
872.008	3504
872.138	3409
872.267	3291
872.397	3188
872.526	3150
872.656	3032
872.785	3135
872.915	3287
873.044	3374
873.173	3260
873.303	3321
873.432	3268
873.561	3253
873.69	3184
873.819	3184
873.948	3203
874.077	3131
874.206	3085
874.335	3142
874.464	3249
874.593	3382
874.722	3283
874.851	3416
874.979	3382
875.108	3317
875.237	3214
875.365	3207
875.494	3176
875.623	3279
875.751	3104
875.88	3150
876.008	3192
876.136	3256
876.265	3393
876.393	3564
876.521	3447
876.65	3439
876.778	3374
876.906	3253
877.034	3230
877.162	3256
877.29	3249
877.418	3298
877.546	3279
877.674	3302
877.802	3313
877.93	3256
878.058	3199
878.185	3127
878.313	3245
878.441	3253
878.568	3081
878.696	3176
878.824	3279
878.951	3332
879.079	3469
879.206	3625
879.333	3496
879.461	3420
879.588	3393
879.715	3515
879.842	3648
879.97	3454
880.097	3184
880.224	3154
880.351	3165
880.478	3268
880.605	3230
880.732	3195
880.859	3519
880.986	3344
881.112	3329
881.239	3222
881.366	3138
881.493	3047
881.619	3051
881.746	3104
881.872	3123
881.999	3089
882.125	3154
882.252	3264
882.378	3359
882.505	3458
882.631	3264
882.757	3195
882.883	3226
883.01	3245
883.136	3138
883.262	3131
883.388	3135
883.514	3348
883.64	3374
883.766	3359
883.892	3222
884.018	3260
884.143	3405
884.269	3557
884.395	3230
884.52	3211
884.646	3241
884.772	3176
884.897	3116
885.023	3291
885.148	3374
885.274	3409
885.399	3420
885.524	3317
885.65	3321
885.775	3325
885.9	3325
886.025	3454
886.15	3424
886.275	3302
886.4	3291
886.525	3321
886.65	3310
886.775	3313
886.9	3591
887.025	3690
887.149	3428
887.274	3291
887.399	3184
887.523	3249
887.648	3218
887.773	3233
887.897	3428
888.021	3409
888.146	3321
888.27	3477
888.395	3549
888.519	3450
888.643	3507
888.767	3488
888.891	3363
889.015	3264
889.139	3351
889.263	3230
889.387	3428
889.511	3580
889.635	3447
889.759	3283
889.883	3268
890.006	3393
890.13	3492
890.254	3310
890.377	3363
890.501	3260
890.624	3211
890.748	3332
890.871	3184
890.995	3142
891.118	3077
891.241	3226
891.364	3230
891.488	3348
891.611	3218
891.734	3249
891.857	3291
891.98	3268
892.103	3405
892.226	3317
892.349	3241
892.471	3104
892.594	3264
892.717	3325
892.839	3287
892.962	3329
893.085	3389
893.207	3321
893.33	3195
893.452	3207
893.575	3359
893.697	3298
893.819	3496
893.941	3542
894.064	3473
894.186	3283
894.308	3321
894.43	3447
894.552	3549
894.674	3496
894.796	3310
894.918	3332
895.04	3374
895.161	3466
895.283	3409
895.405	3351
895.526	3386
895.648	3439
895.769	3443
895.891	3496
896.012	3519
896.134	3523
896.255	3443
896.376	3386
896.498	3386
896.619	3420
896.74	3401
896.861	3405
896.982	3698
897.103	3854
897.224	3606
897.345	3504
897.466	3424
897.587	3481
897.708	3633
897.828	3580
897.949	3477
898.07	3355
898.19	3409
898.311	3587
898.431	3462
898.552	3549
898.672	3587
898.792	3633
898.913	3515
899.033	3466
899.153	3317
899.273	3264
899.393	3302
899.513	3355
899.633	3332
899.753	3370
899.873	3291
899.993	3378
900.113	3393
900.232	3405
900.352	3329
900.472	3332
900.591	3256
900.711	3317
900.83	3218
900.95	3428
901.069	3500
901.189	3363
901.308	3188
901.427	3138
901.546	3211
901.665	3310
901.784	3317
901.904	3233
902.023	3180
902.141	3017
902.26	3066
902.379	3135
902.498	3058
902.617	3085
902.735	3245
902.854	3249
902.973	3222
903.091	3077
903.21	3081
903.328	3161
903.446	3131
903.565	3131
903.683	3226
903.801	3142
903.919	3272
904.038	3287
904.156	3203
904.274	3306
904.392	3306
904.51	3302
904.627	3363
904.745	3454
904.863	3523
904.981	3294
905.098	3192
905.216	3253
905.334	3329
905.451	3336
905.569	3321
905.686	3431
905.803	3458
905.921	3332
906.038	3458
906.155	3321
906.272	3325
906.389	3340
906.506	3313
906.623	3287
906.74	3321
906.857	3226
906.974	3268
907.091	3443
907.208	3576
907.324	3496
907.441	3424
907.557	3291
907.674	3268
907.79	3233
907.907	3310
908.023	3439
908.139	3397
908.256	3355
908.372	3397
908.488	3348
908.604	3294
908.72	3260
908.836	3313
908.952	3325
909.068	3370
909.184	3481
909.3	3355
909.415	3477
909.531	3477
909.647	3283
909.762	3332
909.878	3306
909.993	3420
910.108	3378
910.224	3348
910.339	3393
910.454	3332
910.57	3332
910.685	3268
910.8	3618
910.915	3545
911.03	3466
911.145	3302
911.259	3294
911.374	3325
911.489	3222
911.604	3222
911.718	3127
911.833	3169
911.947	3066
912.062	3047
912.176	3192
912.291	3188
912.405	3203
912.519	3420
912.633	3485
912.748	3355
912.862	3298
912.976	3119
913.09	3108
913.204	3142
913.318	3241
913.431	3344
913.545	3321
913.659	3435
913.772	3294
913.886	3260
914	3169
914.113	3374
914.226	3416
914.34	3401
914.453	3253
914.566	3431
914.68	3279
914.793	3313
914.906	3218
915.019	3097
915.132	3093
915.245	3211
915.358	3195
915.47	3260
915.583	3332
915.696	3287
915.809	3405
915.921	3466
916.034	3268
916.146	3272
916.259	3245
916.371	3389
916.483	3332
916.595	3317
916.708	3332
916.82	3351
916.932	3325
917.044	3313
917.156	3374
917.268	3279
917.38	3306
917.491	3279
917.603	3378
917.715	3458
917.826	3545
917.938	3401
918.049	3283
918.161	3450
918.272	3557
918.384	3568
918.495	3469
918.606	3336
918.717	3253
918.828	3389
918.939	3443
919.05	3313
919.161	3412
919.272	3165
919.383	3283
919.494	3515
919.604	3705
919.715	3473
919.826	3409
919.936	3477
920.047	3606
920.157	3553
920.267	3766
920.378	3644
920.488	3603
920.598	3785
920.708	3964
920.818	3835
920.928	3850
921.038	4021
921.148	4017
921.258	3728
921.368	3671
921.477	3587
921.587	3553
921.697	3466
921.806	3660
921.916	3553
922.025	3348
922.134	3336
922.244	3348
922.353	3439
922.462	3291
922.571	3241
922.68	3116
922.789	3100
922.898	3142
923.007	3116
923.116	3203
923.224	3211
923.333	3207
923.442	3104
923.55	3112
923.659	3127
923.767	3218
923.876	3146
923.984	3245
924.092	3097
924.201	3188
924.309	3195
924.417	3256
924.525	3199
924.633	3214
924.741	4200
924.849	3066
924.956	3302
925.064	3112
925.172	3066
925.279	3104
925.387	3180
925.494	3214
925.602	3329
925.709	3344
925.816	3195
925.924	3287
926.031	3382
926.138	3363
926.245	3374
926.352	3287
926.459	3420
926.566	3481
926.673	3302
926.779	3256
926.886	3233
926.993	3131
927.099	3070
927.206	3108
927.312	3142
927.419	3241
927.525	3218
927.631	3294
927.737	3169
927.843	3116
927.95	3047
928.056	3165
928.162	3154
928.267	3256
928.373	3865
928.479	3325
928.585	3081
928.69	3180
928.796	3306
928.901	3203
929.007	3039
929.112	3214
929.218	3188
929.323	3150
929.428	3142
929.533	3336
929.638	3150
929.743	3184
929.848	3298
929.953	3233
930.058	3154
930.163	3005
930.267	3062
930.372	3199
930.477	3062
930.581	3302
930.685	3207
930.79	3108
930.894	3157
930.998	3116
931.103	3321
931.207	3013
931.311	2952
931.415	2948
931.519	2823
931.623	2857
