Data from test_V78500241_608.txt Node
Date: Fri Mar 25 16:19:24 CST 2022
User: usil
Spectrometer: V785-0024
Trigger mode: 0
Integration Time (sec): 4.000000E-1
Scans to average: 1
Nonlinearity correction enabled: false
Boxcar width: 0
Storing dark spectrum: false
XAxis mode: Wavelengths
Number of Pixels in Spectrum: 1024
>>>>>Begin Spectral Data<<<<<
801.071	2902
801.214	2941
801.356	2864
801.499	2887
801.641	2819
801.783	2929
801.926	3001
802.068	2914
802.211	2979
802.353	3020
802.496	2971
802.638	2990
802.78	3055
802.923	3066
803.065	2990
803.208	2906
803.35	2910
803.492	2948
803.635	2952
803.777	2773
803.919	2823
804.061	3199
804.204	2933
804.346	2883
804.488	2845
804.63	3009
804.773	2899
804.915	2891
805.057	3066
805.199	2922
805.341	2952
805.483	3055
805.626	2994
805.768	2937
805.91	3070
806.052	3146
806.194	3013
806.336	3207
806.478	3032
806.62	2918
806.762	2975
806.904	3058
807.046	3184
807.188	2979
807.33	2891
807.472	2952
807.614	2914
807.756	2967
807.898	2937
808.04	2933
808.182	2994
808.324	2941
808.465	2891
808.607	2868
808.749	2834
808.891	2826
809.033	2941
809.174	2971
809.316	2910
809.458	2929
809.6	2800
809.741	2762
809.883	2777
810.025	2880
810.166	2842
810.308	2861
810.45	2853
810.591	2777
810.733	2773
810.875	2815
811.016	2754
811.158	2762
811.299	2800
811.441	2929
811.582	2922
811.724	2826
811.865	2842
812.007	2937
812.148	2887
812.29	2834
812.431	2887
812.573	2918
812.714	2933
812.855	3066
812.997	3062
813.138	3138
813.279	2998
813.421	2982
813.562	2982
813.703	2861
813.845	2891
813.986	2777
814.127	2743
814.268	2800
814.41	2830
814.551	2804
814.692	2853
814.833	2834
814.974	2887
815.115	2941
815.256	2811
815.397	2804
815.539	2857
815.68	2766
815.821	2785
815.962	2933
816.103	2914
816.244	2857
816.385	2895
816.526	2975
816.666	2902
816.807	2750
816.948	2906
817.089	2902
817.23	2834
817.371	2788
817.512	2804
817.653	2834
817.793	2777
817.934	2895
818.075	2994
818.216	2971
818.356	3017
818.497	2918
818.638	2792
818.778	2845
818.919	2773
819.06	2788
819.2	2937
819.341	2823
819.481	2796
819.622	2918
819.762	3100
819.903	3051
820.043	2880
820.184	2906
820.324	2914
820.465	3028
820.605	2990
820.746	3055
820.886	2925
821.026	3138
821.167	3138
821.307	3279
821.447	3260
821.588	3241
821.728	3184
821.868	3188
822.008	3070
822.149	3188
822.289	3207
822.429	3047
822.569	3062
822.709	3176
822.849	2998
822.99	3066
823.13	3150
823.27	3199
823.41	3104
823.55	3180
823.69	3108
823.83	3176
823.97	3070
824.11	2975
824.25	2979
824.389	3055
824.529	3074
824.669	3074
824.809	3176
824.949	3237
825.089	3233
825.228	3169
825.368	2971
825.508	2941
825.648	2963
825.787	2986
825.927	3043
826.067	2986
826.206	2937
826.346	3032
826.485	3047
826.625	3127
826.765	3294
826.904	3245
827.044	2941
827.183	2960
827.323	2857
827.462	3001
827.601	2922
827.741	2956
827.88	2895
828.02	2853
828.159	2982
828.298	3013
828.437	3112
828.577	3032
828.716	3241
828.855	3093
828.994	2880
829.134	2910
829.273	2876
829.412	2868
829.551	2868
829.69	2895
829.829	3017
829.968	3138
830.107	2971
830.246	3013
830.385	2922
830.524	2883
830.663	2796
830.802	2720
830.941	2644
831.08	2651
831.219	2785
831.357	2762
831.496	2956
831.635	2708
831.774	2636
831.913	2674
832.051	2507
832.19	2575
832.329	2670
832.467	2522
832.606	2454
832.744	2568
832.883	2587
833.022	2568
833.16	2632
833.299	2670
833.437	2701
833.576	2708
833.714	2708
833.852	2705
833.991	2746
834.129	2830
834.267	2849
834.406	2785
834.544	2864
834.682	2895
834.821	2853
834.959	3043
835.097	2918
835.235	3020
835.373	2975
835.511	3032
835.65	2948
835.788	2967
835.926	2811
836.064	2823
836.202	2834
836.34	3085
836.478	3138
836.615	3055
836.753	3131
836.891	3199
837.029	3176
837.167	3131
837.305	3036
837.443	3017
837.58	2967
837.718	3116
837.856	3066
837.993	3055
838.131	3112
838.269	3108
838.406	3100
838.544	3055
838.681	2914
838.819	2937
838.956	2819
839.094	2804
839.231	2906
839.369	3020
839.506	3367
839.643	3188
839.781	3028
839.918	2937
840.055	3032
840.193	3005
840.33	3074
840.467	3097
840.604	3131
840.742	3428
840.879	3058
841.016	3017
841.153	3123
841.29	3325
841.427	3287
841.564	3249
841.701	3313
841.838	3169
841.975	3138
842.112	3211
842.249	3077
842.385	3058
842.522	3260
842.659	3077
842.796	3062
842.933	3089
843.069	3024
843.206	3020
843.343	3180
843.479	3097
843.616	3108
843.752	2887
843.889	2868
844.025	3055
844.162	2880
844.298	3066
844.435	2986
844.571	2914
844.708	3058
844.844	3203
844.98	3233
845.117	3195
845.253	3058
845.389	2982
845.525	3119
845.661	3127
845.798	2982
845.934	3104
846.07	3070
846.206	3195
846.342	3287
846.478	3245
846.614	3058
846.75	3081
846.886	3039
847.022	3241
847.158	3119
847.294	3192
847.429	3253
847.565	3184
847.701	3458
847.837	3051
847.972	2986
848.108	3150
848.244	3180
848.379	2982
848.515	2960
848.65	2925
848.786	3001
848.921	2990
849.057	3074
849.192	3138
849.328	3066
849.463	3077
849.598	3058
849.734	3020
849.869	3013
850.004	2918
850.14	2963
850.275	2918
850.41	2823
850.545	2876
850.68	2944
850.815	2956
850.95	2963
851.085	3146
851.22	3058
851.355	2994
851.49	2956
851.625	2994
851.76	3005
851.895	2918
852.03	2895
852.165	3017
852.299	3135
852.434	3157
852.569	3135
852.703	3195
852.838	3260
852.973	3321
853.107	3340
853.242	3123
853.376	3097
853.511	2979
853.645	3051
853.78	3184
853.914	3138
854.048	3066
854.183	3077
854.317	3135
854.451	3279
854.585	3138
854.72	3058
854.854	3203
854.988	3017
855.122	3036
855.256	2990
855.39	3108
855.524	3283
855.658	3154
855.792	3161
855.926	3207
856.06	3241
856.194	3264
856.327	3146
856.461	3043
856.595	3013
856.729	3070
856.862	3214
856.996	3154
857.13	3165
857.263	3226
857.397	3275
857.53	3154
857.664	3195
857.797	3203
857.931	3226
858.064	3180
858.197	3245
858.331	3119
858.464	3062
858.597	2937
858.731	3085
858.864	3085
858.997	3085
859.13	3218
859.263	3161
859.396	3211
859.529	3093
859.662	3081
859.795	3020
859.928	3176
860.061	3298
860.194	3279
860.327	3097
860.46	3108
860.592	3233
860.725	3245
860.858	3237
860.99	3070
861.123	3047
861.256	3051
861.388	3146
861.521	3701
861.653	3028
861.786	3017
861.918	3032
862.05	3093
862.183	3081
862.315	3157
862.447	3161
862.58	3039
862.712	2918
862.844	2853
862.976	3055
863.108	3017
863.24	3420
863.372	2876
863.504	2952
863.636	2944
863.768	3024
863.9	2967
864.032	2883
864.164	2979
864.296	2986
864.428	3074
864.559	3123
864.691	3062
864.823	3062
864.954	3036
865.086	3020
865.217	2986
865.349	2952
865.48	2967
865.612	2998
865.743	3180
865.875	2994
866.006	2941
866.137	2956
866.269	2902
866.4	2902
866.531	2910
866.662	2880
866.793	2872
866.924	2906
867.055	2952
867.186	2922
867.317	2891
867.448	2842
867.579	2826
867.71	2838
867.841	2769
867.972	2887
868.103	2906
868.233	2864
868.364	2883
868.495	2918
868.625	3097
868.756	3161
868.886	2952
869.017	3043
869.147	3135
869.278	3169
869.408	3032
869.539	3001
869.669	3097
869.799	3043
869.929	3138
870.06	3097
870.19	3313
870.32	3256
870.45	3249
870.58	3359
870.71	3424
870.84	3428
870.97	3321
871.1	3253
871.23	3454
871.36	3473
871.489	3317
871.619	3363
871.749	3405
871.879	3431
872.008	3481
872.138	3359
872.267	3253
872.397	3150
872.526	3066
872.656	2994
872.785	3081
872.915	3253
873.044	3310
873.173	3195
873.303	3245
873.432	3203
873.561	3214
873.69	3131
873.819	3127
873.948	3203
874.077	3097
874.206	3058
874.335	3077
874.464	3184
874.593	3332
874.722	3268
874.851	3409
874.979	3367
875.108	3321
875.237	3188
875.365	3173
875.494	3180
875.623	3241
875.751	3108
875.88	3131
876.008	3188
876.136	3222
876.265	3363
876.393	3511
876.521	3393
876.65	3351
876.778	3313
876.906	3218
877.034	3195
877.162	3245
877.29	3207
877.418	3233
877.546	3218
877.674	3211
877.802	3245
877.93	3237
878.058	3146
878.185	3081
878.313	3195
878.441	3226
878.568	3001
878.696	3116
878.824	3260
878.951	3298
879.079	3454
879.206	3614
879.333	3439
879.461	3317
879.588	3363
879.715	3462
879.842	3644
879.97	3424
880.097	3150
880.224	3116
880.351	3173
880.478	3207
880.605	3176
880.732	3199
880.859	3500
880.986	3321
881.112	3306
881.239	3169
881.366	3123
881.493	3032
881.619	3028
881.746	3043
881.872	3066
881.999	3093
882.125	3150
882.252	3233
882.378	3291
882.505	3401
882.631	3283
882.757	3165
882.883	3218
883.01	3203
883.136	3161
883.262	3074
883.388	3100
883.514	3298
883.64	3386
883.766	3294
883.892	3150
884.018	3203
884.143	3374
884.269	3515
884.395	3207
884.52	3176
884.646	3192
884.772	3104
884.897	3104
885.023	3211
885.148	3287
885.274	3401
885.399	3348
885.524	3272
885.65	3268
885.775	3298
885.9	3249
886.025	3412
886.15	3363
886.275	3253
886.4	3211
886.525	3359
886.65	3294
886.775	3283
886.9	3492
887.025	3625
887.149	3393
887.274	3245
887.399	3176
887.523	3203
887.648	3131
887.773	3218
887.897	3386
888.021	3439
888.146	3275
888.27	3443
888.395	3477
888.519	3412
888.643	3458
888.767	3469
888.891	3332
889.015	3211
889.139	3310
889.263	3268
889.387	3397
889.511	3500
889.635	3469
889.759	3253
889.883	3264
890.006	3393
890.13	3462
890.254	3279
890.377	3310
890.501	3180
890.624	3173
890.748	3294
890.871	3165
890.995	3127
891.118	3020
891.241	3207
891.364	3245
891.488	3310
891.611	3157
891.734	3214
891.857	3272
891.98	3237
892.103	3332
892.226	3279
892.349	3218
892.471	3089
892.594	3214
892.717	3272
892.839	3233
892.962	3298
893.085	3313
893.207	3272
893.33	3161
893.452	3184
893.575	3321
893.697	3268
893.819	3435
893.941	3492
894.064	3435
894.186	3298
894.308	3268
894.43	3397
894.552	3515
894.674	3416
894.796	3260
894.918	3291
895.04	3264
895.161	3405
895.283	3348
895.405	3287
895.526	3367
895.648	3412
895.769	3443
895.891	3485
896.012	3473
896.134	3431
896.255	3382
896.376	3378
896.498	3382
896.619	3439
896.74	3359
896.861	3378
896.982	3652
897.103	3838
897.224	3599
897.345	3488
897.466	3435
897.587	3477
897.708	3591
897.828	3561
897.949	3435
898.07	3355
898.19	3405
898.311	3595
898.431	3473
898.552	3496
898.672	3595
898.792	3564
898.913	3538
899.033	3439
899.153	3260
899.273	3192
899.393	3279
899.513	3291
899.633	3313
899.753	3351
899.873	3275
899.993	3405
900.113	3321
900.232	3393
900.352	3336
900.472	3264
900.591	3226
900.711	3287
900.83	3211
900.95	3450
901.069	3492
901.189	3313
901.308	3169
901.427	3135
901.546	3211
901.665	3298
901.784	3325
901.904	3195
902.023	3157
902.141	3043
902.26	2971
902.379	3165
902.498	3036
902.617	3043
902.735	3173
902.854	3214
902.973	3195
903.091	3039
903.21	3074
903.328	3131
903.446	3135
903.565	3100
903.683	3207
903.801	3108
903.919	3207
904.038	3264
904.156	3157
904.274	3275
904.392	3283
904.51	3283
904.627	3313
904.745	3431
904.863	3549
904.981	3256
905.098	3135
905.216	3195
905.334	3306
905.451	3298
905.569	3332
905.686	3424
905.803	3477
905.921	3313
906.038	3450
906.155	3336
906.272	3256
906.389	3359
906.506	3222
906.623	3218
906.74	3302
906.857	3138
906.974	3226
907.091	3447
907.208	3553
907.324	3473
907.441	3386
907.557	3249
907.674	3241
907.79	3207
907.907	3279
908.023	3344
908.139	3359
908.256	3298
908.372	3405
908.488	3351
908.604	3226
908.72	3195
908.836	3226
908.952	3226
909.068	3310
909.184	3428
909.3	3389
909.415	3473
909.531	3477
909.647	3264
909.762	3283
909.878	3260
909.993	3340
910.108	3306
910.224	3344
910.339	3363
910.454	3348
910.57	3294
910.685	3256
910.8	3580
910.915	3485
911.03	3378
911.145	3241
911.259	3245
911.374	3313
911.489	3233
911.604	3222
911.718	3127
911.833	3173
911.947	3039
912.062	3001
912.176	3157
912.291	3211
912.405	3192
912.519	3370
912.633	3477
912.748	3340
912.862	3245
912.976	3146
913.09	3058
913.204	3116
913.318	3211
913.431	3340
913.545	3313
913.659	3389
913.772	3317
913.886	3253
914	3173
914.113	3367
914.226	3424
914.34	3336
914.453	3192
914.566	3389
914.68	3268
914.793	3336
914.906	3214
915.019	3097
915.132	3119
915.245	3180
915.358	3207
915.47	3211
915.583	3256
915.696	3279
915.809	3355
915.921	3405
916.034	3264
916.146	3230
916.259	3222
916.371	3370
916.483	3363
916.595	3264
916.708	3294
916.82	3302
916.932	3344
917.044	3313
917.156	3306
917.268	3272
917.38	3279
917.491	3279
917.603	3363
917.715	3439
917.826	3473
917.938	3374
918.049	3249
918.161	3401
918.272	3618
918.384	3553
918.495	3447
918.606	3294
918.717	3260
918.828	3370
918.939	3439
919.05	3329
919.161	3336
919.272	3222
919.383	3260
919.494	3504
919.604	3625
919.715	3488
919.826	3363
919.936	3462
920.047	3625
920.157	3557
920.267	3770
920.378	3603
920.488	3542
920.598	3774
920.708	3930
920.818	3797
920.928	3838
921.038	3987
921.148	3968
921.258	3690
921.368	3637
921.477	3557
921.587	3545
921.697	3431
921.806	3629
921.916	3549
922.025	3386
922.134	3355
922.244	3310
922.353	3420
922.462	3264
922.571	3195
922.68	3085
922.789	3055
922.898	3150
923.007	3081
923.116	3199
923.224	3180
923.333	3184
923.442	3093
923.55	3081
923.659	3123
923.767	3230
923.876	3085
923.984	3233
924.092	3081
924.201	3195
924.309	3218
924.417	3253
924.525	3150
924.633	3249
924.741	4029
924.849	3001
924.956	3291
925.064	3081
925.172	3047
925.279	3074
925.387	3226
925.494	3176
925.602	3359
925.709	3317
925.816	3192
925.924	3310
926.031	3359
926.138	3298
926.245	3348
926.352	3218
926.459	3409
926.566	3481
926.673	3298
926.779	3230
926.886	3275
926.993	3154
927.099	3089
927.206	3119
927.312	3108
927.419	3218
927.525	3180
927.631	3245
927.737	3150
927.843	3089
927.95	3058
928.056	3131
928.162	3169
928.267	3226
928.373	3838
928.479	3302
928.585	3104
928.69	3207
928.796	3253
928.901	3173
929.007	3036
929.112	3203
929.218	3180
929.323	3154
929.428	3104
929.533	3302
929.638	3100
929.743	3165
929.848	3233
929.953	3203
930.058	3112
930.163	2998
930.267	3039
930.372	3184
930.477	3009
930.581	3279
930.685	3127
930.79	3028
930.894	3119
930.998	3104
931.103	3241
931.207	2944
931.311	2967
931.415	2914
931.519	2758
931.623	2792
