Data from test_V78500241_1853.txt Node
Date: Fri Mar 25 16:28:02 CST 2022
User: usil
Spectrometer: V785-0024
Trigger mode: 0
Integration Time (sec): 4.000000E-1
Scans to average: 1
Nonlinearity correction enabled: false
Boxcar width: 0
Storing dark spectrum: false
XAxis mode: Wavelengths
Number of Pixels in Spectrum: 1024
>>>>>Begin Spectral Data<<<<<
801.071	2929
801.214	2872
801.356	2876
801.499	2872
801.641	2883
801.783	2925
801.926	3009
802.068	2937
802.211	2998
802.353	3043
802.496	2944
802.638	3009
802.78	3062
802.923	3039
803.065	2975
803.208	2876
803.35	2902
803.492	2941
803.635	2914
803.777	2777
803.919	2853
804.061	3226
804.204	2922
804.346	2887
804.488	2834
804.63	3005
804.773	2891
804.915	2914
805.057	3146
805.199	2925
805.341	2998
805.483	3036
805.626	2971
805.768	2952
805.91	3089
806.052	3138
806.194	3024
806.336	3218
806.478	3020
806.62	2963
806.762	2956
806.904	3058
807.046	3138
807.188	2979
807.33	2925
807.472	2982
807.614	2906
807.756	2982
807.898	2914
808.04	2887
808.182	2979
808.324	2948
808.465	2895
808.607	2864
808.749	2811
808.891	2830
809.033	2960
809.174	2960
809.316	2872
809.458	2887
809.6	2750
809.741	2766
809.883	2731
810.025	2853
810.166	2845
810.308	2826
810.45	2826
810.591	2785
810.733	2766
810.875	2807
811.016	2750
811.158	2735
811.299	2826
811.441	2914
811.582	2883
811.724	2842
811.865	2842
812.007	2899
812.148	2864
812.29	2826
812.431	2868
812.573	2937
812.714	2982
812.855	3051
812.997	3036
813.138	3085
813.279	3005
813.421	3013
813.562	2982
813.703	2834
813.845	2876
813.986	2792
814.127	2720
814.268	2800
814.41	2845
814.551	2811
814.692	2883
814.833	2830
814.974	2883
815.115	2937
815.256	2788
815.397	2792
815.539	2864
815.68	2781
815.821	2777
815.962	2918
816.103	2906
816.244	2906
816.385	2868
816.526	2937
816.666	2914
816.807	2746
816.948	2861
817.089	2902
817.23	2842
817.371	2716
817.512	2762
817.653	2815
817.793	2823
817.934	2887
818.075	2937
818.216	2948
818.356	3017
818.497	2895
818.638	2804
818.778	2849
818.919	2773
819.06	2746
819.2	2872
819.341	2766
819.481	2781
819.622	2933
819.762	3116
819.903	3032
820.043	2902
820.184	2880
820.324	2902
820.465	3020
820.605	3055
820.746	3009
820.886	2948
821.026	3058
821.167	3146
821.307	3279
821.447	3237
821.588	3237
821.728	3207
821.868	3188
822.008	3081
822.149	3161
822.289	3203
822.429	3074
822.569	3112
822.709	3154
822.849	3047
822.99	3070
823.13	3138
823.27	3230
823.41	3127
823.55	3138
823.69	3154
823.83	3161
823.97	3093
824.11	3024
824.25	3009
824.389	3047
824.529	3104
824.669	3070
824.809	3188
824.949	3233
825.089	3233
825.228	3150
825.368	2990
825.508	2975
825.648	2967
825.787	3005
825.927	3024
826.067	2941
826.206	2952
826.346	2994
826.485	3074
826.625	3135
826.765	3287
826.904	3207
827.044	3013
827.183	2952
827.323	2842
827.462	2998
827.601	2941
827.741	2914
827.88	2956
828.02	2834
828.159	2963
828.298	3043
828.437	3100
828.577	3032
828.716	3211
828.855	3085
828.994	2899
829.134	2876
829.273	2933
829.412	2853
829.551	2819
829.69	2883
829.829	2944
829.968	3089
830.107	3032
830.246	3020
830.385	2914
830.524	2872
830.663	2830
830.802	2743
830.941	2667
831.08	2648
831.219	2762
831.357	2743
831.496	2925
831.635	2716
831.774	2636
831.913	2651
832.051	2552
832.19	2575
832.329	2659
832.467	2533
832.606	2473
832.744	2564
832.883	2560
833.022	2568
833.16	2655
833.299	2686
833.437	2705
833.576	2682
833.714	2727
833.852	2743
833.991	2754
834.129	2853
834.267	2796
834.406	2773
834.544	2830
834.682	2861
834.821	2853
834.959	3043
835.097	2902
835.235	3104
835.373	2971
835.511	3036
835.65	2960
835.788	2963
835.926	2800
836.064	2781
836.202	2815
836.34	3100
836.478	3127
836.615	3028
836.753	3116
836.891	3192
837.029	3154
837.167	3112
837.305	3051
837.443	3024
837.58	2937
837.718	3119
837.856	3070
837.993	3036
838.131	3127
838.269	3066
838.406	3062
838.544	3089
838.681	2944
838.819	2891
838.956	2788
839.094	2853
839.231	2937
839.369	2998
839.506	3378
839.643	3211
839.781	3013
839.918	2956
840.055	3077
840.193	3017
840.33	3070
840.467	3074
840.604	3131
840.742	3344
840.879	3051
841.016	3020
841.153	3104
841.29	3317
841.427	3279
841.564	3268
841.701	3306
841.838	3207
841.975	3150
842.112	3169
842.249	3055
842.385	3036
842.522	3256
842.659	3097
842.796	3051
842.933	3062
843.069	3055
843.206	3013
843.343	3146
843.479	3077
843.616	3131
843.752	2864
843.889	2864
844.025	3062
844.162	2868
844.298	3089
844.435	2960
844.571	2918
844.708	3066
844.844	3142
844.98	3207
845.117	3165
845.253	3074
845.389	2986
845.525	3093
845.661	3112
845.798	2998
845.934	3131
846.07	3032
846.206	3222
846.342	3268
846.478	3233
846.614	3032
846.75	3055
846.886	2998
847.022	3214
847.158	3142
847.294	3192
847.429	3230
847.565	3161
847.701	3462
847.837	3001
847.972	2982
848.108	3119
848.244	3176
848.379	2982
848.515	2918
848.65	2922
848.786	2933
848.921	3001
849.057	3085
849.192	3131
849.328	3066
849.463	3131
849.598	3066
849.734	3043
849.869	2979
850.004	2899
850.14	3001
850.275	2906
850.41	2861
850.545	2861
850.68	2941
850.815	2937
850.95	2979
851.085	3169
851.22	3066
851.355	3047
851.49	2941
851.625	2994
851.76	3036
851.895	2914
852.03	2922
852.165	3070
852.299	3085
852.434	3192
852.569	3135
852.703	3154
852.838	3268
852.973	3344
853.107	3344
853.242	3131
853.376	3093
853.511	2990
853.645	3001
853.78	3195
853.914	3070
854.048	3093
854.183	3089
854.317	3146
854.451	3291
854.585	3112
854.72	3066
854.854	3249
854.988	3032
855.122	3070
855.256	2929
855.39	3116
855.524	3233
855.658	3165
855.792	3154
855.926	3180
856.06	3211
856.194	3241
856.327	3157
856.461	3047
856.595	3093
856.729	3085
856.862	3222
856.996	3169
857.13	3169
857.263	3233
857.397	3253
857.53	3142
857.664	3161
857.797	3245
857.931	3249
858.064	3184
858.197	3169
858.331	3112
858.464	3097
858.597	3009
858.731	3074
858.864	3108
858.997	3058
859.13	3154
859.263	3180
859.396	3218
859.529	3085
859.662	3070
859.795	3017
859.928	3146
860.061	3264
860.194	3268
860.327	3097
860.46	3104
860.592	3222
860.725	3211
860.858	3245
860.99	3108
861.123	3058
861.256	3013
861.388	3119
861.521	3831
861.653	2998
861.786	2944
861.918	2990
862.05	3032
862.183	3100
862.315	3135
862.447	3192
862.58	3077
862.712	2922
862.844	2849
862.976	3020
863.108	2952
863.24	3447
863.372	2861
863.504	2982
863.636	2937
863.768	3001
863.9	2944
864.032	2899
864.164	2979
864.296	2990
864.428	3043
864.559	3081
864.691	3032
864.823	3062
864.954	3032
865.086	3032
865.217	3020
865.349	2956
865.48	2982
865.612	3017
865.743	3138
865.875	2975
866.006	2922
866.137	2956
866.269	2948
866.4	2948
866.531	2937
866.662	2880
866.793	2883
866.924	2910
867.055	2941
867.186	2876
867.317	2876
867.448	2868
867.579	2872
867.71	2845
867.841	2815
867.972	2910
868.103	2883
868.233	2845
868.364	2899
868.495	2868
868.625	3085
868.756	3188
868.886	2979
869.017	2982
869.147	3142
869.278	3146
869.408	3051
869.539	3017
869.669	3077
869.799	3055
869.929	3146
870.06	3093
870.19	3332
870.32	3298
870.45	3321
870.58	3344
870.71	3458
870.84	3454
870.97	3253
871.1	3241
871.23	3496
871.36	3454
871.489	3348
871.619	3428
871.749	3382
871.879	3443
872.008	3481
872.138	3336
872.267	3279
872.397	3135
872.526	3097
872.656	3009
872.785	3097
872.915	3245
873.044	3294
873.173	3214
873.303	3249
873.432	3245
873.561	3245
873.69	3138
873.819	3093
873.948	3214
874.077	3127
874.206	3043
874.335	3093
874.464	3173
874.593	3336
874.722	3237
874.851	3382
874.979	3344
875.108	3310
875.237	3192
875.365	3146
875.494	3169
875.623	3184
875.751	3066
875.88	3097
876.008	3146
876.136	3188
876.265	3348
876.393	3466
876.521	3466
876.65	3378
876.778	3336
876.906	3249
877.034	3180
877.162	3222
877.29	3207
877.418	3268
877.546	3249
877.674	3211
877.802	3222
877.93	3188
878.058	3135
878.185	3093
878.313	3230
878.441	3161
878.568	3043
878.696	3154
878.824	3249
878.951	3294
879.079	3447
879.206	3622
879.333	3386
879.461	3348
879.588	3332
879.715	3485
879.842	3576
879.97	3370
880.097	3150
880.224	3108
880.351	3211
880.478	3214
880.605	3203
880.732	3146
880.859	3485
880.986	3272
881.112	3332
881.239	3176
881.366	3077
881.493	3047
881.619	2971
881.746	3039
881.872	3085
881.999	3055
882.125	3135
882.252	3226
882.378	3313
882.505	3416
882.631	3253
882.757	3123
882.883	3195
883.01	3214
883.136	3112
883.262	3100
883.388	3100
883.514	3336
883.64	3374
883.766	3264
883.892	3142
884.018	3237
884.143	3405
884.269	3576
884.395	3199
884.52	3173
884.646	3222
884.772	3119
884.897	3093
885.023	3150
885.148	3363
885.274	3401
885.399	3378
885.524	3291
885.65	3253
885.775	3329
885.9	3317
886.025	3401
886.15	3348
886.275	3313
886.4	3245
886.525	3317
886.65	3249
886.775	3230
886.9	3481
887.025	3576
887.149	3386
887.274	3260
887.399	3165
887.523	3176
887.648	3176
887.773	3199
887.897	3298
888.021	3386
888.146	3329
888.27	3435
888.395	3542
888.519	3416
888.643	3458
888.767	3454
888.891	3283
889.015	3245
889.139	3237
889.263	3253
889.387	3382
889.511	3507
889.635	3424
889.759	3249
889.883	3321
890.006	3389
890.13	3469
890.254	3275
890.377	3325
890.501	3184
890.624	3157
890.748	3279
890.871	3211
890.995	3108
891.118	3036
891.241	3169
891.364	3230
891.488	3279
891.611	3173
891.734	3230
891.857	3268
891.98	3245
892.103	3325
892.226	3253
892.349	3218
892.471	3112
892.594	3230
892.717	3344
892.839	3218
892.962	3283
893.085	3351
893.207	3317
893.33	3127
893.452	3203
893.575	3325
893.697	3249
893.819	3469
893.941	3496
894.064	3428
894.186	3287
894.308	3291
894.43	3428
894.552	3534
894.674	3431
894.796	3287
894.918	3291
895.04	3287
895.161	3416
895.283	3382
895.405	3283
895.526	3359
895.648	3382
895.769	3420
895.891	3481
896.012	3473
896.134	3466
896.255	3450
896.376	3351
896.498	3325
896.619	3435
896.74	3355
896.861	3405
896.982	3682
897.103	3838
897.224	3603
897.345	3538
897.466	3409
897.587	3477
897.708	3618
897.828	3549
897.949	3428
898.07	3332
898.19	3409
898.311	3618
898.431	3458
898.552	3481
898.672	3587
898.792	3561
898.913	3526
899.033	3378
899.153	3317
899.273	3237
899.393	3275
899.513	3336
899.633	3329
899.753	3306
899.873	3310
899.993	3397
900.113	3340
900.232	3370
900.352	3367
900.472	3298
900.591	3192
900.711	3264
900.83	3230
900.95	3389
901.069	3458
901.189	3351
901.308	3161
901.427	3123
901.546	3199
901.665	3249
901.784	3275
901.904	3203
902.023	3157
902.141	2960
902.26	2944
902.379	3138
902.498	3055
902.617	3039
902.735	3188
902.854	3203
902.973	3230
903.091	3036
903.21	3043
903.328	3142
903.446	3119
903.565	3097
903.683	3195
903.801	3119
903.919	3249
904.038	3272
904.156	3157
904.274	3260
904.392	3241
904.51	3260
904.627	3310
904.745	3443
904.863	3504
904.981	3264
905.098	3119
905.216	3222
905.334	3268
905.451	3325
905.569	3317
905.686	3416
905.803	3416
905.921	3253
906.038	3428
906.155	3332
906.272	3256
906.389	3325
906.506	3211
906.623	3222
906.74	3253
906.857	3142
906.974	3203
907.091	3481
907.208	3564
907.324	3488
907.441	3348
907.557	3237
907.674	3218
907.79	3203
907.907	3245
908.023	3359
908.139	3363
908.256	3321
908.372	3332
908.488	3374
908.604	3249
908.72	3214
908.836	3245
908.952	3226
909.068	3367
909.184	3492
909.3	3401
909.415	3492
909.531	3473
909.647	3256
909.762	3306
909.878	3291
909.993	3329
910.108	3317
910.224	3325
910.339	3397
910.454	3332
910.57	3306
910.685	3233
910.8	3580
910.915	3545
911.03	3469
911.145	3241
911.259	3268
911.374	3329
911.489	3230
911.604	3203
911.718	3093
911.833	3173
911.947	3020
912.062	2929
912.176	3154
912.291	3195
912.405	3195
912.519	3389
912.633	3439
912.748	3325
912.862	3275
912.976	3157
913.09	3066
913.204	3123
913.318	3207
913.431	3348
913.545	3317
913.659	3412
913.772	3336
913.886	3211
914	3195
914.113	3363
914.226	3439
914.34	3332
914.453	3218
914.566	3412
914.68	3218
914.793	3264
914.906	3116
915.019	3104
915.132	3081
915.245	3165
915.358	3211
915.47	3203
915.583	3241
915.696	3268
915.809	3401
915.921	3424
916.034	3245
916.146	3264
916.259	3211
916.371	3382
916.483	3340
916.595	3302
916.708	3287
916.82	3359
916.932	3329
917.044	3367
917.156	3382
917.268	3230
917.38	3313
917.491	3317
917.603	3325
917.715	3450
917.826	3454
917.938	3351
918.049	3268
918.161	3397
918.272	3584
918.384	3542
918.495	3523
918.606	3306
918.717	3279
918.828	3336
918.939	3393
919.05	3272
919.161	3348
919.272	3169
919.383	3268
919.494	3473
919.604	3652
919.715	3469
919.826	3401
919.936	3462
920.047	3553
920.157	3523
920.267	3743
920.378	3576
920.488	3538
920.598	3789
920.708	3960
920.818	3808
920.928	3827
921.038	4002
921.148	3960
921.258	3705
921.368	3614
921.477	3545
921.587	3496
921.697	3466
921.806	3618
921.916	3507
922.025	3367
922.134	3374
922.244	3306
922.353	3416
922.462	3268
922.571	3237
922.68	3077
922.789	3093
922.898	3131
923.007	3085
923.116	3207
923.224	3176
923.333	3176
923.442	3062
923.55	3093
923.659	3127
923.767	3188
923.876	3081
923.984	3214
924.092	3074
924.201	3165
924.309	3214
924.417	3256
924.525	3192
924.633	3245
924.741	3983
924.849	3032
924.956	3230
925.064	3085
925.172	2986
925.279	3077
925.387	3169
925.494	3203
925.602	3340
925.709	3332
925.816	3157
925.924	3264
926.031	3321
926.138	3336
926.245	3340
926.352	3218
926.459	3363
926.566	3458
926.673	3306
926.779	3195
926.886	3272
926.993	3135
927.099	3077
927.206	3104
927.312	3066
927.419	3218
927.525	3214
927.631	3245
927.737	3104
927.843	3089
927.95	3013
928.056	3077
928.162	3157
928.267	3214
928.373	3736
928.479	3275
928.585	3020
928.69	3230
928.796	3260
928.901	3150
929.007	3039
929.112	3203
929.218	3157
929.323	3138
929.428	3161
929.533	3325
929.638	3127
929.743	3131
929.848	3279
929.953	3199
930.058	3165
930.163	3017
930.267	3100
930.372	3192
930.477	3020
930.581	3268
930.685	3211
930.79	3085
930.894	3127
930.998	3112
931.103	3302
931.207	2963
931.311	2979
931.415	2948
931.519	2804
931.623	2819
