Data from test_V78500241_885.txt Node
Date: Fri Mar 25 16:21:20 CST 2022
User: usil
Spectrometer: V785-0024
Trigger mode: 0
Integration Time (sec): 4.000000E-1
Scans to average: 1
Nonlinearity correction enabled: false
Boxcar width: 0
Storing dark spectrum: false
XAxis mode: Wavelengths
Number of Pixels in Spectrum: 1024
>>>>>Begin Spectral Data<<<<<
801.071	2922
801.214	2933
801.356	2876
801.499	2902
801.641	2887
801.783	2880
801.926	3024
802.068	2960
802.211	3005
802.353	3013
802.496	2971
802.638	3013
802.78	3009
802.923	3077
803.065	2971
803.208	2872
803.35	2914
803.492	2941
803.635	2941
803.777	2766
803.919	2883
804.061	3176
804.204	2925
804.346	2914
804.488	2876
804.63	2960
804.773	2823
804.915	2895
805.057	3100
805.199	2922
805.341	2963
805.483	3051
805.626	2998
805.768	2982
805.91	3100
806.052	3089
806.194	3013
806.336	3230
806.478	3013
806.62	2941
806.762	2979
806.904	3058
807.046	3173
807.188	2956
807.33	2910
807.472	2952
807.614	2861
807.756	2994
807.898	2937
808.04	2891
808.182	2994
808.324	2963
808.465	2891
808.607	2834
808.749	2777
808.891	2842
809.033	2982
809.174	3009
809.316	2876
809.458	2895
809.6	2773
809.741	2769
809.883	2750
810.025	2861
810.166	2804
810.308	2796
810.45	2853
810.591	2777
810.733	2769
810.875	2834
811.016	2758
811.158	2750
811.299	2788
811.441	2929
811.582	2857
811.724	2834
811.865	2815
812.007	2876
812.148	2914
812.29	2834
812.431	2868
812.573	2922
812.714	2952
812.855	3032
812.997	3055
813.138	3146
813.279	2967
813.421	2998
813.562	2952
813.703	2872
813.845	2849
813.986	2758
814.127	2712
814.268	2804
814.41	2826
814.551	2842
814.692	2872
814.833	2861
814.974	2880
815.115	2963
815.256	2766
815.397	2804
815.539	2842
815.68	2811
815.821	2785
815.962	2922
816.103	2937
816.244	2857
816.385	2899
816.526	2971
816.666	2910
816.807	2743
816.948	2922
817.089	2876
817.23	2826
817.371	2785
817.512	2762
817.653	2826
817.793	2773
817.934	2883
818.075	2982
818.216	2986
818.356	3020
818.497	2876
818.638	2781
818.778	2826
818.919	2788
819.06	2739
819.2	2880
819.341	2823
819.481	2769
819.622	2902
819.762	3089
819.903	3043
820.043	2876
820.184	2914
820.324	2857
820.465	3028
820.605	3020
820.746	3009
820.886	2883
821.026	3085
821.167	3135
821.307	3203
821.447	3275
821.588	3195
821.728	3180
821.868	3184
822.008	3077
822.149	3157
822.289	3226
822.429	3077
822.569	3077
822.709	3199
822.849	3005
822.99	3058
823.13	3176
823.27	3173
823.41	3104
823.55	3165
823.69	3142
823.83	3222
823.97	3074
824.11	2998
824.25	3005
824.389	3097
824.529	3085
824.669	3036
824.809	3230
824.949	3233
825.089	3260
825.228	3161
825.368	3020
825.508	2963
825.648	2971
825.787	3024
825.927	3032
826.067	2967
826.206	2944
826.346	3017
826.485	3074
826.625	3104
826.765	3214
826.904	3222
827.044	2971
827.183	2956
827.323	2838
827.462	2986
827.601	2922
827.741	2914
827.88	2929
828.02	2830
828.159	2948
828.298	3024
828.437	3089
828.577	3047
828.716	3264
828.855	3032
828.994	2922
829.134	2880
829.273	2895
829.412	2853
829.551	2853
829.69	2857
829.829	3001
829.968	3123
830.107	2994
830.246	3013
830.385	2910
830.524	2842
830.663	2834
830.802	2712
830.941	2663
831.08	2644
831.219	2758
831.357	2746
831.496	2910
831.635	2708
831.774	2667
831.913	2644
832.051	2522
832.19	2587
832.329	2689
832.467	2575
832.606	2461
832.744	2552
832.883	2556
833.022	2602
833.16	2629
833.299	2678
833.437	2682
833.576	2697
833.714	2720
833.852	2739
833.991	2739
834.129	2842
834.267	2838
834.406	2762
834.544	2861
834.682	2861
834.821	2853
834.959	3028
835.097	2868
835.235	3043
835.373	2986
835.511	2971
835.65	2963
835.788	2960
835.926	2815
836.064	2823
836.202	2838
836.34	3039
836.478	3146
836.615	3055
836.753	3138
836.891	3199
837.029	3116
837.167	3097
837.305	3047
837.443	3024
837.58	2960
837.718	3157
837.856	3032
837.993	3009
838.131	3135
838.269	3085
838.406	3051
838.544	3097
838.681	2914
838.819	2899
838.956	2792
839.094	2830
839.231	2906
839.369	3024
839.506	3382
839.643	3207
839.781	2975
839.918	2941
840.055	3039
840.193	3043
840.33	3074
840.467	3036
840.604	3138
840.742	3412
840.879	3058
841.016	3032
841.153	3116
841.29	3329
841.427	3237
841.564	3241
841.701	3287
841.838	3184
841.975	3154
842.112	3203
842.249	3043
842.385	3028
842.522	3268
842.659	3058
842.796	3024
842.933	3074
843.069	3017
843.206	3043
843.343	3173
843.479	3100
843.616	3104
843.752	2872
843.889	2861
844.025	3062
844.162	2906
844.298	3062
844.435	2891
844.571	2925
844.708	3058
844.844	3154
844.98	3241
845.117	3214
845.253	3058
845.389	3036
845.525	3108
845.661	3066
845.798	2967
845.934	3100
846.07	3036
846.206	3214
846.342	3298
846.478	3211
846.614	3104
846.75	3039
846.886	2990
847.022	3203
847.158	3142
847.294	3161
847.429	3260
847.565	3161
847.701	3462
847.837	3020
847.972	2956
848.108	3150
848.244	3104
848.379	3005
848.515	2948
848.65	2918
848.786	2963
848.921	2994
849.057	3070
849.192	3112
849.328	3043
849.463	3089
849.598	3043
849.734	3058
849.869	2979
850.004	2861
850.14	2960
850.275	2899
850.41	2838
850.545	2853
850.68	2925
850.815	2937
850.95	2982
851.085	3154
851.22	3100
851.355	3013
851.49	2960
851.625	3005
851.76	3020
851.895	2910
852.03	2910
852.165	3017
852.299	3104
852.434	3173
852.569	3131
852.703	3173
852.838	3211
852.973	3336
853.107	3306
853.242	3138
853.376	3070
853.511	2971
853.645	3055
853.78	3199
853.914	3108
854.048	3135
854.183	3070
854.317	3100
854.451	3264
854.585	3093
854.72	3062
854.854	3211
854.988	3036
855.122	3085
855.256	2929
855.39	3108
855.524	3218
855.658	3146
855.792	3150
855.926	3199
856.06	3264
856.194	3268
856.327	3138
856.461	3032
856.595	3055
856.729	3089
856.862	3222
856.996	3135
857.13	3138
857.263	3214
857.397	3226
857.53	3074
857.664	3157
857.797	3268
857.931	3199
858.064	3119
858.197	3192
858.331	3085
858.464	3077
858.597	2971
858.731	3119
858.864	3100
858.997	3097
859.13	3195
859.263	3169
859.396	3154
859.529	3066
859.662	3070
859.795	3055
859.928	3123
860.061	3245
860.194	3260
860.327	3157
860.46	3070
860.592	3268
860.725	3237
860.858	3272
860.99	3097
861.123	3066
861.256	3047
861.388	3169
861.521	3816
861.653	3020
861.786	2994
861.918	3036
862.05	3062
862.183	3112
862.315	3184
862.447	3203
862.58	3119
862.712	2982
862.844	2902
862.976	3036
863.108	3013
863.24	3329
863.372	2899
863.504	2990
863.636	3017
863.768	3051
863.9	3017
864.032	2948
864.164	2956
864.296	3066
864.428	3081
864.559	3138
864.691	3100
864.823	3058
864.954	3112
865.086	3085
865.217	2986
865.349	3017
865.48	3017
865.612	3028
865.743	3195
865.875	3036
866.006	2975
866.137	3013
866.269	3013
866.4	2979
866.531	2952
866.662	2941
866.793	2941
866.924	2967
867.055	2998
867.186	2952
867.317	2902
867.448	2880
867.579	2864
867.71	2849
867.841	2834
867.972	2963
868.103	2918
868.233	2880
868.364	2929
868.495	2937
868.625	3135
868.756	3214
868.886	3013
869.017	3074
869.147	3207
869.278	3203
869.408	3066
869.539	3077
869.669	3093
869.799	3036
869.929	3184
870.06	3146
870.19	3374
870.32	3317
870.45	3336
870.58	3447
870.71	3496
870.84	3504
870.97	3363
871.1	3245
871.23	3542
871.36	3496
871.489	3363
871.619	3507
871.749	3412
871.879	3477
872.008	3485
872.138	3370
872.267	3325
872.397	3192
872.526	3150
872.656	3036
872.785	3138
872.915	3264
873.044	3370
873.173	3233
873.303	3294
873.432	3233
873.561	3291
873.69	3173
873.819	3176
873.948	3256
874.077	3150
874.206	3070
874.335	3131
874.464	3226
874.593	3367
874.722	3279
874.851	3443
874.979	3416
875.108	3351
875.237	3192
875.365	3173
875.494	3173
875.623	3245
875.751	3138
875.88	3161
876.008	3230
876.136	3241
876.265	3447
876.393	3545
876.521	3450
876.65	3409
876.778	3348
876.906	3245
877.034	3203
877.162	3256
877.29	3184
877.418	3283
877.546	3279
877.674	3306
877.802	3268
877.93	3268
878.058	3180
878.185	3104
878.313	3253
878.441	3256
878.568	3104
878.696	3173
878.824	3298
878.951	3329
879.079	3454
879.206	3656
879.333	3466
879.461	3321
879.588	3378
879.715	3496
879.842	3568
879.97	3393
880.097	3214
880.224	3176
880.351	3214
880.478	3237
880.605	3241
880.732	3233
880.859	3515
880.986	3348
881.112	3355
881.239	3218
881.366	3119
881.493	3066
881.619	3024
881.746	3089
881.872	3108
881.999	3081
882.125	3180
882.252	3230
882.378	3313
882.505	3454
882.631	3313
882.757	3203
882.883	3237
883.01	3222
883.136	3180
883.262	3161
883.388	3127
883.514	3348
883.64	3420
883.766	3329
883.892	3226
884.018	3233
884.143	3435
884.269	3572
884.395	3249
884.52	3176
884.646	3211
884.772	3161
884.897	3131
885.023	3222
885.148	3355
885.274	3477
885.399	3370
885.524	3298
885.65	3279
885.775	3355
885.9	3291
886.025	3447
886.15	3378
886.275	3336
886.4	3260
886.525	3370
886.65	3298
886.775	3287
886.9	3530
887.025	3625
887.149	3431
887.274	3325
887.399	3150
887.523	3245
887.648	3184
887.773	3249
887.897	3431
888.021	3431
888.146	3340
888.27	3507
888.395	3561
888.519	3485
888.643	3515
888.767	3500
888.891	3359
889.015	3283
889.139	3336
889.263	3268
889.387	3469
889.511	3561
889.635	3523
889.759	3294
889.883	3336
890.006	3389
890.13	3549
890.254	3329
890.377	3401
890.501	3256
890.624	3222
890.748	3291
890.871	3279
890.995	3176
891.118	3066
891.241	3222
891.364	3233
891.488	3344
891.611	3203
891.734	3245
891.857	3294
891.98	3237
892.103	3363
892.226	3374
892.349	3268
892.471	3154
892.594	3272
892.717	3275
892.839	3313
892.962	3313
893.085	3382
893.207	3306
893.33	3157
893.452	3245
893.575	3370
893.697	3260
893.819	3504
893.941	3564
894.064	3492
894.186	3291
894.308	3279
894.43	3488
894.552	3534
894.674	3485
894.796	3291
894.918	3332
895.04	3294
895.161	3428
895.283	3420
895.405	3374
895.526	3382
895.648	3454
895.769	3435
895.891	3500
896.012	3511
896.134	3538
896.255	3424
896.376	3374
896.498	3374
896.619	3424
896.74	3382
896.861	3393
896.982	3709
897.103	3896
897.224	3637
897.345	3534
897.466	3458
897.587	3504
897.708	3622
897.828	3561
897.949	3481
898.07	3344
898.19	3450
898.311	3618
898.431	3481
898.552	3523
898.672	3595
898.792	3599
898.913	3587
899.033	3435
899.153	3306
899.273	3245
899.393	3283
899.513	3348
899.633	3370
899.753	3382
899.873	3363
899.993	3382
900.113	3359
900.232	3409
900.352	3367
900.472	3329
900.591	3245
900.711	3298
900.83	3260
900.95	3469
901.069	3511
901.189	3405
901.308	3222
901.427	3161
901.546	3184
901.665	3329
901.784	3355
901.904	3222
902.023	3165
902.141	3058
902.26	3017
902.379	3176
902.498	3089
902.617	3036
902.735	3226
902.854	3233
902.973	3237
903.091	3089
903.21	3097
903.328	3165
903.446	3097
903.565	3131
903.683	3207
903.801	3146
903.919	3249
904.038	3291
904.156	3211
904.274	3283
904.392	3279
904.51	3310
904.627	3367
904.745	3469
904.863	3504
904.981	3249
905.098	3184
905.216	3241
905.334	3336
905.451	3351
905.569	3310
905.686	3412
905.803	3534
905.921	3332
906.038	3462
906.155	3382
906.272	3287
906.389	3294
906.506	3260
906.623	3260
906.74	3321
906.857	3207
906.974	3249
907.091	3462
907.208	3587
907.324	3515
907.441	3416
907.557	3275
907.674	3226
907.79	3214
907.907	3310
908.023	3409
908.139	3420
908.256	3367
908.372	3370
908.488	3397
908.604	3253
908.72	3260
908.836	3275
908.952	3264
909.068	3370
909.184	3488
909.3	3409
909.415	3519
909.531	3496
909.647	3329
909.762	3287
909.878	3279
909.993	3367
910.108	3370
910.224	3340
910.339	3443
910.454	3348
910.57	3329
910.685	3241
910.8	3644
910.915	3587
911.03	3454
911.145	3310
911.259	3321
911.374	3382
911.489	3279
911.604	3222
911.718	3154
911.833	3176
911.947	3051
912.062	3024
912.176	3184
912.291	3207
912.405	3245
912.519	3420
912.633	3481
912.748	3351
912.862	3279
912.976	3192
913.09	3043
913.204	3142
913.318	3256
913.431	3374
913.545	3351
913.659	3443
913.772	3389
913.886	3226
914	3233
914.113	3374
914.226	3409
914.34	3382
914.453	3233
914.566	3431
914.68	3321
914.793	3336
914.906	3146
915.019	3123
915.132	3066
915.245	3214
915.358	3207
915.47	3245
915.583	3283
915.696	3306
915.809	3424
915.921	3405
916.034	3237
916.146	3279
916.259	3241
916.371	3378
916.483	3409
916.595	3351
916.708	3348
916.82	3348
916.932	3351
917.044	3363
917.156	3374
917.268	3230
917.38	3321
917.491	3298
917.603	3378
917.715	3507
917.826	3523
917.938	3367
918.049	3275
918.161	3431
918.272	3584
918.384	3580
918.495	3534
918.606	3405
918.717	3302
918.828	3409
918.939	3431
919.05	3332
919.161	3393
919.272	3199
919.383	3291
919.494	3507
919.604	3717
919.715	3435
919.826	3382
919.936	3469
920.047	3629
920.157	3580
920.267	3755
920.378	3603
920.488	3568
920.598	3774
920.708	3975
920.818	3880
920.928	3804
921.038	4029
921.148	3979
921.258	3732
921.368	3599
921.477	3591
921.587	3557
921.697	3458
921.806	3625
921.916	3519
922.025	3378
922.134	3363
922.244	3321
922.353	3443
922.462	3279
922.571	3241
922.68	3131
922.789	3081
922.898	3150
923.007	3100
923.116	3188
923.224	3195
923.333	3188
923.442	3104
923.55	3142
923.659	3150
923.767	3249
923.876	3146
923.984	3245
924.092	3081
924.201	3203
924.309	3230
924.417	3260
924.525	3195
924.633	3214
924.741	4188
924.849	3058
924.956	3275
925.064	3108
925.172	3043
925.279	3104
925.387	3230
925.494	3211
925.602	3351
925.709	3344
925.816	3203
925.924	3291
926.031	3374
926.138	3287
926.245	3374
926.352	3264
926.459	3420
926.566	3473
926.673	3283
926.779	3275
926.886	3306
926.993	3192
927.099	3150
927.206	3150
927.312	3127
927.419	3184
927.525	3218
927.631	3306
927.737	3138
927.843	3142
927.95	3066
928.056	3161
928.162	3184
928.267	3279
928.373	3922
928.479	3348
928.585	3070
928.69	3218
928.796	3283
928.901	3199
929.007	3058
929.112	3256
929.218	3226
929.323	3188
929.428	3157
929.533	3359
929.638	3176
929.743	3184
929.848	3294
929.953	3256
930.058	3184
930.163	3043
930.267	3085
930.372	3272
930.477	3070
930.581	3363
930.685	3218
930.79	3119
930.894	3154
930.998	3123
931.103	3332
931.207	2986
931.311	3020
931.415	2967
931.519	2826
931.623	2857
