Data from test_V78500241_79.txt Node
Date: Fri Mar 25 16:15:45 CST 2022
User: usil
Spectrometer: V785-0024
Trigger mode: 0
Integration Time (sec): 4.000000E-1
Scans to average: 1
Nonlinearity correction enabled: false
Boxcar width: 0
Storing dark spectrum: false
XAxis mode: Wavelengths
Number of Pixels in Spectrum: 1024
>>>>>Begin Spectral Data<<<<<
801.071	2971
801.214	2979
801.356	2883
801.499	2922
801.641	2861
801.783	2944
801.926	3081
802.068	3009
802.211	3013
802.353	3062
802.496	2998
802.638	3009
802.78	3085
802.923	3100
803.065	3024
803.208	2960
803.35	2944
803.492	2967
803.635	2975
803.777	2754
803.919	2895
804.061	3256
804.204	2975
804.346	2925
804.488	2880
804.63	3017
804.773	2902
804.915	2952
805.057	3142
805.199	3001
805.341	3013
805.483	3097
805.626	3058
805.768	2986
805.91	3135
806.052	3146
806.194	3055
806.336	3226
806.478	3047
806.62	2986
806.762	3001
806.904	3089
807.046	3207
807.188	3001
807.33	2910
807.472	3017
807.614	2937
807.756	3005
807.898	2952
808.04	2922
808.182	2986
808.324	2963
808.465	2906
808.607	2929
808.749	2853
808.891	2845
809.033	3005
809.174	3005
809.316	2918
809.458	2944
809.6	2823
809.741	2800
809.883	2773
810.025	2868
810.166	2891
810.308	2864
810.45	2834
810.591	2807
810.733	2807
810.875	2861
811.016	2792
811.158	2807
811.299	2830
811.441	2967
811.582	2948
811.724	2838
811.865	2849
812.007	2944
812.148	2895
812.29	2861
812.431	2876
812.573	2975
812.714	3036
812.855	3085
812.997	3089
813.138	3161
813.279	3017
813.421	2990
813.562	2979
813.703	2868
813.845	2906
813.986	2792
814.127	2777
814.268	2826
814.41	2857
814.551	2849
814.692	2895
814.833	2864
814.974	2944
815.115	2979
815.256	2861
815.397	2876
815.539	2925
815.68	2823
815.821	2815
815.962	2956
816.103	2956
816.244	2933
816.385	2899
816.526	3024
816.666	2982
816.807	2792
816.948	2880
817.089	2937
817.23	2872
817.371	2807
817.512	2815
817.653	2857
817.793	2883
817.934	2891
818.075	2998
818.216	3013
818.356	3085
818.497	2918
818.638	2796
818.778	2857
818.919	2830
819.06	2766
819.2	2891
819.341	2823
819.481	2861
819.622	2952
819.762	3138
819.903	3085
820.043	2967
820.184	2948
820.324	2952
820.465	3066
820.605	3032
820.746	3058
820.886	2975
821.026	3146
821.167	3184
821.307	3264
821.447	3310
821.588	3302
821.728	3272
821.868	3211
822.008	3043
822.149	3192
822.289	3230
822.429	3108
822.569	3123
822.709	3199
822.849	3036
822.99	3108
823.13	3211
823.27	3245
823.41	3123
823.55	3157
823.69	3188
823.83	3184
823.97	3066
824.11	3051
824.25	3039
824.389	3116
824.529	3138
824.669	3085
824.809	3222
824.949	3291
825.089	3268
825.228	3211
825.368	2998
825.508	3005
825.648	3009
825.787	3005
825.927	3047
826.067	3005
826.206	2967
826.346	3058
826.485	3112
826.625	3112
826.765	3279
826.904	3260
827.044	3001
827.183	2960
827.323	2914
827.462	2998
827.601	2910
827.741	2956
827.88	2956
828.02	2883
828.159	2986
828.298	3028
828.437	3135
828.577	3066
828.716	3287
828.855	3089
828.994	2960
829.134	2925
829.273	2941
829.412	2895
829.551	2922
829.69	2929
829.829	3020
829.968	3127
830.107	3047
830.246	3043
830.385	2929
830.524	2914
830.663	2842
830.802	2766
830.941	2674
831.08	2667
831.219	2750
831.357	2739
831.496	2979
831.635	2735
831.774	2663
831.913	2670
832.051	2587
832.19	2629
832.329	2682
832.467	2541
832.606	2492
832.744	2575
832.883	2556
833.022	2602
833.16	2689
833.299	2724
833.437	2716
833.576	2750
833.714	2769
833.852	2750
833.991	2777
834.129	2838
834.267	2838
834.406	2834
834.544	2914
834.682	2929
834.821	2883
834.959	3074
835.097	2941
835.235	3047
835.373	2998
835.511	3055
835.65	2986
835.788	2971
835.926	2876
836.064	2838
836.202	2895
836.34	3116
836.478	3165
836.615	3108
836.753	3169
836.891	3218
837.029	3218
837.167	3157
837.305	3039
837.443	3039
837.58	2994
837.718	3150
837.856	3116
837.993	3043
838.131	3146
838.269	3108
838.406	3123
838.544	3112
838.681	2990
838.819	2922
838.956	2800
839.094	2838
839.231	2944
839.369	3024
839.506	3363
839.643	3260
839.781	3051
839.918	2982
840.055	3097
840.193	3028
840.33	3097
840.467	3116
840.604	3195
840.742	3397
840.879	3077
841.016	3089
841.153	3146
841.29	3393
841.427	3317
841.564	3291
841.701	3336
841.838	3264
841.975	3226
842.112	3245
842.249	3127
842.385	3097
842.522	3268
842.659	3135
842.796	3085
842.933	3108
843.069	3108
843.206	3074
843.343	3184
843.479	3157
843.616	3157
843.752	2925
843.889	2868
844.025	3112
844.162	2918
844.298	3093
844.435	3005
844.571	2922
844.708	3108
844.844	3218
844.98	3287
845.117	3237
845.253	3097
845.389	3036
845.525	3104
845.661	3154
845.798	3043
845.934	3150
846.07	3097
846.206	3283
846.342	3351
846.478	3249
846.614	3112
846.75	3104
846.886	3043
847.022	3283
847.158	3169
847.294	3211
847.429	3268
847.565	3245
847.701	3500
847.837	3062
847.972	3036
848.108	3188
848.244	3169
848.379	3024
848.515	2941
848.65	2971
848.786	2982
848.921	3036
849.057	3119
849.192	3154
849.328	3093
849.463	3123
849.598	3089
849.734	3055
849.869	3017
850.004	2941
850.14	3001
850.275	2944
850.41	2845
850.545	2880
850.68	2948
850.815	2956
850.95	2994
851.085	3226
851.22	3123
851.355	3062
851.49	3020
851.625	3013
851.76	3070
851.895	2990
852.03	2922
852.165	3043
852.299	3157
852.434	3218
852.569	3165
852.703	3260
852.838	3298
852.973	3405
853.107	3393
853.242	3165
853.376	3112
853.511	3017
853.645	3070
853.78	3264
853.914	3142
854.048	3157
854.183	3104
854.317	3180
854.451	3287
854.585	3161
854.72	3108
854.854	3237
854.988	3085
855.122	3119
855.256	3009
855.39	3131
855.524	3237
855.658	3203
855.792	3195
855.926	3211
856.06	3233
856.194	3291
856.327	3188
856.461	3070
856.595	3093
856.729	3142
856.862	3283
856.996	3188
857.13	3230
857.263	3207
857.397	3253
857.53	3150
857.664	3207
857.797	3283
857.931	3241
858.064	3154
858.197	3237
858.331	3157
858.464	3127
858.597	3074
858.731	3116
858.864	3176
858.997	3119
859.13	3138
859.263	3203
859.396	3226
859.529	3131
859.662	3108
859.795	3062
859.928	3131
860.061	3313
860.194	3283
860.327	3138
860.46	3131
860.592	3275
860.725	3275
860.858	3325
860.99	3123
861.123	3070
861.256	3062
861.388	3161
861.521	3728
861.653	3058
861.786	3001
861.918	3005
862.05	3062
862.183	3138
862.315	3195
862.447	3249
862.58	3161
862.712	2960
862.844	2906
862.976	3028
863.108	3028
863.24	3367
863.372	2914
863.504	2971
863.636	3001
863.768	3055
863.9	3055
864.032	2895
864.164	2975
864.296	3051
864.428	3066
864.559	3142
864.691	3089
864.823	3116
864.954	3051
865.086	3070
865.217	3020
865.349	2990
865.48	3017
865.612	3043
865.743	3199
865.875	3005
866.006	2994
866.137	2963
866.269	2937
866.4	2948
866.531	2929
866.662	2902
866.793	2906
866.924	2933
867.055	2979
867.186	2941
867.317	2922
867.448	2887
867.579	2861
867.71	2887
867.841	2807
867.972	2929
868.103	2929
868.233	2922
868.364	2861
868.495	2922
868.625	3085
868.756	3203
868.886	2994
869.017	3036
869.147	3241
869.278	3157
869.408	3039
869.539	3074
869.669	3112
869.799	3074
869.929	3218
870.06	3138
870.19	3374
870.32	3287
870.45	3367
870.58	3393
870.71	3481
870.84	3469
870.97	3359
871.1	3241
871.23	3488
871.36	3454
871.489	3382
871.619	3435
871.749	3469
871.879	3435
872.008	3526
872.138	3393
872.267	3348
872.397	3146
872.526	3138
872.656	3005
872.785	3123
872.915	3294
873.044	3344
873.173	3237
873.303	3294
873.432	3233
873.561	3207
873.69	3157
873.819	3173
873.948	3241
874.077	3123
874.206	3032
874.335	3131
874.464	3245
874.593	3386
874.722	3260
874.851	3420
874.979	3401
875.108	3359
875.237	3237
875.365	3173
875.494	3169
875.623	3272
875.751	3100
875.88	3161
876.008	3199
876.136	3226
876.265	3409
876.393	3557
876.521	3458
876.65	3412
876.778	3348
876.906	3287
877.034	3230
877.162	3249
877.29	3203
877.418	3260
877.546	3287
877.674	3275
877.802	3218
877.93	3226
878.058	3142
878.185	3135
878.313	3230
878.441	3241
878.568	3085
878.696	3161
878.824	3272
878.951	3367
879.079	3488
879.206	3652
879.333	3496
879.461	3329
879.588	3386
879.715	3488
879.842	3648
879.97	3420
880.097	3192
880.224	3104
880.351	3233
880.478	3249
880.605	3233
880.732	3192
880.859	3553
880.986	3313
881.112	3355
881.239	3180
881.366	3127
881.493	3108
881.619	3070
881.746	3066
881.872	3093
881.999	3081
882.125	3180
882.252	3272
882.378	3283
882.505	3428
882.631	3310
882.757	3195
882.883	3260
883.01	3237
883.136	3161
883.262	3108
883.388	3157
883.514	3313
883.64	3389
883.766	3310
883.892	3203
884.018	3237
884.143	3439
884.269	3557
884.395	3256
884.52	3222
884.646	3218
884.772	3138
884.897	3138
885.023	3222
885.148	3344
885.274	3435
885.399	3401
885.524	3272
885.65	3321
885.775	3348
885.9	3313
886.025	3492
886.15	3374
886.275	3378
886.4	3264
886.525	3306
886.65	3275
886.775	3294
886.9	3538
887.025	3675
887.149	3393
887.274	3264
887.399	3222
887.523	3260
887.648	3199
887.773	3226
887.897	3428
888.021	3405
888.146	3325
888.27	3454
888.395	3580
888.519	3447
888.643	3481
888.767	3485
888.891	3298
889.015	3249
889.139	3332
889.263	3249
889.387	3450
889.511	3534
889.635	3496
889.759	3287
889.883	3310
890.006	3450
890.13	3504
890.254	3306
890.377	3374
890.501	3230
890.624	3222
890.748	3332
890.871	3211
890.995	3116
891.118	3119
891.241	3237
891.364	3233
891.488	3351
891.611	3199
891.734	3245
891.857	3317
891.98	3275
892.103	3367
892.226	3302
892.349	3222
892.471	3131
892.594	3287
892.717	3287
892.839	3283
892.962	3310
893.085	3428
893.207	3378
893.33	3157
893.452	3253
893.575	3386
893.697	3298
893.819	3500
893.941	3538
894.064	3466
894.186	3283
894.308	3275
894.43	3477
894.552	3542
894.674	3500
894.796	3348
894.918	3367
895.04	3336
895.161	3564
895.283	3435
895.405	3329
895.526	3416
895.648	3469
895.769	3409
895.891	3496
896.012	3523
896.134	3496
896.255	3435
896.376	3458
896.498	3363
896.619	3466
896.74	3389
896.861	3454
896.982	3690
897.103	3903
897.224	3652
897.345	3526
897.466	3454
897.587	3542
897.708	3667
897.828	3572
897.949	3462
898.07	3348
898.19	3435
898.311	3641
898.431	3500
898.552	3519
898.672	3622
898.792	3641
898.913	3564
899.033	3469
899.153	3336
899.273	3283
899.393	3287
899.513	3310
899.633	3351
899.753	3340
899.873	3325
899.993	3420
900.113	3367
900.232	3397
900.352	3389
900.472	3313
900.591	3237
900.711	3340
900.83	3245
900.95	3450
901.069	3511
901.189	3386
901.308	3207
901.427	3188
901.546	3222
901.665	3310
901.784	3363
901.904	3233
902.023	3176
902.141	3077
902.26	2982
902.379	3165
902.498	3123
902.617	3104
902.735	3245
902.854	3283
902.973	3237
903.091	3108
903.21	3074
903.328	3154
903.446	3142
903.565	3119
903.683	3222
903.801	3150
903.919	3268
904.038	3306
904.156	3203
904.274	3302
904.392	3313
904.51	3374
904.627	3389
904.745	3477
904.863	3542
904.981	3283
905.098	3184
905.216	3253
905.334	3321
905.451	3317
905.569	3389
905.686	3511
905.803	3473
905.921	3344
906.038	3473
906.155	3401
906.272	3317
906.389	3367
906.506	3253
906.623	3275
906.74	3351
906.857	3222
906.974	3279
907.091	3500
907.208	3610
907.324	3549
907.441	3420
907.557	3268
907.674	3211
907.79	3253
907.907	3317
908.023	3412
908.139	3393
908.256	3382
908.372	3397
908.488	3393
908.604	3283
908.72	3306
908.836	3313
908.952	3298
909.068	3386
909.184	3496
909.3	3454
909.415	3507
909.531	3519
909.647	3355
909.762	3351
909.878	3272
909.993	3412
910.108	3389
910.224	3378
910.339	3439
910.454	3367
910.57	3355
910.685	3249
910.8	3584
910.915	3504
911.03	3496
911.145	3272
911.259	3291
911.374	3317
911.489	3245
911.604	3241
911.718	3165
911.833	3199
911.947	3066
912.062	3032
912.176	3184
912.291	3233
912.405	3237
912.519	3473
912.633	3469
912.748	3370
912.862	3294
912.976	3211
913.09	3138
913.204	3138
913.318	3298
913.431	3397
913.545	3367
913.659	3409
913.772	3367
913.886	3256
914	3222
914.113	3389
914.226	3424
914.34	3409
914.453	3260
914.566	3428
914.68	3344
914.793	3348
914.906	3161
915.019	3085
915.132	3097
915.245	3199
915.358	3241
915.47	3233
915.583	3302
915.696	3302
915.809	3450
915.921	3416
916.034	3294
916.146	3287
916.259	3226
916.371	3462
916.483	3348
916.595	3279
916.708	3351
916.82	3355
916.932	3340
917.044	3405
917.156	3393
917.268	3302
917.38	3321
917.491	3325
917.603	3378
917.715	3488
917.826	3492
917.938	3382
918.049	3325
918.161	3473
918.272	3591
918.384	3633
918.495	3549
918.606	3344
918.717	3298
918.828	3450
918.939	3424
919.05	3298
919.161	3378
919.272	3218
919.383	3329
919.494	3507
919.604	3694
919.715	3504
919.826	3443
919.936	3504
920.047	3599
920.157	3584
920.267	3816
920.378	3644
920.488	3606
920.598	3797
920.708	3987
920.818	3880
920.928	3876
921.038	4048
921.148	4021
921.258	3728
921.368	3701
921.477	3637
921.587	3542
921.697	3500
921.806	3656
921.916	3504
922.025	3367
922.134	3367
922.244	3374
922.353	3454
922.462	3291
922.571	3233
922.68	3093
922.789	3119
922.898	3157
923.007	3123
923.116	3256
923.224	3230
923.333	3241
923.442	3119
923.55	3142
923.659	3131
923.767	3279
923.876	3161
923.984	3283
924.092	3146
924.201	3237
924.309	3291
924.417	3321
924.525	3222
924.633	3260
924.741	4207
924.849	3097
924.956	3302
925.064	3138
925.172	3024
925.279	3119
925.387	3237
925.494	3253
925.602	3374
925.709	3401
925.816	3199
925.924	3306
926.031	3405
926.138	3313
926.245	3443
926.352	3306
926.459	3431
926.566	3496
926.673	3378
926.779	3272
926.886	3268
926.993	3214
927.099	3176
927.206	3142
927.312	3123
927.419	3268
927.525	3199
927.631	3310
927.737	3165
927.843	3169
927.95	3081
928.056	3123
928.162	3195
928.267	3279
928.373	3846
928.479	3344
928.585	3074
928.69	3245
928.796	3313
928.901	3165
929.007	3074
929.112	3233
929.218	3199
929.323	3169
929.428	3195
929.533	3363
929.638	3146
929.743	3233
929.848	3317
929.953	3230
930.058	3173
930.163	3017
930.267	3074
930.372	3233
930.477	3077
930.581	3340
930.685	3226
930.79	3116
930.894	3150
930.998	3176
931.103	3279
931.207	2979
931.311	3024
931.415	2952
931.519	2788
931.623	2842
