Data from test_V78500241_723.txt Node
Date: Fri Mar 25 16:20:12 CST 2022
User: usil
Spectrometer: V785-0024
Trigger mode: 0
Integration Time (sec): 4.000000E-1
Scans to average: 1
Nonlinearity correction enabled: false
Boxcar width: 0
Storing dark spectrum: false
XAxis mode: Wavelengths
Number of Pixels in Spectrum: 1024
>>>>>Begin Spectral Data<<<<<
801.071	2910
801.214	2944
801.356	2899
801.499	2925
801.641	2880
801.783	2960
801.926	3055
802.068	3013
802.211	3017
802.353	3020
802.496	2998
802.638	3036
802.78	3062
802.923	3097
803.065	2998
803.208	2925
803.35	2922
803.492	2979
803.635	2963
803.777	2762
803.919	2868
804.061	3184
804.204	2941
804.346	2906
804.488	2876
804.63	2998
804.773	2899
804.915	2952
805.057	3138
805.199	2948
805.341	2975
805.483	3043
805.626	3024
805.768	2986
805.91	3104
806.052	3116
806.194	3085
806.336	3230
806.478	3043
806.62	2952
806.762	2986
806.904	3108
807.046	3154
807.188	3017
807.33	2941
807.472	2963
807.614	2925
807.756	3005
807.898	2925
808.04	2906
808.182	3001
808.324	2948
808.465	2914
808.607	2910
808.749	2785
808.891	2883
809.033	3005
809.174	3001
809.316	2887
809.458	2891
809.6	2777
809.741	2781
809.883	2769
810.025	2868
810.166	2880
810.308	2838
810.45	2902
810.591	2766
810.733	2781
810.875	2830
811.016	2777
811.158	2758
811.299	2811
811.441	2933
811.582	2906
811.724	2838
811.865	2819
812.007	2941
812.148	2834
812.29	2834
812.431	2914
812.573	2948
812.714	2986
812.855	3085
812.997	3047
813.138	3161
813.279	3039
813.421	2994
813.562	2918
813.703	2906
813.845	2899
813.986	2773
814.127	2743
814.268	2826
814.41	2834
814.551	2880
814.692	2910
814.833	2792
814.974	2880
815.115	2967
815.256	2838
815.397	2845
815.539	2845
815.68	2781
815.821	2796
815.962	2925
816.103	2906
816.244	2899
816.385	2838
816.526	2994
816.666	2933
816.807	2727
816.948	2883
817.089	2914
817.23	2910
817.371	2807
817.512	2804
817.653	2849
817.793	2845
817.934	2861
818.075	2967
818.216	3001
818.356	3055
818.497	2887
818.638	2800
818.778	2830
818.919	2815
819.06	2792
819.2	2914
819.341	2807
819.481	2864
819.622	2960
819.762	3119
819.903	3036
820.043	2914
820.184	2910
820.324	2876
820.465	3032
820.605	3051
820.746	3058
820.886	2910
821.026	3093
821.167	3207
821.307	3272
821.447	3302
821.588	3253
821.728	3199
821.868	3146
822.008	3097
822.149	3169
822.289	3211
822.429	3089
822.569	3127
822.709	3222
822.849	3013
822.99	3074
823.13	3165
823.27	3188
823.41	3135
823.55	3184
823.69	3188
823.83	3214
823.97	3077
824.11	3020
824.25	2994
824.389	3077
824.529	3100
824.669	3047
824.809	3188
824.949	3279
825.089	3180
825.228	3157
825.368	2975
825.508	2956
825.648	2963
825.787	3051
825.927	3024
826.067	2956
826.206	2941
826.346	3085
826.485	3085
826.625	3119
826.765	3294
826.904	3230
827.044	3039
827.183	2933
827.323	2845
827.462	2967
827.601	2937
827.741	2944
827.88	2941
828.02	2830
828.159	2994
828.298	3077
828.437	3070
828.577	3043
828.716	3233
828.855	3077
828.994	2963
829.134	2902
829.273	2914
829.412	2861
829.551	2834
829.69	2872
829.829	2975
829.968	3142
830.107	2994
830.246	3055
830.385	2876
830.524	2868
830.663	2815
830.802	2735
830.941	2648
831.08	2621
831.219	2758
831.357	2766
831.496	2963
831.635	2720
831.774	2632
831.913	2667
832.051	2560
832.19	2575
832.329	2686
832.467	2541
832.606	2511
832.744	2568
832.883	2568
833.022	2621
833.16	2648
833.299	2682
833.437	2705
833.576	2716
833.714	2705
833.852	2705
833.991	2750
834.129	2830
834.267	2811
834.406	2800
834.544	2857
834.682	2853
834.821	2872
834.959	3066
835.097	2929
835.235	3077
835.373	2998
835.511	2998
835.65	2944
835.788	2937
835.926	2823
836.064	2766
836.202	2876
836.34	3108
836.478	3100
836.615	3036
836.753	3150
836.891	3218
837.029	3161
837.167	3089
837.305	3093
837.443	3066
837.58	2922
837.718	3146
837.856	3074
837.993	3024
838.131	3097
838.269	3135
838.406	3108
838.544	3119
838.681	2937
838.819	2918
838.956	2838
839.094	2830
839.231	2918
839.369	3020
839.506	3382
839.643	3184
839.781	3020
839.918	2956
840.055	3051
840.193	3032
840.33	3100
840.467	3123
840.604	3135
840.742	3412
840.879	3047
841.016	3074
841.153	3108
841.29	3275
841.427	3294
841.564	3260
841.701	3340
841.838	3218
841.975	3192
842.112	3214
842.249	3043
842.385	3058
842.522	3294
842.659	3108
842.796	3070
842.933	3089
843.069	3047
843.206	3066
843.343	3195
843.479	3097
843.616	3138
843.752	2902
843.889	2830
844.025	3074
844.162	2899
844.298	3077
844.435	2891
844.571	2956
844.708	3112
844.844	3214
844.98	3260
845.117	3180
845.253	3051
845.389	2979
845.525	3062
845.661	3104
845.798	2990
845.934	3135
846.07	3074
846.206	3207
846.342	3340
846.478	3233
846.614	3119
846.75	3028
846.886	3020
847.022	3275
847.158	3135
847.294	3192
847.429	3279
847.565	3195
847.701	3477
847.837	3043
847.972	3032
848.108	3157
848.244	3150
848.379	2990
848.515	2948
848.65	2952
848.786	2948
848.921	3020
849.057	3058
849.192	3157
849.328	3066
849.463	3123
849.598	3039
849.734	3005
849.869	2986
850.004	2929
850.14	2967
850.275	2910
850.41	2872
850.545	2861
850.68	2868
850.815	2963
850.95	2971
851.085	3192
851.22	3112
851.355	3062
851.49	3009
851.625	2994
851.76	2998
851.895	2929
852.03	2906
852.165	3001
852.299	3150
852.434	3180
852.569	3135
852.703	3165
852.838	3226
852.973	3321
853.107	3332
853.242	3165
853.376	3085
853.511	2952
853.645	3047
853.78	3207
853.914	3108
854.048	3066
854.183	3047
854.317	3142
854.451	3310
854.585	3146
854.72	3077
854.854	3180
854.988	3036
855.122	3108
855.256	2986
855.39	3112
855.524	3233
855.658	3176
855.792	3142
855.926	3161
856.06	3211
856.194	3211
856.327	3180
856.461	3081
856.595	3074
856.729	3127
856.862	3214
856.996	3135
857.13	3161
857.263	3214
857.397	3283
857.53	3100
857.664	3188
857.797	3253
857.931	3275
858.064	3165
858.197	3218
858.331	3100
858.464	3135
858.597	2990
858.731	3154
858.864	3142
858.997	3032
859.13	3138
859.263	3146
859.396	3188
859.529	3058
859.662	3062
859.795	3051
859.928	3116
860.061	3279
860.194	3283
860.327	3135
860.46	3062
860.592	3211
860.725	3218
860.858	3237
860.99	3127
861.123	3070
861.256	3070
861.388	3138
861.521	3903
861.653	3013
861.786	2990
861.918	3005
862.05	3081
862.183	3074
862.315	3188
862.447	3184
862.58	3093
862.712	2967
862.844	2887
862.976	3020
863.108	3020
863.24	3412
863.372	2883
863.504	2952
863.636	2971
863.768	3001
863.9	2990
864.032	2895
864.164	2952
864.296	2990
864.428	3062
864.559	3093
864.691	3055
864.823	3047
864.954	3024
865.086	3036
865.217	2986
865.349	2975
865.48	2990
865.612	3024
865.743	3165
865.875	2982
866.006	2948
866.137	2971
866.269	2952
866.4	2887
866.531	2956
866.662	2925
866.793	2902
866.924	2914
867.055	2956
867.186	2895
867.317	2883
867.448	2826
867.579	2861
867.71	2853
867.841	2823
867.972	2914
868.103	2864
868.233	2880
868.364	2872
868.495	2952
868.625	3055
868.756	3157
868.886	2994
869.017	2975
869.147	3165
869.278	3173
869.408	3051
869.539	3028
869.669	3127
869.799	2998
869.929	3104
870.06	3116
870.19	3313
870.32	3283
870.45	3302
870.58	3359
870.71	3469
870.84	3435
870.97	3283
871.1	3237
871.23	3500
871.36	3439
871.489	3351
871.619	3397
871.749	3412
871.879	3389
872.008	3450
872.138	3321
872.267	3264
872.397	3157
872.526	3077
872.656	2975
872.785	3074
872.915	3256
873.044	3336
873.173	3195
873.303	3211
873.432	3226
873.561	3245
873.69	3138
873.819	3161
873.948	3203
874.077	3093
874.206	3024
874.335	3070
874.464	3176
874.593	3348
874.722	3253
874.851	3370
874.979	3355
875.108	3329
875.237	3199
875.365	3195
875.494	3188
875.623	3203
875.751	3085
875.88	3108
876.008	3230
876.136	3233
876.265	3378
876.393	3473
876.521	3424
876.65	3386
876.778	3359
876.906	3275
877.034	3211
877.162	3192
877.29	3154
877.418	3249
877.546	3245
877.674	3275
877.802	3249
877.93	3214
878.058	3146
878.185	3070
878.313	3237
878.441	3199
878.568	3062
878.696	3138
878.824	3237
878.951	3291
879.079	3416
879.206	3545
879.333	3416
879.461	3336
879.588	3393
879.715	3462
879.842	3572
879.97	3382
880.097	3188
880.224	3157
880.351	3161
880.478	3207
880.605	3226
880.732	3184
880.859	3485
880.986	3313
881.112	3302
881.239	3222
881.366	3085
881.493	3051
881.619	3009
881.746	3074
881.872	3074
881.999	3104
882.125	3138
882.252	3233
882.378	3291
882.505	3435
882.631	3298
882.757	3123
882.883	3214
883.01	3226
883.136	3180
883.262	3100
883.388	3146
883.514	3344
883.64	3355
883.766	3287
883.892	3188
884.018	3214
884.143	3420
884.269	3526
884.395	3192
884.52	3180
884.646	3180
884.772	3138
884.897	3119
885.023	3222
885.148	3340
885.274	3462
885.399	3367
885.524	3283
885.65	3283
885.775	3317
885.9	3241
886.025	3420
886.15	3340
886.275	3294
886.4	3195
886.525	3302
886.65	3268
886.775	3268
886.9	3519
887.025	3679
887.149	3409
887.274	3275
887.399	3157
887.523	3184
887.648	3154
887.773	3169
887.897	3367
888.021	3439
888.146	3287
888.27	3412
888.395	3507
888.519	3454
888.643	3477
888.767	3443
888.891	3336
889.015	3268
889.139	3275
889.263	3222
889.387	3424
889.511	3488
889.635	3435
889.759	3317
889.883	3260
890.006	3397
890.13	3507
890.254	3241
890.377	3348
890.501	3184
890.624	3180
890.748	3298
890.871	3214
890.995	3093
891.118	3039
891.241	3180
891.364	3226
891.488	3321
891.611	3176
891.734	3237
891.857	3264
891.98	3241
892.103	3313
892.226	3226
892.349	3192
892.471	3123
892.594	3253
892.717	3256
892.839	3260
892.962	3275
893.085	3325
893.207	3268
893.33	3157
893.452	3195
893.575	3329
893.697	3218
893.819	3458
893.941	3466
894.064	3462
894.186	3279
894.308	3253
894.43	3447
894.552	3507
894.674	3454
894.796	3260
894.918	3325
895.04	3279
895.161	3386
895.283	3386
895.405	3275
895.526	3363
895.648	3431
895.769	3450
895.891	3458
896.012	3454
896.134	3443
896.255	3409
896.376	3351
896.498	3370
896.619	3420
896.74	3344
896.861	3416
896.982	3660
897.103	3850
897.224	3587
897.345	3500
897.466	3462
897.587	3473
897.708	3614
897.828	3530
897.949	3477
898.07	3310
898.19	3412
898.311	3564
898.431	3447
898.552	3492
898.672	3587
898.792	3572
898.913	3515
899.033	3435
899.153	3275
899.273	3195
899.393	3268
899.513	3294
899.633	3306
899.753	3351
899.873	3310
899.993	3363
900.113	3332
900.232	3416
900.352	3332
900.472	3298
900.591	3203
900.711	3306
900.83	3226
900.95	3386
901.069	3519
901.189	3370
901.308	3192
901.427	3142
901.546	3165
901.665	3260
901.784	3329
901.904	3203
902.023	3188
902.141	3001
902.26	2971
902.379	3104
902.498	3066
902.617	3020
902.735	3245
902.854	3272
902.973	3195
903.091	3077
903.21	3074
903.328	3119
903.446	3097
903.565	3097
903.683	3180
903.801	3108
903.919	3214
904.038	3233
904.156	3165
904.274	3264
904.392	3233
904.51	3279
904.627	3310
904.745	3469
904.863	3519
904.981	3245
905.098	3176
905.216	3233
905.334	3264
905.451	3313
905.569	3336
905.686	3393
905.803	3462
905.921	3283
906.038	3447
906.155	3313
906.272	3253
906.389	3363
906.506	3233
906.623	3272
906.74	3249
906.857	3188
906.974	3253
907.091	3428
907.208	3564
907.324	3500
907.441	3355
907.557	3214
907.674	3218
907.79	3192
907.907	3298
908.023	3389
908.139	3378
908.256	3355
908.372	3359
908.488	3351
908.604	3253
908.72	3256
908.836	3298
908.952	3268
909.068	3298
909.184	3504
909.3	3386
909.415	3507
909.531	3466
909.647	3275
909.762	3279
909.878	3230
909.993	3363
910.108	3336
910.224	3348
910.339	3409
910.454	3317
910.57	3268
910.685	3226
910.8	3557
910.915	3542
911.03	3401
911.145	3264
911.259	3245
911.374	3283
911.489	3253
911.604	3218
911.718	3097
911.833	3138
911.947	3043
912.062	2994
912.176	3165
912.291	3211
912.405	3207
912.519	3378
912.633	3485
912.748	3306
912.862	3264
912.976	3154
913.09	3085
913.204	3135
913.318	3214
913.431	3321
913.545	3291
913.659	3439
913.772	3287
913.886	3222
914	3176
914.113	3336
914.226	3428
914.34	3370
914.453	3218
914.566	3443
914.68	3237
914.793	3275
914.906	3203
915.019	3119
915.132	3066
915.245	3142
915.358	3188
915.47	3207
915.583	3275
915.696	3325
915.809	3374
915.921	3386
916.034	3211
916.146	3256
916.259	3218
916.371	3397
916.483	3329
916.595	3241
916.708	3321
916.82	3313
916.932	3351
917.044	3329
917.156	3344
917.268	3260
917.38	3313
917.491	3298
917.603	3340
917.715	3428
917.826	3424
917.938	3382
918.049	3245
918.161	3401
918.272	3561
918.384	3545
918.495	3504
918.606	3310
918.717	3230
918.828	3348
918.939	3435
919.05	3302
919.161	3359
919.272	3192
919.383	3245
919.494	3500
919.604	3679
919.715	3466
919.826	3443
919.936	3450
920.047	3557
920.157	3584
920.267	3751
920.378	3580
920.488	3557
920.598	3785
920.708	3941
920.818	3816
920.928	3831
921.038	3987
921.148	3953
921.258	3694
921.368	3599
921.477	3576
921.587	3553
921.697	3485
921.806	3644
921.916	3545
922.025	3412
922.134	3348
922.244	3329
922.353	3424
922.462	3253
922.571	3203
922.68	3119
922.789	3116
922.898	3127
923.007	3116
923.116	3203
923.224	3165
923.333	3157
923.442	3138
923.55	3062
923.659	3112
923.767	3226
923.876	3150
923.984	3222
924.092	3104
924.201	3180
924.309	3245
924.417	3214
924.525	3176
924.633	3211
924.741	4181
924.849	3047
924.956	3287
925.064	3093
925.172	3009
925.279	3097
925.387	3199
925.494	3226
925.602	3401
925.709	3336
925.816	3161
925.924	3275
926.031	3382
926.138	3329
926.245	3329
926.352	3256
926.459	3378
926.566	3519
926.673	3329
926.779	3241
926.886	3268
926.993	3150
927.099	3123
927.206	3093
927.312	3142
927.419	3222
927.525	3245
927.631	3256
927.737	3123
927.843	3142
927.95	3005
928.056	3116
928.162	3195
928.267	3275
928.373	3854
928.479	3291
928.585	3058
928.69	3192
928.796	3264
928.901	3180
929.007	3051
929.112	3214
929.218	3165
929.323	3142
929.428	3161
929.533	3321
929.638	3100
929.743	3165
929.848	3230
929.953	3233
930.058	3165
930.163	2998
930.267	3062
930.372	3226
930.477	3051
930.581	3310
930.685	3161
930.79	3074
930.894	3097
930.998	3119
931.103	3298
931.207	2975
931.311	2933
931.415	2914
931.519	2762
931.623	2811
