Data from test_V78500241_758.txt Node
Date: Fri Mar 25 16:20:27 CST 2022
User: usil
Spectrometer: V785-0024
Trigger mode: 0
Integration Time (sec): 4.000000E-1
Scans to average: 1
Nonlinearity correction enabled: false
Boxcar width: 0
Storing dark spectrum: false
XAxis mode: Wavelengths
Number of Pixels in Spectrum: 1024
>>>>>Begin Spectral Data<<<<<
801.071	2895
801.214	2937
801.356	2838
801.499	2891
801.641	2861
801.783	2906
801.926	3032
802.068	2986
802.211	2990
802.353	3028
802.496	2948
802.638	3013
802.78	3020
802.923	3070
803.065	2979
803.208	2876
803.35	2910
803.492	2952
803.635	2922
803.777	2735
803.919	2838
804.061	3173
804.204	2948
804.346	2891
804.488	2830
804.63	3020
804.773	2853
804.915	2925
805.057	3062
805.199	2963
805.341	2975
805.483	3009
805.626	3020
805.768	2937
805.91	3074
806.052	3116
806.194	3039
806.336	3241
806.478	3043
806.62	2937
806.762	2963
806.904	3039
807.046	3176
807.188	2979
807.33	2883
807.472	2998
807.614	2918
807.756	2986
807.898	2948
808.04	2880
808.182	2990
808.324	2948
808.465	2876
808.607	2861
808.749	2807
808.891	2826
809.033	2994
809.174	2990
809.316	2891
809.458	2899
809.6	2807
809.741	2762
809.883	2762
810.025	2861
810.166	2876
810.308	2876
810.45	2883
810.591	2746
810.733	2792
810.875	2857
811.016	2762
811.158	2727
811.299	2785
811.441	2922
811.582	2864
811.724	2811
811.865	2826
812.007	2891
812.148	2902
812.29	2845
812.431	2899
812.573	2944
812.714	2975
812.855	3039
812.997	3024
813.138	3173
813.279	3020
813.421	2979
813.562	2975
813.703	2849
813.845	2857
813.986	2785
814.127	2693
814.268	2819
814.41	2830
814.551	2792
814.692	2876
814.833	2834
814.974	2883
815.115	2944
815.256	2830
815.397	2792
815.539	2876
815.68	2781
815.821	2807
815.962	2944
816.103	2956
816.244	2864
816.385	2872
816.526	2963
816.666	2914
816.807	2701
816.948	2868
817.089	2910
817.23	2868
817.371	2746
817.512	2796
817.653	2834
817.793	2823
817.934	2868
818.075	2960
818.216	2986
818.356	3047
818.497	2864
818.638	2773
818.778	2796
818.919	2773
819.06	2788
819.2	2883
819.341	2815
819.481	2804
819.622	2956
819.762	3085
819.903	3017
820.043	2925
820.184	2880
820.324	2895
820.465	3032
820.605	3013
820.746	3036
820.886	2918
821.026	3108
821.167	3123
821.307	3253
821.447	3272
821.588	3214
821.728	3199
821.868	3214
822.008	3104
822.149	3154
822.289	3241
822.429	3085
822.569	3058
822.709	3142
822.849	3017
822.99	3074
823.13	3127
823.27	3211
823.41	3135
823.55	3165
823.69	3123
823.83	3192
823.97	3085
824.11	3017
824.25	2998
824.389	3047
824.529	3074
824.669	3020
824.809	3192
824.949	3287
825.089	3203
825.228	3157
825.368	2960
825.508	2937
825.648	2952
825.787	3005
825.927	3043
826.067	2971
826.206	2941
826.346	3028
826.485	3089
826.625	3093
826.765	3237
826.904	3211
827.044	2971
827.183	2918
827.323	2864
827.462	2960
827.601	2914
827.741	2899
827.88	2971
828.02	2868
828.159	2963
828.298	3032
828.437	3119
828.577	3051
828.716	3230
828.855	3074
828.994	2906
829.134	2922
829.273	2910
829.412	2876
829.551	2834
829.69	2872
829.829	2994
829.968	3123
830.107	2998
830.246	3013
830.385	2944
830.524	2902
830.663	2819
830.802	2724
830.941	2648
831.08	2644
831.219	2754
831.357	2754
831.496	2971
831.635	2743
831.774	2701
831.913	2670
832.051	2533
832.19	2575
832.329	2705
832.467	2541
832.606	2495
832.744	2564
832.883	2598
833.022	2598
833.16	2648
833.299	2686
833.437	2701
833.576	2689
833.714	2731
833.852	2731
833.991	2777
834.129	2834
834.267	2853
834.406	2750
834.544	2876
834.682	2883
834.821	2861
834.959	3058
835.097	2906
835.235	3039
835.373	2971
835.511	3024
835.65	2899
835.788	2944
835.926	2838
836.064	2796
836.202	2834
836.34	3089
836.478	3138
836.615	3051
836.753	3108
836.891	3233
837.029	3176
837.167	3077
837.305	3070
837.443	3047
837.58	2948
837.718	3142
837.856	3062
837.993	3028
838.131	3100
838.269	3077
838.406	3081
838.544	3066
838.681	2914
838.819	2910
838.956	2823
839.094	2849
839.231	2910
839.369	3005
839.506	3329
839.643	3203
839.781	2990
839.918	2967
840.055	3089
840.193	3066
840.33	3077
840.467	3039
840.604	3150
840.742	3378
840.879	3051
841.016	3055
841.153	3077
841.29	3310
841.427	3291
841.564	3302
841.701	3313
841.838	3207
841.975	3195
842.112	3241
842.249	3112
842.385	3055
842.522	3260
842.659	3074
842.796	3062
842.933	3085
843.069	3024
843.206	3032
843.343	3184
843.479	3089
843.616	3104
843.752	2902
843.889	2845
844.025	3077
844.162	2853
844.298	3070
844.435	2937
844.571	2906
844.708	3077
844.844	3169
844.98	3207
845.117	3173
845.253	3043
845.389	2948
845.525	3070
845.661	3051
845.798	2994
845.934	3108
846.07	3032
846.206	3214
846.342	3294
846.478	3291
846.614	3089
846.75	3066
846.886	2979
847.022	3249
847.158	3135
847.294	3222
847.429	3233
847.565	3218
847.701	3439
847.837	3001
847.972	2986
848.108	3157
848.244	3154
848.379	2979
848.515	2937
848.65	2941
848.786	2960
848.921	2994
849.057	3104
849.192	3108
849.328	3097
849.463	3097
849.598	3028
849.734	3013
849.869	2963
850.004	2952
850.14	2982
850.275	2922
850.41	2861
850.545	2857
850.68	2918
850.815	2982
850.95	2952
851.085	3195
851.22	3100
851.355	3028
851.49	2990
851.625	2963
851.76	3028
851.895	2925
852.03	2899
852.165	2971
852.299	3108
852.434	3180
852.569	3123
852.703	3150
852.838	3287
852.973	3321
853.107	3302
853.242	3142
853.376	3058
853.511	2929
853.645	3085
853.78	3226
853.914	3093
854.048	3100
854.183	3066
854.317	3138
854.451	3302
854.585	3146
854.72	3089
854.854	3218
854.988	3020
855.122	3070
855.256	2990
855.39	3119
855.524	3195
855.658	3173
855.792	3154
855.926	3165
856.06	3195
856.194	3230
856.327	3131
856.461	3066
856.595	3058
856.729	3104
856.862	3222
856.996	3203
857.13	3180
857.263	3233
857.397	3249
857.53	3112
857.664	3173
857.797	3233
857.931	3264
858.064	3165
858.197	3222
858.331	3127
858.464	3077
858.597	2982
858.731	3104
858.864	3112
858.997	3112
859.13	3138
859.263	3165
859.396	3199
859.529	3097
859.662	3081
859.795	3066
859.928	3154
860.061	3283
860.194	3272
860.327	3150
860.46	3081
860.592	3253
860.725	3287
860.858	3256
860.99	3081
861.123	3081
861.256	3081
861.388	3116
861.521	3854
861.653	3036
861.786	2960
861.918	2990
862.05	3058
862.183	3081
862.315	3138
862.447	3169
862.58	3062
862.712	2918
862.844	2914
862.976	3013
863.108	3009
863.24	3424
863.372	2872
863.504	2952
863.636	2986
863.768	3009
863.9	2986
864.032	2883
864.164	2948
864.296	3005
864.428	3081
864.559	3093
864.691	3089
864.823	3070
864.954	3036
865.086	3028
865.217	2982
865.349	2952
865.48	2975
865.612	3017
865.743	3119
865.875	2944
866.006	2937
866.137	2979
866.269	2960
866.4	2948
866.531	2933
866.662	2910
866.793	2895
866.924	2861
867.055	2963
867.186	2933
867.317	2842
867.448	2804
867.579	2857
867.71	2876
867.841	2834
867.972	2902
868.103	2929
868.233	2842
868.364	2861
868.495	2922
868.625	3089
868.756	3154
868.886	2975
869.017	2990
869.147	3157
869.278	3184
869.408	3062
869.539	2994
869.669	3108
869.799	3051
869.929	3146
870.06	3108
870.19	3313
870.32	3287
870.45	3348
870.58	3348
870.71	3431
870.84	3435
870.97	3313
871.1	3226
871.23	3500
871.36	3447
871.489	3355
871.619	3412
871.749	3409
871.879	3428
872.008	3447
872.138	3397
872.267	3264
872.397	3142
872.526	3077
872.656	2971
872.785	3097
872.915	3214
873.044	3336
873.173	3195
873.303	3211
873.432	3203
873.561	3245
873.69	3157
873.819	3104
873.948	3173
874.077	3081
874.206	3055
874.335	3043
874.464	3226
874.593	3329
874.722	3211
874.851	3393
874.979	3313
875.108	3302
875.237	3157
875.365	3180
875.494	3146
875.623	3226
875.751	3081
875.88	3108
876.008	3161
876.136	3233
876.265	3367
876.393	3511
876.521	3393
876.65	3386
876.778	3329
876.906	3245
877.034	3199
877.162	3226
877.29	3188
877.418	3249
877.546	3253
877.674	3218
877.802	3245
877.93	3184
878.058	3127
878.185	3100
878.313	3203
878.441	3165
878.568	3062
878.696	3184
878.824	3260
878.951	3302
879.079	3447
879.206	3614
879.333	3435
879.461	3260
879.588	3336
879.715	3462
879.842	3603
879.97	3348
880.097	3123
880.224	3097
880.351	3192
880.478	3180
880.605	3188
880.732	3207
880.859	3473
880.986	3291
881.112	3279
881.239	3195
881.366	3135
881.493	3020
881.619	2986
881.746	3074
881.872	3066
881.999	3062
882.125	3131
882.252	3214
882.378	3272
882.505	3458
882.631	3245
882.757	3157
882.883	3199
883.01	3230
883.136	3112
883.262	3119
883.388	3081
883.514	3336
883.64	3359
883.766	3294
883.892	3195
884.018	3184
884.143	3401
884.269	3515
884.395	3195
884.52	3161
884.646	3150
884.772	3074
884.897	3112
885.023	3180
885.148	3325
885.274	3405
885.399	3355
885.524	3264
885.65	3260
885.775	3329
885.9	3253
886.025	3405
886.15	3344
886.275	3287
886.4	3199
886.525	3268
886.65	3253
886.775	3291
886.9	3458
887.025	3629
887.149	3374
887.274	3241
887.399	3135
887.523	3169
887.648	3169
887.773	3211
887.897	3348
888.021	3359
888.146	3321
888.27	3424
888.395	3549
888.519	3443
888.643	3420
888.767	3397
888.891	3344
889.015	3249
889.139	3264
889.263	3199
889.387	3401
889.511	3462
889.635	3416
889.759	3241
889.883	3340
890.006	3370
890.13	3447
890.254	3310
890.377	3306
890.501	3233
890.624	3180
890.748	3302
890.871	3165
890.995	3116
891.118	3043
891.241	3188
891.364	3233
891.488	3332
891.611	3188
891.734	3207
891.857	3279
891.98	3237
892.103	3359
892.226	3306
892.349	3188
892.471	3135
892.594	3233
892.717	3317
892.839	3237
892.962	3279
893.085	3359
893.207	3321
893.33	3131
893.452	3218
893.575	3336
893.697	3241
893.819	3481
893.941	3492
894.064	3447
894.186	3230
894.308	3264
894.43	3450
894.552	3564
894.674	3473
894.796	3260
894.918	3306
895.04	3283
895.161	3443
895.283	3355
895.405	3313
895.526	3336
895.648	3405
895.769	3386
895.891	3420
896.012	3454
896.134	3450
896.255	3412
896.376	3359
896.498	3363
896.619	3435
896.74	3386
896.861	3389
896.982	3663
897.103	3850
897.224	3622
897.345	3561
897.466	3401
897.587	3481
897.708	3568
897.828	3568
897.949	3416
898.07	3321
898.19	3393
898.311	3576
898.431	3431
898.552	3481
898.672	3595
898.792	3561
898.913	3507
899.033	3431
899.153	3283
899.273	3249
899.393	3249
899.513	3325
899.633	3298
899.753	3317
899.873	3272
899.993	3393
900.113	3355
900.232	3397
900.352	3355
900.472	3279
900.591	3192
900.711	3348
900.83	3249
900.95	3397
901.069	3488
901.189	3313
901.308	3180
901.427	3112
901.546	3203
901.665	3275
901.784	3329
901.904	3180
902.023	3127
902.141	2975
902.26	3001
902.379	3116
902.498	3077
902.617	3066
902.735	3180
902.854	3256
902.973	3173
903.091	3077
903.21	3081
903.328	3161
903.446	3055
903.565	3070
903.683	3199
903.801	3135
903.919	3245
904.038	3264
904.156	3188
904.274	3260
904.392	3226
904.51	3294
904.627	3313
904.745	3401
904.863	3519
904.981	3230
905.098	3157
905.216	3218
905.334	3321
905.451	3310
905.569	3321
905.686	3420
905.803	3443
905.921	3294
906.038	3424
906.155	3340
906.272	3226
906.389	3332
906.506	3245
906.623	3268
906.74	3256
906.857	3146
906.974	3253
907.091	3424
907.208	3568
907.324	3454
907.441	3374
907.557	3245
907.674	3230
907.79	3222
907.907	3283
908.023	3382
908.139	3363
908.256	3351
908.372	3359
908.488	3370
908.604	3275
908.72	3245
908.836	3249
908.952	3272
909.068	3363
909.184	3504
909.3	3370
909.415	3515
909.531	3473
909.647	3268
909.762	3317
909.878	3264
909.993	3351
910.108	3359
910.224	3329
910.339	3409
910.454	3378
910.57	3298
910.685	3253
910.8	3584
910.915	3526
911.03	3439
911.145	3253
911.259	3283
911.374	3287
911.489	3233
911.604	3222
911.718	3104
911.833	3161
911.947	3058
912.062	2948
912.176	3123
912.291	3184
912.405	3211
912.519	3409
912.633	3466
912.748	3367
912.862	3245
912.976	3207
913.09	3093
913.204	3131
913.318	3199
913.431	3317
913.545	3329
913.659	3351
913.772	3302
913.886	3233
914	3192
914.113	3340
914.226	3382
914.34	3340
914.453	3203
914.566	3389
914.68	3287
914.793	3279
914.906	3142
915.019	3112
915.132	3062
915.245	3184
915.358	3199
915.47	3203
915.583	3253
915.696	3298
915.809	3443
915.921	3389
916.034	3245
916.146	3268
916.259	3222
916.371	3359
916.483	3325
916.595	3237
916.708	3359
916.82	3336
916.932	3325
917.044	3351
917.156	3336
917.268	3237
917.38	3317
917.491	3291
917.603	3321
917.715	3450
917.826	3496
917.938	3378
918.049	3249
918.161	3389
918.272	3538
918.384	3591
918.495	3488
918.606	3298
918.717	3283
918.828	3386
918.939	3435
919.05	3291
919.161	3332
919.272	3157
919.383	3253
919.494	3519
919.604	3633
919.715	3504
919.826	3397
919.936	3424
920.047	3561
920.157	3545
920.267	3751
920.378	3591
920.488	3606
920.598	3755
920.708	3937
920.818	3808
920.928	3827
921.038	3994
921.148	3964
921.258	3720
921.368	3625
921.477	3572
921.587	3519
921.697	3450
921.806	3618
921.916	3504
922.025	3355
922.134	3344
922.244	3313
922.353	3431
922.462	3264
922.571	3211
922.68	3097
922.789	3024
922.898	3135
923.007	3070
923.116	3180
923.224	3146
923.333	3218
923.442	3108
923.55	3100
923.659	3142
923.767	3211
923.876	3123
923.984	3230
924.092	3112
924.201	3176
924.309	3218
924.417	3241
924.525	3249
924.633	3245
924.741	4188
924.849	3047
924.956	3245
925.064	3066
925.172	3017
925.279	3089
925.387	3184
925.494	3195
925.602	3389
925.709	3344
925.816	3192
925.924	3291
926.031	3367
926.138	3272
926.245	3336
926.352	3275
926.459	3397
926.566	3469
926.673	3321
926.779	3211
926.886	3222
926.993	3135
927.099	3085
927.206	3093
927.312	3085
927.419	3184
927.525	3184
927.631	3241
927.737	3146
927.843	3157
927.95	3047
928.056	3116
928.162	3176
928.267	3207
928.373	3747
928.479	3325
928.585	3077
928.69	3233
928.796	3245
928.901	3173
929.007	3024
929.112	3165
929.218	3184
929.323	3116
929.428	3127
929.533	3336
929.638	3131
929.743	3154
929.848	3268
929.953	3211
930.058	3127
930.163	3009
930.267	3081
930.372	3154
930.477	3032
930.581	3298
930.685	3173
930.79	3039
930.894	3123
930.998	3119
931.103	3268
931.207	2937
931.311	2918
931.415	2918
931.519	2773
931.623	2823
