Data from test_V78500241_1021.txt Node
Date: Fri Mar 25 16:22:16 CST 2022
User: usil
Spectrometer: V785-0024
Trigger mode: 0
Integration Time (sec): 4.000000E-1
Scans to average: 1
Nonlinearity correction enabled: false
Boxcar width: 0
Storing dark spectrum: false
XAxis mode: Wavelengths
Number of Pixels in Spectrum: 1024
>>>>>Begin Spectral Data<<<<<
801.071	2922
801.214	2910
801.356	2857
801.499	2899
801.641	2815
801.783	2925
801.926	3043
802.068	2956
802.211	2975
802.353	3032
802.496	2937
802.638	2986
802.78	3005
802.923	3066
803.065	2994
803.208	2891
803.35	2902
803.492	2963
803.635	2899
803.777	2746
803.919	2830
804.061	3211
804.204	2937
804.346	2868
804.488	2857
804.63	3009
804.773	2872
804.915	2906
805.057	3085
805.199	2918
805.341	2967
805.483	3005
805.626	2960
805.768	2982
805.91	3070
806.052	3074
806.194	3013
806.336	3253
806.478	3020
806.62	2948
806.762	2986
806.904	3028
807.046	3169
807.188	2994
807.33	2861
807.472	2941
807.614	2887
807.756	2963
807.898	2941
808.04	2887
808.182	2986
808.324	2944
808.465	2880
808.607	2853
808.749	2785
808.891	2830
809.033	2948
809.174	2986
809.316	2891
809.458	2906
809.6	2739
809.741	2792
809.883	2769
810.025	2845
810.166	2857
810.308	2845
810.45	2845
810.591	2792
810.733	2735
810.875	2838
811.016	2788
811.158	2731
811.299	2838
811.441	2933
811.582	2864
811.724	2830
811.865	2830
812.007	2891
812.148	2861
812.29	2830
812.431	2899
812.573	2925
812.714	2925
812.855	3055
812.997	3066
813.138	3100
813.279	3032
813.421	2975
813.562	2952
813.703	2891
813.845	2880
813.986	2766
814.127	2746
814.268	2857
814.41	2838
814.551	2819
814.692	2899
814.833	2815
814.974	2876
815.115	2948
815.256	2807
815.397	2804
815.539	2842
815.68	2762
815.821	2746
815.962	2941
816.103	2929
816.244	2872
816.385	2899
816.526	2944
816.666	2891
816.807	2754
816.948	2899
817.089	2887
817.23	2868
817.371	2773
817.512	2750
817.653	2845
817.793	2834
817.934	2857
818.075	2956
818.216	2906
818.356	3001
818.497	2845
818.638	2804
818.778	2796
818.919	2800
819.06	2746
819.2	2815
819.341	2792
819.481	2819
819.622	2910
819.762	3131
819.903	2990
820.043	2925
820.184	2906
820.324	2887
820.465	3017
820.605	3028
820.746	3066
820.886	2902
821.026	3077
821.167	3131
821.307	3272
821.447	3272
821.588	3256
821.728	3169
821.868	3184
822.008	3089
822.149	3203
822.289	3245
822.429	3108
822.569	3066
822.709	3180
822.849	3039
822.99	3058
823.13	3176
823.27	3195
823.41	3135
823.55	3116
823.69	3161
823.83	3180
823.97	3058
824.11	3032
824.25	2979
824.389	3036
824.529	3112
824.669	3070
824.809	3195
824.949	3230
825.089	3161
825.228	3119
825.368	3032
825.508	2929
825.648	2986
825.787	3020
825.927	3039
826.067	2971
826.206	2944
826.346	3055
826.485	3055
826.625	3077
826.765	3241
826.904	3195
827.044	2979
827.183	2925
827.323	2819
827.462	3020
827.601	2883
827.741	2925
827.88	2952
828.02	2834
828.159	2963
828.298	3047
828.437	3119
828.577	3028
828.716	3195
828.855	3093
828.994	2922
829.134	2899
829.273	2906
829.412	2845
829.551	2849
829.69	2906
829.829	2944
829.968	3119
830.107	3028
830.246	3032
830.385	2933
830.524	2895
830.663	2819
830.802	2686
830.941	2629
831.08	2648
831.219	2731
831.357	2712
831.496	2948
831.635	2674
831.774	2651
831.913	2648
832.051	2549
832.19	2579
832.329	2621
832.467	2549
832.606	2499
832.744	2590
832.883	2579
833.022	2579
833.16	2651
833.299	2655
833.437	2716
833.576	2697
833.714	2701
833.852	2754
833.991	2750
834.129	2830
834.267	2864
834.406	2792
834.544	2861
834.682	2864
834.821	2853
834.959	3074
835.097	2899
835.235	3043
835.373	3001
835.511	3036
835.65	2933
835.788	2960
835.926	2834
836.064	2807
836.202	2830
836.34	3077
836.478	3157
836.615	3024
836.753	3127
836.891	3180
837.029	3123
837.167	3081
837.305	3077
837.443	3055
837.58	2971
837.718	3138
837.856	3058
837.993	3009
838.131	3108
838.269	3108
838.406	3055
838.544	3127
838.681	2971
838.819	2933
838.956	2796
839.094	2811
839.231	2925
839.369	3020
839.506	3378
839.643	3207
839.781	3017
839.918	2902
840.055	3036
840.193	3051
840.33	3100
840.467	3055
840.604	3138
840.742	3340
840.879	3039
841.016	3047
841.153	3108
841.29	3340
841.427	3291
841.564	3233
841.701	3287
841.838	3218
841.975	3161
842.112	3211
842.249	3070
842.385	3020
842.522	3260
842.659	3058
842.796	3058
842.933	3074
843.069	3028
843.206	2998
843.343	3157
843.479	3116
843.616	3085
843.752	2914
843.889	2880
844.025	3081
844.162	2887
844.298	3028
844.435	2956
844.571	2925
844.708	3108
844.844	3195
844.98	3268
845.117	3169
845.253	3055
845.389	3009
845.525	3097
845.661	3116
845.798	2990
845.934	3085
846.07	3062
846.206	3245
846.342	3317
846.478	3207
846.614	3100
846.75	3043
846.886	3036
847.022	3249
847.158	3123
847.294	3154
847.429	3237
847.565	3203
847.701	3469
847.837	3001
847.972	2971
848.108	3135
848.244	3119
848.379	2967
848.515	2922
848.65	2922
848.786	2948
848.921	2982
849.057	3066
849.192	3131
849.328	3047
849.463	3093
849.598	3066
849.734	3024
849.869	2937
850.004	2941
850.14	2967
850.275	2902
850.41	2842
850.545	2880
850.68	2910
850.815	2982
850.95	3001
851.085	3173
851.22	3093
851.355	3039
851.49	2944
851.625	2979
851.76	3017
851.895	2933
852.03	2895
852.165	3032
852.299	3100
852.434	3169
852.569	3112
852.703	3207
852.838	3272
852.973	3332
853.107	3332
853.242	3100
853.376	3085
853.511	2971
853.645	3013
853.78	3188
853.914	3127
854.048	3077
854.183	3077
854.317	3123
854.451	3294
854.585	3127
854.72	3058
854.854	3203
854.988	3062
855.122	3066
855.256	2960
855.39	3089
855.524	3218
855.658	3214
855.792	3142
855.926	3135
856.06	3211
856.194	3241
856.327	3142
856.461	3055
856.595	3097
856.729	3097
856.862	3184
856.996	3165
857.13	3192
857.263	3211
857.397	3256
857.53	3154
857.664	3199
857.797	3268
857.931	3272
858.064	3127
858.197	3233
858.331	3123
858.464	3119
858.597	3005
858.731	3123
858.864	3100
858.997	3047
859.13	3146
859.263	3161
859.396	3214
859.529	3036
859.662	3093
859.795	3070
859.928	3161
860.061	3249
860.194	3256
860.327	3127
860.46	3051
860.592	3226
860.725	3233
860.858	3230
860.99	3066
861.123	3062
861.256	3055
861.388	3157
861.521	3827
861.653	2998
861.786	2963
861.918	2998
862.05	3024
862.183	3081
862.315	3112
862.447	3207
862.58	3112
862.712	2956
862.844	2899
862.976	3043
863.108	3009
863.24	3428
863.372	2883
863.504	2902
863.636	2933
863.768	3017
863.9	3005
864.032	2887
864.164	2967
864.296	3017
864.428	3085
864.559	3093
864.691	3039
864.823	3077
864.954	3043
865.086	3036
865.217	2960
865.349	2967
865.48	3001
865.612	3009
865.743	3131
865.875	2960
866.006	2956
866.137	2948
866.269	2929
866.4	2944
866.531	2872
866.662	2868
866.793	2876
866.924	2883
867.055	2979
867.186	2895
867.317	2845
867.448	2849
867.579	2868
867.71	2815
867.841	2804
867.972	2899
868.103	2899
868.233	2868
868.364	2864
868.495	2929
868.625	3089
868.756	3146
868.886	2982
869.017	3028
869.147	3135
869.278	3138
869.408	3047
869.539	3009
869.669	3077
869.799	2998
869.929	3146
870.06	3142
870.19	3332
870.32	3310
870.45	3325
870.58	3321
870.71	3435
870.84	3492
870.97	3310
871.1	3237
871.23	3454
871.36	3443
871.489	3313
871.619	3401
871.749	3401
871.879	3405
872.008	3447
872.138	3355
872.267	3256
872.397	3157
872.526	3077
872.656	3039
872.785	3070
872.915	3222
873.044	3313
873.173	3233
873.303	3260
873.432	3253
873.561	3211
873.69	3100
873.819	3184
873.948	3184
874.077	3081
874.206	3039
874.335	3108
874.464	3211
874.593	3370
874.722	3245
874.851	3386
874.979	3306
875.108	3340
875.237	3146
875.365	3192
875.494	3173
875.623	3249
875.751	3066
875.88	3085
876.008	3199
876.136	3207
876.265	3382
876.393	3504
876.521	3386
876.65	3367
876.778	3302
876.906	3230
877.034	3176
877.162	3211
877.29	3176
877.418	3230
877.546	3249
877.674	3241
877.802	3188
877.93	3207
878.058	3146
878.185	3097
878.313	3230
878.441	3195
878.568	3066
878.696	3135
878.824	3249
878.951	3306
879.079	3412
879.206	3591
879.333	3397
879.461	3329
879.588	3310
879.715	3492
879.842	3622
879.97	3336
880.097	3161
880.224	3112
880.351	3150
880.478	3211
880.605	3173
880.732	3173
880.859	3469
880.986	3302
881.112	3340
881.239	3233
881.366	3062
881.493	3005
881.619	3024
881.746	3009
881.872	3081
881.999	3097
882.125	3131
882.252	3237
882.378	3317
882.505	3393
882.631	3336
882.757	3142
882.883	3199
883.01	3199
883.136	3150
883.262	3104
883.388	3104
883.514	3317
883.64	3336
883.766	3321
883.892	3165
884.018	3211
884.143	3382
884.269	3534
884.395	3218
884.52	3161
884.646	3131
884.772	3127
884.897	3077
885.023	3161
885.148	3340
885.274	3397
885.399	3370
885.524	3298
885.65	3241
885.775	3291
885.9	3241
886.025	3401
886.15	3344
886.275	3291
886.4	3256
886.525	3321
886.65	3283
886.775	3241
886.9	3500
887.025	3572
887.149	3382
887.274	3184
887.399	3199
887.523	3165
887.648	3161
887.773	3138
887.897	3367
888.021	3386
888.146	3310
888.27	3424
888.395	3538
888.519	3416
888.643	3431
888.767	3443
888.891	3264
889.015	3226
889.139	3268
889.263	3222
889.387	3355
889.511	3507
889.635	3431
889.759	3268
889.883	3306
890.006	3389
890.13	3450
890.254	3268
890.377	3336
890.501	3195
890.624	3195
890.748	3264
890.871	3184
890.995	3119
891.118	3055
891.241	3142
891.364	3211
891.488	3287
891.611	3116
891.734	3249
891.857	3287
891.98	3268
892.103	3351
892.226	3249
892.349	3199
892.471	3093
892.594	3195
892.717	3283
892.839	3294
892.962	3256
893.085	3317
893.207	3313
893.33	3157
893.452	3199
893.575	3260
893.697	3256
893.819	3454
893.941	3462
894.064	3420
894.186	3268
894.308	3256
894.43	3454
894.552	3515
894.674	3507
894.796	3253
894.918	3344
895.04	3272
895.161	3389
895.283	3397
895.405	3321
895.526	3351
895.648	3401
895.769	3378
895.891	3431
896.012	3439
896.134	3447
896.255	3393
896.376	3401
896.498	3382
896.619	3462
896.74	3374
896.861	3409
896.982	3705
897.103	3827
897.224	3595
897.345	3504
897.466	3439
897.587	3488
897.708	3622
897.828	3530
897.949	3435
898.07	3310
898.19	3393
898.311	3606
898.431	3435
898.552	3473
898.672	3633
898.792	3580
898.913	3530
899.033	3389
899.153	3249
899.273	3195
899.393	3287
899.513	3291
899.633	3302
899.753	3351
899.873	3291
899.993	3363
900.113	3321
900.232	3401
900.352	3317
900.472	3275
900.591	3184
900.711	3279
900.83	3249
900.95	3401
901.069	3515
901.189	3329
901.308	3203
901.427	3135
901.546	3214
901.665	3313
901.784	3317
901.904	3176
902.023	3100
902.141	2990
902.26	2967
902.379	3077
902.498	3074
902.617	3051
902.735	3184
902.854	3211
902.973	3195
903.091	3036
903.21	3097
903.328	3146
903.446	3066
903.565	3127
903.683	3226
903.801	3165
903.919	3237
904.038	3260
904.156	3150
904.274	3287
904.392	3241
904.51	3268
904.627	3336
904.745	3439
904.863	3473
904.981	3226
905.098	3150
905.216	3230
905.334	3253
905.451	3275
905.569	3268
905.686	3435
905.803	3469
905.921	3291
906.038	3378
906.155	3321
906.272	3275
906.389	3321
906.506	3199
906.623	3260
906.74	3253
906.857	3188
906.974	3253
907.091	3435
907.208	3568
907.324	3447
907.441	3359
907.557	3237
907.674	3237
907.79	3237
907.907	3283
908.023	3370
908.139	3363
908.256	3325
908.372	3363
908.488	3370
908.604	3329
908.72	3222
908.836	3260
908.952	3249
909.068	3325
909.184	3492
909.3	3401
909.415	3519
909.531	3473
909.647	3260
909.762	3344
909.878	3287
909.993	3378
910.108	3355
910.224	3321
910.339	3439
910.454	3321
910.57	3306
910.685	3275
910.8	3629
910.915	3542
911.03	3488
911.145	3291
911.259	3329
911.374	3382
911.489	3241
911.604	3230
911.718	3184
911.833	3180
911.947	3097
912.062	2998
912.176	3218
912.291	3207
912.405	3249
912.519	3488
912.633	3488
912.748	3367
912.862	3355
912.976	3237
913.09	3081
913.204	3173
913.318	3237
913.431	3424
913.545	3344
913.659	3462
913.772	3359
913.886	3279
914	3230
914.113	3393
914.226	3439
914.34	3420
914.453	3256
914.566	3424
914.68	3329
914.793	3321
914.906	3173
915.019	3154
915.132	3108
915.245	3249
915.358	3237
915.47	3260
915.583	3291
915.696	3317
915.809	3458
915.921	3450
916.034	3321
916.146	3253
916.259	3291
916.371	3447
916.483	3409
916.595	3321
916.708	3374
916.82	3382
916.932	3378
917.044	3424
917.156	3401
917.268	3256
917.38	3325
917.491	3332
917.603	3405
917.715	3492
917.826	3519
917.938	3431
918.049	3325
918.161	3420
918.272	3606
918.384	3652
918.495	3538
918.606	3378
918.717	3298
918.828	3386
918.939	3370
919.05	3344
919.161	3416
919.272	3203
919.383	3344
919.494	3530
919.604	3740
919.715	3523
919.826	3428
919.936	3492
920.047	3614
920.157	3591
920.267	3835
920.378	3648
920.488	3622
920.598	3789
920.708	4032
920.818	3835
920.928	3827
921.038	4048
921.148	4051
921.258	3705
921.368	3644
921.477	3584
921.587	3572
921.697	3553
921.806	3660
921.916	3534
922.025	3382
922.134	3329
922.244	3321
922.353	3443
922.462	3313
922.571	3256
922.68	3150
922.789	3135
922.898	3184
923.007	3142
923.116	3222
923.224	3203
923.333	3184
923.442	3123
923.55	3138
923.659	3135
923.767	3214
923.876	3142
923.984	3272
924.092	3112
924.201	3245
924.309	3241
924.417	3264
924.525	3203
924.633	3272
924.741	4207
924.849	3074
924.956	3272
925.064	3150
925.172	3077
925.279	3180
925.387	3222
925.494	3203
925.602	3382
925.709	3355
925.816	3195
925.924	3268
926.031	3367
926.138	3336
926.245	3359
926.352	3287
926.459	3454
926.566	3545
926.673	3363
926.779	3279
926.886	3283
926.993	3207
927.099	3146
927.206	3135
927.312	3157
927.419	3233
927.525	3245
927.631	3306
927.737	3176
927.843	3157
927.95	3043
928.056	3195
928.162	3233
928.267	3298
928.373	3876
928.479	3374
928.585	3081
928.69	3237
928.796	3283
928.901	3154
929.007	3104
929.112	3207
929.218	3203
929.323	3180
929.428	3192
929.533	3340
929.638	3157
929.743	3211
929.848	3298
929.953	3230
930.058	3176
930.163	3020
930.267	3089
930.372	3237
930.477	3066
930.581	3344
930.685	3184
930.79	3085
930.894	3150
930.998	3176
931.103	3294
931.207	2998
931.311	3009
931.415	2963
931.519	2811
931.623	2838
