Data from test_V78500241_1335.txt Node
Date: Fri Mar 25 16:24:27 CST 2022
User: usil
Spectrometer: V785-0024
Trigger mode: 0
Integration Time (sec): 4.000000E-1
Scans to average: 1
Nonlinearity correction enabled: false
Boxcar width: 0
Storing dark spectrum: false
XAxis mode: Wavelengths
Number of Pixels in Spectrum: 1024
>>>>>Begin Spectral Data<<<<<
801.071	2910
801.214	2902
801.356	2838
801.499	2868
801.641	2891
801.783	2922
801.926	3039
802.068	2975
802.211	3013
802.353	3020
802.496	2944
802.638	3001
802.78	3009
802.923	3077
803.065	2979
803.208	2906
803.35	2910
803.492	2941
803.635	2895
803.777	2762
803.919	2853
804.061	3150
804.204	2914
804.346	2899
804.488	2853
804.63	2982
804.773	2880
804.915	2910
805.057	3058
805.199	2929
805.341	2952
805.483	3058
805.626	2998
805.768	2967
805.91	3081
806.052	3104
806.194	3020
806.336	3173
806.478	3047
806.62	2941
806.762	2914
806.904	3013
807.046	3161
807.188	2956
807.33	2933
807.472	2960
807.614	2868
807.756	2967
807.898	2960
808.04	2883
808.182	2918
808.324	2937
808.465	2868
808.607	2872
808.749	2769
808.891	2853
809.033	2941
809.174	2967
809.316	2899
809.458	2895
809.6	2758
809.741	2739
809.883	2766
810.025	2815
810.166	2845
810.308	2807
810.45	2861
810.591	2769
810.733	2739
810.875	2857
811.016	2735
811.158	2762
811.299	2811
811.441	2880
811.582	2880
811.724	2842
811.865	2807
812.007	2906
812.148	2880
812.29	2834
812.431	2891
812.573	2918
812.714	2941
812.855	3074
812.997	3017
813.138	3104
813.279	3028
813.421	2986
813.562	2933
813.703	2864
813.845	2887
813.986	2788
814.127	2727
814.268	2819
814.41	2857
814.551	2792
814.692	2902
814.833	2804
814.974	2883
815.115	2922
815.256	2796
815.397	2842
815.539	2842
815.68	2773
815.821	2785
815.962	2922
816.103	2914
816.244	2845
816.385	2826
816.526	2948
816.666	2883
816.807	2727
816.948	2868
817.089	2914
817.23	2849
817.371	2766
817.512	2785
817.653	2796
817.793	2853
817.934	2857
818.075	2948
818.216	2971
818.356	2994
818.497	2887
818.638	2800
818.778	2800
818.919	2792
819.06	2735
819.2	2883
819.341	2785
819.481	2792
819.622	2883
819.762	3093
819.903	3005
820.043	2857
820.184	2918
820.324	2880
820.465	3009
820.605	2982
820.746	3005
820.886	2891
821.026	3051
821.167	3142
821.307	3237
821.447	3287
821.588	3218
821.728	3180
821.868	3165
822.008	3047
822.149	3142
822.289	3233
822.429	3093
822.569	3116
822.709	3161
822.849	3017
822.99	3013
823.13	3146
823.27	3192
823.41	3112
823.55	3112
823.69	3146
823.83	3161
823.97	3100
824.11	2975
824.25	2990
824.389	3058
824.529	3108
824.669	3036
824.809	3214
824.949	3233
825.089	3184
825.228	3077
825.368	3009
825.508	2967
825.648	2956
825.787	3001
825.927	3005
826.067	2963
826.206	2956
826.346	3024
826.485	3077
826.625	3119
826.765	3279
826.904	3184
827.044	2998
827.183	2941
827.323	2864
827.462	2990
827.601	2883
827.741	2937
827.88	2982
828.02	2887
828.159	2979
828.298	3020
828.437	3077
828.577	3036
828.716	3275
828.855	3070
828.994	2956
829.134	2887
829.273	2933
829.412	2895
829.551	2868
829.69	2914
829.829	3009
829.968	3165
830.107	3005
830.246	3066
830.385	2933
830.524	2891
830.663	2864
830.802	2769
830.941	2693
831.08	2670
831.219	2785
831.357	2807
831.496	2979
831.635	2754
831.774	2678
831.913	2663
832.051	2571
832.19	2621
832.329	2689
832.467	2598
832.606	2511
832.744	2625
832.883	2594
833.022	2629
833.16	2708
833.299	2746
833.437	2720
833.576	2762
833.714	2777
833.852	2769
833.991	2785
834.129	2895
834.267	2868
834.406	2853
834.544	2880
834.682	2902
834.821	2937
834.959	3116
835.097	2929
835.235	3085
835.373	3020
835.511	3028
835.65	3001
835.788	3028
835.926	2880
836.064	2845
836.202	2857
836.34	3112
836.478	3146
836.615	3089
836.753	3173
836.891	3241
837.029	3199
837.167	3161
837.305	3081
837.443	3081
837.58	2979
837.718	3169
837.856	3108
837.993	3058
838.131	3131
838.269	3127
838.406	3104
838.544	3142
838.681	3009
838.819	2929
838.956	2830
839.094	2876
839.231	2929
839.369	3066
839.506	3412
839.643	3287
839.781	3017
839.918	2994
840.055	3108
840.193	3081
840.33	3062
840.467	3138
840.604	3207
840.742	3439
840.879	3070
841.016	3055
841.153	3173
841.29	3370
841.427	3359
841.564	3294
841.701	3321
841.838	3268
841.975	3226
842.112	3249
842.249	3119
842.385	3097
842.522	3294
842.659	3127
842.796	3081
842.933	3127
843.069	3081
843.206	3062
843.343	3199
843.479	3142
843.616	3123
843.752	2937
843.889	2929
844.025	3123
844.162	2880
844.298	3081
844.435	2994
844.571	2929
844.708	3093
844.844	3203
844.98	3253
845.117	3203
845.253	3081
845.389	3020
845.525	3119
845.661	3157
845.798	3032
845.934	3165
846.07	3108
846.206	3218
846.342	3302
846.478	3218
846.614	3104
846.75	3039
846.886	3024
847.022	3275
847.158	3146
847.294	3253
847.429	3256
847.565	3203
847.701	3500
847.837	3028
847.972	2986
848.108	3226
848.244	3138
848.379	2998
848.515	2975
848.65	2960
848.786	2971
848.921	3032
849.057	3116
849.192	3169
849.328	3085
849.463	3100
849.598	3077
849.734	3055
849.869	3005
850.004	2948
850.14	2990
850.275	2963
850.41	2864
850.545	2918
850.68	2918
850.815	2979
850.95	2975
851.085	3195
851.22	3135
851.355	3047
851.49	2998
851.625	3017
851.76	3043
851.895	2967
852.03	2929
852.165	3028
852.299	3157
852.434	3207
852.569	3161
852.703	3237
852.838	3279
852.973	3389
853.107	3370
853.242	3142
853.376	3108
853.511	3005
853.645	3036
853.78	3268
853.914	3138
854.048	3100
854.183	3116
854.317	3119
854.451	3306
854.585	3142
854.72	3051
854.854	3218
854.988	3093
855.122	3100
855.256	3013
855.39	3157
855.524	3233
855.658	3184
855.792	3169
855.926	3237
856.06	3253
856.194	3275
856.327	3161
856.461	3062
856.595	3100
856.729	3116
856.862	3253
856.996	3207
857.13	3180
857.263	3245
857.397	3279
857.53	3127
857.664	3268
857.797	3241
857.931	3283
858.064	3199
858.197	3275
858.331	3161
858.464	3146
858.597	3020
858.731	3146
858.864	3157
858.997	3112
859.13	3188
859.263	3169
859.396	3203
859.529	3123
859.662	3066
859.795	3070
859.928	3180
860.061	3283
860.194	3313
860.327	3173
860.46	3116
860.592	3253
860.725	3294
860.858	3291
860.99	3146
861.123	3058
861.256	3020
861.388	3138
861.521	3701
861.653	3066
861.786	2998
861.918	3058
862.05	3089
862.183	3131
862.315	3195
862.447	3230
862.58	3150
862.712	2986
862.844	2906
862.976	3062
863.108	3066
863.24	3367
863.372	2910
863.504	2986
863.636	2944
863.768	3055
863.9	3020
864.032	2971
864.164	2994
864.296	3043
864.428	3116
864.559	3169
864.691	3085
864.823	3081
864.954	3058
865.086	3074
865.217	3001
865.349	2933
865.48	2994
865.612	3043
865.743	3131
865.875	3001
866.006	2952
866.137	2982
866.269	2952
866.4	2960
866.531	2910
866.662	2906
866.793	2922
866.924	2906
867.055	2982
867.186	2963
867.317	2895
867.448	2861
867.579	2864
867.71	2845
867.841	2853
867.972	2914
868.103	2956
868.233	2883
868.364	2956
868.495	2914
868.625	3085
868.756	3169
868.886	3013
869.017	3039
869.147	3165
869.278	3192
869.408	3043
869.539	3028
869.669	3104
869.799	3081
869.929	3157
870.06	3165
870.19	3344
870.32	3325
870.45	3313
870.58	3367
870.71	3454
870.84	3466
870.97	3310
871.1	3268
871.23	3542
871.36	3481
871.489	3363
871.619	3424
871.749	3447
871.879	3450
872.008	3523
872.138	3409
872.267	3313
872.397	3184
872.526	3131
872.656	3036
872.785	3135
872.915	3268
873.044	3294
873.173	3245
873.303	3260
873.432	3249
873.561	3253
873.69	3142
873.819	3199
873.948	3237
874.077	3100
874.206	3062
874.335	3123
874.464	3222
874.593	3359
874.722	3230
874.851	3428
874.979	3378
875.108	3351
875.237	3192
875.365	3184
875.494	3161
875.623	3268
875.751	3108
875.88	3104
876.008	3218
876.136	3230
876.265	3355
876.393	3519
876.521	3428
876.65	3374
876.778	3348
876.906	3287
877.034	3211
877.162	3245
877.29	3199
877.418	3253
877.546	3264
877.674	3275
877.802	3256
877.93	3230
878.058	3165
878.185	3123
878.313	3192
878.441	3214
878.568	3097
878.696	3169
878.824	3241
878.951	3325
879.079	3416
879.206	3652
879.333	3397
879.461	3344
879.588	3378
879.715	3485
879.842	3572
879.97	3416
880.097	3165
880.224	3150
880.351	3211
880.478	3256
880.605	3199
880.732	3211
880.859	3511
880.986	3325
881.112	3325
881.239	3199
881.366	3150
881.493	3028
881.619	3062
881.746	3100
881.872	3112
881.999	3097
882.125	3157
882.252	3275
882.378	3332
882.505	3439
882.631	3306
882.757	3157
882.883	3203
883.01	3249
883.136	3237
883.262	3089
883.388	3131
883.514	3302
883.64	3420
883.766	3336
883.892	3188
884.018	3253
884.143	3393
884.269	3591
884.395	3211
884.52	3157
884.646	3203
884.772	3142
884.897	3116
885.023	3233
885.148	3336
885.274	3466
885.399	3393
885.524	3325
885.65	3291
885.775	3313
885.9	3313
886.025	3416
886.15	3363
886.275	3272
886.4	3222
886.525	3325
886.65	3260
886.775	3291
886.9	3504
887.025	3633
887.149	3382
887.274	3294
887.399	3203
887.523	3195
887.648	3192
887.773	3203
887.897	3363
888.021	3363
888.146	3279
888.27	3447
888.395	3538
888.519	3462
888.643	3496
888.767	3473
888.891	3306
889.015	3275
889.139	3279
889.263	3264
889.387	3393
889.511	3504
889.635	3443
889.759	3310
889.883	3302
890.006	3355
890.13	3496
890.254	3302
890.377	3363
890.501	3233
890.624	3188
890.748	3332
890.871	3180
890.995	3131
891.118	3093
891.241	3218
891.364	3218
891.488	3340
891.611	3199
891.734	3218
891.857	3272
891.98	3245
892.103	3336
892.226	3256
892.349	3241
892.471	3169
892.594	3253
892.717	3279
892.839	3272
892.962	3298
893.085	3329
893.207	3291
893.33	3154
893.452	3207
893.575	3359
893.697	3218
893.819	3515
893.941	3515
894.064	3496
894.186	3283
894.308	3268
894.43	3431
894.552	3557
894.674	3466
894.796	3298
894.918	3306
895.04	3321
895.161	3409
895.283	3363
895.405	3317
895.526	3359
895.648	3409
895.769	3409
895.891	3496
896.012	3473
896.134	3488
896.255	3401
896.376	3412
896.498	3378
896.619	3454
896.74	3348
896.861	3412
896.982	3679
897.103	3850
897.224	3584
897.345	3515
897.466	3466
897.587	3538
897.708	3652
897.828	3553
897.949	3458
898.07	3325
898.19	3389
898.311	3637
898.431	3477
898.552	3530
898.672	3580
898.792	3568
898.913	3515
899.033	3424
899.153	3294
899.273	3249
899.393	3294
899.513	3291
899.633	3325
899.753	3359
899.873	3306
899.993	3348
900.113	3321
900.232	3370
900.352	3313
900.472	3321
900.591	3211
900.711	3275
900.83	3279
900.95	3435
901.069	3519
901.189	3363
901.308	3195
901.427	3081
901.546	3161
901.665	3294
901.784	3279
901.904	3233
902.023	3142
902.141	3017
902.26	3001
902.379	3157
902.498	3058
902.617	3036
902.735	3211
902.854	3230
902.973	3226
903.091	3043
903.21	3100
903.328	3169
903.446	3104
903.565	3116
903.683	3237
903.801	3116
903.919	3260
904.038	3325
904.156	3192
904.274	3340
904.392	3237
904.51	3298
904.627	3355
904.745	3469
904.863	3485
904.981	3287
905.098	3245
905.216	3237
905.334	3336
905.451	3367
905.569	3313
905.686	3458
905.803	3485
905.921	3340
906.038	3485
906.155	3374
906.272	3329
906.389	3370
906.506	3260
906.623	3313
906.74	3306
906.857	3245
906.974	3298
907.091	3492
907.208	3633
907.324	3504
907.441	3412
907.557	3264
907.674	3291
907.79	3249
907.907	3279
908.023	3416
908.139	3401
908.256	3389
908.372	3409
908.488	3389
908.604	3306
908.72	3310
908.836	3321
908.952	3336
909.068	3389
909.184	3500
909.3	3469
909.415	3561
909.531	3492
909.647	3275
909.762	3321
909.878	3287
909.993	3424
910.108	3348
910.224	3332
910.339	3466
910.454	3382
910.57	3355
910.685	3279
910.8	3618
910.915	3568
911.03	3477
911.145	3313
911.259	3298
911.374	3344
911.489	3298
911.604	3287
911.718	3176
911.833	3176
911.947	3077
912.062	3039
912.176	3218
912.291	3203
912.405	3253
912.519	3462
912.633	3500
912.748	3382
912.862	3310
912.976	3222
913.09	3058
913.204	3180
913.318	3233
913.431	3393
913.545	3378
913.659	3466
913.772	3355
913.886	3253
914	3260
914.113	3359
914.226	3458
914.34	3405
914.453	3249
914.566	3428
914.68	3317
914.793	3344
914.906	3165
915.019	3108
915.132	3108
915.245	3233
915.358	3249
915.47	3283
915.583	3279
915.696	3325
915.809	3481
915.921	3466
916.034	3313
916.146	3298
916.259	3302
916.371	3405
916.483	3401
916.595	3275
916.708	3374
916.82	3367
916.932	3363
917.044	3405
917.156	3359
917.268	3256
917.38	3344
917.491	3310
917.603	3431
917.715	3504
917.826	3507
917.938	3412
918.049	3332
918.161	3473
918.272	3603
918.384	3561
918.495	3515
918.606	3329
918.717	3313
918.828	3428
918.939	3431
919.05	3348
919.161	3393
919.272	3233
919.383	3310
919.494	3511
919.604	3713
919.715	3538
919.826	3443
919.936	3473
920.047	3660
920.157	3599
920.267	3800
920.378	3629
920.488	3644
920.598	3831
920.708	3987
920.818	3888
920.928	3880
921.038	4055
921.148	4021
921.258	3717
921.368	3614
921.477	3606
921.587	3629
921.697	3504
921.806	3713
921.916	3576
922.025	3363
922.134	3378
922.244	3367
922.353	3447
922.462	3310
922.571	3241
922.68	3142
922.789	3116
922.898	3192
923.007	3180
923.116	3222
923.224	3230
923.333	3192
923.442	3138
923.55	3100
923.659	3188
923.767	3230
923.876	3127
923.984	3241
924.092	3104
924.201	3237
924.309	3272
924.417	3283
924.525	3211
924.633	3279
924.741	4013
924.849	3123
924.956	3272
925.064	3146
925.172	3047
925.279	3119
925.387	3237
925.494	3253
925.602	3386
925.709	3363
925.816	3230
925.924	3351
926.031	3401
926.138	3317
926.245	3405
926.352	3253
926.459	3431
926.566	3542
926.673	3344
926.779	3279
926.886	3317
926.993	3188
927.099	3150
927.206	3142
927.312	3146
927.419	3279
927.525	3260
927.631	3313
927.737	3192
927.843	3165
927.95	3066
928.056	3165
928.162	3188
928.267	3245
928.373	3880
928.479	3363
928.585	3127
928.69	3237
928.796	3344
928.901	3203
929.007	3100
929.112	3260
929.218	3207
929.323	3226
929.428	3211
929.533	3348
929.638	3161
929.743	3195
929.848	3291
929.953	3241
930.058	3195
930.163	3028
930.267	3077
930.372	3211
930.477	3104
930.581	3321
930.685	3245
930.79	3081
930.894	3157
930.998	3119
931.103	3302
931.207	2971
931.311	3005
931.415	2967
931.519	2800
931.623	2853
