Data from test_V78500241_158.txt Node
Date: Fri Mar 25 16:16:17 CST 2022
User: usil
Spectrometer: V785-0024
Trigger mode: 0
Integration Time (sec): 4.000000E-1
Scans to average: 1
Nonlinearity correction enabled: false
Boxcar width: 0
Storing dark spectrum: false
XAxis mode: Wavelengths
Number of Pixels in Spectrum: 1024
>>>>>Begin Spectral Data<<<<<
801.071	2952
801.214	2998
801.356	2883
801.499	2944
801.641	2906
801.783	2963
801.926	3100
802.068	3005
802.211	3055
802.353	3036
802.496	2998
802.638	3051
802.78	3081
802.923	3104
803.065	3070
803.208	2963
803.35	2948
803.492	2971
803.635	3001
803.777	2785
803.919	2918
804.061	3237
804.204	2971
804.346	2960
804.488	2876
804.63	3055
804.773	2887
804.915	2979
805.057	3112
805.199	2956
805.341	3020
805.483	3058
805.626	3081
805.768	3005
805.91	3138
806.052	3146
806.194	3070
806.336	3268
806.478	3047
806.62	2967
806.762	3001
806.904	3104
807.046	3199
807.188	3028
807.33	2979
807.472	3017
807.614	2998
807.756	3005
807.898	2998
808.04	2922
808.182	3024
808.324	2956
808.465	2922
808.607	2887
808.749	2834
808.891	2887
809.033	3017
809.174	3051
809.316	2941
809.458	2933
809.6	2853
809.741	2807
809.883	2792
810.025	2876
810.166	2887
810.308	2876
810.45	2872
810.591	2830
810.733	2807
810.875	2872
811.016	2826
811.158	2796
811.299	2857
811.441	2967
811.582	2952
811.724	2864
811.865	2830
812.007	2971
812.148	2910
812.29	2853
812.431	2914
812.573	2990
812.714	2986
812.855	3043
812.997	3119
813.138	3211
813.279	3097
813.421	3020
813.562	3013
813.703	2922
813.845	2929
813.986	2815
814.127	2769
814.268	2857
814.41	2868
814.551	2861
814.692	2899
814.833	2872
814.974	2963
815.115	2979
815.256	2891
815.397	2861
815.539	2918
815.68	2811
815.821	2883
815.962	2979
816.103	2963
816.244	2929
816.385	2906
816.526	2971
816.666	2925
816.807	2769
816.948	2925
817.089	2971
817.23	2864
817.371	2807
817.512	2853
817.653	2861
817.793	2842
817.934	2925
818.075	3017
818.216	3024
818.356	3066
818.497	2922
818.638	2834
818.778	2834
818.919	2804
819.06	2811
819.2	2922
819.341	2883
819.481	2819
819.622	2963
819.762	3108
819.903	3043
820.043	2990
820.184	2971
820.324	2948
820.465	3039
820.605	3047
820.746	3036
820.886	2960
821.026	3161
821.167	3188
821.307	3256
821.447	3291
821.588	3306
821.728	3279
821.868	3241
822.008	3127
822.149	3188
822.289	3249
822.429	3116
822.569	3161
822.709	3264
822.849	3055
822.99	3119
823.13	3218
823.27	3245
823.41	3146
823.55	3222
823.69	3173
823.83	3203
823.97	3157
824.11	3039
824.25	3047
824.389	3089
824.529	3195
824.669	3085
824.809	3230
824.949	3325
825.089	3256
825.228	3218
825.368	3020
825.508	3005
825.648	2998
825.787	3070
825.927	3055
826.067	2998
826.206	3009
826.346	3039
826.485	3127
826.625	3150
826.765	3291
826.904	3230
827.044	3036
827.183	2967
827.323	2948
827.462	3024
827.601	2937
827.741	2956
827.88	2986
828.02	2872
828.159	2982
828.298	3062
828.437	3127
828.577	3074
828.716	3287
828.855	3142
828.994	2986
829.134	2944
829.273	2956
829.412	2925
829.551	2883
829.69	2941
829.829	3024
829.968	3173
830.107	3028
830.246	3081
830.385	2967
830.524	2914
830.663	2826
830.802	2777
830.941	2708
831.08	2682
831.219	2792
831.357	2830
831.496	2990
831.635	2762
831.774	2651
831.913	2678
832.051	2602
832.19	2625
832.329	2724
832.467	2560
832.606	2522
832.744	2610
832.883	2617
833.022	2575
833.16	2701
833.299	2739
833.437	2739
833.576	2712
833.714	2777
833.852	2777
833.991	2773
834.129	2883
834.267	2849
834.406	2792
834.544	2933
834.682	2944
834.821	2922
834.959	3097
835.097	2952
835.235	3081
835.373	3013
835.511	3032
835.65	3001
835.788	2944
835.926	2845
836.064	2842
836.202	2880
836.34	3131
836.478	3188
836.615	3077
836.753	3173
836.891	3233
837.029	3192
837.167	3142
837.305	3077
837.443	3051
837.58	2998
837.718	3195
837.856	3100
837.993	3077
838.131	3184
838.269	3157
838.406	3116
838.544	3135
838.681	2963
838.819	2967
838.956	2830
839.094	2864
839.231	2979
839.369	3070
839.506	3409
839.643	3245
839.781	3062
839.918	2994
840.055	3097
840.193	3108
840.33	3093
840.467	3104
840.604	3165
840.742	3424
840.879	3100
841.016	3081
841.153	3169
841.29	3370
841.427	3367
841.564	3279
841.701	3351
841.838	3275
841.975	3173
842.112	3237
842.249	3131
842.385	3001
842.522	3310
842.659	3104
842.796	3116
842.933	3097
843.069	3058
843.206	3070
843.343	3207
843.479	3131
843.616	3169
843.752	2967
843.889	2880
844.025	3138
844.162	2910
844.298	3093
844.435	2967
844.571	2891
844.708	3097
844.844	3237
844.98	3264
845.117	3249
845.253	3119
845.389	3028
845.525	3119
845.661	3142
845.798	3051
845.934	3150
846.07	3081
846.206	3233
846.342	3401
846.478	3264
846.614	3085
846.75	3104
846.886	3055
847.022	3237
847.158	3157
847.294	3207
847.429	3264
847.565	3207
847.701	3534
847.837	3051
847.972	3058
848.108	3150
848.244	3180
848.379	3043
848.515	2990
848.65	2937
848.786	3005
848.921	3074
849.057	3116
849.192	3188
849.328	3097
849.463	3142
849.598	3074
849.734	3058
849.869	2975
850.004	2925
850.14	3017
850.275	2891
850.41	2861
850.545	2918
850.68	3009
850.815	3028
850.95	3024
851.085	3222
851.22	3100
851.355	3047
851.49	3009
851.625	3017
851.76	3036
851.895	2952
852.03	2952
852.165	3123
852.299	3157
852.434	3199
852.569	3180
852.703	3245
852.838	3245
852.973	3359
853.107	3359
853.242	3161
853.376	3154
853.511	3005
853.645	3070
853.78	3264
853.914	3154
854.048	3146
854.183	3089
854.317	3154
854.451	3275
854.585	3157
854.72	3123
854.854	3241
854.988	3062
855.122	3108
855.256	3013
855.39	3135
855.524	3264
855.658	3211
855.792	3184
855.926	3214
856.06	3230
856.194	3268
856.327	3203
856.461	3131
856.595	3119
856.729	3093
856.862	3214
856.996	3154
857.13	3230
857.263	3264
857.397	3287
857.53	3165
857.664	3199
857.797	3249
857.931	3283
858.064	3142
858.197	3275
858.331	3188
858.464	3116
858.597	3024
858.731	3108
858.864	3127
858.997	3097
859.13	3161
859.263	3184
859.396	3245
859.529	3116
859.662	3112
859.795	3085
859.928	3173
860.061	3294
860.194	3317
860.327	3165
860.46	3119
860.592	3272
860.725	3275
860.858	3306
860.99	3142
861.123	3062
861.256	3066
861.388	3165
861.521	3713
861.653	3074
861.786	2990
861.918	3020
862.05	3055
862.183	3138
862.315	3154
862.447	3207
862.58	3119
862.712	2982
862.844	2922
862.976	3051
863.108	3047
863.24	3378
863.372	2895
863.504	2986
863.636	2994
863.768	3036
863.9	2982
864.032	2944
864.164	2941
864.296	3039
864.428	3116
864.559	3119
864.691	3081
864.823	3074
864.954	3058
865.086	3108
865.217	3039
865.349	2979
865.48	3001
865.612	3055
865.743	3176
865.875	3001
866.006	2922
866.137	3005
866.269	2971
866.4	2960
866.531	2963
866.662	2925
866.793	2952
866.924	2895
867.055	3009
867.186	2963
867.317	2895
867.448	2834
867.579	2891
867.71	2899
867.841	2834
867.972	2902
868.103	2914
868.233	2895
868.364	2895
868.495	2899
868.625	3104
868.756	3218
868.886	2982
869.017	3043
869.147	3203
869.278	3169
869.408	3089
869.539	3074
869.669	3123
869.799	3074
869.929	3146
870.06	3142
870.19	3321
870.32	3287
870.45	3313
870.58	3386
870.71	3477
870.84	3450
870.97	3336
871.1	3245
871.23	3496
871.36	3469
871.489	3370
871.619	3397
871.749	3428
871.879	3466
872.008	3458
872.138	3374
872.267	3325
872.397	3173
872.526	3142
872.656	3024
872.785	3127
872.915	3287
873.044	3348
873.173	3256
873.303	3260
873.432	3237
873.561	3256
873.69	3150
873.819	3176
873.948	3188
874.077	3146
874.206	3028
874.335	3104
874.464	3256
874.593	3397
874.722	3241
874.851	3409
874.979	3355
875.108	3363
875.237	3199
875.365	3165
875.494	3142
875.623	3260
875.751	3116
875.88	3138
876.008	3222
876.136	3253
876.265	3370
876.393	3549
876.521	3458
876.65	3382
876.778	3382
876.906	3249
877.034	3207
877.162	3230
877.29	3199
877.418	3287
877.546	3253
877.674	3298
877.802	3279
877.93	3226
878.058	3169
878.185	3135
878.313	3188
878.441	3195
878.568	3131
878.696	3211
878.824	3241
878.951	3325
879.079	3466
879.206	3694
879.333	3416
879.461	3370
879.588	3374
879.715	3481
879.842	3629
879.97	3382
880.097	3211
880.224	3127
880.351	3222
880.478	3211
880.605	3195
880.732	3192
880.859	3511
880.986	3317
881.112	3332
881.239	3230
881.366	3138
881.493	3085
881.619	3043
881.746	3112
881.872	3150
881.999	3135
882.125	3188
882.252	3298
882.378	3329
882.505	3416
882.631	3298
882.757	3161
882.883	3222
883.01	3233
883.136	3199
883.262	3077
883.388	3112
883.514	3351
883.64	3389
883.766	3336
883.892	3195
884.018	3253
884.143	3428
884.269	3526
884.395	3245
884.52	3199
884.646	3203
884.772	3135
884.897	3112
885.023	3233
885.148	3317
885.274	3458
885.399	3397
885.524	3302
885.65	3294
885.775	3374
885.9	3344
886.025	3439
886.15	3382
886.275	3302
886.4	3260
886.525	3340
886.65	3268
886.775	3294
886.9	3545
887.025	3709
887.149	3412
887.274	3275
887.399	3230
887.523	3169
887.648	3214
887.773	3230
887.897	3378
888.021	3447
888.146	3329
888.27	3435
888.395	3549
888.519	3454
888.643	3469
888.767	3477
888.891	3313
889.015	3260
889.139	3291
889.263	3241
889.387	3450
889.511	3481
889.635	3469
889.759	3298
889.883	3321
890.006	3386
890.13	3526
890.254	3298
890.377	3359
890.501	3211
890.624	3226
890.748	3260
890.871	3233
890.995	3104
891.118	3043
891.241	3241
891.364	3237
891.488	3332
891.611	3199
891.734	3218
891.857	3329
891.98	3245
892.103	3405
892.226	3287
892.349	3230
892.471	3097
892.594	3249
892.717	3321
892.839	3294
892.962	3298
893.085	3420
893.207	3291
893.33	3165
893.452	3222
893.575	3363
893.697	3241
893.819	3504
893.941	3530
894.064	3511
894.186	3272
894.308	3310
894.43	3454
894.552	3515
894.674	3496
894.796	3306
894.918	3325
895.04	3294
895.161	3473
895.283	3393
895.405	3321
895.526	3370
895.648	3473
895.769	3458
895.891	3466
896.012	3519
896.134	3504
896.255	3420
896.376	3409
896.498	3363
896.619	3420
896.74	3409
896.861	3428
896.982	3728
897.103	3907
897.224	3622
897.345	3519
897.466	3447
897.587	3507
897.708	3686
897.828	3561
897.949	3435
898.07	3355
898.19	3447
898.311	3629
898.431	3485
898.552	3553
898.672	3595
898.792	3625
898.913	3515
899.033	3473
899.153	3291
899.273	3245
899.393	3291
899.513	3332
899.633	3332
899.753	3340
899.873	3321
899.993	3428
900.113	3367
900.232	3409
900.352	3405
900.472	3298
900.591	3226
900.711	3291
900.83	3230
900.95	3409
901.069	3504
901.189	3367
901.308	3211
901.427	3150
901.546	3214
901.665	3306
901.784	3329
901.904	3222
902.023	3157
902.141	3039
902.26	2986
902.379	3154
902.498	3039
902.617	3085
902.735	3214
902.854	3268
902.973	3222
903.091	3055
903.21	3070
903.328	3116
903.446	3146
903.565	3104
903.683	3218
903.801	3127
903.919	3279
904.038	3294
904.156	3169
904.274	3298
904.392	3294
904.51	3279
904.627	3355
904.745	3477
904.863	3492
904.981	3294
905.098	3230
905.216	3253
905.334	3310
905.451	3332
905.569	3310
905.686	3477
905.803	3462
905.921	3291
906.038	3466
906.155	3351
906.272	3283
906.389	3348
906.506	3192
906.623	3291
906.74	3302
906.857	3233
906.974	3268
907.091	3526
907.208	3591
907.324	3488
907.441	3405
907.557	3256
907.674	3268
907.79	3195
907.907	3279
908.023	3393
908.139	3367
908.256	3325
908.372	3405
908.488	3382
908.604	3264
908.72	3272
908.836	3302
908.952	3340
909.068	3367
909.184	3500
909.3	3428
909.415	3530
909.531	3462
909.647	3275
909.762	3287
909.878	3291
909.993	3378
910.108	3355
910.224	3348
910.339	3386
910.454	3389
910.57	3313
910.685	3249
910.8	3618
910.915	3553
911.03	3450
911.145	3260
911.259	3260
911.374	3313
911.489	3253
911.604	3275
911.718	3108
911.833	3169
911.947	3039
912.062	3009
912.176	3169
912.291	3253
912.405	3260
912.519	3447
912.633	3485
912.748	3351
912.862	3302
912.976	3188
913.09	3062
913.204	3150
913.318	3237
913.431	3363
913.545	3348
913.659	3401
913.772	3370
913.886	3222
914	3207
914.113	3424
914.226	3412
914.34	3397
914.453	3222
914.566	3439
914.68	3321
914.793	3313
914.906	3165
915.019	3154
915.132	3070
915.245	3131
915.358	3241
915.47	3222
915.583	3260
915.696	3332
915.809	3439
915.921	3424
916.034	3306
916.146	3306
916.259	3253
916.371	3435
916.483	3378
916.595	3275
916.708	3386
916.82	3332
916.932	3367
917.044	3363
917.156	3374
917.268	3256
917.38	3355
917.491	3325
917.603	3431
917.715	3469
917.826	3488
917.938	3405
918.049	3287
918.161	3500
918.272	3599
918.384	3641
918.495	3534
918.606	3370
918.717	3275
918.828	3397
918.939	3389
919.05	3340
919.161	3397
919.272	3169
919.383	3268
919.494	3549
919.604	3740
919.715	3542
919.826	3405
919.936	3466
920.047	3587
920.157	3576
920.267	3827
920.378	3625
920.488	3572
920.598	3835
920.708	3968
920.818	3823
920.928	3880
921.038	4059
921.148	3979
921.258	3762
921.368	3663
921.477	3610
921.587	3564
921.697	3485
921.806	3660
921.916	3542
922.025	3351
922.134	3386
922.244	3370
922.353	3447
922.462	3272
922.571	3245
922.68	3142
922.789	3093
922.898	3199
923.007	3123
923.116	3268
923.224	3192
923.333	3245
923.442	3108
923.55	3150
923.659	3165
923.767	3226
923.876	3123
923.984	3218
924.092	3138
924.201	3222
924.309	3218
924.417	3245
924.525	3184
924.633	3241
924.741	4173
924.849	3089
924.956	3313
925.064	3119
925.172	3051
925.279	3169
925.387	3241
925.494	3214
925.602	3336
925.709	3321
925.816	3195
925.924	3287
926.031	3409
926.138	3344
926.245	3386
926.352	3298
926.459	3405
926.566	3496
926.673	3317
926.779	3245
926.886	3241
926.993	3180
927.099	3131
927.206	3104
927.312	3104
927.419	3233
927.525	3233
927.631	3287
927.737	3169
927.843	3119
927.95	3028
928.056	3142
928.162	3188
928.267	3260
928.373	3907
928.479	3344
928.585	3093
928.69	3245
928.796	3332
928.901	3199
929.007	3051
929.112	3253
929.218	3226
929.323	3176
929.428	3176
929.533	3355
929.638	3165
929.743	3233
929.848	3237
929.953	3226
930.058	3192
930.163	3058
930.267	3013
930.372	3218
930.477	3032
930.581	3355
930.685	3165
930.79	3074
930.894	3150
930.998	3138
931.103	3294
931.207	3017
931.311	2990
931.415	2948
931.519	2804
931.623	2845
