Data from test_V78500241_1686.txt Node
Date: Fri Mar 25 16:26:53 CST 2022
User: usil
Spectrometer: V785-0024
Trigger mode: 0
Integration Time (sec): 4.000000E-1
Scans to average: 1
Nonlinearity correction enabled: false
Boxcar width: 0
Storing dark spectrum: false
XAxis mode: Wavelengths
Number of Pixels in Spectrum: 1024
>>>>>Begin Spectral Data<<<<<
801.071	2937
801.214	2956
801.356	2887
801.499	2922
801.641	2914
801.783	2933
801.926	3051
802.068	3013
802.211	3005
802.353	3013
802.496	2952
802.638	3036
802.78	3047
802.923	3089
803.065	3013
803.208	2922
803.35	2922
803.492	2960
803.635	2948
803.777	2743
803.919	2853
804.061	3218
804.204	2941
804.346	2918
804.488	2880
804.63	3013
804.773	2880
804.915	2910
805.057	3108
805.199	2960
805.341	2971
805.483	3047
805.626	3005
805.768	3013
805.91	3116
806.052	3104
806.194	3047
806.336	3245
806.478	3062
806.62	2948
806.762	2990
806.904	3066
807.046	3161
807.188	3013
807.33	2960
807.472	3005
807.614	2948
807.756	3017
807.898	2910
808.04	2929
808.182	2979
808.324	2975
808.465	2883
808.607	2895
808.749	2823
808.891	2864
809.033	2982
809.174	2963
809.316	2922
809.458	2914
809.6	2769
809.741	2788
809.883	2800
810.025	2864
810.166	2891
810.308	2857
810.45	2861
810.591	2804
810.733	2777
810.875	2834
811.016	2800
811.158	2773
811.299	2804
811.441	2948
811.582	2925
811.724	2834
811.865	2883
812.007	2948
812.148	2868
812.29	2872
812.431	2902
812.573	2929
812.714	2975
812.855	3013
812.997	3093
813.138	3131
813.279	2998
813.421	2979
813.562	2963
813.703	2899
813.845	2937
813.986	2785
814.127	2754
814.268	2815
814.41	2876
814.551	2830
814.692	2925
814.833	2842
814.974	2857
815.115	2944
815.256	2872
815.397	2842
815.539	2861
815.68	2838
815.821	2815
815.962	2963
816.103	2937
816.244	2910
816.385	2902
816.526	2967
816.666	2906
816.807	2750
816.948	2887
817.089	2876
817.23	2853
817.371	2785
817.512	2815
817.653	2838
817.793	2811
817.934	2910
818.075	2956
818.216	2998
818.356	3009
818.497	2895
818.638	2815
818.778	2819
818.919	2811
819.06	2800
819.2	2914
819.341	2819
819.481	2811
819.622	2948
819.762	3081
819.903	3089
820.043	2925
820.184	2910
820.324	2883
820.465	3032
820.605	3047
820.746	3036
820.886	2956
821.026	3100
821.167	3173
821.307	3287
821.447	3287
821.588	3249
821.728	3203
821.868	3226
822.008	3108
822.149	3207
822.289	3222
822.429	3097
822.569	3131
822.709	3195
822.849	3013
822.99	3085
823.13	3173
823.27	3249
823.41	3093
823.55	3169
823.69	3176
823.83	3173
823.97	3104
824.11	2986
824.25	3043
824.389	3074
824.529	3104
824.669	3058
824.809	3207
824.949	3241
825.089	3233
825.228	3180
825.368	2998
825.508	2979
825.648	2948
825.787	3013
825.927	3066
826.067	2982
826.206	2979
826.346	3039
826.485	3089
826.625	3108
826.765	3260
826.904	3218
827.044	2975
827.183	2933
827.323	2834
827.462	3009
827.601	2925
827.741	2941
827.88	2956
828.02	2883
828.159	2979
828.298	3070
828.437	3154
828.577	3047
828.716	3211
828.855	3085
828.994	2937
829.134	2868
829.273	2906
829.412	2868
829.551	2880
829.69	2918
829.829	2979
829.968	3165
830.107	3001
830.246	3005
830.385	2956
830.524	2902
830.663	2834
830.802	2731
830.941	2659
831.08	2670
831.219	2746
831.357	2766
831.496	2956
831.635	2701
831.774	2670
831.913	2674
832.051	2541
832.19	2583
832.329	2686
832.467	2533
832.606	2518
832.744	2602
832.883	2590
833.022	2571
833.16	2659
833.299	2689
833.437	2693
833.576	2689
833.714	2701
833.852	2743
833.991	2762
834.129	2864
834.267	2807
834.406	2777
834.544	2883
834.682	2902
834.821	2887
834.959	3058
835.097	2899
835.235	3036
835.373	3005
835.511	3024
835.65	2963
835.788	2914
835.926	2868
836.064	2819
836.202	2857
836.34	3077
836.478	3116
836.615	3062
836.753	3116
836.891	3230
837.029	3173
837.167	3123
837.305	3089
837.443	3062
837.58	2963
837.718	3150
837.856	3100
837.993	3051
838.131	3142
838.269	3104
838.406	3100
838.544	3085
838.681	2944
838.819	2929
838.956	2823
839.094	2796
839.231	2910
839.369	3043
839.506	3409
839.643	3253
839.781	3032
839.918	2994
840.055	3051
840.193	3066
840.33	3066
840.467	3089
840.604	3135
840.742	3378
840.879	3066
841.016	3051
841.153	3142
841.29	3329
841.427	3291
841.564	3241
841.701	3325
841.838	3214
841.975	3211
842.112	3165
842.249	3085
842.385	3062
842.522	3275
842.659	3085
842.796	3051
842.933	3116
843.069	3077
843.206	3001
843.343	3161
843.479	3100
843.616	3104
843.752	2914
843.889	2857
844.025	3058
844.162	2880
844.298	3085
844.435	2960
844.571	2914
844.708	3066
844.844	3214
844.98	3249
845.117	3199
845.253	3047
845.389	3009
845.525	3138
845.661	3104
845.798	3036
845.934	3142
846.07	3066
846.206	3192
846.342	3329
846.478	3222
846.614	3081
846.75	3051
846.886	3043
847.022	3253
847.158	3119
847.294	3211
847.429	3264
847.565	3207
847.701	3515
847.837	3028
847.972	3020
848.108	3127
848.244	3089
848.379	2975
848.515	2960
848.65	2918
848.786	2971
848.921	3036
849.057	3135
849.192	3123
849.328	3055
849.463	3062
849.598	3047
849.734	3017
849.869	3005
850.004	2925
850.14	2986
850.275	2902
850.41	2830
850.545	2868
850.68	2933
850.815	2986
850.95	2952
851.085	3161
851.22	3108
851.355	3043
851.49	2979
851.625	2975
851.76	3055
851.895	2944
852.03	2891
852.165	3043
852.299	3127
852.434	3157
852.569	3112
852.703	3173
852.838	3237
852.973	3344
853.107	3348
853.242	3150
853.376	3058
853.511	2967
853.645	3043
853.78	3241
853.914	3131
854.048	3104
854.183	3104
854.317	3135
854.451	3264
854.585	3123
854.72	3081
854.854	3203
854.988	3062
855.122	3070
855.256	2971
855.39	3150
855.524	3237
855.658	3199
855.792	3146
855.926	3188
856.06	3218
856.194	3275
856.327	3138
856.461	3074
856.595	3077
856.729	3074
856.862	3226
856.996	3150
857.13	3211
857.263	3207
857.397	3245
857.53	3074
857.664	3176
857.797	3222
857.931	3272
858.064	3161
858.197	3233
858.331	3097
858.464	3093
858.597	3017
858.731	3157
858.864	3138
858.997	3066
859.13	3173
859.263	3176
859.396	3176
859.529	3047
859.662	3085
859.795	3066
859.928	3138
860.061	3287
860.194	3310
860.327	3135
860.46	3081
860.592	3253
860.725	3256
860.858	3237
860.99	3116
861.123	3062
861.256	3020
861.388	3165
861.521	3876
861.653	2998
861.786	2990
861.918	2975
862.05	3070
862.183	3093
862.315	3154
862.447	3192
862.58	3093
862.712	2929
862.844	2853
862.976	3009
863.108	3032
863.24	3420
863.372	2887
863.504	2941
863.636	2952
863.768	2986
863.9	2967
864.032	2918
864.164	2960
864.296	3036
864.428	3077
864.559	3089
864.691	3077
864.823	3058
864.954	3039
865.086	3039
865.217	3013
865.349	2948
865.48	2979
865.612	2986
865.743	3135
865.875	2948
866.006	2948
866.137	2948
866.269	2933
866.4	2933
866.531	2960
866.662	2876
866.793	2883
866.924	2914
867.055	2982
867.186	2902
867.317	2880
867.448	2842
867.579	2819
867.71	2838
867.841	2830
867.972	2880
868.103	2899
868.233	2861
868.364	2883
868.495	2922
868.625	3097
868.756	3199
868.886	2963
869.017	3017
869.147	3154
869.278	3184
869.408	3058
869.539	3043
869.669	3097
869.799	3036
869.929	3123
870.06	3104
870.19	3283
870.32	3283
870.45	3287
870.58	3351
870.71	3435
870.84	3462
870.97	3272
871.1	3237
871.23	3481
871.36	3447
871.489	3386
871.619	3374
871.749	3401
871.879	3405
872.008	3492
872.138	3374
872.267	3268
872.397	3119
872.526	3116
872.656	3024
872.785	3085
872.915	3226
873.044	3294
873.173	3218
873.303	3245
873.432	3207
873.561	3264
873.69	3157
873.819	3169
873.948	3184
874.077	3150
874.206	3055
874.335	3077
874.464	3195
874.593	3363
874.722	3253
874.851	3378
874.979	3359
875.108	3302
875.237	3173
875.365	3165
875.494	3127
875.623	3218
875.751	3100
875.88	3138
876.008	3169
876.136	3249
876.265	3363
876.393	3492
876.521	3428
876.65	3412
876.778	3363
876.906	3241
877.034	3180
877.162	3222
877.29	3192
877.418	3218
877.546	3272
877.674	3253
877.802	3241
877.93	3245
878.058	3169
878.185	3093
878.313	3230
878.441	3218
878.568	3039
878.696	3127
878.824	3237
878.951	3317
879.079	3447
879.206	3603
879.333	3443
879.461	3329
879.588	3367
879.715	3519
879.842	3591
879.97	3374
880.097	3199
880.224	3127
880.351	3169
880.478	3211
880.605	3218
880.732	3211
880.859	3466
880.986	3325
881.112	3306
881.239	3195
881.366	3089
881.493	3020
881.619	3001
881.746	3036
881.872	3104
881.999	3108
882.125	3146
882.252	3256
882.378	3298
882.505	3450
882.631	3283
882.757	3127
882.883	3211
883.01	3218
883.136	3157
883.262	3104
883.388	3100
883.514	3313
883.64	3367
883.766	3302
883.892	3150
884.018	3233
884.143	3409
884.269	3519
884.395	3192
884.52	3165
884.646	3173
884.772	3131
884.897	3104
885.023	3207
885.148	3317
885.274	3363
885.399	3317
885.524	3249
885.65	3245
885.775	3294
885.9	3283
886.025	3424
886.15	3363
886.275	3317
886.4	3237
886.525	3344
886.65	3279
886.775	3306
886.9	3488
887.025	3641
887.149	3405
887.274	3275
887.399	3173
887.523	3195
887.648	3157
887.773	3165
887.897	3359
888.021	3367
888.146	3294
888.27	3416
888.395	3564
888.519	3435
888.643	3488
888.767	3473
888.891	3264
889.015	3226
889.139	3287
889.263	3253
889.387	3409
889.511	3485
889.635	3443
889.759	3268
889.883	3237
890.006	3405
890.13	3526
890.254	3237
890.377	3355
890.501	3184
890.624	3176
890.748	3325
890.871	3157
890.995	3089
891.118	3089
891.241	3218
891.364	3214
891.488	3340
891.611	3169
891.734	3184
891.857	3283
891.98	3272
892.103	3336
892.226	3275
892.349	3203
892.471	3142
892.594	3241
892.717	3291
892.839	3302
892.962	3256
893.085	3359
893.207	3279
893.33	3146
893.452	3237
893.575	3310
893.697	3241
893.819	3435
893.941	3526
894.064	3416
894.186	3291
894.308	3249
894.43	3454
894.552	3530
894.674	3450
894.796	3283
894.918	3325
895.04	3253
895.161	3389
895.283	3332
895.405	3294
895.526	3310
895.648	3412
895.769	3405
895.891	3481
896.012	3477
896.134	3443
896.255	3409
896.376	3382
896.498	3344
896.619	3401
896.74	3336
896.861	3397
896.982	3667
897.103	3823
897.224	3599
897.345	3500
897.466	3462
897.587	3504
897.708	3667
897.828	3534
897.949	3458
898.07	3325
898.19	3363
898.311	3614
898.431	3454
898.552	3485
898.672	3629
898.792	3572
898.913	3564
899.033	3428
899.153	3336
899.273	3173
899.393	3298
899.513	3287
899.633	3313
899.753	3348
899.873	3283
899.993	3378
900.113	3359
900.232	3363
900.352	3348
900.472	3291
900.591	3184
900.711	3340
900.83	3256
900.95	3416
901.069	3469
901.189	3325
901.308	3169
901.427	3123
901.546	3165
901.665	3294
901.784	3302
901.904	3199
902.023	3161
902.141	3013
902.26	3043
902.379	3135
902.498	3093
902.617	3055
902.735	3230
902.854	3245
902.973	3157
903.091	3024
903.21	3058
903.328	3161
903.446	3123
903.565	3169
903.683	3203
903.801	3123
903.919	3207
904.038	3245
904.156	3169
904.274	3298
904.392	3279
904.51	3272
904.627	3310
904.745	3401
904.863	3477
904.981	3287
905.098	3165
905.216	3218
905.334	3302
905.451	3275
905.569	3294
905.686	3431
905.803	3431
905.921	3275
906.038	3405
906.155	3317
906.272	3275
906.389	3332
906.506	3226
906.623	3256
906.74	3245
906.857	3192
906.974	3264
907.091	3428
907.208	3584
907.324	3511
907.441	3363
907.557	3233
907.674	3241
907.79	3199
907.907	3279
908.023	3386
908.139	3355
908.256	3329
908.372	3317
908.488	3378
908.604	3211
908.72	3233
908.836	3291
908.952	3291
909.068	3359
909.184	3469
909.3	3378
909.415	3466
909.531	3477
909.647	3302
909.762	3321
909.878	3260
909.993	3355
910.108	3321
910.224	3332
910.339	3420
910.454	3325
910.57	3268
910.685	3245
910.8	3625
910.915	3572
911.03	3447
911.145	3233
911.259	3287
911.374	3272
911.489	3245
911.604	3222
911.718	3097
911.833	3131
911.947	3039
912.062	3009
912.176	3161
912.291	3188
912.405	3150
912.519	3428
912.633	3435
912.748	3389
912.862	3283
912.976	3192
913.09	3013
913.204	3138
913.318	3230
913.431	3294
913.545	3340
913.659	3409
913.772	3340
913.886	3245
914	3150
914.113	3378
914.226	3382
914.34	3374
914.453	3203
914.566	3401
914.68	3294
914.793	3321
914.906	3165
915.019	3146
915.132	3051
915.245	3199
915.358	3184
915.47	3218
915.583	3260
915.696	3275
915.809	3386
915.921	3443
916.034	3256
916.146	3283
916.259	3237
916.371	3405
916.483	3351
916.595	3256
916.708	3329
916.82	3363
916.932	3348
917.044	3344
917.156	3351
917.268	3241
917.38	3283
917.491	3275
917.603	3340
917.715	3447
917.826	3458
917.938	3382
918.049	3272
918.161	3443
918.272	3568
918.384	3557
918.495	3450
918.606	3340
918.717	3264
918.828	3393
918.939	3412
919.05	3287
919.161	3340
919.272	3188
919.383	3294
919.494	3481
919.604	3701
919.715	3485
919.826	3363
919.936	3485
920.047	3595
920.157	3530
920.267	3797
920.378	3580
920.488	3568
920.598	3732
920.708	3937
920.818	3816
920.928	3797
921.038	4044
921.148	3998
921.258	3724
921.368	3614
921.477	3580
921.587	3561
921.697	3450
921.806	3561
921.916	3530
922.025	3355
922.134	3348
922.244	3283
922.353	3397
922.462	3275
922.571	3249
922.68	3089
922.789	3074
922.898	3108
923.007	3100
923.116	3230
923.224	3188
923.333	3173
923.442	3116
923.55	3089
923.659	3142
923.767	3241
923.876	3116
923.984	3245
924.092	3119
924.201	3203
924.309	3260
924.417	3283
924.525	3203
924.633	3260
924.741	4010
924.849	3043
924.956	3260
925.064	3100
925.172	3028
925.279	3108
925.387	3173
925.494	3233
925.602	3336
925.709	3382
925.816	3211
925.924	3260
926.031	3393
926.138	3310
926.245	3367
926.352	3275
926.459	3428
926.566	3454
926.673	3348
926.779	3268
926.886	3230
926.993	3150
927.099	3131
927.206	3104
927.312	3150
927.419	3195
927.525	3237
927.631	3241
927.737	3142
927.843	3123
927.95	3020
928.056	3154
928.162	3173
928.267	3214
928.373	3876
928.479	3306
928.585	3047
928.69	3230
928.796	3268
928.901	3138
929.007	3043
929.112	3237
929.218	3188
929.323	3150
929.428	3146
929.533	3336
929.638	3093
929.743	3184
929.848	3249
929.953	3237
930.058	3100
930.163	2963
930.267	3047
930.372	3176
930.477	3013
930.581	3313
930.685	3218
930.79	3081
930.894	3093
930.998	3093
931.103	3302
931.207	2952
931.311	2948
931.415	2975
931.519	2754
931.623	2804
