Data from test_V78500241_1257.txt Node
Date: Fri Mar 25 16:23:54 CST 2022
User: usil
Spectrometer: V785-0024
Trigger mode: 0
Integration Time (sec): 4.000000E-1
Scans to average: 1
Nonlinearity correction enabled: false
Boxcar width: 0
Storing dark spectrum: false
XAxis mode: Wavelengths
Number of Pixels in Spectrum: 1024
>>>>>Begin Spectral Data<<<<<
801.071	2914
801.214	2948
801.356	2861
801.499	2872
801.641	2861
801.783	2933
801.926	3070
802.068	2971
802.211	3036
802.353	3036
802.496	2933
802.638	3028
802.78	3036
802.923	3036
803.065	2998
803.208	2861
803.35	2933
803.492	2960
803.635	2929
803.777	2739
803.919	2861
804.061	3169
804.204	2910
804.346	2918
804.488	2830
804.63	2994
804.773	2887
804.915	2937
805.057	3089
805.199	2933
805.341	2963
805.483	3036
805.626	3020
805.768	2967
805.91	3093
806.052	3108
806.194	3036
806.336	3211
806.478	3051
806.62	2933
806.762	2963
806.904	3051
807.046	3188
807.188	2960
807.33	2902
807.472	2998
807.614	2906
807.756	2975
807.898	2933
808.04	2861
808.182	2967
808.324	2963
808.465	2857
808.607	2864
808.749	2804
808.891	2853
809.033	2975
809.174	2960
809.316	2876
809.458	2899
809.6	2746
809.741	2792
809.883	2754
810.025	2845
810.166	2788
810.308	2861
810.45	2811
810.591	2762
810.733	2754
810.875	2800
811.016	2788
811.158	2769
811.299	2781
811.441	2929
811.582	2880
811.724	2845
811.865	2826
812.007	2864
812.148	2838
812.29	2838
812.431	2883
812.573	2914
812.714	2937
812.855	3009
812.997	3047
813.138	3093
813.279	2994
813.421	2986
813.562	2910
813.703	2861
813.845	2914
813.986	2758
814.127	2705
814.268	2826
814.41	2807
814.551	2811
814.692	2857
814.833	2804
814.974	2929
815.115	2925
815.256	2811
815.397	2777
815.539	2834
815.68	2777
815.821	2792
815.962	2956
816.103	2937
816.244	2872
816.385	2876
816.526	2922
816.666	2880
816.807	2724
816.948	2849
817.089	2922
817.23	2845
817.371	2773
817.512	2785
817.653	2826
817.793	2819
817.934	2864
818.075	2929
818.216	2979
818.356	3024
818.497	2883
818.638	2785
818.778	2815
818.919	2796
819.06	2766
819.2	2876
819.341	2754
819.481	2766
819.622	2941
819.762	3085
819.903	2994
820.043	2948
820.184	2887
820.324	2925
820.465	3020
820.605	3028
820.746	3013
820.886	2914
821.026	3104
821.167	3138
821.307	3230
821.447	3275
821.588	3253
821.728	3199
821.868	3176
822.008	3017
822.149	3207
822.289	3195
822.429	3070
822.569	3097
822.709	3173
822.849	2982
822.99	3051
823.13	3165
823.27	3214
823.41	3131
823.55	3165
823.69	3154
823.83	3192
823.97	3089
824.11	3009
824.25	2967
824.389	3058
824.529	3135
824.669	3062
824.809	3184
824.949	3264
825.089	3195
825.228	3173
825.368	2990
825.508	2975
825.648	2933
825.787	2979
825.927	3009
826.067	2979
826.206	2960
826.346	3051
826.485	3066
826.625	3104
826.765	3279
826.904	3192
827.044	2929
827.183	2933
827.323	2857
827.462	2967
827.601	2914
827.741	2948
827.88	2952
828.02	2853
828.159	2971
828.298	3039
828.437	3097
828.577	2998
828.716	3230
828.855	3062
828.994	2906
829.134	2868
829.273	2902
829.412	2861
829.551	2849
829.69	2883
829.829	2990
829.968	3093
830.107	3028
830.246	3017
830.385	2918
830.524	2872
830.663	2819
830.802	2731
830.941	2651
831.08	2640
831.219	2754
831.357	2731
831.496	2941
831.635	2686
831.774	2659
831.913	2678
832.051	2545
832.19	2560
832.329	2651
832.467	2530
832.606	2476
832.744	2571
832.883	2571
833.022	2583
833.16	2640
833.299	2674
833.437	2670
833.576	2678
833.714	2731
833.852	2670
833.991	2720
834.129	2826
834.267	2807
834.406	2777
834.544	2861
834.682	2872
834.821	2845
834.959	3066
835.097	2880
835.235	3070
835.373	2986
835.511	3009
835.65	2937
835.788	2937
835.926	2845
836.064	2830
836.202	2834
836.34	3074
836.478	3150
836.615	3051
836.753	3135
836.891	3188
837.029	3123
837.167	3104
837.305	3066
837.443	3005
837.58	2937
837.718	3108
837.856	3028
837.993	3047
838.131	3077
838.269	3108
838.406	3074
838.544	3100
838.681	2929
838.819	2948
838.956	2823
839.094	2819
839.231	2929
839.369	3020
839.506	3401
839.643	3176
839.781	2967
839.918	2967
840.055	3032
840.193	2994
840.33	3043
840.467	3108
840.604	3180
840.742	3405
840.879	3097
841.016	3070
841.153	3119
841.29	3336
841.427	3275
841.564	3237
841.701	3306
841.838	3211
841.975	3150
842.112	3207
842.249	3123
842.385	3051
842.522	3241
842.659	3058
842.796	3055
842.933	3097
843.069	3020
843.206	3009
843.343	3157
843.479	3119
843.616	3116
843.752	2895
843.889	2845
844.025	3066
844.162	2891
844.298	3062
844.435	2929
844.571	2933
844.708	3074
844.844	3180
844.98	3268
845.117	3199
845.253	3024
845.389	2994
845.525	3089
845.661	3112
845.798	3017
845.934	3112
846.07	3074
846.206	3203
846.342	3283
846.478	3214
846.614	3089
846.75	3058
846.886	3005
847.022	3233
847.158	3108
847.294	3188
847.429	3184
847.565	3211
847.701	3462
847.837	3005
847.972	2967
848.108	3176
848.244	3119
848.379	2963
848.515	2929
848.65	2891
848.786	2925
848.921	2994
849.057	3104
849.192	3112
849.328	3043
849.463	3089
849.598	3070
849.734	3032
849.869	2990
850.004	2941
850.14	2956
850.275	2887
850.41	2807
850.545	2861
850.68	2910
850.815	2971
850.95	2952
851.085	3180
851.22	3089
851.355	3047
851.49	3001
851.625	3009
851.76	3020
851.895	2914
852.03	2918
852.165	3017
852.299	3146
852.434	3203
852.569	3142
852.703	3207
852.838	3237
852.973	3351
853.107	3291
853.242	3150
853.376	3051
853.511	2975
853.645	3070
853.78	3199
853.914	3104
854.048	3138
854.183	3070
854.317	3135
854.451	3256
854.585	3169
854.72	3062
854.854	3195
854.988	3043
855.122	3085
855.256	2937
855.39	3108
855.524	3256
855.658	3154
855.792	3138
855.926	3195
856.06	3195
856.194	3283
856.327	3176
856.461	3043
856.595	3093
856.729	3085
856.862	3184
856.996	3112
857.13	3195
857.263	3188
857.397	3256
857.53	3112
857.664	3135
857.797	3249
857.931	3260
858.064	3154
858.197	3184
858.331	3150
858.464	3089
858.597	3001
858.731	3093
858.864	3104
858.997	3077
859.13	3112
859.263	3184
859.396	3199
859.529	3070
859.662	3074
859.795	3024
859.928	3116
860.061	3245
860.194	3283
860.327	3089
860.46	3089
860.592	3233
860.725	3241
860.858	3230
860.99	3081
861.123	3055
861.256	3074
861.388	3146
861.521	3648
861.653	3020
861.786	2956
861.918	3017
862.05	3066
862.183	3097
862.315	3146
862.447	3199
862.58	3077
862.712	2929
862.844	2853
862.976	3001
863.108	3001
863.24	3313
863.372	2880
863.504	2967
863.636	2952
863.768	3020
863.9	2956
864.032	2895
864.164	2895
864.296	2994
864.428	3077
864.559	3077
864.691	3077
864.823	3074
864.954	3017
865.086	3013
865.217	3001
865.349	2937
865.48	2986
865.612	3005
865.743	3123
865.875	2937
866.006	2944
866.137	3001
866.269	2925
866.4	2918
866.531	2944
866.662	2910
866.793	2902
866.924	2899
867.055	2952
867.186	2967
867.317	2880
867.448	2838
867.579	2830
867.71	2864
867.841	2804
867.972	2880
868.103	2910
868.233	2891
868.364	2876
868.495	2906
868.625	3047
868.756	3173
868.886	2975
869.017	3058
869.147	3184
869.278	3176
869.408	3005
869.539	3028
869.669	3089
869.799	3036
869.929	3161
870.06	3108
870.19	3313
870.32	3279
870.45	3291
870.58	3325
870.71	3420
870.84	3447
870.97	3287
871.1	3237
871.23	3458
871.36	3481
871.489	3340
871.619	3359
871.749	3386
871.879	3428
872.008	3454
872.138	3329
872.267	3275
872.397	3127
872.526	3077
872.656	2998
872.785	3081
872.915	3245
873.044	3313
873.173	3188
873.303	3207
873.432	3192
873.561	3203
873.69	3123
873.819	3116
873.948	3192
874.077	3089
874.206	2994
874.335	3066
874.464	3195
874.593	3382
874.722	3211
874.851	3367
874.979	3378
875.108	3283
875.237	3203
875.365	3154
875.494	3112
875.623	3279
875.751	3100
875.88	3093
876.008	3184
876.136	3260
876.265	3340
876.393	3496
876.521	3424
876.65	3370
876.778	3317
876.906	3214
877.034	3184
877.162	3237
877.29	3207
877.418	3226
877.546	3245
877.674	3222
877.802	3214
877.93	3203
878.058	3161
878.185	3081
878.313	3169
878.441	3207
878.568	3070
878.696	3112
878.824	3241
878.951	3256
879.079	3450
879.206	3618
879.333	3424
879.461	3317
879.588	3359
879.715	3466
879.842	3641
879.97	3359
880.097	3146
880.224	3097
880.351	3199
880.478	3188
880.605	3199
880.732	3161
880.859	3481
880.986	3268
881.112	3268
881.239	3180
881.366	3085
881.493	3039
881.619	3013
881.746	3051
881.872	3100
881.999	3097
882.125	3093
882.252	3256
882.378	3275
882.505	3412
882.631	3256
882.757	3131
882.883	3192
883.01	3203
883.136	3154
883.262	3112
883.388	3100
883.514	3283
883.64	3386
883.766	3287
883.892	3180
884.018	3230
884.143	3382
884.269	3534
884.395	3188
884.52	3142
884.646	3135
884.772	3093
884.897	3127
885.023	3214
885.148	3340
885.274	3420
885.399	3348
885.524	3279
885.65	3245
885.775	3306
885.9	3245
886.025	3420
886.15	3348
886.275	3367
886.4	3222
886.525	3291
886.65	3237
886.775	3306
886.9	3450
887.025	3618
887.149	3370
887.274	3230
887.399	3176
887.523	3222
887.648	3184
887.773	3184
887.897	3359
888.021	3363
888.146	3291
888.27	3428
888.395	3526
888.519	3443
888.643	3412
888.767	3458
888.891	3313
889.015	3237
889.139	3313
889.263	3226
889.387	3382
889.511	3485
889.635	3454
889.759	3287
889.883	3321
890.006	3344
890.13	3488
890.254	3275
890.377	3310
890.501	3192
890.624	3169
890.748	3287
890.871	3142
890.995	3104
891.118	3108
891.241	3176
891.364	3214
891.488	3291
891.611	3226
891.734	3192
891.857	3268
891.98	3245
892.103	3329
892.226	3241
892.349	3192
892.471	3077
892.594	3214
892.717	3279
892.839	3249
892.962	3325
893.085	3348
893.207	3287
893.33	3150
893.452	3169
893.575	3325
893.697	3230
893.819	3447
893.941	3500
894.064	3450
894.186	3249
894.308	3283
894.43	3420
894.552	3542
894.674	3435
894.796	3268
894.918	3306
895.04	3272
895.161	3439
895.283	3355
895.405	3355
895.526	3321
895.648	3367
895.769	3397
895.891	3458
896.012	3469
896.134	3435
896.255	3428
896.376	3367
896.498	3348
896.619	3382
896.74	3340
896.861	3382
896.982	3652
897.103	3854
897.224	3610
897.345	3485
897.466	3435
897.587	3488
897.708	3580
897.828	3488
897.949	3466
898.07	3302
898.19	3412
898.311	3553
898.431	3443
898.552	3496
898.672	3580
898.792	3530
898.913	3485
899.033	3420
899.153	3287
899.273	3184
899.393	3264
899.513	3275
899.633	3283
899.753	3317
899.873	3302
899.993	3370
900.113	3306
900.232	3355
900.352	3317
900.472	3230
900.591	3169
900.711	3260
900.83	3230
900.95	3386
901.069	3458
901.189	3321
901.308	3173
901.427	3150
901.546	3188
901.665	3249
901.784	3291
901.904	3180
902.023	3135
902.141	3028
902.26	2986
902.379	3127
902.498	3062
902.617	3009
902.735	3214
902.854	3207
902.973	3173
903.091	3055
903.21	3032
903.328	3142
903.446	3100
903.565	3070
903.683	3214
903.801	3135
903.919	3214
904.038	3264
904.156	3195
904.274	3283
904.392	3283
904.51	3287
904.627	3325
904.745	3454
904.863	3500
904.981	3249
905.098	3199
905.216	3260
905.334	3351
905.451	3313
905.569	3332
905.686	3435
905.803	3447
905.921	3332
906.038	3431
906.155	3370
906.272	3260
906.389	3359
906.506	3237
906.623	3279
906.74	3294
906.857	3241
906.974	3287
907.091	3466
907.208	3599
907.324	3500
907.441	3401
907.557	3253
907.674	3275
907.79	3237
907.907	3325
908.023	3420
908.139	3412
908.256	3363
908.372	3424
908.488	3389
908.604	3298
908.72	3211
908.836	3283
908.952	3332
909.068	3363
909.184	3530
909.3	3443
909.415	3519
909.531	3519
909.647	3310
909.762	3340
909.878	3302
909.993	3386
910.108	3344
910.224	3378
910.339	3454
910.454	3382
910.57	3332
910.685	3294
910.8	3637
910.915	3549
911.03	3469
911.145	3310
911.259	3279
911.374	3386
911.489	3253
911.604	3253
911.718	3154
911.833	3211
911.947	3062
912.062	3028
912.176	3180
912.291	3230
912.405	3245
912.519	3469
912.633	3511
912.748	3382
912.862	3325
912.976	3180
913.09	3100
913.204	3180
913.318	3264
913.431	3378
913.545	3374
913.659	3443
913.772	3321
913.886	3233
914	3253
914.113	3374
914.226	3466
914.34	3409
914.453	3226
914.566	3469
914.68	3351
914.793	3355
914.906	3146
915.019	3127
915.132	3093
915.245	3184
915.358	3275
915.47	3260
915.583	3287
915.696	3287
915.809	3469
915.921	3416
916.034	3302
916.146	3260
916.259	3260
916.371	3393
916.483	3397
916.595	3310
916.708	3370
916.82	3378
916.932	3374
917.044	3397
917.156	3382
917.268	3310
917.38	3321
917.491	3313
917.603	3351
917.715	3496
917.826	3530
917.938	3420
918.049	3294
918.161	3469
918.272	3599
918.384	3584
918.495	3523
918.606	3409
918.717	3272
918.828	3409
918.939	3435
919.05	3275
919.161	3355
919.272	3199
919.383	3302
919.494	3545
919.604	3713
919.715	3519
919.826	3481
919.936	3523
920.047	3591
920.157	3572
920.267	3781
920.378	3667
920.488	3599
920.598	3816
920.708	3941
920.818	3869
920.928	3865
921.038	4051
921.148	4021
921.258	3717
921.368	3679
921.477	3595
921.587	3542
921.697	3481
921.806	3675
921.916	3545
922.025	3409
922.134	3389
922.244	3321
922.353	3481
922.462	3321
922.571	3245
922.68	3097
922.789	3127
922.898	3146
923.007	3123
923.116	3218
923.224	3207
923.333	3222
923.442	3119
923.55	3100
923.659	3188
923.767	3245
923.876	3131
923.984	3332
924.092	3157
924.201	3222
924.309	3226
924.417	3260
924.525	3226
924.633	3222
924.741	4055
924.849	3066
924.956	3294
925.064	3138
925.172	3108
925.279	3176
925.387	3218
925.494	3237
925.602	3370
925.709	3336
925.816	3233
925.924	3298
926.031	3397
926.138	3367
926.245	3389
926.352	3272
926.459	3454
926.566	3511
926.673	3370
926.779	3287
926.886	3291
926.993	3154
927.099	3135
927.206	3135
927.312	3154
927.419	3306
927.525	3207
927.631	3283
927.737	3180
927.843	3150
927.95	3070
928.056	3195
928.162	3222
928.267	3256
928.373	3903
928.479	3317
928.585	3055
928.69	3253
928.796	3268
928.901	3184
929.007	3097
929.112	3226
929.218	3195
929.323	3161
929.428	3180
929.533	3329
929.638	3154
929.743	3218
929.848	3253
929.953	3233
930.058	3188
930.163	3017
930.267	3093
930.372	3230
930.477	3039
930.581	3340
930.685	3173
930.79	3077
930.894	3157
930.998	3119
931.103	3317
931.207	2979
931.311	2963
931.415	2956
931.519	2804
931.623	2868
