Data from test_V78500241_839.txt Node
Date: Fri Mar 25 16:21:00 CST 2022
User: usil
Spectrometer: V785-0024
Trigger mode: 0
Integration Time (sec): 4.000000E-1
Scans to average: 1
Nonlinearity correction enabled: false
Boxcar width: 0
Storing dark spectrum: false
XAxis mode: Wavelengths
Number of Pixels in Spectrum: 1024
>>>>>Begin Spectral Data<<<<<
801.071	2914
801.214	2929
801.356	2872
801.499	2899
801.641	2849
801.783	2937
801.926	3077
802.068	2998
802.211	3009
802.353	3047
802.496	2979
802.638	3001
802.78	3043
802.923	3070
803.065	2975
803.208	2925
803.35	2941
803.492	2933
803.635	2941
803.777	2769
803.919	2857
804.061	3180
804.204	2925
804.346	2925
804.488	2864
804.63	3009
804.773	2902
804.915	2933
805.057	3081
805.199	2956
805.341	2975
805.483	3028
805.626	3024
805.768	2952
805.91	3089
806.052	3161
806.194	3047
806.336	3214
806.478	3024
806.62	2956
806.762	2967
806.904	3047
807.046	3157
807.188	2982
807.33	2937
807.472	2971
807.614	2883
807.756	2952
807.898	2952
808.04	2883
808.182	2967
808.324	2937
808.465	2861
808.607	2872
808.749	2811
808.891	2845
809.033	2967
809.174	2979
809.316	2883
809.458	2918
809.6	2766
809.741	2773
809.883	2769
810.025	2807
810.166	2842
810.308	2834
810.45	2853
810.591	2769
810.733	2746
810.875	2838
811.016	2823
811.158	2766
811.299	2815
811.441	2929
811.582	2910
811.724	2838
811.865	2823
812.007	2880
812.148	2864
812.29	2834
812.431	2887
812.573	2906
812.714	2986
812.855	3047
812.997	3047
813.138	3127
813.279	3043
813.421	2963
813.562	2967
813.703	2876
813.845	2906
813.986	2834
814.127	2727
814.268	2842
814.41	2815
814.551	2800
814.692	2853
814.833	2830
814.974	2895
815.115	2963
815.256	2845
815.397	2792
815.539	2868
815.68	2811
815.821	2792
815.962	2948
816.103	2929
816.244	2906
816.385	2853
816.526	2948
816.666	2937
816.807	2731
816.948	2891
817.089	2891
817.23	2857
817.371	2777
817.512	2811
817.653	2861
817.793	2826
817.934	2891
818.075	2944
818.216	2971
818.356	3055
818.497	2857
818.638	2804
818.778	2823
818.919	2830
819.06	2735
819.2	2853
819.341	2807
819.481	2815
819.622	2975
819.762	3119
819.903	3020
820.043	2922
820.184	2899
820.324	2895
820.465	3009
820.605	3039
820.746	3036
820.886	2967
821.026	3116
821.167	3150
821.307	3260
821.447	3272
821.588	3268
821.728	3211
821.868	3184
822.008	3089
822.149	3184
822.289	3211
822.429	3089
822.569	3051
822.709	3180
822.849	3005
822.99	3058
823.13	3138
823.27	3188
823.41	3116
823.55	3154
823.69	3169
823.83	3157
823.97	3108
824.11	3001
824.25	2994
824.389	3055
824.529	3104
824.669	3066
824.809	3180
824.949	3245
825.089	3253
825.228	3142
825.368	3005
825.508	2941
825.648	2948
825.787	3020
825.927	3051
826.067	2948
826.206	2948
826.346	3055
826.485	3077
826.625	3089
826.765	3294
826.904	3199
827.044	2990
827.183	2967
827.323	2830
827.462	2971
827.601	2902
827.741	2914
827.88	2952
828.02	2819
828.159	2941
828.298	3028
828.437	3100
828.577	3005
828.716	3226
828.855	3047
828.994	2933
829.134	2883
829.273	2922
829.412	2845
829.551	2845
829.69	2914
829.829	3005
829.968	3116
830.107	2990
830.246	2982
830.385	2933
830.524	2883
830.663	2815
830.802	2708
830.941	2632
831.08	2636
831.219	2796
831.357	2754
831.496	2971
831.635	2712
831.774	2678
831.913	2644
832.051	2522
832.19	2594
832.329	2705
832.467	2511
832.606	2457
832.744	2568
832.883	2594
833.022	2575
833.16	2655
833.299	2663
833.437	2712
833.576	2697
833.714	2693
833.852	2754
833.991	2720
834.129	2823
834.267	2815
834.406	2788
834.544	2887
834.682	2868
834.821	2834
834.959	3062
835.097	2880
835.235	3070
835.373	2990
835.511	3013
835.65	2956
835.788	2918
835.926	2842
836.064	2819
836.202	2842
836.34	3097
836.478	3161
836.615	3036
836.753	3142
836.891	3211
837.029	3165
837.167	3100
837.305	3070
837.443	3020
837.58	2948
837.718	3138
837.856	3066
837.993	3043
838.131	3112
838.269	3085
838.406	3081
838.544	3062
838.681	2937
838.819	2906
838.956	2796
839.094	2819
839.231	2910
839.369	3028
839.506	3344
839.643	3211
839.781	2982
839.918	2944
840.055	3047
840.193	3055
840.33	3055
840.467	3070
840.604	3138
840.742	3389
840.879	2998
841.016	3074
841.153	3081
841.29	3382
841.427	3302
841.564	3279
841.701	3272
841.838	3214
841.975	3214
842.112	3180
842.249	3097
842.385	3043
842.522	3272
842.659	3089
842.796	3077
842.933	3104
843.069	3020
843.206	3047
843.343	3222
843.479	3127
843.616	3123
843.752	2868
843.889	2883
844.025	3077
844.162	2861
844.298	3066
844.435	2948
844.571	2918
844.708	3066
844.844	3169
844.98	3192
845.117	3165
845.253	3039
845.389	3013
845.525	3104
845.661	3116
845.798	2967
845.934	3138
846.07	3066
846.206	3195
846.342	3329
846.478	3218
846.614	3074
846.75	3055
846.886	3005
847.022	3245
847.158	3108
847.294	3188
847.429	3249
847.565	3237
847.701	3469
847.837	3055
847.972	2994
848.108	3180
848.244	3127
848.379	2998
848.515	2948
848.65	2906
848.786	2925
848.921	3001
849.057	3074
849.192	3176
849.328	3055
849.463	3108
849.598	3077
849.734	3001
849.869	2952
850.004	2922
850.14	2952
850.275	2918
850.41	2811
850.545	2887
850.68	2933
850.815	2895
850.95	2956
851.085	3195
851.22	3108
851.355	3024
851.49	2994
851.625	3020
851.76	3024
851.895	2906
852.03	2895
852.165	3032
852.299	3089
852.434	3207
852.569	3154
852.703	3176
852.838	3237
852.973	3317
853.107	3287
853.242	3188
853.376	3123
853.511	2998
853.645	3051
853.78	3230
853.914	3112
854.048	3123
854.183	3062
854.317	3138
854.451	3291
854.585	3131
854.72	3081
854.854	3203
854.988	3039
855.122	3081
855.256	2963
855.39	3081
855.524	3184
855.658	3173
855.792	3138
855.926	3192
856.06	3214
856.194	3256
856.327	3161
856.461	3039
856.595	3074
856.729	3097
856.862	3222
856.996	3123
857.13	3173
857.263	3233
857.397	3283
857.53	3135
857.664	3161
857.797	3222
857.931	3249
858.064	3161
858.197	3272
858.331	3150
858.464	3074
858.597	3005
858.731	3142
858.864	3127
858.997	3077
859.13	3142
859.263	3173
859.396	3207
859.529	3104
859.662	3097
859.795	3066
859.928	3135
860.061	3211
860.194	3298
860.327	3138
860.46	3081
860.592	3207
860.725	3207
860.858	3256
860.99	3119
861.123	3074
861.256	3032
861.388	3100
861.521	3918
861.653	2998
861.786	3009
861.918	3017
862.05	3051
862.183	3108
862.315	3146
862.447	3188
862.58	3058
862.712	2982
862.844	2845
862.976	2998
863.108	3005
863.24	3306
863.372	2880
863.504	2979
863.636	2948
863.768	3005
863.9	2998
864.032	2902
864.164	2967
864.296	3020
864.428	3081
864.559	3081
864.691	3100
864.823	3070
864.954	3009
865.086	3020
865.217	2986
865.349	2937
865.48	2998
865.612	3001
865.743	3108
865.875	2967
866.006	2986
866.137	3005
866.269	2994
866.4	2918
866.531	2922
866.662	2891
866.793	2857
866.924	2937
867.055	2982
867.186	2922
867.317	2868
867.448	2815
867.579	2868
867.71	2853
867.841	2811
867.972	2895
868.103	2910
868.233	2880
868.364	2842
868.495	2918
868.625	3081
868.756	3131
868.886	2975
869.017	3001
869.147	3157
869.278	3169
869.408	3032
869.539	3039
869.669	3089
869.799	3009
869.929	3119
870.06	3104
870.19	3321
870.32	3272
870.45	3306
870.58	3340
870.71	3450
870.84	3447
870.97	3287
871.1	3184
871.23	3462
871.36	3435
871.489	3294
871.619	3424
871.749	3450
871.879	3447
872.008	3454
872.138	3332
872.267	3291
872.397	3146
872.526	3047
872.656	3017
872.785	3093
872.915	3283
873.044	3313
873.173	3218
873.303	3214
873.432	3260
873.561	3199
873.69	3214
873.819	3150
873.948	3199
874.077	3081
874.206	3032
874.335	3108
874.464	3195
874.593	3332
874.722	3226
874.851	3424
874.979	3298
875.108	3344
875.237	3226
875.365	3142
875.494	3150
875.623	3226
875.751	3070
875.88	3100
876.008	3112
876.136	3203
876.265	3382
876.393	3492
876.521	3424
876.65	3344
876.778	3313
876.906	3253
877.034	3192
877.162	3233
877.29	3138
877.418	3237
877.546	3237
877.674	3237
877.802	3222
877.93	3222
878.058	3165
878.185	3077
878.313	3173
878.441	3119
878.568	3100
878.696	3176
878.824	3207
878.951	3321
879.079	3443
879.206	3595
879.333	3424
879.461	3302
879.588	3332
879.715	3485
879.842	3557
879.97	3389
880.097	3173
880.224	3154
880.351	3176
880.478	3245
880.605	3195
880.732	3203
880.859	3485
880.986	3310
881.112	3325
881.239	3207
881.366	3123
881.493	3005
881.619	3024
881.746	3055
881.872	3135
881.999	3085
882.125	3142
882.252	3199
882.378	3279
882.505	3431
882.631	3294
882.757	3192
882.883	3192
883.01	3253
883.136	3169
883.262	3104
883.388	3112
883.514	3321
883.64	3363
883.766	3268
883.892	3184
884.018	3287
884.143	3435
884.269	3557
884.395	3218
884.52	3203
884.646	3188
884.772	3116
884.897	3127
885.023	3173
885.148	3344
885.274	3405
885.399	3363
885.524	3230
885.65	3283
885.775	3329
885.9	3264
886.025	3462
886.15	3359
886.275	3317
886.4	3230
886.525	3275
886.65	3298
886.775	3272
886.9	3511
887.025	3660
887.149	3374
887.274	3253
887.399	3138
887.523	3211
887.648	3169
887.773	3180
887.897	3351
888.021	3386
888.146	3291
888.27	3439
888.395	3542
888.519	3420
888.643	3488
888.767	3454
888.891	3325
889.015	3241
889.139	3294
889.263	3230
889.387	3370
889.511	3496
889.635	3409
889.759	3291
889.883	3294
890.006	3382
890.13	3500
890.254	3268
890.377	3332
890.501	3165
890.624	3176
890.748	3241
890.871	3176
890.995	3074
891.118	3047
891.241	3192
891.364	3264
891.488	3294
891.611	3192
891.734	3233
891.857	3298
891.98	3233
892.103	3279
892.226	3268
892.349	3173
892.471	3116
892.594	3241
892.717	3291
892.839	3279
892.962	3310
893.085	3344
893.207	3283
893.33	3131
893.452	3214
893.575	3310
893.697	3233
893.819	3485
893.941	3458
894.064	3401
894.186	3260
894.308	3264
894.43	3435
894.552	3515
894.674	3439
894.796	3272
894.918	3272
895.04	3272
895.161	3370
895.283	3344
895.405	3294
895.526	3367
895.648	3428
895.769	3416
895.891	3431
896.012	3477
896.134	3485
896.255	3378
896.376	3363
896.498	3344
896.619	3424
896.74	3355
896.861	3393
896.982	3660
897.103	3823
897.224	3629
897.345	3526
897.466	3412
897.587	3485
897.708	3587
897.828	3580
897.949	3462
898.07	3306
898.19	3409
898.311	3603
898.431	3428
898.552	3473
898.672	3576
898.792	3549
898.913	3507
899.033	3409
899.153	3302
899.273	3199
899.393	3294
899.513	3294
899.633	3317
899.753	3363
899.873	3325
899.993	3348
900.113	3317
900.232	3405
900.352	3313
900.472	3245
900.591	3192
900.711	3313
900.83	3222
900.95	3416
901.069	3485
901.189	3386
901.308	3173
901.427	3154
901.546	3207
901.665	3256
901.784	3310
901.904	3218
902.023	3142
902.141	2990
902.26	3013
902.379	3165
902.498	3074
902.617	3070
902.735	3188
902.854	3218
902.973	3192
903.091	3062
903.21	3058
903.328	3104
903.446	3157
903.565	3085
903.683	3214
903.801	3112
903.919	3211
904.038	3268
904.156	3165
904.274	3302
904.392	3249
904.51	3317
904.627	3332
904.745	3469
904.863	3473
904.981	3268
905.098	3142
905.216	3218
905.334	3306
905.451	3306
905.569	3306
905.686	3412
905.803	3416
905.921	3332
906.038	3420
906.155	3317
906.272	3272
906.389	3359
906.506	3237
906.623	3218
906.74	3310
906.857	3157
906.974	3233
907.091	3416
907.208	3553
907.324	3450
907.441	3370
907.557	3184
907.674	3241
907.79	3188
907.907	3260
908.023	3363
908.139	3363
908.256	3348
908.372	3378
908.488	3340
908.604	3249
908.72	3211
908.836	3287
908.952	3294
909.068	3287
909.184	3469
909.3	3386
909.415	3462
909.531	3450
909.647	3233
909.762	3317
909.878	3222
909.993	3355
910.108	3332
910.224	3317
910.339	3397
910.454	3332
910.57	3351
910.685	3230
910.8	3599
910.915	3519
911.03	3454
911.145	3260
911.259	3279
911.374	3310
911.489	3256
911.604	3237
911.718	3127
911.833	3154
911.947	3036
912.062	3001
912.176	3108
912.291	3218
912.405	3165
912.519	3450
912.633	3431
912.748	3336
912.862	3264
912.976	3173
913.09	3085
913.204	3165
913.318	3207
913.431	3332
913.545	3355
913.659	3367
913.772	3298
913.886	3195
914	3230
914.113	3351
914.226	3378
914.34	3370
914.453	3192
914.566	3420
914.68	3256
914.793	3279
914.906	3142
915.019	3104
915.132	3070
915.245	3169
915.358	3203
915.47	3211
915.583	3256
915.696	3275
915.809	3409
915.921	3393
916.034	3256
916.146	3249
916.259	3207
916.371	3355
916.483	3374
916.595	3230
916.708	3370
916.82	3348
916.932	3321
917.044	3329
917.156	3370
917.268	3253
917.38	3279
917.491	3264
917.603	3401
917.715	3454
917.826	3469
917.938	3370
918.049	3279
918.161	3420
918.272	3523
918.384	3557
918.495	3473
918.606	3340
918.717	3245
918.828	3340
918.939	3405
919.05	3313
919.161	3359
919.272	3195
919.383	3302
919.494	3504
919.604	3675
919.715	3488
919.826	3428
919.936	3450
920.047	3557
920.157	3530
920.267	3728
920.378	3610
920.488	3561
920.598	3774
920.708	3915
920.818	3812
920.928	3785
921.038	4036
921.148	3956
921.258	3709
921.368	3637
921.477	3519
921.587	3545
921.697	3477
921.806	3584
921.916	3462
922.025	3359
922.134	3382
922.244	3313
922.353	3416
922.462	3249
922.571	3199
922.68	3051
922.789	3020
922.898	3131
923.007	3081
923.116	3237
923.224	3195
923.333	3165
923.442	3093
923.55	3097
923.659	3138
923.767	3245
923.876	3093
923.984	3222
924.092	3108
924.201	3188
924.309	3226
924.417	3230
924.525	3180
924.633	3214
924.741	4010
924.849	3085
924.956	3275
925.064	3093
925.172	3020
925.279	3112
925.387	3176
925.494	3195
925.602	3344
925.709	3329
925.816	3138
925.924	3272
926.031	3351
926.138	3332
926.245	3370
926.352	3253
926.459	3386
926.566	3466
926.673	3325
926.779	3237
926.886	3249
926.993	3135
927.099	3081
927.206	3116
927.312	3131
927.419	3245
927.525	3173
927.631	3230
927.737	3131
927.843	3119
927.95	3001
928.056	3150
928.162	3188
928.267	3256
928.373	3755
928.479	3294
928.585	3070
928.69	3203
928.796	3287
928.901	3127
929.007	3036
929.112	3199
929.218	3104
929.323	3176
929.428	3146
929.533	3279
929.638	3085
929.743	3161
929.848	3256
929.953	3249
930.058	3157
930.163	2982
930.267	3047
930.372	3241
930.477	3028
930.581	3294
930.685	3195
930.79	3051
930.894	3146
930.998	3093
931.103	3275
931.207	2971
931.311	2925
931.415	2941
931.519	2750
931.623	2807
