Data from test_V78500241_786.txt Node
Date: Fri Mar 25 16:20:38 CST 2022
User: usil
Spectrometer: V785-0024
Trigger mode: 0
Integration Time (sec): 4.000000E-1
Scans to average: 1
Nonlinearity correction enabled: false
Boxcar width: 0
Storing dark spectrum: false
XAxis mode: Wavelengths
Number of Pixels in Spectrum: 1024
>>>>>Begin Spectral Data<<<<<
801.071	2975
801.214	2982
801.356	2891
801.499	2952
801.641	2933
801.783	2944
801.926	3074
802.068	3017
802.211	3036
802.353	3089
802.496	3039
802.638	3036
802.78	3100
802.923	3100
803.065	3028
803.208	2948
803.35	2963
803.492	2986
803.635	2990
803.777	2773
803.919	2910
804.061	3264
804.204	2979
804.346	2956
804.488	2906
804.63	3020
804.773	2906
804.915	2990
805.057	3108
805.199	2948
805.341	3039
805.483	3058
805.626	3047
805.768	3001
805.91	3116
806.052	3146
806.194	3051
806.336	3241
806.478	3047
806.62	2956
806.762	3001
806.904	3062
807.046	3192
807.188	3013
807.33	2937
807.472	3047
807.614	2963
807.756	3028
807.898	2967
808.04	2967
808.182	2994
808.324	2952
808.465	2910
808.607	2922
808.749	2834
808.891	2845
809.033	3005
809.174	3009
809.316	2925
809.458	2891
809.6	2804
809.741	2864
809.883	2792
810.025	2864
810.166	2876
810.308	2861
810.45	2895
810.591	2785
810.733	2807
810.875	2883
811.016	2800
811.158	2754
811.299	2842
811.441	2922
811.582	2887
811.724	2853
811.865	2826
812.007	2918
812.148	2906
812.29	2906
812.431	2918
812.573	2956
812.714	2998
812.855	3051
812.997	3074
813.138	3146
813.279	3009
813.421	3001
813.562	2967
813.703	2895
813.845	2944
813.986	2804
814.127	2762
814.268	2830
814.41	2838
814.551	2853
814.692	2906
814.833	2853
814.974	2910
815.115	3005
815.256	2842
815.397	2876
815.539	2864
815.68	2807
815.821	2826
815.962	2979
816.103	2960
816.244	2929
816.385	2925
816.526	2986
816.666	2941
816.807	2792
816.948	2891
817.089	2948
817.23	2864
817.371	2842
817.512	2804
817.653	2880
817.793	2899
817.934	2891
818.075	2944
818.216	3055
818.356	3085
818.497	2910
818.638	2834
818.778	2883
818.919	2838
819.06	2773
819.2	2914
819.341	2842
819.481	2823
819.622	2979
819.762	3127
819.903	3081
820.043	2918
820.184	2910
820.324	2929
820.465	3055
820.605	3024
820.746	3070
820.886	2967
821.026	3135
821.167	3211
821.307	3291
821.447	3321
821.588	3291
821.728	3226
821.868	3226
822.008	3112
822.149	3188
822.289	3294
822.429	3116
822.569	3131
822.709	3173
822.849	3062
822.99	3077
823.13	3173
823.27	3256
823.41	3123
823.55	3184
823.69	3176
823.83	3233
823.97	3127
824.11	3036
824.25	3024
824.389	3062
824.529	3161
824.669	3077
824.809	3199
824.949	3256
825.089	3279
825.228	3207
825.368	3039
825.508	3009
825.648	3005
825.787	3062
825.927	3013
826.067	2971
826.206	2956
826.346	3077
826.485	3089
826.625	3100
826.765	3264
826.904	3222
827.044	3005
827.183	2956
827.323	2872
827.462	2971
827.601	2910
827.741	2948
827.88	3001
828.02	2864
828.159	3001
828.298	3058
828.437	3100
828.577	3032
828.716	3268
828.855	3104
828.994	2948
829.134	2948
829.273	2960
829.412	2880
829.551	2883
829.69	2880
829.829	3020
829.968	3184
830.107	3009
830.246	3028
830.385	2937
830.524	2883
830.663	2838
830.802	2766
830.941	2682
831.08	2689
831.219	2804
831.357	2773
831.496	2956
831.635	2731
831.774	2648
831.913	2678
832.051	2560
832.19	2606
832.329	2667
832.467	2560
832.606	2457
832.744	2602
832.883	2613
833.022	2598
833.16	2670
833.299	2712
833.437	2720
833.576	2743
833.714	2731
833.852	2773
833.991	2788
834.129	2910
834.267	2849
834.406	2826
834.544	2891
834.682	2906
834.821	2872
834.959	3093
835.097	2902
835.235	3093
835.373	3020
835.511	3024
835.65	2960
835.788	2975
835.926	2838
836.064	2830
836.202	2891
836.34	3131
836.478	3161
836.615	3062
836.753	3119
836.891	3226
837.029	3161
837.167	3138
837.305	3062
837.443	3051
837.58	2963
837.718	3165
837.856	3108
837.993	3077
838.131	3127
838.269	3150
838.406	3169
838.544	3093
838.681	2971
838.819	2937
838.956	2838
839.094	2830
839.231	2933
839.369	3036
839.506	3409
839.643	3222
839.781	3039
839.918	2990
840.055	3058
840.193	3070
840.33	3097
840.467	3116
840.604	3165
840.742	3393
840.879	3085
841.016	3066
841.153	3154
841.29	3363
841.427	3302
841.564	3310
841.701	3317
841.838	3218
841.975	3180
842.112	3226
842.249	3066
842.385	3051
842.522	3283
842.659	3165
842.796	3100
842.933	3123
843.069	3070
843.206	3066
843.343	3195
843.479	3138
843.616	3119
843.752	2906
843.889	2910
844.025	3066
844.162	2922
844.298	3085
844.435	2971
844.571	2918
844.708	3085
844.844	3207
844.98	3222
845.117	3195
845.253	3077
845.389	3058
845.525	3100
845.661	3093
845.798	2994
845.934	3119
846.07	3062
846.206	3203
846.342	3325
846.478	3287
846.614	3100
846.75	3062
846.886	3055
847.022	3275
847.158	3142
847.294	3230
847.429	3222
847.565	3230
847.701	3519
847.837	3032
847.972	3028
848.108	3169
848.244	3150
848.379	2975
848.515	2979
848.65	2952
848.786	2975
848.921	3028
849.057	3108
849.192	3135
849.328	3093
849.463	3131
849.598	3058
849.734	3032
849.869	3009
850.004	2975
850.14	2956
850.275	2956
850.41	2845
850.545	2872
850.68	2910
850.815	2952
850.95	2979
851.085	3157
851.22	3112
851.355	3051
851.49	2998
851.625	2986
851.76	3043
851.895	2986
852.03	2925
852.165	3055
852.299	3135
852.434	3211
852.569	3142
852.703	3192
852.838	3245
852.973	3355
853.107	3351
853.242	3138
853.376	3112
853.511	2990
853.645	3077
853.78	3272
853.914	3116
854.048	3138
854.183	3112
854.317	3165
854.451	3310
854.585	3112
854.72	3089
854.854	3173
854.988	3074
855.122	3081
855.256	2967
855.39	3108
855.524	3230
855.658	3173
855.792	3138
855.926	3199
856.06	3233
856.194	3249
856.327	3169
856.461	3097
856.595	3104
856.729	3112
856.862	3230
856.996	3138
857.13	3226
857.263	3253
857.397	3260
857.53	3104
857.664	3180
857.797	3256
857.931	3253
858.064	3176
858.197	3245
858.331	3138
858.464	3081
858.597	2986
858.731	3112
858.864	3195
858.997	3108
859.13	3104
859.263	3173
859.396	3195
859.529	3081
859.662	3081
859.795	3081
859.928	3131
860.061	3287
860.194	3298
860.327	3169
860.46	3116
860.592	3264
860.725	3237
860.858	3294
860.99	3123
861.123	3028
861.256	3066
861.388	3123
861.521	3926
861.653	3047
861.786	2967
861.918	3020
862.05	3058
862.183	3085
862.315	3138
862.447	3222
862.58	3116
862.712	2952
862.844	2864
862.976	3020
863.108	2990
863.24	3443
863.372	2857
863.504	2982
863.636	2963
863.768	3032
863.9	3005
864.032	2922
864.164	2948
864.296	3020
864.428	3070
864.559	3116
864.691	3062
864.823	3039
864.954	3062
865.086	3066
865.217	2982
865.349	2944
865.48	2971
865.612	3032
865.743	3188
865.875	2960
866.006	2929
866.137	2944
866.269	2952
866.4	2941
866.531	2925
866.662	2910
866.793	2906
866.924	2906
867.055	2971
867.186	2937
867.317	2883
867.448	2804
867.579	2864
867.71	2883
867.841	2796
867.972	2902
868.103	2895
868.233	2910
868.364	2883
868.495	2918
868.625	3070
868.756	3176
868.886	2990
869.017	3028
869.147	3161
869.278	3180
869.408	3058
869.539	3066
869.669	3119
869.799	3066
869.929	3116
870.06	3142
870.19	3348
870.32	3279
870.45	3294
870.58	3370
870.71	3428
870.84	3469
870.97	3260
871.1	3268
871.23	3454
871.36	3458
871.489	3359
871.619	3409
871.749	3428
871.879	3469
872.008	3481
872.138	3355
872.267	3237
872.397	3176
872.526	3100
872.656	3001
872.785	3100
872.915	3214
873.044	3306
873.173	3214
873.303	3214
873.432	3237
873.561	3218
873.69	3146
873.819	3180
873.948	3218
874.077	3104
874.206	3047
874.335	3089
874.464	3226
874.593	3348
874.722	3233
874.851	3401
874.979	3348
875.108	3321
875.237	3180
875.365	3188
875.494	3169
875.623	3230
875.751	3070
875.88	3123
876.008	3222
876.136	3253
876.265	3351
876.393	3523
876.521	3405
876.65	3359
876.778	3336
876.906	3253
877.034	3192
877.162	3199
877.29	3188
877.418	3226
877.546	3241
877.674	3233
877.802	3218
877.93	3218
878.058	3154
878.185	3116
878.313	3233
878.441	3180
878.568	3085
878.696	3180
878.824	3230
878.951	3321
879.079	3416
879.206	3584
879.333	3416
879.461	3329
879.588	3359
879.715	3492
879.842	3595
879.97	3351
880.097	3188
880.224	3154
880.351	3173
880.478	3203
880.605	3180
880.732	3165
880.859	3481
880.986	3340
881.112	3302
881.239	3180
881.366	3058
881.493	3032
881.619	3001
881.746	3093
881.872	3070
881.999	3081
882.125	3142
882.252	3237
882.378	3256
882.505	3450
882.631	3283
882.757	3169
882.883	3203
883.01	3188
883.136	3150
883.262	3112
883.388	3104
883.514	3310
883.64	3382
883.766	3340
883.892	3203
884.018	3226
884.143	3409
884.269	3530
884.395	3192
884.52	3188
884.646	3211
884.772	3116
884.897	3070
885.023	3214
885.148	3313
885.274	3405
885.399	3363
885.524	3272
885.65	3230
885.775	3325
885.9	3233
886.025	3466
886.15	3321
886.275	3298
886.4	3226
886.525	3287
886.65	3249
886.775	3245
886.9	3515
887.025	3671
887.149	3416
887.274	3272
887.399	3188
887.523	3203
887.648	3131
887.773	3203
887.897	3374
888.021	3355
888.146	3329
888.27	3466
888.395	3549
888.519	3450
888.643	3450
888.767	3492
888.891	3302
889.015	3268
889.139	3313
889.263	3249
889.387	3393
889.511	3500
889.635	3462
889.759	3279
889.883	3306
890.006	3401
890.13	3496
890.254	3283
890.377	3355
890.501	3222
890.624	3192
890.748	3268
890.871	3173
890.995	3123
891.118	3077
891.241	3180
891.364	3211
891.488	3298
891.611	3230
891.734	3237
891.857	3264
891.98	3230
892.103	3294
892.226	3275
892.349	3157
892.471	3085
892.594	3256
892.717	3291
892.839	3268
892.962	3298
893.085	3370
893.207	3294
893.33	3131
893.452	3207
893.575	3359
893.697	3237
893.819	3507
893.941	3507
894.064	3412
894.186	3253
894.308	3237
894.43	3447
894.552	3523
894.674	3485
894.796	3230
894.918	3275
895.04	3272
895.161	3431
895.283	3412
895.405	3332
895.526	3313
895.648	3409
895.769	3439
895.891	3431
896.012	3450
896.134	3488
896.255	3412
896.376	3382
896.498	3370
896.619	3435
896.74	3397
896.861	3336
896.982	3701
897.103	3808
897.224	3614
897.345	3511
897.466	3405
897.587	3477
897.708	3648
897.828	3534
897.949	3435
898.07	3329
898.19	3386
898.311	3584
898.431	3439
898.552	3515
898.672	3610
898.792	3572
898.913	3515
899.033	3424
899.153	3332
899.273	3256
899.393	3264
899.513	3302
899.633	3291
899.753	3294
899.873	3306
899.993	3389
900.113	3363
900.232	3397
900.352	3298
900.472	3283
900.591	3184
900.711	3275
900.83	3260
900.95	3409
901.069	3500
901.189	3317
901.308	3135
901.427	3135
901.546	3207
901.665	3310
901.784	3340
901.904	3237
902.023	3127
902.141	3017
902.26	2994
902.379	3135
902.498	3093
902.617	3070
902.735	3157
902.854	3211
902.973	3169
903.091	3043
903.21	3081
903.328	3173
903.446	3112
903.565	3131
903.683	3207
903.801	3127
903.919	3260
904.038	3294
904.156	3184
904.274	3272
904.392	3253
904.51	3291
904.627	3313
904.745	3424
904.863	3469
904.981	3222
905.098	3146
905.216	3233
905.334	3325
905.451	3302
905.569	3348
905.686	3412
905.803	3458
905.921	3321
906.038	3431
906.155	3348
906.272	3260
906.389	3363
906.506	3211
906.623	3283
906.74	3268
906.857	3180
906.974	3249
907.091	3443
907.208	3591
907.324	3428
907.441	3405
907.557	3188
907.674	3180
907.79	3195
907.907	3256
908.023	3370
908.139	3332
908.256	3310
908.372	3340
908.488	3340
908.604	3245
908.72	3237
908.836	3256
908.952	3279
909.068	3329
909.184	3481
909.3	3412
909.415	3450
909.531	3443
909.647	3302
909.762	3287
909.878	3256
909.993	3378
910.108	3340
910.224	3370
910.339	3382
910.454	3351
910.57	3317
910.685	3268
910.8	3603
910.915	3496
911.03	3443
911.145	3260
911.259	3233
911.374	3321
911.489	3253
911.604	3207
911.718	3119
911.833	3146
911.947	3005
912.062	3001
912.176	3157
912.291	3199
912.405	3188
912.519	3450
912.633	3466
912.748	3382
912.862	3275
912.976	3184
913.09	3028
913.204	3157
913.318	3226
913.431	3344
913.545	3332
913.659	3378
913.772	3317
913.886	3230
914	3192
914.113	3367
914.226	3428
914.34	3370
914.453	3237
914.566	3439
914.68	3279
914.793	3275
914.906	3138
915.019	3123
915.132	3093
915.245	3184
915.358	3192
915.47	3199
915.583	3298
915.696	3253
915.809	3386
915.921	3409
916.034	3272
916.146	3264
916.259	3192
916.371	3351
916.483	3389
916.595	3287
916.708	3359
916.82	3359
916.932	3306
917.044	3363
917.156	3370
917.268	3260
917.38	3348
917.491	3306
917.603	3382
917.715	3462
917.826	3458
917.938	3351
918.049	3260
918.161	3428
918.272	3584
918.384	3542
918.495	3481
918.606	3340
918.717	3264
918.828	3405
918.939	3409
919.05	3287
919.161	3374
919.272	3192
919.383	3291
919.494	3492
919.604	3686
919.715	3447
919.826	3420
919.936	3405
920.047	3622
920.157	3553
920.267	3728
920.378	3606
920.488	3576
920.598	3785
920.708	3956
920.818	3804
920.928	3804
921.038	4013
921.148	4002
921.258	3694
921.368	3637
921.477	3542
921.587	3561
921.697	3481
921.806	3606
921.916	3488
922.025	3321
922.134	3359
922.244	3329
922.353	3447
922.462	3283
922.571	3233
922.68	3119
922.789	3051
922.898	3119
923.007	3085
923.116	3180
923.224	3218
923.333	3192
923.442	3085
923.55	3085
923.659	3131
923.767	3192
923.876	3100
923.984	3222
924.092	3112
924.201	3218
924.309	3188
924.417	3260
924.525	3173
924.633	3245
924.741	4200
924.849	3047
924.956	3264
925.064	3089
925.172	3062
925.279	3108
925.387	3184
925.494	3211
925.602	3348
925.709	3310
925.816	3218
925.924	3272
926.031	3386
926.138	3298
926.245	3310
926.352	3214
926.459	3405
926.566	3477
926.673	3298
926.779	3211
926.886	3275
926.993	3150
927.099	3150
927.206	3123
927.312	3119
927.419	3218
927.525	3173
927.631	3233
927.737	3146
927.843	3127
927.95	3036
928.056	3116
928.162	3142
928.267	3214
928.373	3781
928.479	3332
928.585	3066
928.69	3199
928.796	3294
928.901	3127
929.007	3051
929.112	3218
929.218	3169
929.323	3146
929.428	3123
929.533	3272
929.638	3077
929.743	3142
929.848	3310
929.953	3214
930.058	3157
930.163	2982
930.267	3093
930.372	3230
930.477	3043
930.581	3291
930.685	3138
930.79	3055
930.894	3085
930.998	3108
931.103	3245
931.207	2960
931.311	2944
931.415	2880
931.519	2743
931.623	2792
