Data from test_V78500241_52.txt Node
Date: Fri Mar 25 16:15:33 CST 2022
User: usil
Spectrometer: V785-0024
Trigger mode: 0
Integration Time (sec): 4.000000E-1
Scans to average: 1
Nonlinearity correction enabled: false
Boxcar width: 0
Storing dark spectrum: false
XAxis mode: Wavelengths
Number of Pixels in Spectrum: 1024
>>>>>Begin Spectral Data<<<<<
801.071	2899
801.214	2990
801.356	2895
801.499	2895
801.641	2899
801.783	2937
801.926	3074
802.068	2994
802.211	3039
802.353	3066
802.496	3005
802.638	3074
802.78	3077
802.923	3127
803.065	3055
803.208	2937
803.35	2952
803.492	2963
803.635	2914
803.777	2777
803.919	2895
804.061	3207
804.204	2994
804.346	2910
804.488	2868
804.63	3028
804.773	2910
804.915	2929
805.057	3104
805.199	2975
805.341	3005
805.483	3085
805.626	3017
805.768	3001
805.91	3104
806.052	3165
806.194	3074
806.336	3253
806.478	3047
806.62	2960
806.762	3009
806.904	3093
807.046	3192
807.188	3028
807.33	2910
807.472	3020
807.614	2933
807.756	3024
807.898	2967
808.04	2941
808.182	2994
808.324	2971
808.465	2937
808.607	2922
808.749	2800
808.891	2868
809.033	2986
809.174	3001
809.316	2914
809.458	2910
809.6	2819
809.741	2788
809.883	2766
810.025	2853
810.166	2895
810.308	2845
810.45	2910
810.591	2811
810.733	2792
810.875	2868
811.016	2800
811.158	2769
811.299	2845
811.441	2967
811.582	2925
811.724	2842
811.865	2845
812.007	2944
812.148	2918
812.29	2861
812.431	2910
812.573	2971
812.714	2960
812.855	3085
812.997	3089
813.138	3176
813.279	3028
813.421	3009
813.562	2979
813.703	2902
813.845	2910
813.986	2792
814.127	2735
814.268	2864
814.41	2864
814.551	2845
814.692	2922
814.833	2838
814.974	2941
815.115	2952
815.256	2876
815.397	2853
815.539	2857
815.68	2807
815.821	2842
815.962	2994
816.103	2937
816.244	2922
816.385	2929
816.526	2986
816.666	2918
816.807	2800
816.948	2902
817.089	2952
817.23	2891
817.371	2834
817.512	2853
817.653	2891
817.793	2857
817.934	2910
818.075	2986
818.216	3020
818.356	3074
818.497	2899
818.638	2811
818.778	2807
818.919	2807
819.06	2777
819.2	2937
819.341	2815
819.481	2842
819.622	2952
819.762	3119
819.903	3077
820.043	2918
820.184	2941
820.324	2914
820.465	3028
820.605	3032
820.746	3043
820.886	2952
821.026	3135
821.167	3157
821.307	3306
821.447	3283
821.588	3294
821.728	3256
821.868	3195
822.008	3093
822.149	3237
822.289	3268
822.429	3123
822.569	3123
822.709	3192
822.849	3032
822.99	3085
823.13	3207
823.27	3222
823.41	3146
823.55	3195
823.69	3211
823.83	3188
823.97	3089
824.11	2982
824.25	3043
824.389	3097
824.529	3154
824.669	3066
824.809	3192
824.949	3310
825.089	3245
825.228	3211
825.368	3020
825.508	2971
825.648	3005
825.787	3043
825.927	3047
826.067	3009
826.206	3009
826.346	3039
826.485	3081
826.625	3180
826.765	3283
826.904	3233
827.044	2960
827.183	2971
827.323	2861
827.462	3036
827.601	2941
827.741	2952
827.88	3001
828.02	2902
828.159	3024
828.298	3070
828.437	3184
828.577	3100
828.716	3287
828.855	3112
828.994	2982
829.134	2948
829.273	2963
829.412	2929
829.551	2929
829.69	2910
829.829	3032
829.968	3195
830.107	3077
830.246	3074
830.385	2967
830.524	2960
830.663	2868
830.802	2796
830.941	2701
831.08	2705
831.219	2853
831.357	2807
831.496	3043
831.635	2781
831.774	2678
831.913	2720
832.051	2651
832.19	2625
832.329	2716
832.467	2590
832.606	2556
832.744	2651
832.883	2613
833.022	2632
833.16	2705
833.299	2781
833.437	2762
833.576	2773
833.714	2800
833.852	2807
833.991	2804
834.129	2956
834.267	2876
834.406	2834
834.544	2906
834.682	2944
834.821	2925
834.959	3123
835.097	2979
835.235	3165
835.373	3043
835.511	3119
835.65	3058
835.788	3032
835.926	2925
836.064	2883
836.202	2918
836.34	3138
836.478	3199
836.615	3097
836.753	3237
836.891	3294
837.029	3237
837.167	3203
837.305	3150
837.443	3123
837.58	3036
837.718	3154
837.856	3131
837.993	3112
838.131	3180
838.269	3211
838.406	3154
838.544	3176
838.681	3009
838.819	2948
838.956	2887
839.094	2876
839.231	2986
839.369	3097
839.506	3447
839.643	3317
839.781	3089
839.918	3013
840.055	3161
840.193	3127
840.33	3138
840.467	3176
840.604	3233
840.742	3485
840.879	3119
841.016	3127
841.153	3180
841.29	3416
841.427	3294
841.564	3317
841.701	3412
841.838	3298
841.975	3256
842.112	3306
842.249	3150
842.385	3127
842.522	3294
842.659	3157
842.796	3123
842.933	3154
843.069	3146
843.206	3097
843.343	3279
843.479	3150
843.616	3218
843.752	3005
843.889	2929
844.025	3161
844.162	2960
844.298	3142
844.435	3047
844.571	2990
844.708	3131
844.844	3256
844.98	3279
845.117	3245
845.253	3104
845.389	3062
845.525	3165
845.661	3165
845.798	3108
845.934	3176
846.07	3112
846.206	3302
846.342	3393
846.478	3302
846.614	3142
846.75	3142
846.886	3100
847.022	3325
847.158	3188
847.294	3279
847.429	3332
847.565	3253
847.701	3576
847.837	3097
847.972	3077
848.108	3253
848.244	3192
848.379	3047
848.515	3024
848.65	3013
848.786	3055
848.921	3070
849.057	3154
849.192	3233
849.328	3154
849.463	3150
849.598	3135
849.734	3085
849.869	3055
850.004	3001
850.14	2998
850.275	2982
850.41	2902
850.545	2963
850.68	2990
850.815	3039
850.95	3032
851.085	3245
851.22	3138
851.355	3093
851.49	3024
851.625	3039
851.76	3089
851.895	2998
852.03	2952
852.165	3138
852.299	3176
852.434	3253
852.569	3230
852.703	3272
852.838	3317
852.973	3424
853.107	3405
853.242	3222
853.376	3154
853.511	3039
853.645	3097
853.78	3260
853.914	3176
854.048	3203
854.183	3138
854.317	3222
854.451	3370
854.585	3203
854.72	3184
854.854	3253
854.988	3142
855.122	3157
855.256	3028
855.39	3188
855.524	3355
855.658	3237
855.792	3230
855.926	3230
856.06	3313
856.194	3344
856.327	3241
856.461	3142
856.595	3169
856.729	3207
856.862	3310
856.996	3249
857.13	3272
857.263	3287
857.397	3351
857.53	3188
857.664	3241
857.797	3351
857.931	3294
858.064	3253
858.197	3249
858.331	3173
858.464	3165
858.597	3070
858.731	3188
858.864	3195
858.997	3165
859.13	3226
859.263	3241
859.396	3287
859.529	3180
859.662	3180
859.795	3127
859.928	3188
860.061	3302
860.194	3382
860.327	3192
860.46	3142
860.592	3313
860.725	3336
860.858	3291
860.99	3169
861.123	3135
861.256	3123
861.388	3226
861.521	3941
861.653	3089
861.786	3039
861.918	3085
862.05	3131
862.183	3161
862.315	3203
862.447	3260
862.58	3188
862.712	3024
862.844	2941
862.976	3093
863.108	3085
863.24	3374
863.372	2948
863.504	3020
863.636	3039
863.768	3097
863.9	3032
864.032	2998
864.164	3017
864.296	3055
864.428	3138
864.559	3142
864.691	3123
864.823	3154
864.954	3116
865.086	3108
865.217	3039
865.349	3013
865.48	3020
865.612	3089
865.743	3214
865.875	3066
866.006	3020
866.137	3051
866.269	3005
866.4	3005
866.531	2998
866.662	2952
866.793	2963
866.924	2960
867.055	2998
867.186	2971
867.317	2944
867.448	2918
867.579	2918
867.71	2941
867.841	2864
867.972	2963
868.103	2956
868.233	2960
868.364	2963
868.495	2975
868.625	3135
868.756	3199
868.886	3024
869.017	3058
869.147	3241
869.278	3260
869.408	3127
869.539	3108
869.669	3161
869.799	3127
869.929	3211
870.06	3165
870.19	3393
870.32	3355
870.45	3367
870.58	3405
870.71	3500
870.84	3515
870.97	3367
871.1	3321
871.23	3542
871.36	3511
871.489	3397
871.619	3519
871.749	3466
871.879	3534
872.008	3545
872.138	3420
872.267	3336
872.397	3188
872.526	3146
872.656	3116
872.785	3173
872.915	3275
873.044	3409
873.173	3283
873.303	3298
873.432	3313
873.561	3291
873.69	3241
873.819	3207
873.948	3275
874.077	3180
874.206	3097
874.335	3157
874.464	3218
874.593	3462
874.722	3298
874.851	3466
874.979	3397
875.108	3367
875.237	3268
875.365	3218
875.494	3218
875.623	3329
875.751	3093
875.88	3123
876.008	3237
876.136	3260
876.265	3435
876.393	3584
876.521	3485
876.65	3481
876.778	3382
876.906	3268
877.034	3272
877.162	3306
877.29	3226
877.418	3306
877.546	3310
877.674	3313
877.802	3264
877.93	3329
878.058	3214
878.185	3157
878.313	3249
878.441	3272
878.568	3100
878.696	3188
878.824	3348
878.951	3336
879.079	3519
879.206	3694
879.333	3488
879.461	3378
879.588	3454
879.715	3557
879.842	3686
879.97	3439
880.097	3222
880.224	3192
880.351	3241
880.478	3279
880.605	3230
880.732	3268
880.859	3542
880.986	3363
881.112	3370
881.239	3287
881.366	3157
881.493	3100
881.619	3058
881.746	3112
881.872	3142
881.999	3123
882.125	3199
882.252	3287
882.378	3313
882.505	3481
882.631	3378
882.757	3199
882.883	3275
883.01	3264
883.136	3233
883.262	3157
883.388	3173
883.514	3389
883.64	3443
883.766	3370
883.892	3241
884.018	3279
884.143	3492
884.269	3614
884.395	3272
884.52	3203
884.646	3203
884.772	3188
884.897	3169
885.023	3268
885.148	3431
885.274	3519
885.399	3397
885.524	3325
885.65	3294
885.775	3344
885.9	3306
886.025	3523
886.15	3405
886.275	3351
886.4	3310
886.525	3393
886.65	3306
886.775	3310
886.9	3591
887.025	3660
887.149	3450
887.274	3306
887.399	3237
887.523	3268
887.648	3272
887.773	3249
887.897	3420
888.021	3485
888.146	3359
888.27	3534
888.395	3576
888.519	3553
888.643	3500
888.767	3492
888.891	3351
889.015	3291
889.139	3374
889.263	3321
889.387	3466
889.511	3584
889.635	3500
889.759	3325
889.883	3355
890.006	3431
890.13	3530
890.254	3332
890.377	3428
890.501	3264
890.624	3230
890.748	3378
890.871	3222
890.995	3188
891.118	3142
891.241	3237
891.364	3294
891.488	3405
891.611	3256
891.734	3302
891.857	3351
891.98	3279
892.103	3401
892.226	3329
892.349	3298
892.471	3173
892.594	3317
892.717	3306
892.839	3359
892.962	3329
893.085	3443
893.207	3367
893.33	3184
893.452	3275
893.575	3409
893.697	3283
893.819	3500
893.941	3599
894.064	3504
894.186	3340
894.308	3321
894.43	3496
894.552	3542
894.674	3481
894.796	3321
894.918	3378
895.04	3336
895.161	3454
895.283	3435
895.405	3378
895.526	3431
895.648	3477
895.769	3473
895.891	3496
896.012	3553
896.134	3561
896.255	3477
896.376	3416
896.498	3389
896.619	3488
896.74	3424
896.861	3473
896.982	3778
897.103	3892
897.224	3675
897.345	3561
897.466	3477
897.587	3504
897.708	3675
897.828	3564
897.949	3450
898.07	3363
898.19	3458
898.311	3648
898.431	3485
898.552	3580
898.672	3679
898.792	3656
898.913	3549
899.033	3481
899.153	3336
899.273	3329
899.393	3344
899.513	3367
899.633	3332
899.753	3367
899.873	3374
899.993	3386
900.113	3393
900.232	3420
900.352	3363
900.472	3321
900.591	3249
900.711	3367
900.83	3291
900.95	3462
901.069	3523
901.189	3405
901.308	3233
901.427	3173
901.546	3245
901.665	3382
901.784	3405
901.904	3294
902.023	3192
902.141	3062
902.26	3058
902.379	3150
902.498	3138
902.617	3127
902.735	3264
902.854	3340
902.973	3260
903.091	3112
903.21	3100
903.328	3176
903.446	3146
903.565	3180
903.683	3272
903.801	3184
903.919	3313
904.038	3340
904.156	3218
904.274	3351
904.392	3344
904.51	3386
904.627	3397
904.745	3507
904.863	3534
904.981	3332
905.098	3222
905.216	3310
905.334	3382
905.451	3374
905.569	3393
905.686	3488
905.803	3553
905.921	3397
906.038	3523
906.155	3466
906.272	3378
906.389	3454
906.506	3340
906.623	3340
906.74	3340
906.857	3241
906.974	3329
907.091	3507
907.208	3633
907.324	3568
907.441	3466
907.557	3298
907.674	3260
907.79	3245
907.907	3367
908.023	3485
908.139	3469
908.256	3450
908.372	3481
908.488	3424
908.604	3344
908.72	3317
908.836	3401
908.952	3332
909.068	3439
909.184	3545
909.3	3496
909.415	3641
909.531	3553
909.647	3367
909.762	3397
909.878	3344
909.993	3431
910.108	3409
910.224	3401
910.339	3496
910.454	3428
910.57	3359
910.685	3340
910.8	3679
910.915	3663
911.03	3553
911.145	3355
911.259	3340
911.374	3393
911.489	3336
911.604	3310
911.718	3230
911.833	3260
911.947	3085
912.062	3028
912.176	3245
912.291	3279
912.405	3287
912.519	3507
912.633	3568
912.748	3443
912.862	3397
912.976	3222
913.09	3157
913.204	3203
913.318	3336
913.431	3431
913.545	3431
913.659	3477
913.772	3439
913.886	3332
914	3253
914.113	3424
914.226	3477
914.34	3416
914.453	3344
914.566	3500
914.68	3386
914.793	3401
914.906	3184
915.019	3214
915.132	3154
915.245	3253
915.358	3272
915.47	3291
915.583	3340
915.696	3363
915.809	3473
915.921	3492
916.034	3378
916.146	3363
916.259	3302
916.371	3492
916.483	3424
916.595	3367
916.708	3393
916.82	3412
916.932	3439
917.044	3439
917.156	3431
917.268	3321
917.38	3325
917.491	3382
917.603	3458
917.715	3538
917.826	3561
917.938	3454
918.049	3363
918.161	3511
918.272	3644
918.384	3610
918.495	3572
918.606	3450
918.717	3367
918.828	3507
918.939	3538
919.05	3405
919.161	3439
919.272	3272
919.383	3367
919.494	3561
919.604	3766
919.715	3584
919.826	3485
919.936	3568
920.047	3633
920.157	3648
920.267	3827
920.378	3679
920.488	3648
920.598	3922
920.708	4013
920.818	3915
920.928	3892
921.038	4097
921.148	4120
921.258	3804
921.368	3743
921.477	3671
921.587	3599
921.697	3545
921.806	3747
921.916	3618
922.025	3454
922.134	3405
922.244	3412
922.353	3507
922.462	3355
922.571	3306
922.68	3135
922.789	3154
922.898	3226
923.007	3173
923.116	3294
923.224	3226
923.333	3306
923.442	3176
923.55	3142
923.659	3176
923.767	3302
923.876	3157
923.984	3287
924.092	3161
924.201	3283
924.309	3336
924.417	3340
924.525	3279
924.633	3321
924.741	4268
924.849	3127
924.956	3355
925.064	3150
925.172	3138
925.279	3173
925.387	3260
925.494	3294
925.602	3450
925.709	3412
925.816	3256
925.924	3382
926.031	3477
926.138	3405
926.245	3439
926.352	3310
926.459	3492
926.566	3545
926.673	3348
926.779	3382
926.886	3348
926.993	3222
927.099	3237
927.206	3184
927.312	3195
927.419	3294
927.525	3272
927.631	3359
927.737	3218
927.843	3207
927.95	3081
928.056	3203
928.162	3241
928.267	3351
928.373	3831
928.479	3363
928.585	3123
928.69	3294
928.796	3374
928.901	3256
929.007	3131
929.112	3294
929.218	3249
929.323	3214
929.428	3203
929.533	3359
929.638	3184
929.743	3249
929.848	3378
929.953	3272
930.058	3214
930.163	3108
930.267	3112
930.372	3264
930.477	3112
930.581	3382
930.685	3275
930.79	3142
930.894	3230
930.998	3184
931.103	3340
931.207	3009
931.311	3020
931.415	2967
931.519	2853
931.623	2857
