Data from test_V78500241_1737.txt Node
Date: Fri Mar 25 16:27:14 CST 2022
User: usil
Spectrometer: V785-0024
Trigger mode: 0
Integration Time (sec): 4.000000E-1
Scans to average: 1
Nonlinearity correction enabled: false
Boxcar width: 0
Storing dark spectrum: false
XAxis mode: Wavelengths
Number of Pixels in Spectrum: 1024
>>>>>Begin Spectral Data<<<<<
801.071	2887
801.214	2925
801.356	2872
801.499	2864
801.641	2887
801.783	2918
801.926	3028
802.068	2967
802.211	2998
802.353	3005
802.496	2975
802.638	3024
802.78	3039
802.923	3097
803.065	3013
803.208	2887
803.35	2918
803.492	2918
803.635	2914
803.777	2746
803.919	2849
804.061	3169
804.204	2925
804.346	2891
804.488	2849
804.63	2975
804.773	2849
804.915	2883
805.057	3066
805.199	2941
805.341	2994
805.483	3039
805.626	3009
805.768	2925
805.91	3100
806.052	3123
806.194	3036
806.336	3233
806.478	3017
806.62	2941
806.762	2975
806.904	3051
807.046	3119
807.188	2986
807.33	2899
807.472	2979
807.614	2944
807.756	3005
807.898	2941
808.04	2887
808.182	2998
808.324	2975
808.465	2880
808.607	2868
808.749	2845
808.891	2800
809.033	2967
809.174	2971
809.316	2876
809.458	2872
809.6	2781
809.741	2796
809.883	2777
810.025	2857
810.166	2838
810.308	2773
810.45	2861
810.591	2811
810.733	2731
810.875	2796
811.016	2800
811.158	2712
811.299	2857
811.441	2902
811.582	2895
811.724	2823
811.865	2849
812.007	2914
812.148	2868
812.29	2830
812.431	2857
812.573	2910
812.714	2952
812.855	3028
812.997	3058
813.138	3146
813.279	3020
813.421	2971
813.562	2979
813.703	2902
813.845	2891
813.986	2750
814.127	2724
814.268	2830
814.41	2834
814.551	2792
814.692	2868
814.833	2785
814.974	2925
815.115	2933
815.256	2842
815.397	2788
815.539	2914
815.68	2766
815.821	2773
815.962	2952
816.103	2944
816.244	2876
816.385	2872
816.526	2956
816.666	2937
816.807	2758
816.948	2887
817.089	2868
817.23	2849
817.371	2762
817.512	2769
817.653	2804
817.793	2830
817.934	2902
818.075	2944
818.216	2998
818.356	3032
818.497	2895
818.638	2804
818.778	2785
818.919	2804
819.06	2735
819.2	2861
819.341	2750
819.481	2792
819.622	2918
819.762	3066
819.903	3039
820.043	2899
820.184	2918
820.324	2925
820.465	3017
820.605	3020
820.746	2986
820.886	2914
821.026	3070
821.167	3192
821.307	3241
821.447	3287
821.588	3260
821.728	3199
821.868	3176
822.008	3085
822.149	3199
822.289	3237
822.429	3097
822.569	3074
822.709	3173
822.849	3051
822.99	3047
823.13	3161
823.27	3161
823.41	3097
823.55	3180
823.69	3169
823.83	3245
823.97	3097
824.11	3005
824.25	3036
824.389	3070
824.529	3116
824.669	3066
824.809	3180
824.949	3222
825.089	3203
825.228	3157
825.368	2994
825.508	2925
825.648	2960
825.787	2994
825.927	3013
826.067	2979
826.206	2937
826.346	3051
826.485	3108
826.625	3116
826.765	3260
826.904	3195
827.044	2967
827.183	2922
827.323	2834
827.462	2937
827.601	2918
827.741	2925
827.88	2952
828.02	2811
828.159	2975
828.298	3051
828.437	3131
828.577	3039
828.716	3253
828.855	3097
828.994	2922
829.134	2887
829.273	2899
829.412	2876
829.551	2891
829.69	2891
829.829	2963
829.968	3135
830.107	2998
830.246	3036
830.385	2887
830.524	2872
830.663	2823
830.802	2735
830.941	2674
831.08	2636
831.219	2758
831.357	2773
831.496	2887
831.635	2727
831.774	2640
831.913	2651
832.051	2533
832.19	2594
832.329	2693
832.467	2522
832.606	2469
832.744	2552
832.883	2564
833.022	2552
833.16	2625
833.299	2689
833.437	2659
833.576	2724
833.714	2678
833.852	2705
833.991	2781
834.129	2819
834.267	2811
834.406	2773
834.544	2872
834.682	2883
834.821	2834
834.959	3017
835.097	2922
835.235	3047
835.373	2956
835.511	3013
835.65	2952
835.788	2960
835.926	2834
836.064	2838
836.202	2853
836.34	3081
836.478	3108
836.615	3047
836.753	3131
836.891	3207
837.029	3154
837.167	3104
837.305	3055
837.443	3028
837.58	2975
837.718	3100
837.856	3093
837.993	3024
838.131	3142
838.269	3066
838.406	3100
838.544	3077
838.681	2914
838.819	2910
838.956	2819
839.094	2853
839.231	2910
839.369	3013
839.506	3405
839.643	3218
839.781	3009
839.918	2952
840.055	3028
840.193	3036
840.33	3070
840.467	3093
840.604	3154
840.742	3401
840.879	3043
841.016	2998
841.153	3112
841.29	3321
841.427	3283
841.564	3260
841.701	3306
841.838	3237
841.975	3157
842.112	3214
842.249	3089
842.385	3036
842.522	3226
842.659	3070
842.796	3085
842.933	3074
843.069	3039
843.206	3058
843.343	3169
843.479	3104
843.616	3165
843.752	2918
843.889	2857
844.025	3081
844.162	2895
844.298	3089
844.435	2929
844.571	2929
844.708	3085
844.844	3165
844.98	3207
845.117	3188
845.253	3032
845.389	3005
845.525	3077
845.661	3077
845.798	3017
845.934	3112
846.07	3077
846.206	3207
846.342	3279
846.478	3214
846.614	3131
846.75	3005
846.886	3001
847.022	3260
847.158	3161
847.294	3157
847.429	3260
847.565	3192
847.701	3469
847.837	3039
847.972	2967
848.108	3161
848.244	3131
848.379	2979
848.515	2952
848.65	2948
848.786	2956
848.921	3001
849.057	3077
849.192	3142
849.328	3085
849.463	3074
849.598	3074
849.734	3051
849.869	2975
850.004	2933
850.14	2982
850.275	2922
850.41	2804
850.545	2876
850.68	2929
850.815	2960
850.95	2956
851.085	3157
851.22	3081
851.355	3017
851.49	2990
851.625	3039
851.76	3020
851.895	2941
852.03	2922
852.165	3024
852.299	3112
852.434	3146
852.569	3154
852.703	3176
852.838	3264
852.973	3306
853.107	3336
853.242	3119
853.376	3043
853.511	2994
853.645	3005
853.78	3218
853.914	3119
854.048	3112
854.183	3116
854.317	3154
854.451	3279
854.585	3131
854.72	3097
854.854	3203
854.988	3051
855.122	3062
855.256	2933
855.39	3077
855.524	3218
855.658	3157
855.792	3146
855.926	3169
856.06	3203
856.194	3264
856.327	3165
856.461	3100
856.595	3066
856.729	3142
856.862	3207
856.996	3157
857.13	3165
857.263	3207
857.397	3233
857.53	3093
857.664	3131
857.797	3264
857.931	3214
858.064	3154
858.197	3192
858.331	3112
858.464	3074
858.597	2994
858.731	3104
858.864	3119
858.997	3100
859.13	3173
859.263	3127
859.396	3173
859.529	3116
859.662	3047
859.795	3051
859.928	3173
860.061	3298
860.194	3283
860.327	3108
860.46	3093
860.592	3195
860.725	3237
860.858	3249
860.99	3116
861.123	3066
861.256	3077
861.388	3142
861.521	3975
861.653	2994
861.786	3020
861.918	2990
862.05	3062
862.183	3097
862.315	3138
862.447	3176
862.58	3097
862.712	2937
862.844	2845
862.976	3005
863.108	3009
863.24	3291
863.372	2807
863.504	2918
863.636	2937
863.768	3032
863.9	2967
864.032	2876
864.164	2925
864.296	3009
864.428	3093
864.559	3081
864.691	3066
864.823	3081
864.954	3047
865.086	3028
865.217	2948
865.349	2944
865.48	2956
865.612	2960
865.743	3146
865.875	2979
866.006	2956
866.137	2952
866.269	2975
866.4	2929
866.531	2948
866.662	2880
866.793	2872
866.924	2891
867.055	2967
867.186	2883
867.317	2868
867.448	2819
867.579	2834
867.71	2845
867.841	2815
867.972	2899
868.103	2872
868.233	2880
868.364	2845
868.495	2872
868.625	3108
868.756	3165
868.886	3013
869.017	3036
869.147	3184
869.278	3176
869.408	3036
869.539	2979
869.669	3074
869.799	3058
869.929	3119
870.06	3112
870.19	3313
870.32	3272
870.45	3325
870.58	3348
870.71	3416
870.84	3439
870.97	3298
871.1	3249
871.23	3466
871.36	3466
871.489	3374
871.619	3401
871.749	3363
871.879	3416
872.008	3477
872.138	3382
872.267	3241
872.397	3112
872.526	3108
872.656	2986
872.785	3104
872.915	3268
873.044	3310
873.173	3256
873.303	3237
873.432	3222
873.561	3211
873.69	3188
873.819	3108
873.948	3195
874.077	3070
874.206	3058
874.335	3062
874.464	3226
874.593	3298
874.722	3253
874.851	3405
874.979	3332
875.108	3313
875.237	3176
875.365	3165
875.494	3142
875.623	3203
875.751	3112
875.88	3131
876.008	3173
876.136	3214
876.265	3367
876.393	3504
876.521	3355
876.65	3367
876.778	3302
876.906	3195
877.034	3176
877.162	3245
877.29	3211
877.418	3249
877.546	3218
877.674	3237
877.802	3249
877.93	3211
878.058	3146
878.185	3138
878.313	3188
878.441	3192
878.568	3070
878.696	3131
878.824	3241
878.951	3279
879.079	3443
879.206	3587
879.333	3443
879.461	3336
879.588	3363
879.715	3428
879.842	3549
879.97	3370
880.097	3165
880.224	3146
880.351	3165
880.478	3218
880.605	3188
880.732	3211
880.859	3458
880.986	3344
881.112	3344
881.239	3237
881.366	3085
881.493	3081
881.619	3009
881.746	3047
881.872	3089
881.999	3127
882.125	3142
882.252	3226
882.378	3294
882.505	3431
882.631	3283
882.757	3146
882.883	3226
883.01	3233
883.136	3188
883.262	3100
883.388	3085
883.514	3302
883.64	3370
883.766	3287
883.892	3214
884.018	3260
884.143	3386
884.269	3584
884.395	3233
884.52	3165
884.646	3176
884.772	3131
884.897	3104
885.023	3176
885.148	3325
885.274	3409
885.399	3405
885.524	3275
885.65	3249
885.775	3344
885.9	3253
886.025	3431
886.15	3363
886.275	3329
886.4	3203
886.525	3287
886.65	3272
886.775	3249
886.9	3473
887.025	3587
887.149	3447
887.274	3256
887.399	3169
887.523	3195
887.648	3226
887.773	3211
887.897	3378
888.021	3382
888.146	3268
888.27	3431
888.395	3511
888.519	3424
888.643	3462
888.767	3481
888.891	3279
889.015	3199
889.139	3260
889.263	3222
889.387	3363
889.511	3504
889.635	3443
889.759	3260
889.883	3275
890.006	3359
890.13	3473
890.254	3283
890.377	3294
890.501	3192
890.624	3192
890.748	3279
890.871	3184
890.995	3074
891.118	3039
891.241	3184
891.364	3207
891.488	3302
891.611	3165
891.734	3211
891.857	3264
891.98	3214
892.103	3351
892.226	3241
892.349	3203
892.471	3127
892.594	3237
892.717	3294
892.839	3275
892.962	3298
893.085	3351
893.207	3294
893.33	3173
893.452	3203
893.575	3367
893.697	3253
893.819	3485
893.941	3488
894.064	3420
894.186	3294
894.308	3268
894.43	3435
894.552	3496
894.674	3443
894.796	3302
894.918	3283
895.04	3317
895.161	3439
895.283	3397
895.405	3306
895.526	3348
895.648	3401
895.769	3401
895.891	3469
896.012	3507
896.134	3435
896.255	3393
896.376	3389
896.498	3370
896.619	3412
896.74	3359
896.861	3405
896.982	3660
897.103	3823
897.224	3618
897.345	3511
897.466	3420
897.587	3439
897.708	3606
897.828	3564
897.949	3469
898.07	3287
898.19	3393
898.311	3614
898.431	3469
898.552	3488
898.672	3595
898.792	3591
898.913	3504
899.033	3386
899.153	3272
899.273	3211
899.393	3275
899.513	3321
899.633	3332
899.753	3321
899.873	3313
899.993	3401
900.113	3321
900.232	3412
900.352	3367
900.472	3226
900.591	3203
900.711	3332
900.83	3233
900.95	3393
901.069	3450
901.189	3351
901.308	3195
901.427	3165
901.546	3161
901.665	3287
901.784	3336
901.904	3249
902.023	3146
902.141	3039
902.26	3017
902.379	3142
902.498	3108
902.617	3047
902.735	3180
902.854	3256
902.973	3211
903.091	3047
903.21	3043
903.328	3157
903.446	3077
903.565	3097
903.683	3211
903.801	3112
903.919	3241
904.038	3256
904.156	3146
904.274	3260
904.392	3256
904.51	3275
904.627	3348
904.745	3454
904.863	3481
904.981	3253
905.098	3203
905.216	3233
905.334	3283
905.451	3325
905.569	3268
905.686	3409
905.803	3443
905.921	3298
906.038	3462
906.155	3359
906.272	3283
906.389	3351
906.506	3249
906.623	3245
906.74	3287
906.857	3173
906.974	3249
907.091	3447
907.208	3591
907.324	3481
907.441	3382
907.557	3195
907.674	3218
907.79	3218
907.907	3279
908.023	3412
908.139	3416
908.256	3298
908.372	3370
908.488	3351
908.604	3272
908.72	3260
908.836	3279
908.952	3302
909.068	3336
909.184	3477
909.3	3370
909.415	3473
909.531	3488
909.647	3272
909.762	3260
909.878	3264
909.993	3374
910.108	3321
910.224	3329
910.339	3409
910.454	3378
910.57	3302
910.685	3260
910.8	3584
910.915	3526
911.03	3435
911.145	3264
911.259	3226
911.374	3317
911.489	3279
911.604	3256
911.718	3104
911.833	3157
911.947	3024
912.062	2967
912.176	3150
912.291	3154
912.405	3237
912.519	3386
912.633	3496
912.748	3336
912.862	3275
912.976	3165
913.09	3070
913.204	3074
913.318	3237
913.431	3367
913.545	3298
913.659	3405
913.772	3355
913.886	3214
914	3188
914.113	3359
914.226	3412
914.34	3340
914.453	3203
914.566	3412
914.68	3302
914.793	3306
914.906	3188
915.019	3089
915.132	3047
915.245	3188
915.358	3211
915.47	3241
915.583	3233
915.696	3291
915.809	3386
915.921	3420
916.034	3291
916.146	3241
916.259	3222
916.371	3367
916.483	3378
916.595	3264
916.708	3325
916.82	3283
916.932	3340
917.044	3306
917.156	3313
917.268	3302
917.38	3291
917.491	3298
917.603	3359
917.715	3454
917.826	3416
917.938	3348
918.049	3253
918.161	3409
918.272	3595
918.384	3603
918.495	3477
918.606	3359
918.717	3283
918.828	3397
918.939	3405
919.05	3294
919.161	3348
919.272	3154
919.383	3264
919.494	3485
919.604	3698
919.715	3523
919.826	3428
919.936	3416
920.047	3603
920.157	3549
920.267	3762
920.378	3637
920.488	3591
920.598	3740
920.708	3945
920.818	3793
920.928	3808
921.038	4025
921.148	4036
921.258	3705
921.368	3629
921.477	3603
921.587	3481
921.697	3435
921.806	3625
921.916	3542
922.025	3359
922.134	3355
922.244	3336
922.353	3393
922.462	3260
922.571	3222
922.68	3131
922.789	3077
922.898	3127
923.007	3108
923.116	3214
923.224	3165
923.333	3176
923.442	3100
923.55	3093
923.659	3142
923.767	3214
923.876	3089
923.984	3226
924.092	3108
924.201	3207
924.309	3176
924.417	3256
924.525	3180
924.633	3226
924.741	3979
924.849	3005
924.956	3256
925.064	3108
925.172	3036
925.279	3108
925.387	3214
925.494	3226
925.602	3378
925.709	3317
925.816	3192
925.924	3275
926.031	3348
926.138	3344
926.245	3340
926.352	3272
926.459	3382
926.566	3447
926.673	3325
926.779	3272
926.886	3249
926.993	3176
927.099	3135
927.206	3104
927.312	3131
927.419	3249
927.525	3211
927.631	3272
927.737	3123
927.843	3112
927.95	3024
928.056	3081
928.162	3169
928.267	3211
928.373	3857
928.479	3317
928.585	3066
928.69	3184
928.796	3275
928.901	3135
929.007	3017
929.112	3180
929.218	3203
929.323	3176
929.428	3154
929.533	3332
929.638	3123
929.743	3161
929.848	3230
929.953	3173
930.058	3154
930.163	3005
930.267	3066
930.372	3226
930.477	3051
930.581	3329
930.685	3173
930.79	3070
930.894	3135
930.998	3100
931.103	3237
931.207	2971
931.311	2960
931.415	2922
931.519	2727
931.623	2807
