Data from test_V78500241_555.txt Node
Date: Fri Mar 25 16:19:02 CST 2022
User: usil
Spectrometer: V785-0024
Trigger mode: 0
Integration Time (sec): 4.000000E-1
Scans to average: 1
Nonlinearity correction enabled: false
Boxcar width: 0
Storing dark spectrum: false
XAxis mode: Wavelengths
Number of Pixels in Spectrum: 1024
>>>>>Begin Spectral Data<<<<<
801.071	2925
801.214	2975
801.356	2861
801.499	2941
801.641	2883
801.783	2998
801.926	3051
802.068	2994
802.211	3043
802.353	3070
802.496	2975
802.638	3028
802.78	3020
802.923	3089
803.065	3032
803.208	2918
803.35	2922
803.492	2922
803.635	2937
803.777	2777
803.919	2857
804.061	3199
804.204	2956
804.346	2914
804.488	2845
804.63	2990
804.773	2902
804.915	2922
805.057	3081
805.199	2922
805.341	2967
805.483	3070
805.626	2994
805.768	2982
805.91	3066
806.052	3104
806.194	3085
806.336	3256
806.478	3039
806.62	2948
806.762	2986
806.904	3081
807.046	3173
807.188	2998
807.33	2933
807.472	2990
807.614	2906
807.756	2986
807.898	2933
808.04	2880
808.182	3013
808.324	2967
808.465	2918
808.607	2880
808.749	2823
808.891	2845
809.033	2986
809.174	2952
809.316	2933
809.458	2899
809.6	2796
809.741	2773
809.883	2804
810.025	2845
810.166	2853
810.308	2857
810.45	2834
810.591	2788
810.733	2766
810.875	2842
811.016	2815
811.158	2754
811.299	2811
811.441	2948
811.582	2895
811.724	2823
811.865	2845
812.007	2937
812.148	2876
812.29	2914
812.431	2929
812.573	2922
812.714	2960
812.855	3036
812.997	3081
813.138	3108
813.279	3028
813.421	3001
813.562	2960
813.703	2922
813.845	2910
813.986	2826
814.127	2746
814.268	2826
814.41	2853
814.551	2796
814.692	2883
814.833	2811
814.974	2887
815.115	2948
815.256	2853
815.397	2830
815.539	2880
815.68	2758
815.821	2826
815.962	2895
816.103	2937
816.244	2918
816.385	2872
816.526	2990
816.666	2861
816.807	2762
816.948	2880
817.089	2899
817.23	2845
817.371	2796
817.512	2830
817.653	2842
817.793	2811
817.934	2902
818.075	2960
818.216	3013
818.356	3055
818.497	2872
818.638	2804
818.778	2819
818.919	2773
819.06	2746
819.2	2880
819.341	2781
819.481	2792
819.622	2914
819.762	3116
819.903	3055
820.043	2899
820.184	2883
820.324	2899
820.465	3024
820.605	2990
820.746	2986
820.886	2922
821.026	3097
821.167	3188
821.307	3256
821.447	3306
821.588	3268
821.728	3199
821.868	3195
822.008	3116
822.149	3207
822.289	3214
822.429	3112
822.569	3097
822.709	3169
822.849	3032
822.99	3055
823.13	3165
823.27	3195
823.41	3112
823.55	3222
823.69	3154
823.83	3169
823.97	3074
824.11	2986
824.25	2998
824.389	3085
824.529	3131
824.669	3074
824.809	3176
824.949	3279
825.089	3211
825.228	3146
825.368	3020
825.508	2967
825.648	2990
825.787	3032
825.927	3036
826.067	2952
826.206	2967
826.346	3047
826.485	3055
826.625	3123
826.765	3245
826.904	3241
827.044	2982
827.183	2952
827.323	2891
827.462	2990
827.601	2960
827.741	2906
827.88	2941
828.02	2857
828.159	2967
828.298	3070
828.437	3116
828.577	3028
828.716	3230
828.855	3077
828.994	2914
829.134	2876
829.273	2944
829.412	2891
829.551	2857
829.69	2895
829.829	2998
829.968	3089
830.107	3001
830.246	3074
830.385	2937
830.524	2887
830.663	2804
830.802	2727
830.941	2678
831.08	2636
831.219	2777
831.357	2735
831.496	2967
831.635	2739
831.774	2651
831.913	2667
832.051	2530
832.19	2541
832.329	2724
832.467	2564
832.606	2480
832.744	2583
832.883	2602
833.022	2590
833.16	2651
833.299	2670
833.437	2712
833.576	2724
833.714	2743
833.852	2705
833.991	2777
834.129	2849
834.267	2845
834.406	2773
834.544	2868
834.682	2872
834.821	2876
834.959	3036
835.097	2872
835.235	3070
835.373	2994
835.511	3020
835.65	2971
835.788	2967
835.926	2857
836.064	2800
836.202	2842
836.34	3070
836.478	3150
836.615	3036
836.753	3135
836.891	3218
837.029	3195
837.167	3112
837.305	3074
837.443	3039
837.58	2944
837.718	3146
837.856	3081
837.993	3066
838.131	3066
838.269	3123
838.406	3112
838.544	3066
838.681	2941
838.819	2902
838.956	2830
839.094	2838
839.231	2887
839.369	3032
839.506	3359
839.643	3195
839.781	3001
839.918	2952
840.055	3028
840.193	3074
840.33	3051
840.467	3085
840.604	3112
840.742	3428
840.879	3058
841.016	3047
841.153	3142
841.29	3336
841.427	3275
841.564	3260
841.701	3291
841.838	3226
841.975	3211
842.112	3222
842.249	3085
842.385	3043
842.522	3260
842.659	3100
842.796	3074
842.933	3089
843.069	3062
843.206	3028
843.343	3173
843.479	3150
843.616	3131
843.752	2872
843.889	2876
844.025	3093
844.162	2887
844.298	3100
844.435	2963
844.571	2925
844.708	3108
844.844	3176
844.98	3279
845.117	3226
845.253	3058
845.389	3009
845.525	3108
845.661	3104
845.798	3017
845.934	3112
846.07	3028
846.206	3192
846.342	3306
846.478	3218
846.614	3085
846.75	3058
846.886	3020
847.022	3226
847.158	3119
847.294	3192
847.429	3226
847.565	3222
847.701	3504
847.837	3066
847.972	3039
848.108	3146
848.244	3154
848.379	2998
848.515	2914
848.65	2895
848.786	2952
848.921	3036
849.057	3112
849.192	3131
849.328	3066
849.463	3104
849.598	3032
849.734	3043
849.869	2994
850.004	2910
850.14	2967
850.275	2914
850.41	2830
850.545	2895
850.68	2922
850.815	2944
850.95	2948
851.085	3203
851.22	3100
851.355	3066
851.49	2975
851.625	3001
851.76	3028
851.895	2918
852.03	2899
852.165	3070
852.299	3108
852.434	3195
852.569	3176
852.703	3180
852.838	3237
852.973	3325
853.107	3329
853.242	3138
853.376	3108
853.511	2979
853.645	3043
853.78	3260
853.914	3097
854.048	3116
854.183	3070
854.317	3157
854.451	3291
854.585	3119
854.72	3058
854.854	3233
854.988	3043
855.122	3093
855.256	2952
855.39	3127
855.524	3226
855.658	3169
855.792	3112
855.926	3184
856.06	3237
856.194	3264
856.327	3131
856.461	3100
856.595	3108
856.729	3047
856.862	3237
856.996	3173
857.13	3195
857.263	3237
857.397	3260
857.53	3150
857.664	3199
857.797	3226
857.931	3226
858.064	3165
858.197	3176
858.331	3138
858.464	3119
858.597	2982
858.731	3135
858.864	3154
858.997	3100
859.13	3150
859.263	3195
859.396	3222
859.529	3070
859.662	3066
859.795	3047
859.928	3116
860.061	3253
860.194	3302
860.327	3131
860.46	3081
860.592	3268
860.725	3180
860.858	3275
860.99	3070
861.123	3047
861.256	3047
861.388	3157
861.521	3679
861.653	3009
861.786	2979
861.918	3020
862.05	3039
862.183	3070
862.315	3146
862.447	3184
862.58	3108
862.712	2952
862.844	2868
862.976	3043
863.108	2998
863.24	3416
863.372	2876
863.504	2948
863.636	2948
863.768	2986
863.9	2963
864.032	2868
864.164	2918
864.296	3005
864.428	3077
864.559	3119
864.691	3089
864.823	3051
864.954	3036
865.086	3062
865.217	2967
865.349	2933
865.48	2941
865.612	2982
865.743	3146
865.875	2994
866.006	2960
866.137	2979
866.269	2922
866.4	2914
866.531	2925
866.662	2891
866.793	2902
866.924	2906
867.055	2960
867.186	2944
867.317	2868
867.448	2857
867.579	2834
867.71	2830
867.841	2796
867.972	2895
868.103	2891
868.233	2861
868.364	2872
868.495	2914
868.625	3097
868.756	3176
868.886	2990
869.017	3001
869.147	3192
869.278	3150
869.408	3024
869.539	3020
869.669	3077
869.799	3036
869.929	3131
870.06	3138
870.19	3310
870.32	3283
870.45	3317
870.58	3351
870.71	3386
870.84	3458
870.97	3291
871.1	3233
871.23	3481
871.36	3458
871.489	3359
871.619	3382
871.749	3378
871.879	3454
872.008	3507
872.138	3351
872.267	3249
872.397	3135
872.526	3089
872.656	2967
872.785	3081
872.915	3230
873.044	3313
873.173	3218
873.303	3275
873.432	3249
873.561	3173
873.69	3184
873.819	3085
873.948	3180
874.077	3097
874.206	3039
874.335	3085
874.464	3260
874.593	3348
874.722	3203
874.851	3389
874.979	3321
875.108	3340
875.237	3165
875.365	3157
875.494	3161
875.623	3230
875.751	3085
875.88	3104
876.008	3169
876.136	3218
876.265	3325
876.393	3538
876.521	3412
876.65	3367
876.778	3344
876.906	3283
877.034	3188
877.162	3237
877.29	3157
877.418	3245
877.546	3203
877.674	3226
877.802	3237
877.93	3241
878.058	3157
878.185	3100
878.313	3192
878.441	3214
878.568	3058
878.696	3100
878.824	3253
878.951	3272
879.079	3420
879.206	3595
879.333	3450
879.461	3317
879.588	3351
879.715	3473
879.842	3606
879.97	3363
880.097	3169
880.224	3123
880.351	3188
880.478	3184
880.605	3165
880.732	3184
880.859	3473
880.986	3321
881.112	3287
881.239	3230
881.366	3066
881.493	3039
881.619	3036
881.746	3051
881.872	3077
881.999	3074
882.125	3135
882.252	3264
882.378	3279
882.505	3393
882.631	3291
882.757	3161
882.883	3218
883.01	3211
883.136	3169
883.262	3123
883.388	3123
883.514	3264
883.64	3332
883.766	3302
883.892	3211
884.018	3207
884.143	3397
884.269	3519
884.395	3199
884.52	3119
884.646	3184
884.772	3100
884.897	3119
885.023	3218
885.148	3306
885.274	3397
885.399	3348
885.524	3283
885.65	3241
885.775	3306
885.9	3268
886.025	3466
886.15	3348
886.275	3329
886.4	3233
886.525	3283
886.65	3264
886.775	3260
886.9	3500
887.025	3663
887.149	3401
887.274	3233
887.399	3184
887.523	3203
887.648	3180
887.773	3173
887.897	3344
888.021	3389
888.146	3268
888.27	3416
888.395	3538
888.519	3405
888.643	3435
888.767	3462
888.891	3298
889.015	3226
889.139	3241
889.263	3268
889.387	3393
889.511	3526
889.635	3431
889.759	3298
889.883	3287
890.006	3370
890.13	3504
890.254	3287
890.377	3306
890.501	3199
890.624	3192
890.748	3283
890.871	3161
890.995	3085
891.118	3013
891.241	3188
891.364	3207
891.488	3351
891.611	3161
891.734	3245
891.857	3287
891.98	3233
892.103	3329
892.226	3275
892.349	3188
892.471	3089
892.594	3214
892.717	3287
892.839	3245
892.962	3283
893.085	3340
893.207	3310
893.33	3180
893.452	3226
893.575	3332
893.697	3237
893.819	3466
893.941	3462
894.064	3439
894.186	3279
894.308	3302
894.43	3424
894.552	3530
894.674	3469
894.796	3218
894.918	3317
895.04	3249
895.161	3466
895.283	3382
895.405	3310
895.526	3340
895.648	3412
895.769	3428
895.891	3447
896.012	3473
896.134	3454
896.255	3420
896.376	3393
896.498	3348
896.619	3412
896.74	3378
896.861	3386
896.982	3717
897.103	3816
897.224	3572
897.345	3511
897.466	3420
897.587	3500
897.708	3618
897.828	3515
897.949	3420
898.07	3329
898.19	3428
898.311	3584
898.431	3454
898.552	3511
898.672	3622
898.792	3538
898.913	3504
899.033	3428
899.153	3287
899.273	3207
899.393	3283
899.513	3306
899.633	3313
899.753	3321
899.873	3272
899.993	3405
900.113	3351
900.232	3409
900.352	3386
900.472	3313
900.591	3180
900.711	3321
900.83	3214
900.95	3409
901.069	3473
901.189	3374
901.308	3150
901.427	3123
901.546	3173
901.665	3279
901.784	3363
901.904	3192
902.023	3131
902.141	3013
902.26	2998
902.379	3173
902.498	3074
902.617	3043
902.735	3199
902.854	3222
902.973	3192
903.091	3036
903.21	3097
903.328	3131
903.446	3119
903.565	3131
903.683	3203
903.801	3097
903.919	3256
904.038	3306
904.156	3176
904.274	3306
904.392	3230
904.51	3260
904.627	3355
904.745	3431
904.863	3443
904.981	3268
905.098	3157
905.216	3249
905.334	3287
905.451	3298
905.569	3310
905.686	3389
905.803	3424
905.921	3275
906.038	3450
906.155	3348
906.272	3287
906.389	3329
906.506	3241
906.623	3272
906.74	3325
906.857	3161
906.974	3233
907.091	3450
907.208	3549
907.324	3496
907.441	3336
907.557	3233
907.674	3222
907.79	3218
907.907	3218
908.023	3363
908.139	3363
908.256	3306
908.372	3428
908.488	3389
908.604	3256
908.72	3237
908.836	3313
908.952	3287
909.068	3321
909.184	3496
909.3	3374
909.415	3519
909.531	3443
909.647	3279
909.762	3294
909.878	3256
909.993	3401
910.108	3325
910.224	3348
910.339	3435
910.454	3325
910.57	3287
910.685	3192
910.8	3576
910.915	3587
911.03	3420
911.145	3268
911.259	3272
911.374	3306
911.489	3245
911.604	3226
911.718	3127
911.833	3154
911.947	3032
912.062	2979
912.176	3138
912.291	3222
912.405	3180
912.519	3416
912.633	3462
912.748	3317
912.862	3275
912.976	3203
913.09	3036
913.204	3173
913.318	3230
913.431	3317
913.545	3336
913.659	3412
913.772	3370
913.886	3237
914	3173
914.113	3340
914.226	3409
914.34	3355
914.453	3245
914.566	3412
914.68	3287
914.793	3291
914.906	3157
915.019	3104
915.132	3074
915.245	3169
915.358	3226
915.47	3241
915.583	3260
915.696	3275
915.809	3416
915.921	3424
916.034	3233
916.146	3233
916.259	3256
916.371	3397
916.483	3348
916.595	3256
916.708	3325
916.82	3332
916.932	3351
917.044	3355
917.156	3329
917.268	3233
917.38	3317
917.491	3302
917.603	3355
917.715	3454
917.826	3450
917.938	3378
918.049	3291
918.161	3454
918.272	3576
918.384	3595
918.495	3492
918.606	3321
918.717	3253
918.828	3374
918.939	3393
919.05	3317
919.161	3351
919.272	3173
919.383	3329
919.494	3458
919.604	3686
919.715	3557
919.826	3424
919.936	3435
920.047	3629
920.157	3519
920.267	3728
920.378	3584
920.488	3561
920.598	3778
920.708	3949
920.818	3812
920.928	3831
921.038	4032
921.148	3968
921.258	3705
921.368	3656
921.477	3557
921.587	3500
921.697	3431
921.806	3652
921.916	3500
922.025	3336
922.134	3332
922.244	3298
922.353	3412
922.462	3256
922.571	3249
922.68	3097
922.789	3074
922.898	3142
923.007	3100
923.116	3211
923.224	3150
923.333	3173
923.442	3097
923.55	3123
923.659	3165
923.767	3233
923.876	3112
923.984	3256
924.092	3116
924.201	3188
924.309	3245
924.417	3222
924.525	3184
924.633	3237
924.741	3983
924.849	3020
924.956	3230
925.064	3112
925.172	3009
925.279	3135
925.387	3188
925.494	3214
925.602	3363
925.709	3325
925.816	3169
925.924	3294
926.031	3355
926.138	3355
926.245	3363
926.352	3237
926.459	3393
926.566	3488
926.673	3336
926.779	3214
926.886	3253
926.993	3142
927.099	3138
927.206	3157
927.312	3127
927.419	3253
927.525	3176
927.631	3287
927.737	3108
927.843	3131
927.95	3039
928.056	3123
928.162	3173
928.267	3253
928.373	3743
928.479	3287
928.585	3036
928.69	3203
928.796	3291
928.901	3146
929.007	3028
929.112	3207
929.218	3207
929.323	3123
929.428	3119
929.533	3298
929.638	3135
929.743	3138
929.848	3268
929.953	3233
930.058	3112
930.163	3017
930.267	3077
930.372	3165
930.477	3020
930.581	3317
930.685	3176
930.79	3028
930.894	3123
930.998	3116
931.103	3298
931.207	2982
931.311	2933
931.415	2952
931.519	2758
931.623	2811
