Data from test_V78500241_435.txt Node
Date: Fri Mar 25 16:18:13 CST 2022
User: usil
Spectrometer: V785-0024
Trigger mode: 0
Integration Time (sec): 4.000000E-1
Scans to average: 1
Nonlinearity correction enabled: false
Boxcar width: 0
Storing dark spectrum: false
XAxis mode: Wavelengths
Number of Pixels in Spectrum: 1024
>>>>>Begin Spectral Data<<<<<
801.071	2925
801.214	2937
801.356	2849
801.499	2895
801.641	2876
801.783	2891
801.926	3066
802.068	2963
802.211	2998
802.353	2994
802.496	2925
802.638	3017
802.78	3077
802.923	3104
803.065	3001
803.208	2891
803.35	2910
803.492	2925
803.635	2922
803.777	2746
803.919	2823
804.061	3150
804.204	2944
804.346	2899
804.488	2853
804.63	2990
804.773	2891
804.915	2906
805.057	3077
805.199	2944
805.341	2941
805.483	3039
805.626	2986
805.768	2914
805.91	3066
806.052	3142
806.194	3058
806.336	3211
806.478	2998
806.62	2948
806.762	3017
806.904	3074
807.046	3188
807.188	2975
807.33	2891
807.472	2982
807.614	2918
807.756	2994
807.898	2918
808.04	2880
808.182	2979
808.324	2952
808.465	2864
808.607	2849
808.749	2796
808.891	2853
809.033	2979
809.174	2960
809.316	2864
809.458	2864
809.6	2766
809.741	2750
809.883	2773
810.025	2834
810.166	2861
810.308	2830
810.45	2883
810.591	2785
810.733	2754
810.875	2811
811.016	2769
811.158	2762
811.299	2781
811.441	2902
811.582	2887
811.724	2823
811.865	2830
812.007	2906
812.148	2864
812.29	2838
812.431	2883
812.573	2929
812.714	2944
812.855	3009
812.997	3051
813.138	3081
813.279	2979
813.421	2948
813.562	2952
813.703	2914
813.845	2883
813.986	2769
814.127	2720
814.268	2819
814.41	2826
814.551	2777
814.692	2853
814.833	2792
814.974	2880
815.115	2944
815.256	2796
815.397	2819
815.539	2804
815.68	2739
815.821	2781
815.962	2944
816.103	2925
816.244	2842
816.385	2845
816.526	2971
816.666	2906
816.807	2712
816.948	2914
817.089	2925
817.23	2819
817.371	2792
817.512	2804
817.653	2826
817.793	2788
817.934	2914
818.075	2963
818.216	3009
818.356	3024
818.497	2922
818.638	2785
818.778	2834
818.919	2788
819.06	2743
819.2	2880
819.341	2815
819.481	2792
819.622	2895
819.762	3108
819.903	3081
820.043	2929
820.184	2910
820.324	2872
820.465	3020
820.605	3017
820.746	2998
820.886	2922
821.026	3085
821.167	3180
821.307	3233
821.447	3241
821.588	3253
821.728	3230
821.868	3207
822.008	3070
822.149	3180
822.289	3192
822.429	3093
822.569	3074
822.709	3131
822.849	3009
822.99	3043
823.13	3173
823.27	3214
823.41	3081
823.55	3142
823.69	3116
823.83	3180
823.97	3116
824.11	2975
824.25	2971
824.389	3036
824.529	3055
824.669	3070
824.809	3207
824.949	3245
825.089	3188
825.228	3169
825.368	3001
825.508	2982
825.648	2929
825.787	2979
825.927	2998
826.067	2952
826.206	2952
826.346	3009
826.485	3039
826.625	3085
826.765	3275
826.904	3180
827.044	3009
827.183	2948
827.323	2853
827.462	2967
827.601	2914
827.741	2906
827.88	2971
828.02	2868
828.159	2922
828.298	3009
828.437	3077
828.577	3009
828.716	3245
828.855	3058
828.994	2880
829.134	2868
829.273	2880
829.412	2823
829.551	2838
829.69	2864
829.829	2941
829.968	3089
830.107	3028
830.246	3017
830.385	2963
830.524	2883
830.663	2815
830.802	2724
830.941	2674
831.08	2648
831.219	2762
831.357	2750
831.496	2948
831.635	2689
831.774	2621
831.913	2678
832.051	2560
832.19	2549
832.329	2701
832.467	2549
832.606	2469
832.744	2549
832.883	2583
833.022	2552
833.16	2670
833.299	2682
833.437	2705
833.576	2693
833.714	2697
833.852	2701
833.991	2750
834.129	2788
834.267	2849
834.406	2766
834.544	2857
834.682	2861
834.821	2823
834.959	3070
835.097	2891
835.235	3028
835.373	2994
835.511	3017
835.65	2948
835.788	2960
835.926	2807
836.064	2792
836.202	2811
836.34	3108
836.478	3146
836.615	3058
836.753	3081
836.891	3184
837.029	3123
837.167	3089
837.305	3039
837.443	3028
837.58	2937
837.718	3089
837.856	3039
837.993	3009
838.131	3104
838.269	3085
838.406	3070
838.544	3070
838.681	2933
838.819	2895
838.956	2792
839.094	2838
839.231	2941
839.369	3020
839.506	3397
839.643	3222
839.781	3013
839.918	2967
840.055	3047
840.193	3055
840.33	3074
840.467	3066
840.604	3112
840.742	3378
840.879	3001
841.016	3058
841.153	3119
841.29	3291
841.427	3325
841.564	3245
841.701	3298
841.838	3195
841.975	3169
842.112	3245
842.249	3074
842.385	3028
842.522	3249
842.659	3077
842.796	3051
842.933	3127
843.069	3013
843.206	3051
843.343	3176
843.479	3108
843.616	3135
843.752	2861
843.889	2834
844.025	3074
844.162	2849
844.298	3028
844.435	2979
844.571	2910
844.708	3032
844.844	3169
844.98	3203
845.117	3176
845.253	3066
845.389	2937
845.525	3074
845.661	3093
845.798	2986
845.934	3100
846.07	3055
846.206	3214
846.342	3310
846.478	3211
846.614	3077
846.75	3047
846.886	3013
847.022	3233
847.158	3119
847.294	3188
847.429	3222
847.565	3211
847.701	3435
847.837	3024
847.972	2960
848.108	3104
848.244	3138
848.379	2979
848.515	2906
848.65	2902
848.786	2979
848.921	3009
849.057	3039
849.192	3119
849.328	3058
849.463	3119
849.598	3032
849.734	3001
849.869	2971
850.004	2880
850.14	2952
850.275	2910
850.41	2857
850.545	2876
850.68	2914
850.815	2960
850.95	2956
851.085	3184
851.22	3081
851.355	3020
851.49	2986
851.625	2998
851.76	3024
851.895	2922
852.03	2849
852.165	3036
852.299	3108
852.434	3165
852.569	3150
852.703	3146
852.838	3237
852.973	3336
853.107	3291
853.242	3112
853.376	3100
853.511	2948
853.645	3081
853.78	3230
853.914	3112
854.048	3119
854.183	3150
854.317	3131
854.451	3291
854.585	3142
854.72	3104
854.854	3245
854.988	3112
855.122	3112
855.256	2975
855.39	3150
855.524	3264
855.658	3230
855.792	3165
855.926	3199
856.06	3237
856.194	3294
856.327	3188
856.461	3112
856.595	3127
856.729	3165
856.862	3226
856.996	3192
857.13	3241
857.263	3260
857.397	3302
857.53	3157
857.664	3222
857.797	3253
857.931	3279
858.064	3195
858.197	3233
858.331	3180
858.464	3173
858.597	3066
858.731	3150
858.864	3161
858.997	3127
859.13	3218
859.263	3222
859.396	3226
859.529	3142
859.662	3119
859.795	3074
859.928	3176
860.061	3325
860.194	3325
860.327	3135
860.46	3116
860.592	3272
860.725	3260
860.858	3294
860.99	3138
861.123	3036
861.256	3062
861.388	3188
861.521	4013
861.653	3077
861.786	3066
861.918	3070
862.05	3119
862.183	3157
862.315	3150
862.447	3249
862.58	3142
862.712	3001
862.844	2910
862.976	3036
863.108	3028
863.24	3466
863.372	2902
863.504	2986
863.636	2948
863.768	3093
863.9	3032
864.032	2963
864.164	2971
864.296	3066
864.428	3161
864.559	3112
864.691	3119
864.823	3077
864.954	3062
865.086	3074
865.217	3024
865.349	2994
865.48	3013
865.612	3013
865.743	3184
865.875	2975
866.006	2967
866.137	3020
866.269	2979
866.4	2967
866.531	2971
866.662	2906
866.793	2918
866.924	2899
867.055	2952
867.186	2941
867.317	2918
867.448	2887
867.579	2891
867.71	2876
867.841	2853
867.972	2929
868.103	2933
868.233	2906
868.364	2895
868.495	2922
868.625	3097
868.756	3211
868.886	3005
869.017	3043
869.147	3214
869.278	3214
869.408	3131
869.539	3039
869.669	3116
869.799	3062
869.929	3146
870.06	3165
870.19	3332
870.32	3287
870.45	3317
870.58	3412
870.71	3469
870.84	3477
870.97	3302
871.1	3260
871.23	3526
871.36	3511
871.489	3405
871.619	3393
871.749	3428
871.879	3435
872.008	3504
872.138	3393
872.267	3355
872.397	3161
872.526	3104
872.656	3001
872.785	3093
872.915	3256
873.044	3332
873.173	3260
873.303	3245
873.432	3264
873.561	3249
873.69	3180
873.819	3176
873.948	3214
874.077	3146
874.206	3074
874.335	3104
874.464	3230
874.593	3382
874.722	3279
874.851	3431
874.979	3355
875.108	3336
875.237	3203
875.365	3218
875.494	3207
875.623	3264
875.751	3077
875.88	3131
876.008	3241
876.136	3249
876.265	3420
876.393	3545
876.521	3428
876.65	3435
876.778	3378
876.906	3272
877.034	3241
877.162	3233
877.29	3222
877.418	3287
877.546	3249
877.674	3287
877.802	3283
877.93	3253
878.058	3169
878.185	3108
878.313	3241
878.441	3218
878.568	3097
878.696	3195
878.824	3256
878.951	3329
879.079	3488
879.206	3610
879.333	3485
879.461	3325
879.588	3386
879.715	3564
879.842	3603
879.97	3405
880.097	3161
880.224	3161
880.351	3222
880.478	3241
880.605	3192
880.732	3211
880.859	3500
880.986	3310
881.112	3336
881.239	3241
881.366	3131
881.493	3055
881.619	3036
881.746	3058
881.872	3093
881.999	3097
882.125	3188
882.252	3298
882.378	3310
882.505	3458
882.631	3272
882.757	3173
882.883	3245
883.01	3256
883.136	3260
883.262	3104
883.388	3142
883.514	3332
883.64	3424
883.766	3348
883.892	3222
884.018	3203
884.143	3435
884.269	3591
884.395	3249
884.52	3184
884.646	3211
884.772	3146
884.897	3154
885.023	3264
885.148	3359
885.274	3431
885.399	3378
885.524	3332
885.65	3298
885.775	3367
885.9	3348
886.025	3439
886.15	3378
886.275	3291
886.4	3256
886.525	3325
886.65	3264
886.775	3275
886.9	3519
887.025	3641
887.149	3416
887.274	3268
887.399	3230
887.523	3199
887.648	3176
887.773	3237
887.897	3378
888.021	3435
888.146	3313
888.27	3424
888.395	3553
888.519	3466
888.643	3458
888.767	3481
888.891	3363
889.015	3264
889.139	3313
889.263	3275
889.387	3439
889.511	3564
889.635	3469
889.759	3313
889.883	3344
890.006	3393
890.13	3481
890.254	3291
890.377	3382
890.501	3230
890.624	3192
890.748	3302
890.871	3211
890.995	3142
891.118	3074
891.241	3203
891.364	3241
891.488	3351
891.611	3180
891.734	3256
891.857	3313
891.98	3287
892.103	3355
892.226	3306
892.349	3249
892.471	3150
892.594	3279
892.717	3306
892.839	3275
892.962	3336
893.085	3382
893.207	3279
893.33	3211
893.452	3222
893.575	3351
893.697	3275
893.819	3511
893.941	3534
894.064	3469
894.186	3275
894.308	3306
894.43	3450
894.552	3587
894.674	3477
894.796	3287
894.918	3359
895.04	3325
895.161	3500
895.283	3382
895.405	3336
895.526	3412
895.648	3443
895.769	3401
895.891	3439
896.012	3561
896.134	3488
896.255	3458
896.376	3409
896.498	3367
896.619	3409
896.74	3359
896.861	3420
896.982	3686
897.103	3816
897.224	3637
897.345	3519
897.466	3431
897.587	3488
897.708	3671
897.828	3580
897.949	3466
898.07	3351
898.19	3405
898.311	3656
898.431	3447
898.552	3530
898.672	3603
898.792	3599
898.913	3557
899.033	3424
899.153	3355
899.273	3264
899.393	3329
899.513	3336
899.633	3367
899.753	3374
899.873	3336
899.993	3405
900.113	3355
900.232	3412
900.352	3363
900.472	3310
900.591	3180
900.711	3294
900.83	3253
900.95	3443
901.069	3496
901.189	3344
901.308	3169
901.427	3154
901.546	3249
901.665	3294
901.784	3344
901.904	3256
902.023	3135
902.141	3028
902.26	3039
902.379	3108
902.498	3112
902.617	3085
902.735	3195
902.854	3253
902.973	3203
903.091	3093
903.21	3100
903.328	3214
903.446	3116
903.565	3150
903.683	3203
903.801	3119
903.919	3291
904.038	3245
904.156	3184
904.274	3332
904.392	3291
904.51	3283
904.627	3355
904.745	3469
904.863	3507
904.981	3256
905.098	3199
905.216	3279
905.334	3310
905.451	3313
905.569	3332
905.686	3469
905.803	3424
905.921	3306
906.038	3462
906.155	3359
906.272	3253
906.389	3370
906.506	3237
906.623	3233
906.74	3298
906.857	3169
906.974	3279
907.091	3420
907.208	3561
907.324	3454
907.441	3405
907.557	3222
907.674	3241
907.79	3233
907.907	3283
908.023	3389
908.139	3401
908.256	3317
908.372	3367
908.488	3401
908.604	3245
908.72	3233
908.836	3287
908.952	3291
909.068	3310
909.184	3473
909.3	3401
909.415	3519
909.531	3492
909.647	3325
909.762	3313
909.878	3302
909.993	3351
910.108	3401
910.224	3378
910.339	3397
910.454	3355
910.57	3359
910.685	3272
910.8	3652
910.915	3523
911.03	3443
911.145	3287
911.259	3260
911.374	3336
911.489	3253
911.604	3260
911.718	3123
911.833	3184
911.947	3058
912.062	3032
912.176	3188
912.291	3188
912.405	3226
912.519	3443
912.633	3469
912.748	3321
912.862	3264
912.976	3207
913.09	3062
913.204	3146
913.318	3264
913.431	3348
913.545	3363
913.659	3401
913.772	3367
913.886	3211
914	3180
914.113	3348
914.226	3424
914.34	3374
914.453	3230
914.566	3439
914.68	3268
914.793	3325
914.906	3165
915.019	3093
915.132	3066
915.245	3233
915.358	3188
915.47	3253
915.583	3253
915.696	3291
915.809	3401
915.921	3416
916.034	3249
916.146	3272
916.259	3214
916.371	3409
916.483	3363
916.595	3317
916.708	3367
916.82	3355
916.932	3374
917.044	3359
917.156	3363
917.268	3272
917.38	3306
917.491	3287
917.603	3355
917.715	3428
917.826	3469
917.938	3409
918.049	3283
918.161	3466
918.272	3622
918.384	3625
918.495	3492
918.606	3340
918.717	3302
918.828	3370
918.939	3466
919.05	3348
919.161	3344
919.272	3180
919.383	3317
919.494	3496
919.604	3675
919.715	3492
919.826	3431
919.936	3492
920.047	3614
920.157	3564
920.267	3759
920.378	3618
920.488	3576
920.598	3778
920.708	3991
920.818	3838
920.928	3880
921.038	4063
921.148	3987
921.258	3743
921.368	3690
921.477	3622
921.587	3576
921.697	3481
921.806	3671
921.916	3584
922.025	3386
922.134	3393
922.244	3355
922.353	3469
922.462	3332
922.571	3272
922.68	3154
922.789	3154
922.898	3146
923.007	3150
923.116	3233
923.224	3180
923.333	3241
923.442	3138
923.55	3165
923.659	3180
923.767	3245
923.876	3157
923.984	3287
924.092	3146
924.201	3226
924.309	3245
924.417	3332
924.525	3256
924.633	3260
924.741	4230
924.849	3066
924.956	3310
925.064	3127
925.172	3081
925.279	3127
925.387	3253
925.494	3279
925.602	3367
925.709	3363
925.816	3268
925.924	3313
926.031	3393
926.138	3393
926.245	3397
926.352	3275
926.459	3473
926.566	3549
926.673	3374
926.779	3306
926.886	3298
926.993	3207
927.099	3154
927.206	3169
927.312	3150
927.419	3294
927.525	3230
927.631	3336
927.737	3150
927.843	3169
927.95	3108
928.056	3173
928.162	3222
928.267	3279
928.373	3975
928.479	3393
928.585	3097
928.69	3283
928.796	3310
928.901	3165
929.007	3116
929.112	3268
929.218	3222
929.323	3157
929.428	3192
929.533	3359
929.638	3150
929.743	3230
929.848	3306
929.953	3230
930.058	3180
930.163	3055
930.267	3123
930.372	3207
930.477	3070
930.581	3370
930.685	3245
930.79	3100
930.894	3138
930.998	3150
931.103	3291
931.207	2948
931.311	2979
931.415	2994
931.519	2811
931.623	2823
