Data from test_V78500241_363.txt Node
Date: Fri Mar 25 16:17:43 CST 2022
User: usil
Spectrometer: V785-0024
Trigger mode: 0
Integration Time (sec): 4.000000E-1
Scans to average: 1
Nonlinearity correction enabled: false
Boxcar width: 0
Storing dark spectrum: false
XAxis mode: Wavelengths
Number of Pixels in Spectrum: 1024
>>>>>Begin Spectral Data<<<<<
801.071	2933
801.214	2941
801.356	2849
801.499	2899
801.641	2880
801.783	2914
801.926	3039
802.068	2956
802.211	2967
802.353	3020
802.496	2937
802.638	3005
802.78	3074
802.923	3077
803.065	3043
803.208	2876
803.35	2933
803.492	2922
803.635	2956
803.777	2735
803.919	2857
804.061	3188
804.204	2944
804.346	2922
804.488	2872
804.63	3001
804.773	2849
804.915	2914
805.057	3047
805.199	2910
805.341	2948
805.483	3032
805.626	3024
805.768	2986
805.91	3074
806.052	3119
806.194	3013
806.336	3245
806.478	3043
806.62	2960
806.762	2986
806.904	3081
807.046	3169
807.188	2948
807.33	2906
807.472	2990
807.614	2899
807.756	2998
807.898	2937
808.04	2906
808.182	3017
808.324	2956
808.465	2906
808.607	2887
808.749	2807
808.891	2826
809.033	2986
809.174	2998
809.316	2895
809.458	2906
809.6	2788
809.741	2762
809.883	2758
810.025	2823
810.166	2838
810.308	2845
810.45	2864
810.591	2762
810.733	2800
810.875	2819
811.016	2769
811.158	2743
811.299	2811
811.441	2925
811.582	2883
811.724	2796
811.865	2826
812.007	2922
812.148	2891
812.29	2830
812.431	2880
812.573	2914
812.714	2956
812.855	3047
812.997	3066
813.138	3119
813.279	3051
813.421	3009
813.562	2956
813.703	2849
813.845	2902
813.986	2762
814.127	2743
814.268	2857
814.41	2845
814.551	2819
814.692	2891
814.833	2781
814.974	2902
815.115	2948
815.256	2823
815.397	2804
815.539	2891
815.68	2766
815.821	2762
815.962	2933
816.103	2948
816.244	2887
816.385	2830
816.526	2982
816.666	2952
816.807	2773
816.948	2906
817.089	2941
817.23	2834
817.371	2750
817.512	2815
817.653	2811
817.793	2838
817.934	2872
818.075	2994
818.216	2994
818.356	3028
818.497	2895
818.638	2800
818.778	2815
818.919	2796
819.06	2766
819.2	2887
819.341	2826
819.481	2777
819.622	2906
819.762	3074
819.903	3039
820.043	2906
820.184	2918
820.324	2876
820.465	3005
820.605	2998
820.746	3013
820.886	2933
821.026	3089
821.167	3131
821.307	3275
821.447	3291
821.588	3233
821.728	3161
821.868	3192
822.008	3089
822.149	3146
822.289	3233
822.429	3089
822.569	3100
822.709	3138
822.849	3039
822.99	3051
823.13	3154
823.27	3176
823.41	3123
823.55	3135
823.69	3142
823.83	3214
823.97	3100
824.11	2960
824.25	2975
824.389	3047
824.529	3100
824.669	3074
824.809	3184
824.949	3253
825.089	3226
825.228	3131
825.368	3009
825.508	2963
825.648	2941
825.787	3013
825.927	3017
826.067	2994
826.206	2941
826.346	3032
826.485	3081
826.625	3081
826.765	3245
826.904	3214
827.044	2979
827.183	2922
827.323	2857
827.462	2956
827.601	2887
827.741	2944
827.88	2937
828.02	2845
828.159	2963
828.298	3043
828.437	3093
828.577	3055
828.716	3249
828.855	3077
828.994	2922
829.134	2891
829.273	2906
829.412	2830
829.551	2895
829.69	2872
829.829	2960
829.968	3150
830.107	2998
830.246	3036
830.385	2941
830.524	2887
830.663	2807
830.802	2697
830.941	2655
831.08	2648
831.219	2758
831.357	2800
831.496	2941
831.635	2674
831.774	2644
831.913	2651
832.051	2507
832.19	2587
832.329	2651
832.467	2541
832.606	2492
832.744	2575
832.883	2552
833.022	2575
833.16	2651
833.299	2697
833.437	2678
833.576	2701
833.714	2712
833.852	2727
833.991	2796
834.129	2868
834.267	2769
834.406	2807
834.544	2830
834.682	2880
834.821	2883
834.959	3051
835.097	2883
835.235	3070
835.373	2994
835.511	2990
835.65	2971
835.788	2963
835.926	2811
836.064	2819
836.202	2861
836.34	3074
836.478	3150
836.615	3028
836.753	3146
836.891	3184
837.029	3161
837.167	3093
837.305	3062
837.443	3051
837.58	2933
837.718	3112
837.856	3024
837.993	3043
838.131	3135
838.269	3112
838.406	3093
838.544	3097
838.681	2956
838.819	2902
838.956	2800
839.094	2823
839.231	2914
839.369	3001
839.506	3409
839.643	3233
839.781	3047
839.918	2944
840.055	3024
840.193	3032
840.33	3020
840.467	3112
840.604	3157
840.742	3393
840.879	3051
841.016	3047
841.153	3093
841.29	3367
841.427	3313
841.564	3272
841.701	3287
841.838	3211
841.975	3165
842.112	3199
842.249	3081
842.385	3039
842.522	3245
842.659	3093
842.796	3020
842.933	3138
843.069	3032
843.206	3036
843.343	3192
843.479	3066
843.616	3127
843.752	2861
843.889	2872
844.025	3074
844.162	2883
844.298	3074
844.435	2937
844.571	2929
844.708	3085
844.844	3154
844.98	3226
845.117	3169
845.253	3043
845.389	3032
845.525	3100
845.661	3097
845.798	3028
845.934	3123
846.07	3074
846.206	3218
846.342	3317
846.478	3237
846.614	3058
846.75	3032
846.886	3001
847.022	3188
847.158	3112
847.294	3203
847.429	3237
847.565	3207
847.701	3477
847.837	3032
847.972	2986
848.108	3184
848.244	3108
848.379	3005
848.515	2929
848.65	2925
848.786	2944
848.921	2982
849.057	3138
849.192	3154
849.328	3070
849.463	3116
849.598	3089
849.734	3024
849.869	2948
850.004	2906
850.14	2956
850.275	2914
850.41	2849
850.545	2883
850.68	2902
850.815	2914
850.95	2952
851.085	3173
851.22	3100
851.355	3039
851.49	2948
851.625	3009
851.76	3020
851.895	2929
852.03	2899
852.165	3055
852.299	3138
852.434	3161
852.569	3127
852.703	3142
852.838	3226
852.973	3340
853.107	3321
853.242	3157
853.376	3097
853.511	2975
853.645	3051
853.78	3249
853.914	3104
854.048	3055
854.183	3055
854.317	3142
854.451	3291
854.585	3123
854.72	3066
854.854	3207
854.988	3085
855.122	3070
855.256	2952
855.39	3131
855.524	3207
855.658	3207
855.792	3157
855.926	3195
856.06	3207
856.194	3237
856.327	3138
856.461	3062
856.595	3104
856.729	3077
856.862	3211
856.996	3142
857.13	3207
857.263	3279
857.397	3268
857.53	3123
857.664	3161
857.797	3199
857.931	3218
858.064	3169
858.197	3211
858.331	3116
858.464	3104
858.597	2982
858.731	3119
858.864	3161
858.997	3070
859.13	3154
859.263	3146
859.396	3203
859.529	3104
859.662	3036
859.795	3020
859.928	3154
860.061	3302
860.194	3268
860.327	3104
860.46	3051
860.592	3253
860.725	3237
860.858	3222
860.99	3074
861.123	3066
861.256	3043
861.388	3116
861.521	3838
861.653	3013
861.786	2982
861.918	2998
862.05	3058
862.183	3108
862.315	3157
862.447	3207
862.58	3104
862.712	2925
862.844	2842
862.976	3009
863.108	3024
863.24	3431
863.372	2902
863.504	2979
863.636	2952
863.768	3039
863.9	2963
864.032	2887
864.164	2941
864.296	3013
864.428	3097
864.559	3100
864.691	3066
864.823	3028
864.954	3017
865.086	3058
865.217	3001
865.349	2982
865.48	2979
865.612	3020
865.743	3131
865.875	2971
866.006	2941
866.137	2979
866.269	2914
866.4	2937
866.531	2902
866.662	2880
866.793	2880
866.924	2891
867.055	2971
867.186	2922
867.317	2872
867.448	2868
867.579	2826
867.71	2872
867.841	2826
867.972	2906
868.103	2902
868.233	2842
868.364	2891
868.495	2872
868.625	3085
868.756	3169
868.886	2941
869.017	3024
869.147	3131
869.278	3127
869.408	3051
869.539	3062
869.669	3089
869.799	3051
869.929	3131
870.06	3112
870.19	3291
870.32	3291
870.45	3268
870.58	3389
870.71	3473
870.84	3462
870.97	3279
871.1	3218
871.23	3462
871.36	3439
871.489	3370
871.619	3405
871.749	3355
871.879	3416
872.008	3496
872.138	3321
872.267	3291
872.397	3123
872.526	3089
872.656	2994
872.785	3116
872.915	3264
873.044	3302
873.173	3195
873.303	3233
873.432	3249
873.561	3233
873.69	3150
873.819	3176
873.948	3192
874.077	3093
874.206	3055
874.335	3074
874.464	3237
874.593	3336
874.722	3256
874.851	3397
874.979	3321
875.108	3298
875.237	3165
875.365	3165
875.494	3154
875.623	3264
875.751	3108
875.88	3123
876.008	3195
876.136	3211
876.265	3351
876.393	3500
876.521	3424
876.65	3393
876.778	3367
876.906	3241
877.034	3199
877.162	3233
877.29	3154
877.418	3169
877.546	3226
877.674	3317
877.802	3207
877.93	3226
878.058	3165
878.185	3116
878.313	3192
878.441	3188
878.568	3066
878.696	3165
878.824	3275
878.951	3268
879.079	3447
879.206	3618
879.333	3420
879.461	3321
879.588	3344
879.715	3431
879.842	3561
879.97	3370
880.097	3154
880.224	3112
880.351	3173
880.478	3180
880.605	3165
880.732	3169
880.859	3507
880.986	3332
881.112	3329
881.239	3207
881.366	3093
881.493	3043
881.619	3028
881.746	3058
881.872	3089
881.999	3093
882.125	3154
882.252	3279
882.378	3325
882.505	3409
882.631	3253
882.757	3093
882.883	3245
883.01	3222
883.136	3188
883.262	3089
883.388	3097
883.514	3332
883.64	3378
883.766	3279
883.892	3211
884.018	3256
884.143	3428
884.269	3549
884.395	3211
884.52	3150
884.646	3180
884.772	3093
884.897	3100
885.023	3188
885.148	3291
885.274	3416
885.399	3367
885.524	3275
885.65	3226
885.775	3310
885.9	3249
886.025	3420
886.15	3370
886.275	3294
886.4	3245
886.525	3287
886.65	3298
886.775	3268
886.9	3450
887.025	3629
887.149	3348
887.274	3256
887.399	3222
887.523	3199
887.648	3184
887.773	3199
887.897	3340
888.021	3378
888.146	3291
888.27	3447
888.395	3534
888.519	3443
888.643	3447
888.767	3500
888.891	3306
889.015	3222
889.139	3294
889.263	3241
889.387	3424
889.511	3534
889.635	3454
889.759	3302
889.883	3298
890.006	3409
890.13	3485
890.254	3253
890.377	3306
890.501	3214
890.624	3192
890.748	3287
890.871	3173
890.995	3131
891.118	3062
891.241	3188
891.364	3184
891.488	3340
891.611	3142
891.734	3214
891.857	3279
891.98	3226
892.103	3363
892.226	3268
892.349	3207
892.471	3100
892.594	3214
892.717	3253
892.839	3279
892.962	3325
893.085	3367
893.207	3313
893.33	3161
893.452	3218
893.575	3355
893.697	3207
893.819	3466
893.941	3507
894.064	3416
894.186	3253
894.308	3264
894.43	3416
894.552	3488
894.674	3450
894.796	3268
894.918	3287
895.04	3287
895.161	3409
895.283	3378
895.405	3321
895.526	3355
895.648	3412
895.769	3462
895.891	3443
896.012	3481
896.134	3428
896.255	3424
896.376	3370
896.498	3355
896.619	3428
896.74	3382
896.861	3370
896.982	3701
897.103	3812
897.224	3580
897.345	3515
897.466	3431
897.587	3488
897.708	3629
897.828	3538
897.949	3439
898.07	3317
898.19	3435
898.311	3564
898.431	3431
898.552	3526
898.672	3595
898.792	3572
898.913	3530
899.033	3397
899.153	3256
899.273	3245
899.393	3287
899.513	3298
899.633	3306
899.753	3313
899.873	3298
899.993	3367
900.113	3336
900.232	3348
900.352	3329
900.472	3264
900.591	3203
900.711	3264
900.83	3222
900.95	3431
901.069	3439
901.189	3348
901.308	3176
901.427	3138
901.546	3211
901.665	3283
901.784	3329
901.904	3192
902.023	3142
902.141	3009
902.26	3001
902.379	3131
902.498	3051
902.617	3058
902.735	3226
902.854	3256
902.973	3192
903.091	3009
903.21	3093
903.328	3123
903.446	3100
903.565	3100
903.683	3207
903.801	3154
903.919	3256
904.038	3287
904.156	3150
904.274	3291
904.392	3253
904.51	3283
904.627	3367
904.745	3458
904.863	3507
904.981	3321
905.098	3222
905.216	3214
905.334	3256
905.451	3321
905.569	3310
905.686	3428
905.803	3447
905.921	3287
906.038	3447
906.155	3382
906.272	3245
906.389	3344
906.506	3253
906.623	3230
906.74	3283
906.857	3192
906.974	3222
907.091	3469
907.208	3549
907.324	3488
907.441	3370
907.557	3233
907.674	3249
907.79	3253
907.907	3275
908.023	3412
908.139	3378
908.256	3298
908.372	3378
908.488	3332
908.604	3264
908.72	3245
908.836	3291
908.952	3298
909.068	3317
909.184	3485
909.3	3405
909.415	3504
909.531	3488
909.647	3306
909.762	3310
909.878	3291
909.993	3340
910.108	3332
910.224	3355
910.339	3412
910.454	3374
910.57	3256
910.685	3291
910.8	3603
910.915	3500
911.03	3439
911.145	3237
911.259	3264
911.374	3306
911.489	3226
911.604	3214
911.718	3104
911.833	3150
911.947	3051
912.062	2986
912.176	3199
912.291	3188
912.405	3207
912.519	3401
912.633	3439
912.748	3332
912.862	3272
912.976	3165
913.09	3077
913.204	3112
913.318	3192
913.431	3317
913.545	3329
913.659	3412
913.772	3279
913.886	3203
914	3192
914.113	3401
914.226	3397
914.34	3382
914.453	3233
914.566	3382
914.68	3291
914.793	3310
914.906	3154
915.019	3131
915.132	3089
915.245	3135
915.358	3176
915.47	3218
915.583	3260
915.696	3321
915.809	3450
915.921	3424
916.034	3256
916.146	3256
916.259	3272
916.371	3386
916.483	3393
916.595	3313
916.708	3317
916.82	3359
916.932	3340
917.044	3317
917.156	3389
917.268	3211
917.38	3253
917.491	3275
917.603	3370
917.715	3485
917.826	3485
917.938	3367
918.049	3287
918.161	3409
918.272	3553
918.384	3568
918.495	3473
918.606	3332
918.717	3226
918.828	3397
918.939	3420
919.05	3279
919.161	3332
919.272	3169
919.383	3294
919.494	3538
919.604	3682
919.715	3481
919.826	3439
919.936	3443
920.047	3580
920.157	3545
920.267	3759
920.378	3618
920.488	3599
920.598	3774
920.708	3964
920.818	3793
920.928	3846
921.038	4006
921.148	3987
921.258	3701
921.368	3606
921.477	3568
921.587	3523
921.697	3447
921.806	3633
921.916	3515
922.025	3370
922.134	3363
922.244	3336
922.353	3462
922.462	3287
922.571	3230
922.68	3089
922.789	3104
922.898	3146
923.007	3085
923.116	3176
923.224	3131
923.333	3165
923.442	3131
923.55	3070
923.659	3100
923.767	3222
923.876	3123
923.984	3272
924.092	3127
924.201	3192
924.309	3237
924.417	3260
924.525	3184
924.633	3222
924.741	4188
924.849	3085
924.956	3264
925.064	3116
925.172	3062
925.279	3077
925.387	3207
925.494	3195
925.602	3351
925.709	3332
925.816	3161
925.924	3291
926.031	3378
926.138	3336
926.245	3367
926.352	3279
926.459	3401
926.566	3496
926.673	3294
926.779	3214
926.886	3245
926.993	3150
927.099	3154
927.206	3097
927.312	3154
927.419	3260
927.525	3222
927.631	3256
927.737	3192
927.843	3112
927.95	3020
928.056	3119
928.162	3169
928.267	3237
928.373	3835
928.479	3294
928.585	3070
928.69	3199
928.796	3310
928.901	3184
929.007	3032
929.112	3199
929.218	3184
929.323	3142
929.428	3192
929.533	3283
929.638	3108
929.743	3199
929.848	3230
929.953	3211
930.058	3195
930.163	2982
930.267	3062
930.372	3218
930.477	3020
930.581	3291
930.685	3176
930.79	3020
930.894	3127
930.998	3074
931.103	3275
931.207	2982
931.311	2937
931.415	2899
931.519	2762
931.623	2823
