Data from test_V78500241_383.txt Node
Date: Fri Mar 25 16:17:51 CST 2022
User: usil
Spectrometer: V785-0024
Trigger mode: 0
Integration Time (sec): 4.000000E-1
Scans to average: 1
Nonlinearity correction enabled: false
Boxcar width: 0
Storing dark spectrum: false
XAxis mode: Wavelengths
Number of Pixels in Spectrum: 1024
>>>>>Begin Spectral Data<<<<<
801.071	2967
801.214	3001
801.356	2887
801.499	2929
801.641	2925
801.783	2967
801.926	3097
802.068	2975
802.211	3028
802.353	3028
802.496	2994
802.638	2994
802.78	3085
802.923	3100
803.065	2994
803.208	2933
803.35	2956
803.492	2956
803.635	2914
803.777	2785
803.919	2887
804.061	3226
804.204	2990
804.346	2933
804.488	2891
804.63	2986
804.773	2918
804.915	2956
805.057	3119
805.199	2937
805.341	2998
805.483	3036
805.626	3001
805.768	3017
805.91	3116
806.052	3112
806.194	3017
806.336	3268
806.478	3039
806.62	2948
806.762	2982
806.904	3074
807.046	3176
807.188	3013
807.33	2937
807.472	3028
807.614	2952
807.756	2975
807.898	2944
808.04	2925
808.182	2963
808.324	2941
808.465	2906
808.607	2883
808.749	2800
808.891	2868
809.033	2975
809.174	3001
809.316	2906
809.458	2876
809.6	2815
809.741	2773
809.883	2777
810.025	2853
810.166	2864
810.308	2861
810.45	2845
810.591	2792
810.733	2834
810.875	2857
811.016	2785
811.158	2800
811.299	2826
811.441	2975
811.582	2929
811.724	2845
811.865	2857
812.007	2941
812.148	2880
812.29	2891
812.431	2895
812.573	2933
812.714	2967
812.855	3085
812.997	3051
813.138	3195
813.279	3017
813.421	3009
813.562	2990
813.703	2899
813.845	2868
813.986	2777
814.127	2739
814.268	2838
814.41	2887
814.551	2819
814.692	2876
814.833	2815
814.974	2895
815.115	2948
815.256	2861
815.397	2807
815.539	2861
815.68	2785
815.821	2792
815.962	2902
816.103	2963
816.244	2864
816.385	2876
816.526	2994
816.666	2941
816.807	2762
816.948	2872
817.089	2922
817.23	2876
817.371	2788
817.512	2819
817.653	2883
817.793	2838
817.934	2918
818.075	3005
818.216	2986
818.356	3013
818.497	2868
818.638	2781
818.778	2842
818.919	2804
819.06	2781
819.2	2895
819.341	2807
819.481	2826
819.622	2937
819.762	3119
819.903	3055
820.043	2948
820.184	2944
820.324	2902
820.465	3013
820.605	3028
820.746	3032
820.886	2967
821.026	3154
821.167	3245
821.307	3249
821.447	3283
821.588	3245
821.728	3226
821.868	3188
822.008	3085
822.149	3199
822.289	3249
822.429	3093
822.569	3089
822.709	3165
822.849	3058
822.99	3077
823.13	3180
823.27	3245
823.41	3131
823.55	3157
823.69	3165
823.83	3192
823.97	3077
824.11	3005
824.25	3036
824.389	3089
824.529	3097
824.669	3108
824.809	3192
824.949	3245
825.089	3230
825.228	3199
825.368	3043
825.508	2944
825.648	3013
825.787	3001
825.927	3024
826.067	2998
826.206	2975
826.346	3089
826.485	3062
826.625	3108
826.765	3302
826.904	3222
827.044	2982
827.183	2956
827.323	2880
827.462	2982
827.601	2941
827.741	2941
827.88	2944
828.02	2910
828.159	2990
828.298	3039
828.437	3119
828.577	3020
828.716	3264
828.855	3085
828.994	2948
829.134	2902
829.273	2944
829.412	2868
829.551	2914
829.69	2876
829.829	2990
829.968	3173
830.107	3028
830.246	3039
830.385	2895
830.524	2895
830.663	2861
830.802	2781
830.941	2667
831.08	2663
831.219	2781
831.357	2773
831.496	2998
831.635	2693
831.774	2701
831.913	2686
832.051	2583
832.19	2602
832.329	2701
832.467	2549
832.606	2503
832.744	2556
832.883	2613
833.022	2598
833.16	2648
833.299	2701
833.437	2678
833.576	2727
833.714	2735
833.852	2735
833.991	2743
834.129	2857
834.267	2834
834.406	2792
834.544	2887
834.682	2872
834.821	2918
834.959	3093
835.097	2883
835.235	3039
835.373	3024
835.511	3013
835.65	2971
835.788	2960
835.926	2830
836.064	2819
836.202	2880
836.34	3104
836.478	3142
836.615	3097
836.753	3112
836.891	3256
837.029	3184
837.167	3093
837.305	3066
837.443	3009
837.58	2944
837.718	3142
837.856	3055
837.993	3032
838.131	3138
838.269	3154
838.406	3081
838.544	3062
838.681	2960
838.819	2948
838.956	2811
839.094	2838
839.231	2899
839.369	3032
839.506	3386
839.643	3241
839.781	3024
839.918	2944
840.055	3020
840.193	3028
840.33	3047
840.467	3093
840.604	3150
840.742	3416
840.879	3077
841.016	3058
841.153	3097
841.29	3359
841.427	3283
841.564	3279
841.701	3313
841.838	3233
841.975	3157
842.112	3184
842.249	3085
842.385	3039
842.522	3260
842.659	3100
842.796	3051
842.933	3097
843.069	3039
843.206	3039
843.343	3207
843.479	3131
843.616	3150
843.752	2872
843.889	2845
844.025	3089
844.162	2845
844.298	3074
844.435	2941
844.571	2906
844.708	3097
844.844	3211
844.98	3226
845.117	3169
845.253	3058
845.389	2994
845.525	3100
845.661	3112
845.798	3024
845.934	3127
846.07	3100
846.206	3226
846.342	3317
846.478	3222
846.614	3116
846.75	3017
846.886	3036
847.022	3211
847.158	3154
847.294	3184
847.429	3279
847.565	3192
847.701	3462
847.837	3036
847.972	2986
848.108	3165
848.244	3112
848.379	3017
848.515	2948
848.65	2922
848.786	2922
848.921	3013
849.057	3131
849.192	3142
849.328	3051
849.463	3123
849.598	3051
849.734	3081
849.869	2975
850.004	2956
850.14	2967
850.275	2918
850.41	2853
850.545	2872
850.68	2952
850.815	2956
850.95	2944
851.085	3180
851.22	3135
851.355	3001
851.49	3020
851.625	3013
851.76	3024
851.895	2948
852.03	2918
852.165	3066
852.299	3112
852.434	3192
852.569	3169
852.703	3218
852.838	3287
852.973	3332
853.107	3279
853.242	3135
853.376	3112
853.511	2990
853.645	3097
853.78	3218
853.914	3161
854.048	3135
854.183	3146
854.317	3173
854.451	3279
854.585	3123
854.72	3097
854.854	3249
854.988	3070
855.122	3135
855.256	3009
855.39	3169
855.524	3298
855.658	3222
855.792	3203
855.926	3214
856.06	3222
856.194	3325
856.327	3142
856.461	3127
856.595	3100
856.729	3157
856.862	3298
856.996	3241
857.13	3249
857.263	3264
857.397	3374
857.53	3146
857.664	3199
857.797	3310
857.931	3302
858.064	3211
858.197	3272
858.331	3173
858.464	3131
858.597	3043
858.731	3150
858.864	3169
858.997	3165
859.13	3180
859.263	3192
859.396	3253
859.529	3112
859.662	3123
859.795	3104
859.928	3192
860.061	3329
860.194	3348
860.327	3180
860.46	3135
860.592	3344
860.725	3306
860.858	3264
860.99	3123
861.123	3093
861.256	3108
861.388	3176
861.521	3880
861.653	3047
861.786	3005
861.918	3058
862.05	3123
862.183	3097
862.315	3188
862.447	3203
862.58	3135
862.712	2986
862.844	2937
862.976	3070
863.108	3066
863.24	3488
863.372	2925
863.504	2998
863.636	2986
863.768	3062
863.9	3062
864.032	2956
864.164	3009
864.296	3055
864.428	3138
864.559	3169
864.691	3116
864.823	3108
864.954	3081
865.086	3104
865.217	3036
865.349	2982
865.48	2982
865.612	3036
865.743	3199
865.875	3005
866.006	2975
866.137	3047
866.269	2990
866.4	2929
866.531	2944
866.662	2948
866.793	2941
866.924	2941
867.055	3009
867.186	2929
867.317	2925
867.448	2910
867.579	2883
867.71	2876
867.841	2880
867.972	2944
868.103	2929
868.233	2948
868.364	2941
868.495	2944
868.625	3135
868.756	3218
868.886	3017
869.017	3047
869.147	3192
869.278	3207
869.408	3081
869.539	3051
869.669	3135
869.799	3077
869.929	3169
870.06	3131
870.19	3370
870.32	3310
870.45	3321
870.58	3431
870.71	3447
870.84	3466
870.97	3351
871.1	3275
871.23	3519
871.36	3515
871.489	3344
871.619	3393
871.749	3428
871.879	3473
872.008	3511
872.138	3386
872.267	3283
872.397	3192
872.526	3142
872.656	3017
872.785	3127
872.915	3317
873.044	3351
873.173	3249
873.303	3264
873.432	3275
873.561	3264
873.69	3157
873.819	3180
873.948	3226
874.077	3161
874.206	3058
874.335	3112
874.464	3245
874.593	3374
874.722	3294
874.851	3409
874.979	3340
875.108	3348
875.237	3233
875.365	3135
875.494	3180
875.623	3294
875.751	3104
875.88	3119
876.008	3249
876.136	3268
876.265	3397
876.393	3564
876.521	3458
876.65	3450
876.778	3351
876.906	3272
877.034	3237
877.162	3256
877.29	3218
877.418	3321
877.546	3260
877.674	3279
877.802	3256
877.93	3264
878.058	3135
878.185	3116
878.313	3226
878.441	3211
878.568	3055
878.696	3188
878.824	3256
878.951	3370
879.079	3469
879.206	3625
879.333	3439
879.461	3355
879.588	3355
879.715	3492
879.842	3644
879.97	3435
880.097	3138
880.224	3154
880.351	3173
880.478	3253
880.605	3264
880.732	3214
880.859	3519
880.986	3359
881.112	3367
881.239	3188
881.366	3108
881.493	3047
881.619	3058
881.746	3089
881.872	3116
881.999	3108
882.125	3184
882.252	3264
882.378	3294
882.505	3454
882.631	3302
882.757	3169
882.883	3184
883.01	3218
883.136	3169
883.262	3100
883.388	3142
883.514	3348
883.64	3382
883.766	3329
883.892	3211
884.018	3253
884.143	3454
884.269	3561
884.395	3291
884.52	3188
884.646	3211
884.772	3154
884.897	3146
885.023	3237
885.148	3351
885.274	3450
885.399	3363
885.524	3283
885.65	3325
885.775	3344
885.9	3325
886.025	3405
886.15	3378
886.275	3317
886.4	3253
886.525	3313
886.65	3306
886.775	3245
886.9	3557
887.025	3622
887.149	3424
887.274	3287
887.399	3203
887.523	3230
887.648	3214
887.773	3260
887.897	3382
888.021	3412
888.146	3332
888.27	3443
888.395	3534
888.519	3450
888.643	3477
888.767	3477
888.891	3321
889.015	3260
889.139	3336
889.263	3256
889.387	3439
889.511	3488
889.635	3416
889.759	3287
889.883	3317
890.006	3424
890.13	3500
890.254	3294
890.377	3359
890.501	3253
890.624	3222
890.748	3298
890.871	3188
890.995	3146
891.118	3100
891.241	3211
891.364	3272
891.488	3306
891.611	3218
891.734	3264
891.857	3287
891.98	3272
892.103	3355
892.226	3275
892.349	3222
892.471	3123
892.594	3245
892.717	3325
892.839	3283
892.962	3325
893.085	3374
893.207	3294
893.33	3195
893.452	3203
893.575	3374
893.697	3275
893.819	3473
893.941	3530
894.064	3477
894.186	3317
894.308	3298
894.43	3466
894.552	3545
894.674	3466
894.796	3294
894.918	3325
895.04	3287
895.161	3450
895.283	3477
895.405	3310
895.526	3355
895.648	3431
895.769	3473
895.891	3492
896.012	3469
896.134	3473
896.255	3435
896.376	3405
896.498	3435
896.619	3450
896.74	3374
896.861	3409
896.982	3701
897.103	3903
897.224	3610
897.345	3496
897.466	3443
897.587	3530
897.708	3644
897.828	3530
897.949	3447
898.07	3351
898.19	3435
898.311	3595
898.431	3492
898.552	3542
898.672	3629
898.792	3595
898.913	3553
899.033	3428
899.153	3321
899.273	3207
899.393	3325
899.513	3340
899.633	3359
899.753	3340
899.873	3325
899.993	3401
900.113	3344
900.232	3420
900.352	3355
900.472	3317
900.591	3275
900.711	3359
900.83	3272
900.95	3382
901.069	3511
901.189	3382
901.308	3230
901.427	3188
901.546	3233
901.665	3275
901.784	3370
901.904	3222
902.023	3176
902.141	3074
902.26	3005
902.379	3199
902.498	3093
902.617	3051
902.735	3226
902.854	3275
902.973	3176
903.091	3051
903.21	3081
903.328	3154
903.446	3131
903.565	3100
903.683	3233
903.801	3123
903.919	3230
904.038	3294
904.156	3199
904.274	3321
904.392	3260
904.51	3298
904.627	3359
904.745	3454
904.863	3519
904.981	3241
905.098	3245
905.216	3268
905.334	3317
905.451	3348
905.569	3336
905.686	3439
905.803	3462
905.921	3283
906.038	3450
906.155	3363
906.272	3298
906.389	3336
906.506	3275
906.623	3253
906.74	3313
906.857	3237
906.974	3279
907.091	3462
907.208	3584
907.324	3496
907.441	3412
907.557	3222
907.674	3192
907.79	3241
907.907	3336
908.023	3412
908.139	3401
908.256	3340
908.372	3393
908.488	3359
908.604	3230
908.72	3237
908.836	3298
908.952	3264
909.068	3367
909.184	3492
909.3	3420
909.415	3504
909.531	3481
909.647	3283
909.762	3310
909.878	3275
909.993	3367
910.108	3382
910.224	3348
910.339	3420
910.454	3344
910.57	3302
910.685	3272
910.8	3587
910.915	3534
911.03	3447
911.145	3272
911.259	3298
911.374	3344
911.489	3260
911.604	3245
911.718	3104
911.833	3138
911.947	3070
912.062	2994
912.176	3184
912.291	3226
912.405	3214
912.519	3416
912.633	3466
912.748	3386
912.862	3306
912.976	3192
913.09	3070
913.204	3161
913.318	3192
913.431	3370
913.545	3351
913.659	3454
913.772	3340
913.886	3241
914	3214
914.113	3393
914.226	3416
914.34	3386
914.453	3214
914.566	3386
914.68	3344
914.793	3313
914.906	3157
915.019	3135
915.132	3085
915.245	3173
915.358	3211
915.47	3256
915.583	3249
915.696	3313
915.809	3397
915.921	3393
916.034	3294
916.146	3237
916.259	3233
916.371	3416
916.483	3367
916.595	3321
916.708	3370
916.82	3329
916.932	3401
917.044	3340
917.156	3344
917.268	3272
917.38	3329
917.491	3291
917.603	3363
917.715	3454
917.826	3496
917.938	3374
918.049	3283
918.161	3462
918.272	3553
918.384	3603
918.495	3545
918.606	3367
918.717	3291
918.828	3378
918.939	3416
919.05	3329
919.161	3409
919.272	3218
919.383	3306
919.494	3511
919.604	3701
919.715	3477
919.826	3431
919.936	3473
920.047	3587
920.157	3580
920.267	3823
920.378	3622
920.488	3595
920.598	3816
920.708	3934
920.818	3812
920.928	3888
921.038	4029
921.148	4010
921.258	3732
921.368	3625
921.477	3561
921.587	3530
921.697	3466
921.806	3652
921.916	3542
922.025	3348
922.134	3355
922.244	3332
922.353	3435
922.462	3241
922.571	3237
922.68	3112
922.789	3112
922.898	3116
923.007	3135
923.116	3241
923.224	3184
923.333	3211
923.442	3123
923.55	3108
923.659	3161
923.767	3211
923.876	3157
923.984	3230
924.092	3131
924.201	3237
924.309	3230
924.417	3253
924.525	3214
924.633	3298
924.741	4181
924.849	3062
924.956	3245
925.064	3081
925.172	3074
925.279	3077
925.387	3203
925.494	3241
925.602	3348
925.709	3317
925.816	3211
925.924	3325
926.031	3370
926.138	3291
926.245	3378
926.352	3256
926.459	3378
926.566	3507
926.673	3298
926.779	3218
926.886	3241
926.993	3154
927.099	3157
927.206	3081
927.312	3077
927.419	3207
927.525	3214
927.631	3253
927.737	3184
927.843	3150
927.95	3039
928.056	3135
928.162	3169
928.267	3272
928.373	3892
928.479	3317
928.585	3081
928.69	3241
928.796	3268
928.901	3157
929.007	3051
929.112	3233
929.218	3192
929.323	3169
929.428	3127
929.533	3344
929.638	3127
929.743	3192
929.848	3241
929.953	3195
930.058	3173
930.163	3028
930.267	3043
930.372	3211
930.477	3062
930.581	3302
930.685	3207
930.79	3062
930.894	3085
930.998	3131
931.103	3272
931.207	3001
931.311	2960
931.415	2948
931.519	2762
931.623	2834
