Data from test_V78500241_265.txt Node
Date: Fri Mar 25 16:17:02 CST 2022
User: usil
Spectrometer: V785-0024
Trigger mode: 0
Integration Time (sec): 4.000000E-1
Scans to average: 1
Nonlinearity correction enabled: false
Boxcar width: 0
Storing dark spectrum: false
XAxis mode: Wavelengths
Number of Pixels in Spectrum: 1024
>>>>>Begin Spectral Data<<<<<
801.071	2971
801.214	2963
801.356	2887
801.499	2941
801.641	2895
801.783	2918
801.926	3085
802.068	3009
802.211	3036
802.353	3066
802.496	2986
802.638	3024
802.78	3051
802.923	3066
803.065	3028
803.208	2918
803.35	2967
803.492	2956
803.635	2944
803.777	2807
803.919	2902
804.061	3207
804.204	2956
804.346	2960
804.488	2876
804.63	2979
804.773	2891
804.915	2922
805.057	3070
805.199	2944
805.341	3009
805.483	3062
805.626	3001
805.768	2986
805.91	3074
806.052	3108
806.194	3077
806.336	3272
806.478	3036
806.62	2922
806.762	2944
806.904	3089
807.046	3180
807.188	2963
807.33	2895
807.472	3009
807.614	2887
807.756	2998
807.898	2906
808.04	2914
808.182	2982
808.324	2925
808.465	2895
808.607	2899
808.749	2811
808.891	2872
809.033	2963
809.174	3024
809.316	2891
809.458	2895
809.6	2777
809.741	2804
809.883	2777
810.025	2861
810.166	2899
810.308	2853
810.45	2849
810.591	2785
810.733	2762
810.875	2864
811.016	2777
811.158	2792
811.299	2807
811.441	2960
811.582	2910
811.724	2834
811.865	2853
812.007	2895
812.148	2883
812.29	2834
812.431	2906
812.573	2960
812.714	2944
812.855	3032
812.997	3081
813.138	3135
813.279	3009
813.421	2967
813.562	2956
813.703	2868
813.845	2887
813.986	2785
814.127	2769
814.268	2838
814.41	2826
814.551	2811
814.692	2883
814.833	2861
814.974	2880
815.115	2960
815.256	2819
815.397	2792
815.539	2842
815.68	2792
815.821	2792
815.962	2902
816.103	2933
816.244	2880
816.385	2845
816.526	2922
816.666	2925
816.807	2750
816.948	2899
817.089	2887
817.23	2826
817.371	2800
817.512	2800
817.653	2819
817.793	2804
817.934	2883
818.075	2986
818.216	2994
818.356	3036
818.497	2876
818.638	2792
818.778	2826
818.919	2788
819.06	2731
819.2	2861
819.341	2830
819.481	2788
819.622	2933
819.762	3104
819.903	3070
820.043	2925
820.184	2914
820.324	2941
820.465	3024
820.605	3055
820.746	3013
820.886	2998
821.026	3062
821.167	3214
821.307	3241
821.447	3317
821.588	3253
821.728	3260
821.868	3214
822.008	3119
822.149	3218
822.289	3241
822.429	3123
822.569	3112
822.709	3218
822.849	3020
822.99	3108
823.13	3214
823.27	3241
823.41	3165
823.55	3218
823.69	3150
823.83	3222
823.97	3119
824.11	3028
824.25	3047
824.389	3119
824.529	3127
824.669	3123
824.809	3237
824.949	3260
825.089	3222
825.228	3180
825.368	3070
825.508	3013
825.648	2998
825.787	3043
825.927	3062
826.067	3005
826.206	2990
826.346	3062
826.485	3135
826.625	3135
826.765	3340
826.904	3253
827.044	3028
827.183	2975
827.323	2922
827.462	3028
827.601	2975
827.741	2948
827.88	2994
828.02	2883
828.159	3009
828.298	3070
828.437	3142
828.577	3077
828.716	3272
828.855	3093
828.994	2990
829.134	2914
829.273	2956
829.412	2914
829.551	2910
829.69	2948
829.829	3020
829.968	3154
830.107	3017
830.246	3039
830.385	2956
830.524	2948
830.663	2872
830.802	2804
830.941	2693
831.08	2701
831.219	2796
831.357	2807
831.496	2986
831.635	2773
831.774	2682
831.913	2674
832.051	2602
832.19	2602
832.329	2720
832.467	2606
832.606	2541
832.744	2632
832.883	2602
833.022	2644
833.16	2701
833.299	2735
833.437	2735
833.576	2720
833.714	2739
833.852	2766
833.991	2796
834.129	2876
834.267	2895
834.406	2811
834.544	2922
834.682	2895
834.821	2944
834.959	3116
835.097	2944
835.235	3138
835.373	3051
835.511	3058
835.65	3013
835.788	2967
835.926	2872
836.064	2807
836.202	2872
836.34	3138
836.478	3142
836.615	3089
836.753	3192
836.891	3192
837.029	3226
837.167	3123
837.305	3081
837.443	3055
837.58	2975
837.718	3116
837.856	3112
837.993	3066
838.131	3165
838.269	3135
838.406	3116
838.544	3127
838.681	2960
838.819	2937
838.956	2857
839.094	2845
839.231	2937
839.369	3089
839.506	3386
839.643	3245
839.781	3032
839.918	2979
840.055	3100
840.193	3100
840.33	3089
840.467	3135
840.604	3180
840.742	3462
840.879	3100
841.016	3127
841.153	3195
841.29	3313
841.427	3317
841.564	3325
841.701	3367
841.838	3260
841.975	3214
842.112	3253
842.249	3127
842.385	3085
842.522	3325
842.659	3085
842.796	3036
842.933	3154
843.069	3089
843.206	3077
843.343	3218
843.479	3138
843.616	3192
843.752	2963
843.889	2899
844.025	3104
844.162	2887
844.298	3066
844.435	2982
844.571	2971
844.708	3142
844.844	3230
844.98	3272
845.117	3218
845.253	3074
845.389	3070
845.525	3116
845.661	3108
845.798	3020
845.934	3138
846.07	3081
846.206	3268
846.342	3367
846.478	3237
846.614	3146
846.75	3104
846.886	3062
847.022	3313
847.158	3188
847.294	3203
847.429	3237
847.565	3264
847.701	3519
847.837	3070
847.972	3070
848.108	3222
848.244	3157
848.379	3020
848.515	2979
848.65	2952
848.786	2979
848.921	3036
849.057	3135
849.192	3127
849.328	3074
849.463	3161
849.598	3108
849.734	3112
849.869	3005
850.004	2937
850.14	3032
850.275	2952
850.41	2872
850.545	2887
850.68	2952
850.815	2990
850.95	3043
851.085	3214
851.22	3154
851.355	3070
851.49	3013
851.625	3055
851.76	3058
851.895	3005
852.03	2975
852.165	3055
852.299	3138
852.434	3218
852.569	3180
852.703	3199
852.838	3256
852.973	3359
853.107	3374
853.242	3173
853.376	3089
853.511	3032
853.645	3097
853.78	3218
853.914	3123
854.048	3176
854.183	3112
854.317	3184
854.451	3355
854.585	3154
854.72	3104
854.854	3230
854.988	3093
855.122	3127
855.256	3020
855.39	3127
855.524	3260
855.658	3226
855.792	3157
855.926	3218
856.06	3241
856.194	3268
856.327	3169
856.461	3093
856.595	3123
856.729	3119
856.862	3253
856.996	3169
857.13	3233
857.263	3249
857.397	3287
857.53	3161
857.664	3245
857.797	3279
857.931	3287
858.064	3176
858.197	3264
858.331	3131
858.464	3146
858.597	3055
858.731	3154
858.864	3112
858.997	3108
859.13	3135
859.263	3192
859.396	3207
859.529	3104
859.662	3112
859.795	3077
859.928	3142
860.061	3317
860.194	3317
860.327	3161
860.46	3169
860.592	3272
860.725	3237
860.858	3302
860.99	3142
861.123	3089
861.256	3108
861.388	3222
861.521	3896
861.653	3024
861.786	2994
861.918	3032
862.05	3089
862.183	3131
862.315	3184
862.447	3207
862.58	3138
862.712	2952
862.844	2899
862.976	3039
863.108	3039
863.24	3321
863.372	2918
863.504	3001
863.636	2979
863.768	3009
863.9	3020
864.032	2937
864.164	2937
864.296	3013
864.428	3100
864.559	3161
864.691	3104
864.823	3100
864.954	3089
865.086	3036
865.217	3032
865.349	2963
865.48	3013
865.612	3058
865.743	3165
865.875	2990
866.006	2948
866.137	3032
866.269	2963
866.4	2914
866.531	2963
866.662	2872
866.793	2899
866.924	2887
867.055	2998
867.186	2967
867.317	2895
867.448	2887
867.579	2880
867.71	2872
867.841	2853
867.972	2906
868.103	2914
868.233	2925
868.364	2914
868.495	2914
868.625	3097
868.756	3199
868.886	2982
869.017	3028
869.147	3180
869.278	3150
869.408	3085
869.539	3058
869.669	3123
869.799	3066
869.929	3142
870.06	3157
870.19	3367
870.32	3332
870.45	3325
870.58	3401
870.71	3473
870.84	3530
870.97	3340
871.1	3256
871.23	3504
871.36	3515
871.489	3378
871.619	3428
871.749	3443
871.879	3473
872.008	3469
872.138	3382
872.267	3287
872.397	3150
872.526	3157
872.656	3047
872.785	3150
872.915	3275
873.044	3321
873.173	3260
873.303	3260
873.432	3310
873.561	3260
873.69	3169
873.819	3184
873.948	3222
874.077	3157
874.206	3074
874.335	3097
874.464	3253
874.593	3363
874.722	3237
874.851	3412
874.979	3397
875.108	3348
875.237	3226
875.365	3207
875.494	3218
875.623	3256
875.751	3108
875.88	3116
876.008	3226
876.136	3233
876.265	3420
876.393	3488
876.521	3469
876.65	3389
876.778	3359
876.906	3275
877.034	3203
877.162	3199
877.29	3230
877.418	3253
877.546	3237
877.674	3291
877.802	3260
877.93	3245
878.058	3199
878.185	3142
878.313	3203
878.441	3192
878.568	3074
878.696	3165
878.824	3287
878.951	3351
879.079	3443
879.206	3648
879.333	3488
879.461	3317
879.588	3340
879.715	3511
879.842	3603
879.97	3382
880.097	3203
880.224	3169
880.351	3222
880.478	3233
880.605	3218
880.732	3260
880.859	3507
880.986	3336
881.112	3374
881.239	3207
881.366	3116
881.493	3047
881.619	3028
881.746	3081
881.872	3104
881.999	3112
882.125	3157
882.252	3283
882.378	3310
882.505	3435
882.631	3351
882.757	3157
882.883	3214
883.01	3233
883.136	3176
883.262	3108
883.388	3112
883.514	3351
883.64	3393
883.766	3378
883.892	3199
884.018	3272
884.143	3420
884.269	3553
884.395	3214
884.52	3173
884.646	3173
884.772	3119
884.897	3161
885.023	3218
885.148	3313
885.274	3481
885.399	3367
885.524	3275
885.65	3283
885.775	3298
885.9	3306
886.025	3450
886.15	3348
886.275	3332
886.4	3253
886.525	3317
886.65	3256
886.775	3268
886.9	3500
887.025	3671
887.149	3492
887.274	3245
887.399	3199
887.523	3230
887.648	3176
887.773	3241
887.897	3355
888.021	3393
888.146	3325
888.27	3462
888.395	3538
888.519	3450
888.643	3473
888.767	3466
888.891	3359
889.015	3268
889.139	3298
889.263	3279
889.387	3420
889.511	3549
889.635	3424
889.759	3283
889.883	3310
890.006	3412
890.13	3481
890.254	3291
890.377	3374
890.501	3203
890.624	3218
890.748	3306
890.871	3214
890.995	3154
891.118	3089
891.241	3180
891.364	3218
891.488	3378
891.611	3195
891.734	3253
891.857	3310
891.98	3230
892.103	3367
892.226	3298
892.349	3184
892.471	3135
892.594	3302
892.717	3348
892.839	3298
892.962	3310
893.085	3363
893.207	3321
893.33	3169
893.452	3199
893.575	3359
893.697	3241
893.819	3481
893.941	3526
894.064	3492
894.186	3306
894.308	3279
894.43	3450
894.552	3519
894.674	3496
894.796	3279
894.918	3332
895.04	3313
895.161	3458
895.283	3382
895.405	3332
895.526	3370
895.648	3443
895.769	3443
895.891	3447
896.012	3481
896.134	3473
896.255	3462
896.376	3348
896.498	3420
896.619	3420
896.74	3389
896.861	3462
896.982	3682
897.103	3816
897.224	3599
897.345	3564
897.466	3454
897.587	3549
897.708	3652
897.828	3553
897.949	3435
898.07	3329
898.19	3428
898.311	3587
898.431	3477
898.552	3530
898.672	3572
898.792	3599
898.913	3530
899.033	3431
899.153	3325
899.273	3245
899.393	3344
899.513	3310
899.633	3313
899.753	3363
899.873	3302
899.993	3389
900.113	3348
900.232	3386
900.352	3355
900.472	3317
900.591	3214
900.711	3329
900.83	3268
900.95	3382
901.069	3477
901.189	3363
901.308	3192
901.427	3108
901.546	3184
901.665	3272
901.784	3355
901.904	3249
902.023	3157
902.141	3020
902.26	3005
902.379	3127
902.498	3081
902.617	3081
902.735	3226
902.854	3260
902.973	3230
903.091	3028
903.21	3100
903.328	3154
903.446	3093
903.565	3116
903.683	3237
903.801	3184
903.919	3306
904.038	3298
904.156	3192
904.274	3317
904.392	3256
904.51	3268
904.627	3344
904.745	3454
904.863	3500
904.981	3249
905.098	3211
905.216	3230
905.334	3279
905.451	3279
905.569	3321
905.686	3447
905.803	3409
905.921	3298
906.038	3447
906.155	3351
906.272	3325
906.389	3344
906.506	3218
906.623	3279
906.74	3245
906.857	3253
906.974	3237
907.091	3469
907.208	3538
907.324	3507
907.441	3359
907.557	3302
907.674	3260
907.79	3222
907.907	3306
908.023	3401
908.139	3389
908.256	3348
908.372	3393
908.488	3409
908.604	3214
908.72	3214
908.836	3279
908.952	3317
909.068	3336
909.184	3504
909.3	3386
909.415	3488
909.531	3450
909.647	3302
909.762	3302
909.878	3249
909.993	3386
910.108	3329
910.224	3329
910.339	3416
910.454	3359
910.57	3321
910.685	3226
910.8	3599
910.915	3561
911.03	3420
911.145	3253
911.259	3264
911.374	3340
911.489	3268
911.604	3230
911.718	3127
911.833	3169
911.947	3077
912.062	3005
912.176	3169
912.291	3237
912.405	3233
912.519	3466
912.633	3504
912.748	3344
912.862	3279
912.976	3192
913.09	3058
913.204	3184
913.318	3211
913.431	3332
913.545	3310
913.659	3443
913.772	3355
913.886	3207
914	3203
914.113	3374
914.226	3450
914.34	3367
914.453	3195
914.566	3412
914.68	3279
914.793	3348
914.906	3165
915.019	3146
915.132	3066
915.245	3180
915.358	3184
915.47	3249
915.583	3245
915.696	3313
915.809	3412
915.921	3450
916.034	3253
916.146	3275
916.259	3203
916.371	3370
916.483	3382
916.595	3268
916.708	3310
916.82	3336
916.932	3306
917.044	3340
917.156	3336
917.268	3268
917.38	3268
917.491	3241
917.603	3405
917.715	3473
917.826	3488
917.938	3378
918.049	3279
918.161	3431
918.272	3587
918.384	3580
918.495	3500
918.606	3340
918.717	3256
918.828	3329
918.939	3420
919.05	3363
919.161	3397
919.272	3211
919.383	3313
919.494	3538
919.604	3663
919.715	3477
919.826	3412
919.936	3431
920.047	3633
920.157	3591
920.267	3762
920.378	3603
920.488	3587
920.598	3827
920.708	3979
920.818	3846
920.928	3865
921.038	4032
921.148	4006
921.258	3720
921.368	3682
921.477	3580
921.587	3523
921.697	3450
921.806	3641
921.916	3530
922.025	3344
922.134	3348
922.244	3321
922.353	3435
922.462	3294
922.571	3264
922.68	3108
922.789	3062
922.898	3142
923.007	3100
923.116	3176
923.224	3169
923.333	3176
923.442	3085
923.55	3108
923.659	3138
923.767	3199
923.876	3138
923.984	3199
924.092	3123
924.201	3233
924.309	3226
924.417	3253
924.525	3161
924.633	3241
924.741	4169
924.849	3036
924.956	3287
925.064	3116
925.172	3028
925.279	3093
925.387	3230
925.494	3203
925.602	3355
925.709	3367
925.816	3173
925.924	3302
926.031	3393
926.138	3359
926.245	3401
926.352	3287
926.459	3420
926.566	3492
926.673	3325
926.779	3272
926.886	3237
926.993	3131
927.099	3138
927.206	3112
927.312	3089
927.419	3214
927.525	3184
927.631	3298
927.737	3161
927.843	3150
927.95	3036
928.056	3119
928.162	3180
928.267	3275
928.373	3876
928.479	3302
928.585	3081
928.69	3211
928.796	3272
928.901	3176
929.007	3058
929.112	3218
929.218	3165
929.323	3165
929.428	3116
929.533	3283
929.638	3104
929.743	3146
929.848	3256
929.953	3184
930.058	3150
930.163	3013
930.267	3039
930.372	3192
930.477	3024
930.581	3306
930.685	3161
930.79	3062
930.894	3161
930.998	3104
931.103	3275
931.207	2979
931.311	2963
931.415	2922
931.519	2811
931.623	2838
