Data from test_V78500241_1034.txt Node
Date: Fri Mar 25 16:22:21 CST 2022
User: usil
Spectrometer: V785-0024
Trigger mode: 0
Integration Time (sec): 4.000000E-1
Scans to average: 1
Nonlinearity correction enabled: false
Boxcar width: 0
Storing dark spectrum: false
XAxis mode: Wavelengths
Number of Pixels in Spectrum: 1024
>>>>>Begin Spectral Data<<<<<
801.071	2933
801.214	2982
801.356	2857
801.499	2952
801.641	2902
801.783	2899
801.926	3001
802.068	2998
802.211	3024
802.353	3005
802.496	2986
802.638	3013
802.78	3051
802.923	3119
803.065	3036
803.208	2933
803.35	2914
803.492	2960
803.635	2895
803.777	2792
803.919	2864
804.061	3226
804.204	2956
804.346	2906
804.488	2876
804.63	2986
804.773	2880
804.915	2925
805.057	3039
805.199	2922
805.341	2967
805.483	3032
805.626	2982
805.768	2975
805.91	3043
806.052	3100
806.194	3032
806.336	3207
806.478	3043
806.62	2933
806.762	2952
806.904	3047
807.046	3165
807.188	2960
807.33	2906
807.472	2986
807.614	2902
807.756	2986
807.898	2899
808.04	2895
808.182	2956
808.324	2937
808.465	2887
808.607	2864
808.749	2781
808.891	2853
809.033	2948
809.174	3013
809.316	2922
809.458	2857
809.6	2750
809.741	2792
809.883	2773
810.025	2887
810.166	2842
810.308	2834
810.45	2853
810.591	2746
810.733	2750
810.875	2853
811.016	2781
811.158	2731
811.299	2842
811.441	2952
811.582	2906
811.724	2830
811.865	2857
812.007	2895
812.148	2887
812.29	2883
812.431	2887
812.573	2948
812.714	2937
812.855	3081
812.997	3036
813.138	3112
813.279	3028
813.421	2998
813.562	2956
813.703	2880
813.845	2899
813.986	2762
814.127	2735
814.268	2830
814.41	2811
814.551	2766
814.692	2857
814.833	2792
814.974	2861
815.115	2929
815.256	2807
815.397	2819
815.539	2804
815.68	2788
815.821	2815
815.962	2944
816.103	2929
816.244	2910
816.385	2815
816.526	2982
816.666	2902
816.807	2743
816.948	2861
817.089	2918
817.23	2834
817.371	2750
817.512	2777
817.653	2811
817.793	2807
817.934	2891
818.075	2937
818.216	3013
818.356	3032
818.497	2880
818.638	2758
818.778	2838
818.919	2800
819.06	2754
819.2	2868
819.341	2796
819.481	2811
819.622	2929
819.762	3093
819.903	3077
820.043	2918
820.184	2937
820.324	2895
820.465	3020
820.605	3020
820.746	3009
820.886	2990
821.026	3116
821.167	3176
821.307	3283
821.447	3317
821.588	3230
821.728	3184
821.868	3203
822.008	3081
822.149	3165
822.289	3260
822.429	3135
822.569	3100
822.709	3214
822.849	3051
822.99	3112
823.13	3157
823.27	3214
823.41	3131
823.55	3176
823.69	3199
823.83	3214
823.97	3112
824.11	2994
824.25	3024
824.389	3085
824.529	3135
824.669	3085
824.809	3214
824.949	3313
825.089	3287
825.228	3192
825.368	3055
825.508	3001
825.648	3017
825.787	3062
825.927	3074
826.067	3020
826.206	3017
826.346	3081
826.485	3127
826.625	3146
826.765	3306
826.904	3203
827.044	3039
827.183	2960
827.323	2902
827.462	3009
827.601	2982
827.741	2979
827.88	3020
828.02	2933
828.159	3001
828.298	3062
828.437	3150
828.577	3081
828.716	3264
828.855	3119
828.994	2941
829.134	2941
829.273	2933
829.412	2895
829.551	2925
829.69	2914
829.829	3036
829.968	3214
830.107	3074
830.246	3070
830.385	2986
830.524	2910
830.663	2834
830.802	2735
830.941	2693
831.08	2651
831.219	2754
831.357	2811
831.496	2967
831.635	2754
831.774	2689
831.913	2674
832.051	2583
832.19	2587
832.329	2731
832.467	2610
832.606	2511
832.744	2625
832.883	2625
833.022	2629
833.16	2678
833.299	2678
833.437	2735
833.576	2724
833.714	2766
833.852	2777
833.991	2796
834.129	2861
834.267	2876
834.406	2804
834.544	2899
834.682	2899
834.821	2906
834.959	3104
835.097	2925
835.235	3108
835.373	2994
835.511	3066
835.65	2975
835.788	3001
835.926	2883
836.064	2811
836.202	2887
836.34	3123
836.478	3173
836.615	3047
836.753	3180
836.891	3237
837.029	3226
837.167	3123
837.305	3077
837.443	3062
837.58	2975
837.718	3146
837.856	3089
837.993	3066
838.131	3176
838.269	3123
838.406	3104
838.544	3150
838.681	2979
838.819	2918
838.956	2853
839.094	2857
839.231	2963
839.369	3058
839.506	3401
839.643	3249
839.781	3020
839.918	2990
840.055	3070
840.193	3097
840.33	3100
840.467	3138
840.604	3154
840.742	3397
840.879	3081
841.016	3093
841.153	3184
841.29	3336
841.427	3302
841.564	3264
841.701	3329
841.838	3275
841.975	3214
842.112	3245
842.249	3100
842.385	3085
842.522	3275
842.659	3119
842.796	3108
842.933	3104
843.069	3081
843.206	3081
843.343	3207
843.479	3135
843.616	3195
843.752	2986
843.889	2899
844.025	3108
844.162	2914
844.298	3112
844.435	3005
844.571	2910
844.708	3089
844.844	3253
844.98	3253
845.117	3241
845.253	3074
845.389	3017
845.525	3131
845.661	3150
845.798	3089
845.934	3154
846.07	3081
846.206	3203
846.342	3340
846.478	3272
846.614	3127
846.75	3051
846.886	3074
847.022	3272
847.158	3142
847.294	3161
847.429	3279
847.565	3237
847.701	3523
847.837	3058
847.972	3017
848.108	3203
848.244	3165
848.379	3020
848.515	2971
848.65	2975
848.786	3017
848.921	3001
849.057	3112
849.192	3176
849.328	3108
849.463	3188
849.598	3051
849.734	3058
849.869	2960
850.004	2952
850.14	2982
850.275	2918
850.41	2853
850.545	2887
850.68	2990
850.815	2967
850.95	3005
851.085	3211
851.22	3165
851.355	3089
851.49	2998
851.625	3028
851.76	3020
851.895	2944
852.03	2944
852.165	3047
852.299	3131
852.434	3195
852.569	3192
852.703	3188
852.838	3294
852.973	3370
853.107	3340
853.242	3199
853.376	3116
853.511	2998
853.645	3062
853.78	3287
853.914	3180
854.048	3142
854.183	3135
854.317	3176
854.451	3340
854.585	3157
854.72	3100
854.854	3199
854.988	3070
855.122	3089
855.256	2975
855.39	3127
855.524	3241
855.658	3222
855.792	3218
855.926	3203
856.06	3264
856.194	3264
856.327	3154
856.461	3112
856.595	3112
856.729	3093
856.862	3245
856.996	3180
857.13	3203
857.263	3237
857.397	3283
857.53	3169
857.664	3241
857.797	3249
857.931	3287
858.064	3161
858.197	3245
858.331	3123
858.464	3097
858.597	2986
858.731	3131
858.864	3154
858.997	3100
859.13	3184
859.263	3222
859.396	3233
859.529	3108
859.662	3089
859.795	3051
859.928	3192
860.061	3291
860.194	3321
860.327	3173
860.46	3070
860.592	3214
860.725	3230
860.858	3291
860.99	3112
861.123	3032
861.256	3097
861.388	3127
861.521	3850
861.653	3036
861.786	3043
861.918	3017
862.05	3116
862.183	3119
862.315	3192
862.447	3211
862.58	3097
862.712	2933
862.844	2899
862.976	3047
863.108	2982
863.24	3393
863.372	2914
863.504	2994
863.636	3001
863.768	3074
863.9	2998
864.032	2914
864.164	2941
864.296	2979
864.428	3108
864.559	3131
864.691	3043
864.823	3089
864.954	3077
865.086	3089
865.217	3055
865.349	2944
865.48	3013
865.612	3009
865.743	3207
865.875	2979
866.006	2967
866.137	2982
866.269	2952
866.4	2952
866.531	2925
866.662	2883
866.793	2937
866.924	2891
867.055	2994
867.186	2918
867.317	2925
867.448	2842
867.579	2891
867.71	2883
867.841	2819
867.972	2922
868.103	2914
868.233	2891
868.364	2902
868.495	2933
868.625	3055
868.756	3184
868.886	2982
869.017	3028
869.147	3188
869.278	3138
869.408	3055
869.539	3062
869.669	3081
869.799	3055
869.929	3146
870.06	3097
870.19	3321
870.32	3348
870.45	3321
870.58	3367
870.71	3469
870.84	3496
870.97	3279
871.1	3264
871.23	3496
871.36	3496
871.489	3348
871.619	3435
871.749	3409
871.879	3488
872.008	3496
872.138	3374
872.267	3302
872.397	3150
872.526	3165
872.656	3028
872.785	3104
872.915	3226
873.044	3317
873.173	3230
873.303	3264
873.432	3283
873.561	3268
873.69	3188
873.819	3176
873.948	3245
874.077	3154
874.206	3062
874.335	3089
874.464	3233
874.593	3344
874.722	3264
874.851	3374
874.979	3382
875.108	3332
875.237	3211
875.365	3176
875.494	3192
875.623	3256
875.751	3116
875.88	3184
876.008	3180
876.136	3226
876.265	3393
876.393	3500
876.521	3450
876.65	3397
876.778	3340
876.906	3287
877.034	3195
877.162	3245
877.29	3188
877.418	3211
877.546	3253
877.674	3264
877.802	3211
877.93	3275
878.058	3165
878.185	3097
878.313	3237
878.441	3207
878.568	3123
878.696	3154
878.824	3275
878.951	3310
879.079	3447
879.206	3648
879.333	3447
879.461	3329
879.588	3382
879.715	3523
879.842	3606
879.97	3397
880.097	3154
880.224	3176
880.351	3207
880.478	3237
880.605	3169
880.732	3233
880.859	3500
880.986	3260
881.112	3348
881.239	3203
881.366	3135
881.493	3032
881.619	3062
881.746	3097
881.872	3119
881.999	3127
882.125	3154
882.252	3226
882.378	3302
882.505	3443
882.631	3310
882.757	3169
882.883	3233
883.01	3253
883.136	3184
883.262	3077
883.388	3131
883.514	3332
883.64	3367
883.766	3306
883.892	3222
884.018	3279
884.143	3409
884.269	3511
884.395	3256
884.52	3169
884.646	3203
884.772	3142
884.897	3131
885.023	3237
885.148	3367
885.274	3439
885.399	3378
885.524	3279
885.65	3260
885.775	3313
885.9	3313
886.025	3412
886.15	3386
886.275	3363
886.4	3218
886.525	3279
886.65	3275
886.775	3291
886.9	3526
887.025	3652
887.149	3382
887.274	3249
887.399	3161
887.523	3195
887.648	3180
887.773	3188
887.897	3374
888.021	3424
888.146	3317
888.27	3458
888.395	3534
888.519	3504
888.643	3469
888.767	3420
888.891	3336
889.015	3226
889.139	3249
889.263	3226
889.387	3416
889.511	3488
889.635	3504
889.759	3310
889.883	3336
890.006	3462
890.13	3507
890.254	3310
890.377	3351
890.501	3218
890.624	3169
890.748	3279
890.871	3195
890.995	3112
891.118	3066
891.241	3226
891.364	3233
891.488	3298
891.611	3165
891.734	3203
891.857	3275
891.98	3233
892.103	3351
892.226	3287
892.349	3188
892.471	3116
892.594	3207
892.717	3291
892.839	3268
892.962	3310
893.085	3340
893.207	3272
893.33	3192
893.452	3233
893.575	3325
893.697	3256
893.819	3454
893.941	3507
894.064	3439
894.186	3283
894.308	3279
894.43	3447
894.552	3557
894.674	3458
894.796	3268
894.918	3332
895.04	3287
895.161	3435
895.283	3367
895.405	3325
895.526	3359
895.648	3412
895.769	3435
895.891	3454
896.012	3473
896.134	3466
896.255	3397
896.376	3378
896.498	3340
896.619	3458
896.74	3378
896.861	3420
896.982	3682
897.103	3816
897.224	3576
897.345	3523
897.466	3462
897.587	3515
897.708	3637
897.828	3553
897.949	3447
898.07	3351
898.19	3458
898.311	3644
898.431	3424
898.552	3507
898.672	3572
898.792	3584
898.913	3519
899.033	3431
899.153	3317
899.273	3233
899.393	3287
899.513	3332
899.633	3325
899.753	3336
899.873	3329
899.993	3405
900.113	3359
900.232	3420
900.352	3344
900.472	3279
900.591	3226
900.711	3302
900.83	3237
900.95	3393
901.069	3526
901.189	3359
901.308	3116
901.427	3176
901.546	3218
901.665	3283
901.784	3321
901.904	3173
902.023	3146
902.141	3036
902.26	3028
902.379	3184
902.498	3081
902.617	3047
902.735	3230
902.854	3287
902.973	3203
903.091	3017
903.21	3104
903.328	3146
903.446	3100
903.565	3131
903.683	3222
903.801	3138
903.919	3272
904.038	3313
904.156	3146
904.274	3294
904.392	3268
904.51	3268
904.627	3351
904.745	3466
904.863	3511
904.981	3291
905.098	3195
905.216	3214
905.334	3279
905.451	3317
905.569	3294
905.686	3389
905.803	3420
905.921	3253
906.038	3435
906.155	3355
906.272	3272
906.389	3355
906.506	3203
906.623	3260
906.74	3287
906.857	3180
906.974	3264
907.091	3454
907.208	3545
907.324	3466
907.441	3382
907.557	3211
907.674	3203
907.79	3211
907.907	3260
908.023	3416
908.139	3397
908.256	3325
908.372	3378
908.488	3340
908.604	3245
908.72	3214
908.836	3253
908.952	3264
909.068	3344
909.184	3523
909.3	3428
909.415	3492
909.531	3447
909.647	3272
909.762	3268
909.878	3279
909.993	3359
910.108	3329
910.224	3332
910.339	3416
910.454	3351
910.57	3260
910.685	3283
910.8	3568
910.915	3530
911.03	3435
911.145	3260
911.259	3279
911.374	3294
911.489	3245
911.604	3218
911.718	3123
911.833	3142
911.947	3028
912.062	2979
912.176	3188
912.291	3184
912.405	3195
912.519	3405
912.633	3462
912.748	3321
912.862	3298
912.976	3184
913.09	3058
913.204	3154
913.318	3237
913.431	3310
913.545	3294
913.659	3397
913.772	3310
913.886	3218
914	3195
914.113	3359
914.226	3416
914.34	3397
914.453	3241
914.566	3420
914.68	3294
914.793	3298
914.906	3157
915.019	3081
915.132	3066
915.245	3161
915.358	3222
915.47	3249
915.583	3264
915.696	3275
915.809	3409
915.921	3424
916.034	3268
916.146	3260
916.259	3245
916.371	3367
916.483	3378
916.595	3253
916.708	3298
916.82	3291
916.932	3336
917.044	3344
917.156	3325
917.268	3237
917.38	3275
917.491	3329
917.603	3363
917.715	3443
917.826	3454
917.938	3370
918.049	3291
918.161	3447
918.272	3614
918.384	3595
918.495	3500
918.606	3348
918.717	3279
918.828	3412
918.939	3405
919.05	3306
919.161	3355
919.272	3218
919.383	3306
919.494	3519
919.604	3709
919.715	3507
919.826	3424
919.936	3431
920.047	3538
920.157	3515
920.267	3766
920.378	3610
920.488	3587
920.598	3774
920.708	3979
920.818	3842
920.928	3838
921.038	3998
921.148	3964
921.258	3694
921.368	3595
921.477	3606
921.587	3523
921.697	3500
921.806	3629
921.916	3542
922.025	3325
922.134	3378
922.244	3302
922.353	3435
922.462	3275
922.571	3230
922.68	3100
922.789	3077
922.898	3097
923.007	3074
923.116	3188
923.224	3135
923.333	3188
923.442	3085
923.55	3100
923.659	3157
923.767	3230
923.876	3127
923.984	3233
924.092	3047
924.201	3180
924.309	3218
924.417	3233
924.525	3195
924.633	3233
924.741	4166
924.849	3055
924.956	3264
925.064	3093
925.172	3024
925.279	3097
925.387	3214
925.494	3226
925.602	3344
925.709	3287
925.816	3203
925.924	3264
926.031	3367
926.138	3336
926.245	3359
926.352	3245
926.459	3401
926.566	3466
926.673	3310
926.779	3226
926.886	3249
926.993	3150
927.099	3131
927.206	3119
927.312	3100
927.419	3211
927.525	3199
927.631	3256
927.737	3157
927.843	3108
927.95	3043
928.056	3127
928.162	3180
928.267	3195
928.373	3827
928.479	3287
928.585	3077
928.69	3165
928.796	3264
928.901	3161
929.007	3024
929.112	3188
929.218	3169
929.323	3131
929.428	3161
929.533	3374
929.638	3097
929.743	3161
929.848	3226
929.953	3260
930.058	3131
930.163	3036
930.267	3058
930.372	3161
930.477	3028
930.581	3336
930.685	3188
930.79	3047
930.894	3112
930.998	3081
931.103	3298
931.207	3001
931.311	2922
931.415	2963
931.519	2746
931.623	2819
