Data from test_V78500241_1401.txt Node
Date: Fri Mar 25 16:24:54 CST 2022
User: usil
Spectrometer: V785-0024
Trigger mode: 0
Integration Time (sec): 4.000000E-1
Scans to average: 1
Nonlinearity correction enabled: false
Boxcar width: 0
Storing dark spectrum: false
XAxis mode: Wavelengths
Number of Pixels in Spectrum: 1024
>>>>>Begin Spectral Data<<<<<
801.071	2914
801.214	2952
801.356	2880
801.499	2902
801.641	2861
801.783	2902
801.926	3039
802.068	2952
802.211	2979
802.353	3051
802.496	2933
802.638	3013
802.78	2994
802.923	3085
803.065	2975
803.208	2887
803.35	2906
803.492	2941
803.635	2895
803.777	2739
803.919	2872
804.061	3199
804.204	2918
804.346	2880
804.488	2830
804.63	2971
804.773	2861
804.915	2899
805.057	3093
805.199	2925
805.341	2952
805.483	3036
805.626	3039
805.768	2952
805.91	3093
806.052	3119
806.194	3043
806.336	3211
806.478	3009
806.62	2933
806.762	2971
806.904	3097
807.046	3165
807.188	2986
807.33	2925
807.472	2979
807.614	2902
807.756	2982
807.898	2941
808.04	2902
808.182	2971
808.324	2952
808.465	2880
808.607	2842
808.749	2796
808.891	2838
809.033	2952
809.174	2960
809.316	2864
809.458	2891
809.6	2777
809.741	2785
809.883	2754
810.025	2811
810.166	2864
810.308	2864
810.45	2811
810.591	2800
810.733	2727
810.875	2781
811.016	2777
811.158	2758
811.299	2807
811.441	2933
811.582	2899
811.724	2826
811.865	2826
812.007	2918
812.148	2899
812.29	2826
812.431	2910
812.573	2948
812.714	2963
812.855	3055
812.997	2998
813.138	3142
813.279	2998
813.421	2952
813.562	2918
813.703	2861
813.845	2906
813.986	2746
814.127	2739
814.268	2819
814.41	2842
814.551	2815
814.692	2823
814.833	2804
814.974	2853
815.115	2941
815.256	2823
815.397	2842
815.539	2838
815.68	2769
815.821	2773
815.962	2948
816.103	2918
816.244	2861
816.385	2880
816.526	2986
816.666	2914
816.807	2762
816.948	2906
817.089	2895
817.23	2861
817.371	2766
817.512	2800
817.653	2823
817.793	2804
817.934	2899
818.075	2990
818.216	2975
818.356	3013
818.497	2864
818.638	2811
818.778	2823
818.919	2804
819.06	2754
819.2	2883
819.341	2819
819.481	2815
819.622	2902
819.762	3097
819.903	3070
820.043	2906
820.184	2922
820.324	2876
820.465	2967
820.605	3020
820.746	3005
820.886	2933
821.026	3135
821.167	3165
821.307	3253
821.447	3272
821.588	3275
821.728	3199
821.868	3161
822.008	3100
822.149	3180
822.289	3260
822.429	3104
822.569	3093
822.709	3161
822.849	3005
822.99	3062
823.13	3154
823.27	3192
823.41	3089
823.55	3116
823.69	3165
823.83	3176
823.97	3100
824.11	2982
824.25	2990
824.389	3024
824.529	3116
824.669	3074
824.809	3169
824.949	3272
825.089	3214
825.228	3116
825.368	2994
825.508	2994
825.648	2990
825.787	2982
825.927	3028
826.067	2910
826.206	2956
826.346	3066
826.485	3085
826.625	3131
826.765	3272
826.904	3218
827.044	3013
827.183	2960
827.323	2842
827.462	2994
827.601	2910
827.741	2937
827.88	2944
828.02	2826
828.159	2971
828.298	3020
828.437	3138
828.577	3047
828.716	3249
828.855	3085
828.994	2899
829.134	2868
829.273	2925
829.412	2868
829.551	2834
829.69	2906
829.829	2971
829.968	3127
830.107	3005
830.246	3043
830.385	2918
830.524	2899
830.663	2830
830.802	2705
830.941	2606
831.08	2659
831.219	2754
831.357	2766
831.496	2941
831.635	2724
831.774	2636
831.913	2644
832.051	2564
832.19	2571
832.329	2648
832.467	2537
832.606	2484
832.744	2541
832.883	2583
833.022	2590
833.16	2625
833.299	2689
833.437	2697
833.576	2705
833.714	2762
833.852	2735
833.991	2754
834.129	2792
834.267	2849
834.406	2754
834.544	2891
834.682	2868
834.821	2864
834.959	3055
835.097	2864
835.235	3058
835.373	2990
835.511	2975
835.65	2963
835.788	2967
835.926	2823
836.064	2781
836.202	2819
836.34	3085
836.478	3123
836.615	3028
836.753	3104
836.891	3241
837.029	3157
837.167	3116
837.305	3032
837.443	3017
837.58	2971
837.718	3135
837.856	3047
837.993	3020
838.131	3093
838.269	3097
838.406	3123
838.544	3089
838.681	2933
838.819	2918
838.956	2849
839.094	2807
839.231	2914
839.369	3032
839.506	3355
839.643	3184
839.781	3013
839.918	2967
840.055	3028
840.193	3066
840.33	3070
840.467	3055
840.604	3142
840.742	3405
840.879	3062
841.016	3020
841.153	3131
841.29	3325
841.427	3287
841.564	3279
841.701	3283
841.838	3203
841.975	3131
842.112	3233
842.249	3051
842.385	3051
842.522	3294
842.659	3108
842.796	3070
842.933	3119
843.069	3020
843.206	2986
843.343	3218
843.479	3104
843.616	3131
843.752	2887
843.889	2880
844.025	3051
844.162	2842
844.298	3066
844.435	2914
844.571	2895
844.708	3062
844.844	3154
844.98	3237
845.117	3176
845.253	3001
845.389	2975
845.525	3108
845.661	3089
845.798	3051
845.934	3097
846.07	3070
846.206	3226
846.342	3283
846.478	3230
846.614	3066
846.75	3043
846.886	3036
847.022	3211
847.158	3123
847.294	3203
847.429	3214
847.565	3218
847.701	3492
847.837	3047
847.972	2994
848.108	3154
848.244	3131
848.379	2982
848.515	2948
848.65	2914
848.786	2960
848.921	3013
849.057	3112
849.192	3127
849.328	3039
849.463	3100
849.598	3051
849.734	3028
849.869	2986
850.004	2922
850.14	2933
850.275	2948
850.41	2800
850.545	2883
850.68	2956
850.815	2922
850.95	2967
851.085	3173
851.22	3108
851.355	3017
851.49	2986
851.625	2979
851.76	3028
851.895	2956
852.03	2910
852.165	3020
852.299	3085
852.434	3222
852.569	3127
852.703	3142
852.838	3283
852.973	3317
853.107	3302
853.242	3165
853.376	3085
853.511	3013
853.645	3024
853.78	3207
853.914	3116
854.048	3058
854.183	3127
854.317	3123
854.451	3253
854.585	3112
854.72	3131
854.854	3188
854.988	3013
855.122	3089
855.256	3024
855.39	3112
855.524	3180
855.658	3169
855.792	3161
855.926	3199
856.06	3222
856.194	3230
856.327	3119
856.461	3074
856.595	3058
856.729	3108
856.862	3199
856.996	3135
857.13	3184
857.263	3245
857.397	3260
857.53	3138
857.664	3180
857.797	3226
857.931	3245
858.064	3157
858.197	3207
858.331	3146
858.464	3097
858.597	2982
858.731	3142
858.864	3108
858.997	3081
859.13	3165
859.263	3135
859.396	3218
859.529	3100
859.662	3062
859.795	3017
859.928	3116
860.061	3245
860.194	3302
860.327	3112
860.46	3089
860.592	3241
860.725	3222
860.858	3214
860.99	3077
861.123	3058
861.256	3081
861.388	3119
861.521	3755
861.653	2998
861.786	2944
861.918	2979
862.05	3058
862.183	3081
862.315	3135
862.447	3192
862.58	3081
862.712	2956
862.844	2868
862.976	3013
863.108	2963
863.24	3306
863.372	2861
863.504	2963
863.636	2937
863.768	3032
863.9	2963
864.032	2914
864.164	2918
864.296	2986
864.428	3058
864.559	3142
864.691	3100
864.823	3066
864.954	3024
865.086	2994
865.217	2967
865.349	2880
865.48	3017
865.612	2963
865.743	3165
865.875	2994
866.006	2929
866.137	2956
866.269	2918
866.4	2944
866.531	2929
866.662	2887
866.793	2887
866.924	2918
867.055	2975
867.186	2941
867.317	2861
867.448	2857
867.579	2864
867.71	2845
867.841	2800
867.972	2914
868.103	2902
868.233	2902
868.364	2876
868.495	2872
868.625	3097
868.756	3195
868.886	2941
869.017	3013
869.147	3173
869.278	3161
869.408	3013
869.539	3013
869.669	3085
869.799	2986
869.929	3150
870.06	3085
870.19	3329
870.32	3245
870.45	3268
870.58	3340
870.71	3439
870.84	3416
870.97	3298
871.1	3180
871.23	3462
871.36	3473
871.489	3359
871.619	3405
871.749	3454
871.879	3405
872.008	3492
872.138	3325
872.267	3268
872.397	3123
872.526	3108
872.656	3017
872.785	3116
872.915	3233
873.044	3351
873.173	3207
873.303	3230
873.432	3241
873.561	3207
873.69	3157
873.819	3123
873.948	3180
874.077	3131
874.206	3036
874.335	3074
874.464	3218
874.593	3340
874.722	3218
874.851	3393
874.979	3332
875.108	3302
875.237	3176
875.365	3165
875.494	3146
875.623	3253
875.751	3116
875.88	3074
876.008	3173
876.136	3207
876.265	3359
876.393	3488
876.521	3439
876.65	3348
876.778	3340
876.906	3195
877.034	3195
877.162	3241
877.29	3192
877.418	3230
877.546	3245
877.674	3253
877.802	3218
877.93	3222
878.058	3150
878.185	3142
878.313	3207
878.441	3184
878.568	3097
878.696	3195
878.824	3230
878.951	3272
879.079	3469
879.206	3568
879.333	3435
879.461	3287
879.588	3313
879.715	3469
879.842	3606
879.97	3420
880.097	3154
880.224	3112
880.351	3180
880.478	3230
880.605	3222
880.732	3195
880.859	3469
880.986	3256
881.112	3317
881.239	3233
881.366	3081
881.493	3020
881.619	3013
881.746	3089
881.872	3047
881.999	3108
882.125	3165
882.252	3222
882.378	3283
882.505	3397
882.631	3294
882.757	3173
882.883	3222
883.01	3245
883.136	3123
883.262	3108
883.388	3104
883.514	3313
883.64	3348
883.766	3253
883.892	3173
884.018	3226
884.143	3409
884.269	3549
884.395	3169
884.52	3157
884.646	3214
884.772	3104
884.897	3104
885.023	3180
885.148	3291
885.274	3424
885.399	3302
885.524	3222
885.65	3245
885.775	3321
885.9	3272
886.025	3466
886.15	3348
886.275	3317
886.4	3199
886.525	3287
886.65	3272
886.775	3256
886.9	3507
887.025	3591
887.149	3435
887.274	3256
887.399	3184
887.523	3207
887.648	3180
887.773	3222
887.897	3367
888.021	3382
888.146	3291
888.27	3412
888.395	3515
888.519	3435
888.643	3424
888.767	3500
888.891	3313
889.015	3264
889.139	3241
889.263	3253
889.387	3431
889.511	3466
889.635	3409
889.759	3253
889.883	3275
890.006	3359
890.13	3492
890.254	3245
890.377	3306
890.501	3195
890.624	3173
890.748	3317
890.871	3165
890.995	3085
891.118	3047
891.241	3218
891.364	3203
891.488	3329
891.611	3154
891.734	3195
891.857	3237
891.98	3279
892.103	3325
892.226	3256
892.349	3203
892.471	3165
892.594	3245
892.717	3260
892.839	3268
892.962	3253
893.085	3325
893.207	3294
893.33	3131
893.452	3195
893.575	3363
893.697	3226
893.819	3488
893.941	3492
894.064	3447
894.186	3268
894.308	3302
894.43	3424
894.552	3530
894.674	3428
894.796	3249
894.918	3298
895.04	3268
895.161	3458
895.283	3382
895.405	3294
895.526	3306
895.648	3412
895.769	3424
895.891	3458
896.012	3454
896.134	3500
896.255	3412
896.376	3393
896.498	3370
896.619	3454
896.74	3412
896.861	3424
896.982	3671
897.103	3789
897.224	3561
897.345	3526
897.466	3428
897.587	3481
897.708	3660
897.828	3523
897.949	3416
898.07	3302
898.19	3389
898.311	3580
898.431	3424
898.552	3519
898.672	3576
898.792	3549
898.913	3526
899.033	3412
899.153	3256
899.273	3218
899.393	3260
899.513	3233
899.633	3298
899.753	3321
899.873	3325
899.993	3401
900.113	3340
900.232	3340
900.352	3275
900.472	3298
900.591	3165
900.711	3294
900.83	3203
900.95	3420
901.069	3450
901.189	3389
901.308	3154
901.427	3116
901.546	3154
901.665	3241
901.784	3317
901.904	3176
902.023	3135
902.141	3017
902.26	2963
902.379	3180
902.498	3047
902.617	3070
902.735	3184
902.854	3241
902.973	3214
903.091	3028
903.21	3085
903.328	3116
903.446	3085
903.565	3108
903.683	3180
903.801	3123
903.919	3237
904.038	3306
904.156	3142
904.274	3291
904.392	3237
904.51	3302
904.627	3294
904.745	3435
904.863	3492
904.981	3233
905.098	3112
905.216	3237
905.334	3291
905.451	3321
905.569	3275
905.686	3409
905.803	3431
905.921	3279
906.038	3409
906.155	3325
906.272	3291
906.389	3313
906.506	3218
906.623	3241
906.74	3260
906.857	3203
906.974	3268
907.091	3473
907.208	3568
907.324	3428
907.441	3363
907.557	3230
907.674	3222
907.79	3188
907.907	3272
908.023	3378
908.139	3378
908.256	3329
908.372	3382
908.488	3351
908.604	3253
908.72	3256
908.836	3275
908.952	3294
909.068	3329
909.184	3469
909.3	3378
909.415	3488
909.531	3443
909.647	3272
909.762	3279
909.878	3222
909.993	3363
910.108	3359
910.224	3344
910.339	3393
910.454	3329
910.57	3272
910.685	3237
910.8	3553
910.915	3507
911.03	3435
911.145	3249
911.259	3233
911.374	3275
911.489	3233
911.604	3214
911.718	3100
911.833	3108
911.947	3017
912.062	2956
912.176	3146
912.291	3154
912.405	3207
912.519	3420
912.633	3420
912.748	3275
912.862	3241
912.976	3138
913.09	3024
913.204	3112
913.318	3203
913.431	3321
913.545	3313
913.659	3401
913.772	3336
913.886	3207
914	3184
914.113	3313
914.226	3409
914.34	3344
914.453	3226
914.566	3416
914.68	3279
914.793	3310
914.906	3131
915.019	3089
915.132	3039
915.245	3161
915.358	3176
915.47	3192
915.583	3237
915.696	3298
915.809	3397
915.921	3420
916.034	3237
916.146	3275
916.259	3218
916.371	3340
916.483	3374
916.595	3264
916.708	3321
916.82	3367
916.932	3340
917.044	3348
917.156	3378
917.268	3264
917.38	3351
917.491	3283
917.603	3393
917.715	3450
917.826	3488
917.938	3435
918.049	3302
918.161	3492
918.272	3587
918.384	3603
918.495	3504
918.606	3363
918.717	3298
918.828	3397
918.939	3462
919.05	3294
919.161	3389
919.272	3268
919.383	3329
919.494	3553
919.604	3743
919.715	3523
919.826	3409
919.936	3504
920.047	3610
920.157	3553
920.267	3804
920.378	3603
920.488	3568
920.598	3759
920.708	3968
920.818	3896
920.928	3838
921.038	4032
921.148	4006
921.258	3759
921.368	3679
921.477	3652
921.587	3599
921.697	3496
921.806	3652
921.916	3580
922.025	3393
922.134	3405
922.244	3370
922.353	3454
922.462	3329
922.571	3256
922.68	3157
922.789	3119
922.898	3199
923.007	3104
923.116	3249
923.224	3214
923.333	3214
923.442	3161
923.55	3123
923.659	3169
923.767	3256
923.876	3184
923.984	3245
924.092	3165
924.201	3222
924.309	3237
924.417	3310
924.525	3188
924.633	3256
924.741	4032
924.849	3089
924.956	3294
925.064	3093
925.172	3081
925.279	3146
925.387	3222
925.494	3214
925.602	3374
925.709	3367
925.816	3214
925.924	3294
926.031	3374
926.138	3336
926.245	3389
926.352	3291
926.459	3435
926.566	3519
926.673	3359
926.779	3245
926.886	3298
926.993	3176
927.099	3176
927.206	3161
927.312	3161
927.419	3302
927.525	3264
927.631	3298
927.737	3138
927.843	3173
927.95	3089
928.056	3180
928.162	3249
928.267	3264
928.373	3899
928.479	3329
928.585	3074
928.69	3256
928.796	3291
928.901	3207
929.007	3051
929.112	3241
929.218	3253
929.323	3157
929.428	3157
929.533	3329
929.638	3161
929.743	3214
929.848	3310
929.953	3237
930.058	3184
930.163	3028
930.267	3047
930.372	3173
930.477	3100
930.581	3359
930.685	3245
930.79	3074
930.894	3135
930.998	3138
931.103	3275
931.207	3024
931.311	2967
931.415	2941
931.519	2807
931.623	2838
