Data from test_V78500241_393.txt Node
Date: Fri Mar 25 16:17:55 CST 2022
User: usil
Spectrometer: V785-0024
Trigger mode: 0
Integration Time (sec): 4.000000E-1
Scans to average: 1
Nonlinearity correction enabled: false
Boxcar width: 0
Storing dark spectrum: false
XAxis mode: Wavelengths
Number of Pixels in Spectrum: 1024
>>>>>Begin Spectral Data<<<<<
801.071	2941
801.214	2956
801.356	2880
801.499	2883
801.641	2883
801.783	2918
801.926	3058
802.068	2967
802.211	2994
802.353	3066
802.496	2982
802.638	3017
802.78	3055
802.923	3093
803.065	3058
803.208	2910
803.35	2960
803.492	2963
803.635	2941
803.777	2777
803.919	2891
804.061	3188
804.204	2941
804.346	2914
804.488	2857
804.63	2956
804.773	2876
804.915	2922
805.057	3100
805.199	2910
805.341	2967
805.483	3032
805.626	3001
805.768	2929
805.91	3077
806.052	3097
806.194	3074
806.336	3226
806.478	3009
806.62	2925
806.762	2948
806.904	3077
807.046	3176
807.188	2994
807.33	2910
807.472	2975
807.614	2891
807.756	2971
807.898	2914
808.04	2914
808.182	2990
808.324	2948
808.465	2872
808.607	2891
808.749	2796
808.891	2853
809.033	2967
809.174	2967
809.316	2861
809.458	2868
809.6	2746
809.741	2796
809.883	2788
810.025	2823
810.166	2861
810.308	2823
810.45	2876
810.591	2792
810.733	2743
810.875	2830
811.016	2788
811.158	2792
811.299	2811
811.441	2883
811.582	2906
811.724	2792
811.865	2864
812.007	2902
812.148	2842
812.29	2845
812.431	2902
812.573	2944
812.714	2948
812.855	3032
812.997	3043
813.138	3097
813.279	3001
813.421	2944
813.562	2963
813.703	2864
813.845	2883
813.986	2762
814.127	2720
814.268	2804
814.41	2857
814.551	2830
814.692	2864
814.833	2800
814.974	2876
815.115	2925
815.256	2849
815.397	2796
815.539	2864
815.68	2758
815.821	2796
815.962	2914
816.103	2922
816.244	2895
816.385	2864
816.526	2971
816.666	2910
816.807	2758
816.948	2902
817.089	2918
817.23	2842
817.371	2766
817.512	2777
817.653	2834
817.793	2804
817.934	2861
818.075	3009
818.216	2982
818.356	3009
818.497	2872
818.638	2807
818.778	2842
818.919	2785
819.06	2731
819.2	2880
819.341	2830
819.481	2773
819.622	2918
819.762	3093
819.903	3058
820.043	2914
820.184	2899
820.324	2891
820.465	3020
820.605	3001
820.746	3017
820.886	2895
821.026	3036
821.167	3176
821.307	3294
821.447	3279
821.588	3226
821.728	3203
821.868	3184
822.008	3089
822.149	3188
822.289	3207
822.429	3093
822.569	3043
822.709	3176
822.849	3001
822.99	3066
823.13	3169
823.27	3203
823.41	3081
823.55	3161
823.69	3165
823.83	3176
823.97	3108
824.11	3032
824.25	3005
824.389	3058
824.529	3119
824.669	3089
824.809	3176
824.949	3279
825.089	3253
825.228	3157
825.368	3032
825.508	2967
825.648	2994
825.787	3062
825.927	3051
826.067	2975
826.206	2937
826.346	3066
826.485	3081
826.625	3123
826.765	3336
826.904	3214
827.044	3058
827.183	2967
827.323	2891
827.462	3020
827.601	2971
827.741	2963
827.88	3009
828.02	2880
828.159	2994
828.298	3043
828.437	3123
828.577	3085
828.716	3264
828.855	3104
828.994	2971
829.134	2948
829.273	2899
829.412	2876
829.551	2864
829.69	2910
829.829	3036
829.968	3142
830.107	3028
830.246	3047
830.385	2982
830.524	2914
830.663	2853
830.802	2750
830.941	2712
831.08	2701
831.219	2750
831.357	2811
831.496	3005
831.635	2796
831.774	2712
831.913	2686
832.051	2625
832.19	2648
832.329	2716
832.467	2560
832.606	2526
832.744	2621
832.883	2629
833.022	2617
833.16	2659
833.299	2754
833.437	2724
833.576	2769
833.714	2731
833.852	2766
833.991	2811
834.129	2883
834.267	2853
834.406	2872
834.544	2872
834.682	2887
834.821	2902
834.959	3093
835.097	2937
835.235	3093
835.373	3005
835.511	3066
835.65	3017
835.788	3001
835.926	2845
836.064	2857
836.202	2876
836.34	3100
836.478	3184
836.615	3051
836.753	3176
836.891	3237
837.029	3222
837.167	3135
837.305	3089
837.443	3081
837.58	2975
837.718	3161
837.856	3116
837.993	3074
838.131	3146
838.269	3154
838.406	3123
838.544	3112
838.681	2963
838.819	2929
838.956	2842
839.094	2883
839.231	2960
839.369	3039
839.506	3355
839.643	3253
839.781	3017
839.918	3005
840.055	3039
840.193	3104
840.33	3100
840.467	3146
840.604	3184
840.742	3428
840.879	3100
841.016	3074
841.153	3180
841.29	3374
841.427	3317
841.564	3298
841.701	3302
841.838	3218
841.975	3203
842.112	3233
842.249	3108
842.385	3085
842.522	3298
842.659	3116
842.796	3070
842.933	3150
843.069	3066
843.206	3055
843.343	3256
843.479	3138
843.616	3146
843.752	2929
843.889	2864
844.025	3066
844.162	2895
844.298	3108
844.435	3017
844.571	2994
844.708	3081
844.844	3157
844.98	3241
845.117	3207
845.253	3116
845.389	3062
845.525	3097
845.661	3127
845.798	3066
845.934	3138
846.07	3089
846.206	3264
846.342	3340
846.478	3272
846.614	3093
846.75	3112
846.886	3085
847.022	3245
847.158	3165
847.294	3233
847.429	3256
847.565	3245
847.701	3507
847.837	3039
847.972	3066
848.108	3161
848.244	3199
848.379	2994
848.515	3005
848.65	2982
848.786	2960
848.921	3005
849.057	3108
849.192	3165
849.328	3104
849.463	3161
849.598	3131
849.734	3062
849.869	2986
850.004	2956
850.14	3017
850.275	2944
850.41	2823
850.545	2883
850.68	2960
850.815	2975
850.95	3001
851.085	3214
851.22	3150
851.355	3058
851.49	3005
851.625	3032
851.76	3047
851.895	2986
852.03	2944
852.165	3039
852.299	3146
852.434	3173
852.569	3157
852.703	3199
852.838	3275
852.973	3374
853.107	3321
853.242	3199
853.376	3116
853.511	3017
853.645	3077
853.78	3256
853.914	3165
854.048	3085
854.183	3116
854.317	3176
854.451	3348
854.585	3161
854.72	3142
854.854	3237
854.988	3085
855.122	3123
855.256	2994
855.39	3131
855.524	3275
855.658	3207
855.792	3169
855.926	3195
856.06	3256
856.194	3291
856.327	3218
856.461	3104
856.595	3104
856.729	3138
856.862	3272
856.996	3176
857.13	3222
857.263	3241
857.397	3302
857.53	3146
857.664	3214
857.797	3245
857.931	3268
858.064	3165
858.197	3222
858.331	3154
858.464	3112
858.597	3051
858.731	3135
858.864	3165
858.997	3097
859.13	3176
859.263	3176
859.396	3230
859.529	3108
859.662	3104
859.795	3089
859.928	3150
860.061	3279
860.194	3340
860.327	3169
860.46	3112
860.592	3298
860.725	3264
860.858	3264
860.99	3135
861.123	3077
861.256	3077
861.388	3192
861.521	3857
861.653	3039
861.786	3005
861.918	3017
862.05	3097
862.183	3127
862.315	3165
862.447	3207
862.58	3131
862.712	2937
862.844	2925
862.976	3074
863.108	2986
863.24	3416
863.372	2853
863.504	2975
863.636	2998
863.768	3032
863.9	2998
864.032	2914
864.164	2990
864.296	3032
864.428	3089
864.559	3123
864.691	3097
864.823	3081
864.954	3024
865.086	3093
865.217	3013
865.349	2948
865.48	3005
865.612	3047
865.743	3165
865.875	3028
866.006	2918
866.137	2990
866.269	2982
866.4	2975
866.531	2944
866.662	2933
866.793	2925
866.924	2922
867.055	2998
867.186	2937
867.317	2845
867.448	2876
867.579	2845
867.71	2883
867.841	2807
867.972	2914
868.103	2922
868.233	2902
868.364	2891
868.495	2887
868.625	3127
868.756	3165
868.886	3028
869.017	3043
869.147	3176
869.278	3203
869.408	3051
869.539	3024
869.669	3077
869.799	3032
869.929	3176
870.06	3112
870.19	3329
870.32	3340
870.45	3283
870.58	3416
870.71	3458
870.84	3507
870.97	3313
871.1	3287
871.23	3485
871.36	3466
871.489	3363
871.619	3424
871.749	3447
871.879	3439
872.008	3507
872.138	3367
872.267	3294
872.397	3169
872.526	3112
872.656	3039
872.785	3157
872.915	3249
873.044	3386
873.173	3218
873.303	3253
873.432	3264
873.561	3268
873.69	3173
873.819	3154
873.948	3218
874.077	3116
874.206	3100
874.335	3104
874.464	3218
874.593	3325
874.722	3264
874.851	3405
874.979	3378
875.108	3344
875.237	3214
875.365	3180
875.494	3173
875.623	3260
875.751	3074
875.88	3089
876.008	3207
876.136	3260
876.265	3416
876.393	3545
876.521	3386
876.65	3439
876.778	3325
876.906	3268
877.034	3233
877.162	3256
877.29	3199
877.418	3321
877.546	3237
877.674	3264
877.802	3245
877.93	3211
878.058	3161
878.185	3116
878.313	3241
878.441	3245
878.568	3093
878.696	3192
878.824	3275
878.951	3283
879.079	3492
879.206	3667
879.333	3435
879.461	3344
879.588	3416
879.715	3511
879.842	3599
879.97	3409
880.097	3169
880.224	3169
880.351	3222
880.478	3230
880.605	3211
880.732	3230
880.859	3511
880.986	3294
881.112	3351
881.239	3207
881.366	3081
881.493	3089
881.619	3047
881.746	3108
881.872	3112
881.999	3116
882.125	3184
882.252	3268
882.378	3340
882.505	3401
882.631	3272
882.757	3195
882.883	3249
883.01	3222
883.136	3146
883.262	3188
883.388	3138
883.514	3287
883.64	3370
883.766	3325
883.892	3188
884.018	3272
884.143	3416
884.269	3591
884.395	3188
884.52	3180
884.646	3207
884.772	3116
884.897	3100
885.023	3203
885.148	3355
885.274	3443
885.399	3416
885.524	3294
885.65	3313
885.775	3317
885.9	3336
886.025	3386
886.15	3378
886.275	3325
886.4	3253
886.525	3340
886.65	3287
886.775	3275
886.9	3500
887.025	3622
887.149	3450
887.274	3275
887.399	3173
887.523	3192
887.648	3207
887.773	3199
887.897	3416
888.021	3443
888.146	3279
888.27	3458
888.395	3564
888.519	3466
888.643	3439
888.767	3454
888.891	3344
889.015	3245
889.139	3348
889.263	3275
889.387	3405
889.511	3511
889.635	3447
889.759	3336
889.883	3306
890.006	3416
890.13	3454
890.254	3253
890.377	3317
890.501	3241
890.624	3237
890.748	3249
890.871	3176
890.995	3085
891.118	3047
891.241	3180
891.364	3214
891.488	3340
891.611	3203
891.734	3230
891.857	3310
891.98	3256
892.103	3302
892.226	3294
892.349	3264
892.471	3146
892.594	3237
892.717	3275
892.839	3298
892.962	3310
893.085	3359
893.207	3283
893.33	3150
893.452	3192
893.575	3355
893.697	3245
893.819	3488
893.941	3515
894.064	3450
894.186	3260
894.308	3294
894.43	3439
894.552	3545
894.674	3447
894.796	3306
894.918	3317
895.04	3275
895.161	3439
895.283	3420
895.405	3348
895.526	3370
895.648	3447
895.769	3439
895.891	3439
896.012	3488
896.134	3477
896.255	3412
896.376	3443
896.498	3393
896.619	3420
896.74	3397
896.861	3439
896.982	3663
897.103	3816
897.224	3584
897.345	3557
897.466	3439
897.587	3515
897.708	3656
897.828	3568
897.949	3473
898.07	3310
898.19	3435
898.311	3576
898.431	3450
898.552	3538
898.672	3599
898.792	3561
898.913	3511
899.033	3435
899.153	3310
899.273	3195
899.393	3268
899.513	3313
899.633	3325
899.753	3329
899.873	3336
899.993	3386
900.113	3336
900.232	3401
900.352	3351
900.472	3317
900.591	3203
900.711	3340
900.83	3310
900.95	3431
901.069	3458
901.189	3355
901.308	3199
901.427	3104
901.546	3180
901.665	3313
901.784	3355
901.904	3237
902.023	3169
902.141	3047
902.26	3009
902.379	3150
902.498	3116
902.617	3058
902.735	3237
902.854	3264
902.973	3131
903.091	3017
903.21	3074
903.328	3135
903.446	3138
903.565	3085
903.683	3233
903.801	3146
903.919	3283
904.038	3272
904.156	3150
904.274	3279
904.392	3294
904.51	3332
904.627	3344
904.745	3439
904.863	3473
904.981	3249
905.098	3135
905.216	3226
905.334	3321
905.451	3291
905.569	3332
905.686	3443
905.803	3450
905.921	3294
906.038	3447
906.155	3374
906.272	3313
906.389	3363
906.506	3279
906.623	3211
906.74	3287
906.857	3199
906.974	3241
907.091	3435
907.208	3561
907.324	3485
907.441	3409
907.557	3211
907.674	3222
907.79	3230
907.907	3279
908.023	3393
908.139	3420
908.256	3348
908.372	3378
908.488	3340
908.604	3241
908.72	3241
908.836	3283
908.952	3279
909.068	3355
909.184	3477
909.3	3420
909.415	3477
909.531	3485
909.647	3329
909.762	3306
909.878	3253
909.993	3378
910.108	3344
910.224	3302
910.339	3370
910.454	3363
910.57	3302
910.685	3268
910.8	3549
910.915	3553
911.03	3443
911.145	3260
911.259	3233
911.374	3313
911.489	3260
911.604	3207
911.718	3100
911.833	3165
911.947	3062
912.062	3005
912.176	3207
912.291	3226
912.405	3207
912.519	3435
912.633	3469
912.748	3329
912.862	3279
912.976	3165
913.09	3062
913.204	3142
913.318	3253
913.431	3317
913.545	3344
913.659	3450
913.772	3348
913.886	3214
914	3192
914.113	3363
914.226	3370
914.34	3370
914.453	3218
914.566	3397
914.68	3272
914.793	3321
914.906	3116
915.019	3112
915.132	3077
915.245	3192
915.358	3203
915.47	3218
915.583	3249
915.696	3283
915.809	3401
915.921	3485
916.034	3253
916.146	3253
916.259	3195
916.371	3412
916.483	3367
916.595	3264
916.708	3302
916.82	3325
916.932	3355
917.044	3348
917.156	3329
917.268	3279
917.38	3332
917.491	3313
917.603	3386
917.715	3447
917.826	3447
917.938	3359
918.049	3264
918.161	3405
918.272	3580
918.384	3568
918.495	3515
918.606	3351
918.717	3260
918.828	3409
918.939	3405
919.05	3294
919.161	3397
919.272	3192
919.383	3298
919.494	3481
919.604	3720
919.715	3435
919.826	3405
919.936	3473
920.047	3591
920.157	3507
920.267	3751
920.378	3595
920.488	3568
920.598	3736
920.708	3949
920.818	3793
920.928	3827
921.038	4059
921.148	3994
921.258	3717
921.368	3652
921.477	3599
921.587	3549
921.697	3439
921.806	3614
921.916	3507
922.025	3359
922.134	3344
922.244	3294
922.353	3443
922.462	3287
922.571	3211
922.68	3074
922.789	3093
922.898	3161
923.007	3108
923.116	3226
923.224	3230
923.333	3195
923.442	3089
923.55	3097
923.659	3146
923.767	3192
923.876	3123
923.984	3260
924.092	3077
924.201	3199
924.309	3214
924.417	3237
924.525	3222
924.633	3245
924.741	4181
924.849	3036
924.956	3268
925.064	3119
925.172	2998
925.279	3142
925.387	3195
925.494	3192
925.602	3355
925.709	3344
925.816	3195
925.924	3291
926.031	3386
926.138	3348
926.245	3359
926.352	3275
926.459	3443
926.566	3443
926.673	3332
926.779	3264
926.886	3279
926.993	3142
927.099	3127
927.206	3108
927.312	3116
927.419	3211
927.525	3188
927.631	3268
927.737	3138
927.843	3150
927.95	3028
928.056	3146
928.162	3165
928.267	3268
928.373	3903
928.479	3253
928.585	3039
928.69	3230
928.796	3264
928.901	3195
929.007	3081
929.112	3188
929.218	3184
929.323	3146
929.428	3176
929.533	3340
929.638	3100
929.743	3146
929.848	3287
929.953	3199
930.058	3150
930.163	3005
930.267	3058
930.372	3192
930.477	3028
930.581	3310
930.685	3192
930.79	3047
930.894	3081
930.998	3062
931.103	3268
931.207	2990
931.311	2937
931.415	2960
931.519	2807
931.623	2796
