Data from test_V78500241_1775.txt Node
Date: Fri Mar 25 16:27:29 CST 2022
User: usil
Spectrometer: V785-0024
Trigger mode: 0
Integration Time (sec): 4.000000E-1
Scans to average: 1
Nonlinearity correction enabled: false
Boxcar width: 0
Storing dark spectrum: false
XAxis mode: Wavelengths
Number of Pixels in Spectrum: 1024
>>>>>Begin Spectral Data<<<<<
801.071	2941
801.214	2963
801.356	2880
801.499	2902
801.641	2876
801.783	2952
801.926	3119
802.068	2990
802.211	3020
802.353	3070
802.496	2952
802.638	3020
802.78	3047
802.923	3097
803.065	3055
803.208	2899
803.35	2937
803.492	2967
803.635	2929
803.777	2769
803.919	2906
804.061	3195
804.204	2967
804.346	2925
804.488	2872
804.63	2998
804.773	2902
804.915	2906
805.057	3097
805.199	2925
805.341	2982
805.483	3070
805.626	3032
805.768	2994
805.91	3097
806.052	3142
806.194	3047
806.336	3226
806.478	3036
806.62	2979
806.762	2982
806.904	3066
807.046	3169
807.188	2963
807.33	2925
807.472	2986
807.614	2933
807.756	2998
807.898	2933
808.04	2880
808.182	2944
808.324	2937
808.465	2899
808.607	2868
808.749	2834
808.891	2834
809.033	2994
809.174	3009
809.316	2887
809.458	2864
809.6	2743
809.741	2777
809.883	2708
810.025	2834
810.166	2849
810.308	2830
810.45	2845
810.591	2716
810.733	2792
810.875	2842
811.016	2781
811.158	2785
811.299	2796
811.441	2944
811.582	2887
811.724	2849
811.865	2826
812.007	2891
812.148	2864
812.29	2864
812.431	2891
812.573	2925
812.714	2944
812.855	3043
812.997	3039
813.138	3100
813.279	3009
813.421	3013
813.562	2925
813.703	2853
813.845	2876
813.986	2769
814.127	2716
814.268	2830
814.41	2849
814.551	2834
814.692	2902
814.833	2819
814.974	2857
815.115	2948
815.256	2819
815.397	2792
815.539	2914
815.68	2807
815.821	2785
815.962	2960
816.103	2918
816.244	2883
816.385	2872
816.526	2929
816.666	2941
816.807	2731
816.948	2914
817.089	2906
817.23	2853
817.371	2792
817.512	2773
817.653	2849
817.793	2788
817.934	2887
818.075	2952
818.216	3028
818.356	3024
818.497	2857
818.638	2781
818.778	2849
818.919	2838
819.06	2750
819.2	2891
819.341	2777
819.481	2804
819.622	2922
819.762	3097
819.903	3055
820.043	2929
820.184	2891
820.324	2944
820.465	3032
820.605	3005
820.746	3043
820.886	2975
821.026	3070
821.167	3195
821.307	3264
821.447	3256
821.588	3218
821.728	3199
821.868	3176
822.008	3070
822.149	3123
822.289	3207
822.429	3104
822.569	3077
822.709	3150
822.849	3024
822.99	3077
823.13	3195
823.27	3184
823.41	3089
823.55	3123
823.69	3112
823.83	3199
823.97	3089
824.11	3047
824.25	3024
824.389	3062
824.529	3135
824.669	3077
824.809	3184
824.949	3298
825.089	3230
825.228	3184
825.368	3017
825.508	2975
825.648	2967
825.787	3070
825.927	3047
826.067	2990
826.206	2975
826.346	3093
826.485	3085
826.625	3135
826.765	3264
826.904	3245
827.044	3047
827.183	2937
827.323	2891
827.462	3028
827.601	2975
827.741	2952
827.88	2990
828.02	2872
828.159	2994
828.298	3077
828.437	3116
828.577	3081
828.716	3249
828.855	3104
828.994	2963
829.134	2929
829.273	2941
829.412	2910
829.551	2902
829.69	2922
829.829	3036
829.968	3150
830.107	3051
830.246	3047
830.385	2944
830.524	2937
830.663	2838
830.802	2769
830.941	2686
831.08	2674
831.219	2800
831.357	2811
831.496	2971
831.635	2758
831.774	2708
831.913	2686
832.051	2590
832.19	2621
832.329	2727
832.467	2564
832.606	2533
832.744	2571
832.883	2587
833.022	2594
833.16	2708
833.299	2720
833.437	2701
833.576	2739
833.714	2766
833.852	2758
833.991	2815
834.129	2883
834.267	2861
834.406	2842
834.544	2876
834.682	2899
834.821	2876
834.959	3097
835.097	2910
835.235	3104
835.373	3024
835.511	3036
835.65	2952
835.788	3009
835.926	2842
836.064	2853
836.202	2861
836.34	3135
836.478	3195
836.615	3131
836.753	3131
836.891	3245
837.029	3203
837.167	3135
837.305	3089
837.443	3093
837.58	2975
837.718	3203
837.856	3100
837.993	3089
838.131	3157
838.269	3154
838.406	3135
838.544	3066
838.681	2952
838.819	2975
838.956	2823
839.094	2861
839.231	2963
839.369	3047
839.506	3393
839.643	3249
839.781	3058
839.918	3013
840.055	3097
840.193	3081
840.33	3108
840.467	3138
840.604	3188
840.742	3454
840.879	3100
841.016	3085
841.153	3119
841.29	3332
841.427	3355
841.564	3306
841.701	3370
841.838	3264
841.975	3199
842.112	3233
842.249	3116
842.385	3058
842.522	3279
842.659	3150
842.796	3085
842.933	3135
843.069	3104
843.206	3093
843.343	3203
843.479	3135
843.616	3184
843.752	2910
843.889	2887
844.025	3097
844.162	2937
844.298	3104
844.435	2994
844.571	2937
844.708	3123
844.844	3207
844.98	3275
845.117	3260
845.253	3051
845.389	3039
845.525	3127
845.661	3135
845.798	3024
845.934	3169
846.07	3077
846.206	3233
846.342	3321
846.478	3249
846.614	3058
846.75	3070
846.886	3043
847.022	3291
847.158	3157
847.294	3241
847.429	3253
847.565	3211
847.701	3469
847.837	3051
847.972	2982
848.108	3207
848.244	3165
848.379	3043
848.515	2952
848.65	2990
848.786	2952
848.921	3024
849.057	3150
849.192	3142
849.328	3085
849.463	3165
849.598	3051
849.734	3047
849.869	2994
850.004	2967
850.14	2990
850.275	2925
850.41	2883
850.545	2880
850.68	2952
850.815	2990
850.95	3005
851.085	3203
851.22	3112
851.355	3039
851.49	3017
851.625	3024
851.76	3055
851.895	2933
852.03	2963
852.165	3055
852.299	3146
852.434	3245
852.569	3123
852.703	3184
852.838	3260
852.973	3344
853.107	3313
853.242	3199
853.376	3089
853.511	2971
853.645	3077
853.78	3253
853.914	3116
854.048	3173
854.183	3104
854.317	3154
854.451	3340
854.585	3154
854.72	3104
854.854	3241
854.988	3077
855.122	3119
855.256	3013
855.39	3157
855.524	3294
855.658	3207
855.792	3169
855.926	3207
856.06	3249
856.194	3294
856.327	3207
856.461	3116
856.595	3138
856.729	3089
856.862	3245
856.996	3207
857.13	3222
857.263	3218
857.397	3306
857.53	3135
857.664	3218
857.797	3291
857.931	3306
858.064	3214
858.197	3268
858.331	3180
858.464	3127
858.597	3020
858.731	3165
858.864	3146
858.997	3150
859.13	3176
859.263	3195
859.396	3226
859.529	3138
859.662	3074
859.795	3058
859.928	3165
860.061	3302
860.194	3329
860.327	3176
860.46	3089
860.592	3287
860.725	3279
860.858	3264
860.99	3116
861.123	3089
861.256	3081
861.388	3176
861.521	3899
861.653	3047
861.786	3001
861.918	3017
862.05	3123
862.183	3138
862.315	3184
862.447	3192
862.58	3123
862.712	2929
862.844	2880
862.976	3051
863.108	3043
863.24	3275
863.372	2944
863.504	2986
863.636	2982
863.768	3089
863.9	3017
864.032	2941
864.164	2956
864.296	3032
864.428	3131
864.559	3138
864.691	3116
864.823	3093
864.954	3039
865.086	3039
865.217	2975
865.349	2963
865.48	2998
865.612	3028
865.743	3146
865.875	3005
866.006	2982
866.137	2979
866.269	2967
866.4	2963
866.531	2948
866.662	2925
866.793	2906
866.924	2929
867.055	2990
867.186	2998
867.317	2899
867.448	2857
867.579	2857
867.71	2872
867.841	2861
867.972	2918
868.103	2922
868.233	2902
868.364	2941
868.495	2910
868.625	3077
868.756	3157
868.886	2990
869.017	3043
869.147	3214
869.278	3192
869.408	3062
869.539	3032
869.669	3112
869.799	3055
869.929	3188
870.06	3104
870.19	3363
870.32	3279
870.45	3313
870.58	3401
870.71	3466
870.84	3450
870.97	3336
871.1	3260
871.23	3496
871.36	3511
871.489	3348
871.619	3439
871.749	3466
871.879	3458
872.008	3515
872.138	3378
872.267	3317
872.397	3150
872.526	3131
872.656	3055
872.785	3116
872.915	3264
873.044	3329
873.173	3256
873.303	3268
873.432	3241
873.561	3245
873.69	3169
873.819	3165
873.948	3184
874.077	3089
874.206	3051
874.335	3108
874.464	3222
874.593	3386
874.722	3264
874.851	3389
874.979	3359
875.108	3336
875.237	3230
875.365	3161
875.494	3176
875.623	3256
875.751	3104
875.88	3108
876.008	3195
876.136	3230
876.265	3344
876.393	3481
876.521	3412
876.65	3420
876.778	3348
876.906	3249
877.034	3203
877.162	3253
877.29	3214
877.418	3245
877.546	3272
877.674	3306
877.802	3268
877.93	3260
878.058	3142
878.185	3157
878.313	3192
878.441	3245
878.568	3051
878.696	3154
878.824	3283
878.951	3340
879.079	3469
879.206	3595
879.333	3416
879.461	3310
879.588	3401
879.715	3545
879.842	3618
879.97	3405
880.097	3207
880.224	3154
880.351	3192
880.478	3233
880.605	3207
880.732	3233
880.859	3469
880.986	3313
881.112	3336
881.239	3233
881.366	3100
881.493	3005
881.619	3001
881.746	3077
881.872	3127
881.999	3097
882.125	3180
882.252	3279
882.378	3279
882.505	3462
882.631	3325
882.757	3146
882.883	3226
883.01	3253
883.136	3165
883.262	3074
883.388	3154
883.514	3336
883.64	3370
883.766	3332
883.892	3165
884.018	3256
884.143	3416
884.269	3591
884.395	3260
884.52	3199
884.646	3214
884.772	3108
884.897	3161
885.023	3245
885.148	3291
885.274	3431
885.399	3344
885.524	3294
885.65	3272
885.775	3351
885.9	3249
886.025	3447
886.15	3382
886.275	3317
886.4	3283
886.525	3329
886.65	3306
886.775	3336
886.9	3481
887.025	3610
887.149	3439
887.274	3245
887.399	3173
887.523	3233
887.648	3203
887.773	3249
887.897	3389
888.021	3397
888.146	3317
888.27	3469
888.395	3542
888.519	3504
888.643	3485
888.767	3473
888.891	3329
889.015	3218
889.139	3302
889.263	3241
889.387	3416
889.511	3515
889.635	3458
889.759	3260
889.883	3294
890.006	3428
890.13	3504
890.254	3294
890.377	3367
890.501	3233
890.624	3176
890.748	3325
890.871	3192
890.995	3112
891.118	3070
891.241	3207
891.364	3226
891.488	3340
891.611	3188
891.734	3264
891.857	3294
891.98	3218
892.103	3348
892.226	3302
892.349	3226
892.471	3131
892.594	3237
892.717	3306
892.839	3298
892.962	3302
893.085	3378
893.207	3321
893.33	3176
893.452	3180
893.575	3374
893.697	3241
893.819	3485
893.941	3443
894.064	3447
894.186	3275
894.308	3260
894.43	3431
894.552	3564
894.674	3481
894.796	3291
894.918	3317
895.04	3298
895.161	3466
895.283	3389
895.405	3336
895.526	3416
895.648	3492
895.769	3416
895.891	3412
896.012	3496
896.134	3450
896.255	3458
896.376	3367
896.498	3370
896.619	3473
896.74	3363
896.861	3386
896.982	3698
897.103	3892
897.224	3603
897.345	3523
897.466	3466
897.587	3511
897.708	3603
897.828	3564
897.949	3454
898.07	3378
898.19	3416
898.311	3637
898.431	3473
898.552	3553
898.672	3622
898.792	3587
898.913	3572
899.033	3447
899.153	3287
899.273	3222
899.393	3310
899.513	3321
899.633	3340
899.753	3351
899.873	3272
899.993	3393
900.113	3321
900.232	3386
900.352	3332
900.472	3287
900.591	3214
900.711	3294
900.83	3272
900.95	3412
901.069	3534
901.189	3351
901.308	3192
901.427	3123
901.546	3195
901.665	3355
901.784	3367
901.904	3184
902.023	3176
902.141	3032
902.26	3005
902.379	3161
902.498	3123
902.617	3039
902.735	3214
902.854	3241
902.973	3203
903.091	3070
903.21	3047
903.328	3165
903.446	3127
903.565	3108
903.683	3180
903.801	3123
903.919	3230
904.038	3325
904.156	3157
904.274	3279
904.392	3287
904.51	3279
904.627	3351
904.745	3469
904.863	3488
904.981	3279
905.098	3173
905.216	3207
905.334	3313
905.451	3313
905.569	3348
905.686	3409
905.803	3397
905.921	3321
906.038	3450
906.155	3317
906.272	3268
906.389	3363
906.506	3233
906.623	3253
906.74	3233
906.857	3188
906.974	3260
907.091	3450
907.208	3576
907.324	3485
907.441	3378
907.557	3226
907.674	3222
907.79	3222
907.907	3325
908.023	3412
908.139	3428
908.256	3340
908.372	3409
908.488	3351
908.604	3268
908.72	3230
908.836	3298
908.952	3237
909.068	3329
909.184	3477
909.3	3431
909.415	3507
909.531	3466
909.647	3294
909.762	3313
909.878	3260
909.993	3351
910.108	3344
910.224	3332
910.339	3416
910.454	3359
910.57	3279
910.685	3260
910.8	3576
910.915	3530
911.03	3450
911.145	3275
911.259	3313
911.374	3287
911.489	3253
911.604	3245
911.718	3131
911.833	3154
911.947	3058
912.062	2975
912.176	3176
912.291	3195
912.405	3188
912.519	3431
912.633	3477
912.748	3313
912.862	3321
912.976	3157
913.09	3070
913.204	3150
913.318	3256
913.431	3332
913.545	3332
913.659	3401
913.772	3344
913.886	3241
914	3176
914.113	3344
914.226	3420
914.34	3367
914.453	3241
914.566	3424
914.68	3313
914.793	3310
914.906	3169
915.019	3119
915.132	3081
915.245	3169
915.358	3199
915.47	3211
915.583	3222
915.696	3321
915.809	3428
915.921	3435
916.034	3287
916.146	3256
916.259	3199
916.371	3401
916.483	3336
916.595	3283
916.708	3340
916.82	3351
916.932	3359
917.044	3325
917.156	3340
917.268	3218
917.38	3317
917.491	3298
917.603	3382
917.715	3447
917.826	3424
917.938	3420
918.049	3256
918.161	3439
918.272	3549
918.384	3591
918.495	3507
918.606	3355
918.717	3306
918.828	3348
918.939	3386
919.05	3313
919.161	3370
919.272	3195
919.383	3287
919.494	3507
919.604	3694
919.715	3450
919.826	3397
919.936	3447
920.047	3568
920.157	3564
920.267	3766
920.378	3656
920.488	3549
920.598	3747
920.708	3975
920.818	3838
920.928	3854
921.038	4044
921.148	3983
921.258	3724
921.368	3637
921.477	3633
921.587	3542
921.697	3462
921.806	3603
921.916	3530
922.025	3378
922.134	3370
922.244	3291
922.353	3393
922.462	3260
922.571	3256
922.68	3131
922.789	3062
922.898	3161
923.007	3093
923.116	3199
923.224	3157
923.333	3207
923.442	3074
923.55	3104
923.659	3142
923.767	3207
923.876	3135
923.984	3241
924.092	3097
924.201	3165
924.309	3256
924.417	3237
924.525	3188
924.633	3253
924.741	4021
924.849	3085
924.956	3298
925.064	3070
925.172	3043
925.279	3104
925.387	3222
925.494	3214
925.602	3370
925.709	3321
925.816	3188
925.924	3298
926.031	3405
926.138	3386
926.245	3329
926.352	3233
926.459	3412
926.566	3477
926.673	3325
926.779	3222
926.886	3249
926.993	3150
927.099	3119
927.206	3131
927.312	3112
927.419	3226
927.525	3222
927.631	3268
927.737	3169
927.843	3100
927.95	3001
928.056	3135
928.162	3150
928.267	3230
928.373	3880
928.479	3351
928.585	3062
928.69	3207
928.796	3253
928.901	3180
929.007	3043
929.112	3199
929.218	3165
929.323	3176
929.428	3150
929.533	3310
929.638	3097
929.743	3188
929.848	3249
929.953	3173
930.058	3169
930.163	2971
930.267	3062
930.372	3192
930.477	3039
930.581	3321
930.685	3169
930.79	3074
930.894	3089
930.998	3112
931.103	3283
931.207	2986
931.311	2944
931.415	2933
931.519	2743
931.623	2826
