Data from test_V78500241_1130.txt Node
Date: Fri Mar 25 16:23:01 CST 2022
User: usil
Spectrometer: V785-0024
Trigger mode: 0
Integration Time (sec): 4.000000E-1
Scans to average: 1
Nonlinearity correction enabled: false
Boxcar width: 0
Storing dark spectrum: false
XAxis mode: Wavelengths
Number of Pixels in Spectrum: 1024
>>>>>Begin Spectral Data<<<<<
801.071	2914
801.214	2933
801.356	2880
801.499	2868
801.641	2883
801.783	2906
801.926	3058
802.068	2960
802.211	3032
802.353	3051
802.496	2960
802.638	2982
802.78	3005
802.923	3108
803.065	3001
803.208	2864
803.35	2887
803.492	2971
803.635	2918
803.777	2769
803.919	2853
804.061	3195
804.204	2948
804.346	2899
804.488	2853
804.63	2998
804.773	2899
804.915	2922
805.057	3051
805.199	2933
805.341	2994
805.483	3036
805.626	3020
805.768	2952
805.91	3108
806.052	3146
806.194	3032
806.336	3230
806.478	3058
806.62	2937
806.762	2963
806.904	3047
807.046	3169
807.188	2967
807.33	2922
807.472	3009
807.614	2876
807.756	2979
807.898	2941
808.04	2880
808.182	2982
808.324	2925
808.465	2910
808.607	2891
808.749	2781
808.891	2819
809.033	2990
809.174	2971
809.316	2899
809.458	2883
809.6	2785
809.741	2735
809.883	2766
810.025	2857
810.166	2842
810.308	2819
810.45	2880
810.591	2773
810.733	2735
810.875	2815
811.016	2766
811.158	2727
811.299	2845
811.441	2933
811.582	2887
811.724	2807
811.865	2842
812.007	2922
812.148	2891
812.29	2830
812.431	2899
812.573	2933
812.714	3001
812.855	3036
812.997	3020
813.138	3127
813.279	3039
813.421	2952
813.562	2967
813.703	2880
813.845	2899
813.986	2788
814.127	2724
814.268	2804
814.41	2842
814.551	2807
814.692	2880
814.833	2796
814.974	2872
815.115	2967
815.256	2868
815.397	2838
815.539	2792
815.68	2773
815.821	2758
815.962	2948
816.103	2933
816.244	2883
816.385	2853
816.526	2941
816.666	2918
816.807	2758
816.948	2872
817.089	2887
817.23	2853
817.371	2785
817.512	2792
817.653	2838
817.793	2796
817.934	2876
818.075	2990
818.216	2956
818.356	3028
818.497	2895
818.638	2758
818.778	2861
818.919	2804
819.06	2739
819.2	2922
819.341	2819
819.481	2781
819.622	2914
819.762	3077
819.903	3070
820.043	2910
820.184	2918
820.324	2883
820.465	3009
820.605	3036
820.746	3005
820.886	2967
821.026	3074
821.167	3150
821.307	3249
821.447	3264
821.588	3253
821.728	3192
821.868	3195
822.008	3070
822.149	3131
822.289	3218
822.429	3051
822.569	3108
822.709	3184
822.849	3058
822.99	3055
823.13	3154
823.27	3180
823.41	3100
823.55	3127
823.69	3165
823.83	3165
823.97	3112
824.11	3013
824.25	3001
824.389	3085
824.529	3131
824.669	3070
824.809	3195
824.949	3283
825.089	3214
825.228	3157
825.368	3020
825.508	2956
825.648	2975
825.787	2994
825.927	2990
826.067	2982
826.206	2956
826.346	3024
826.485	3108
826.625	3119
826.765	3264
826.904	3192
827.044	2971
827.183	2902
827.323	2864
827.462	2986
827.601	2883
827.741	2883
827.88	2902
828.02	2830
828.159	2982
828.298	3032
828.437	3127
828.577	3043
828.716	3218
828.855	3074
828.994	2910
829.134	2887
829.273	2918
829.412	2883
829.551	2864
829.69	2887
829.829	2986
829.968	3097
830.107	3013
830.246	3036
830.385	2906
830.524	2906
830.663	2830
830.802	2724
830.941	2636
831.08	2617
831.219	2746
831.357	2731
831.496	2933
831.635	2701
831.774	2663
831.913	2632
832.051	2533
832.19	2575
832.329	2682
832.467	2511
832.606	2480
832.744	2587
832.883	2583
833.022	2583
833.16	2644
833.299	2686
833.437	2693
833.576	2720
833.714	2720
833.852	2746
833.991	2735
834.129	2804
834.267	2838
834.406	2777
834.544	2861
834.682	2868
834.821	2849
834.959	3100
835.097	2868
835.235	3051
835.373	2982
835.511	3024
835.65	2948
835.788	2967
835.926	2781
836.064	2773
836.202	2830
836.34	3093
836.478	3146
836.615	3043
836.753	3097
836.891	3199
837.029	3131
837.167	3089
837.305	3024
837.443	3036
837.58	2967
837.718	3104
837.856	3028
837.993	3001
838.131	3104
838.269	3081
838.406	3077
838.544	3081
838.681	2895
838.819	2918
838.956	2811
839.094	2792
839.231	2906
839.369	3024
839.506	3355
839.643	3226
839.781	3001
839.918	2948
840.055	3036
840.193	3043
840.33	3051
840.467	3123
840.604	3157
840.742	3389
840.879	3039
841.016	3070
841.153	3131
841.29	3355
841.427	3310
841.564	3272
841.701	3302
841.838	3218
841.975	3199
842.112	3173
842.249	3066
842.385	3047
842.522	3272
842.659	3077
842.796	3097
842.933	3112
843.069	3066
843.206	3032
843.343	3138
843.479	3077
843.616	3157
843.752	2872
843.889	2872
844.025	3070
844.162	2868
844.298	3074
844.435	2910
844.571	2929
844.708	3051
844.844	3169
844.98	3199
845.117	3161
845.253	3039
845.389	3001
845.525	3055
845.661	3066
845.798	3020
845.934	3108
846.07	3020
846.206	3192
846.342	3306
846.478	3203
846.614	3081
846.75	3066
846.886	3024
847.022	3207
847.158	3127
847.294	3154
847.429	3245
847.565	3176
847.701	3485
847.837	3020
847.972	2982
848.108	3169
848.244	3138
848.379	2994
848.515	2952
848.65	2910
848.786	2975
848.921	3017
849.057	3093
849.192	3150
849.328	3062
849.463	3112
849.598	3074
849.734	3024
849.869	2963
850.004	2925
850.14	2994
850.275	2910
850.41	2849
850.545	2876
850.68	2937
850.815	2982
850.95	2982
851.085	3165
851.22	3093
851.355	3013
851.49	3020
851.625	3020
851.76	2982
851.895	2902
852.03	2902
852.165	3013
852.299	3112
852.434	3138
852.569	3157
852.703	3150
852.838	3214
852.973	3355
853.107	3279
853.242	3131
853.376	3055
853.511	2952
853.645	3077
853.78	3264
853.914	3097
854.048	3077
854.183	3077
854.317	3165
854.451	3275
854.585	3093
854.72	3066
854.854	3184
854.988	3070
855.122	3070
855.256	2971
855.39	3112
855.524	3180
855.658	3188
855.792	3131
855.926	3214
856.06	3199
856.194	3279
856.327	3161
856.461	3104
856.595	3077
856.729	3074
856.862	3226
856.996	3142
857.13	3184
857.263	3199
857.397	3260
857.53	3135
857.664	3184
857.797	3226
857.931	3233
858.064	3127
858.197	3226
858.331	3142
858.464	3085
858.597	2975
858.731	3085
858.864	3146
858.997	3058
859.13	3146
859.263	3173
859.396	3211
859.529	3097
859.662	3036
859.795	3055
859.928	3142
860.061	3275
860.194	3256
860.327	3142
860.46	3097
860.592	3237
860.725	3233
860.858	3279
860.99	3112
861.123	3024
861.256	3047
861.388	3127
861.521	3705
861.653	3013
861.786	2982
861.918	3017
862.05	3062
862.183	3100
862.315	3112
862.447	3192
862.58	3093
862.712	2956
862.844	2857
862.976	3005
863.108	2956
863.24	3313
863.372	2861
863.504	2990
863.636	2975
863.768	3009
863.9	2971
864.032	2895
864.164	2906
864.296	2975
864.428	3097
864.559	3112
864.691	3089
864.823	3089
864.954	3028
865.086	3058
865.217	2982
865.349	2933
865.48	2998
865.612	3013
865.743	3146
865.875	2982
866.006	2922
866.137	2975
866.269	2963
866.4	2933
866.531	2937
866.662	2868
866.793	2876
866.924	2845
867.055	2998
867.186	2918
867.317	2868
867.448	2861
867.579	2849
867.71	2811
867.841	2815
867.972	2895
868.103	2891
868.233	2868
868.364	2857
868.495	2914
868.625	3066
868.756	3157
868.886	2998
869.017	3051
869.147	3157
869.278	3142
869.408	3020
869.539	3043
869.669	3093
869.799	3013
869.929	3150
870.06	3093
870.19	3310
870.32	3260
870.45	3272
870.58	3317
870.71	3439
870.84	3420
870.97	3279
871.1	3241
871.23	3496
871.36	3370
871.489	3351
871.619	3382
871.749	3367
871.879	3439
872.008	3454
872.138	3329
872.267	3237
872.397	3157
872.526	3104
872.656	3028
872.785	3047
872.915	3245
873.044	3351
873.173	3214
873.303	3226
873.432	3211
873.561	3230
873.69	3119
873.819	3157
873.948	3176
874.077	3097
874.206	3024
874.335	3070
874.464	3188
874.593	3359
874.722	3253
874.851	3374
874.979	3344
875.108	3310
875.237	3195
875.365	3150
875.494	3146
875.623	3222
875.751	3097
875.88	3112
876.008	3184
876.136	3218
876.265	3336
876.393	3530
876.521	3420
876.65	3378
876.778	3279
876.906	3233
877.034	3180
877.162	3199
877.29	3150
877.418	3249
877.546	3253
877.674	3253
877.802	3195
877.93	3233
878.058	3142
878.185	3085
878.313	3157
878.441	3180
878.568	3043
878.696	3157
878.824	3249
878.951	3291
879.079	3462
879.206	3595
879.333	3416
879.461	3302
879.588	3348
879.715	3504
879.842	3587
879.97	3389
880.097	3142
880.224	3123
880.351	3211
880.478	3226
880.605	3211
880.732	3184
880.859	3477
880.986	3283
881.112	3336
881.239	3218
881.366	3085
881.493	3039
881.619	3032
881.746	3043
881.872	3077
881.999	3077
882.125	3123
882.252	3249
882.378	3272
882.505	3409
882.631	3249
882.757	3180
882.883	3195
883.01	3226
883.136	3157
883.262	3108
883.388	3100
883.514	3291
883.64	3348
883.766	3336
883.892	3218
884.018	3214
884.143	3420
884.269	3561
884.395	3218
884.52	3169
884.646	3188
884.772	3138
884.897	3074
885.023	3199
885.148	3363
885.274	3386
885.399	3363
885.524	3268
885.65	3226
885.775	3332
885.9	3294
886.025	3424
886.15	3367
886.275	3272
886.4	3214
886.525	3264
886.65	3306
886.775	3264
886.9	3523
887.025	3625
887.149	3450
887.274	3260
887.399	3180
887.523	3199
887.648	3192
887.773	3165
887.897	3332
888.021	3382
888.146	3291
888.27	3443
888.395	3542
888.519	3420
888.643	3469
888.767	3443
888.891	3310
889.015	3214
889.139	3279
889.263	3207
889.387	3401
889.511	3500
889.635	3412
889.759	3302
889.883	3275
890.006	3370
890.13	3492
890.254	3268
890.377	3317
890.501	3211
890.624	3173
890.748	3294
890.871	3218
890.995	3127
891.118	3066
891.241	3192
891.364	3233
891.488	3283
891.611	3173
891.734	3180
891.857	3321
891.98	3195
892.103	3279
892.226	3264
892.349	3233
892.471	3116
892.594	3226
892.717	3275
892.839	3237
892.962	3306
893.085	3329
893.207	3283
893.33	3131
893.452	3214
893.575	3344
893.697	3260
893.819	3454
893.941	3492
894.064	3428
894.186	3233
894.308	3226
894.43	3420
894.552	3568
894.674	3443
894.796	3264
894.918	3310
895.04	3237
895.161	3473
895.283	3412
895.405	3279
895.526	3359
895.648	3439
895.769	3401
895.891	3401
896.012	3492
896.134	3443
896.255	3393
896.376	3374
896.498	3405
896.619	3378
896.74	3317
896.861	3412
896.982	3690
897.103	3846
897.224	3538
897.345	3469
897.466	3412
897.587	3488
897.708	3614
897.828	3542
897.949	3420
898.07	3340
898.19	3389
898.311	3557
898.431	3435
898.552	3481
898.672	3568
898.792	3576
898.913	3496
899.033	3405
899.153	3298
899.273	3211
899.393	3310
899.513	3302
899.633	3313
899.753	3325
899.873	3336
899.993	3370
900.113	3382
900.232	3359
900.352	3355
900.472	3287
900.591	3222
900.711	3298
900.83	3233
900.95	3389
901.069	3485
901.189	3313
901.308	3150
901.427	3138
901.546	3188
901.665	3287
901.784	3302
901.904	3226
902.023	3123
902.141	3009
902.26	2963
902.379	3142
902.498	3062
902.617	3036
902.735	3195
902.854	3241
902.973	3199
903.091	3058
903.21	3032
903.328	3161
903.446	3112
903.565	3135
903.683	3203
903.801	3169
903.919	3218
904.038	3214
904.156	3192
904.274	3306
904.392	3268
904.51	3313
904.627	3310
904.745	3473
904.863	3469
904.981	3241
905.098	3135
905.216	3214
905.334	3264
905.451	3298
905.569	3287
905.686	3420
905.803	3439
905.921	3268
906.038	3409
906.155	3348
906.272	3275
906.389	3336
906.506	3241
906.623	3260
906.74	3233
906.857	3180
906.974	3249
907.091	3443
907.208	3538
907.324	3473
907.441	3378
907.557	3260
907.674	3226
907.79	3203
907.907	3264
908.023	3378
908.139	3405
908.256	3348
908.372	3344
908.488	3367
908.604	3279
908.72	3230
908.836	3291
908.952	3294
909.068	3306
909.184	3485
909.3	3355
909.415	3526
909.531	3458
909.647	3260
909.762	3321
909.878	3230
909.993	3374
910.108	3374
910.224	3340
910.339	3401
910.454	3336
910.57	3313
910.685	3241
910.8	3633
910.915	3519
911.03	3450
911.145	3241
911.259	3237
911.374	3321
911.489	3230
911.604	3245
911.718	3112
911.833	3161
911.947	3036
912.062	2979
912.176	3142
912.291	3203
912.405	3192
912.519	3416
912.633	3477
912.748	3332
912.862	3275
912.976	3131
913.09	3085
913.204	3161
913.318	3214
913.431	3344
913.545	3302
913.659	3382
913.772	3336
913.886	3245
914	3203
914.113	3363
914.226	3378
914.34	3306
914.453	3192
914.566	3416
914.68	3310
914.793	3291
914.906	3135
915.019	3123
915.132	3093
915.245	3195
915.358	3207
915.47	3214
915.583	3233
915.696	3298
915.809	3420
915.921	3424
916.034	3256
916.146	3268
916.259	3226
916.371	3386
916.483	3329
916.595	3214
916.708	3393
916.82	3348
916.932	3340
917.044	3348
917.156	3336
917.268	3237
917.38	3268
917.491	3291
917.603	3344
917.715	3450
917.826	3458
917.938	3386
918.049	3260
918.161	3443
918.272	3576
918.384	3629
918.495	3488
918.606	3302
918.717	3291
918.828	3382
918.939	3393
919.05	3264
919.161	3374
919.272	3233
919.383	3283
919.494	3462
919.604	3663
919.715	3496
919.826	3386
919.936	3473
920.047	3629
920.157	3492
920.267	3789
920.378	3595
920.488	3591
920.598	3762
920.708	3937
920.818	3770
920.928	3827
921.038	4010
921.148	3979
921.258	3694
921.368	3660
921.477	3568
921.587	3523
921.697	3462
921.806	3671
921.916	3488
922.025	3329
922.134	3382
922.244	3283
922.353	3447
922.462	3264
922.571	3237
922.68	3100
922.789	3055
922.898	3127
923.007	3097
923.116	3176
923.224	3150
923.333	3214
923.442	3074
923.55	3100
923.659	3169
923.767	3222
923.876	3093
923.984	3237
924.092	3097
924.201	3192
924.309	3218
924.417	3260
924.525	3184
924.633	3222
924.741	4017
924.849	3074
924.956	3253
925.064	3108
925.172	3039
925.279	3119
925.387	3169
925.494	3203
925.602	3363
925.709	3329
925.816	3176
925.924	3241
926.031	3405
926.138	3310
926.245	3351
926.352	3253
926.459	3454
926.566	3431
926.673	3332
926.779	3253
926.886	3241
926.993	3127
927.099	3135
927.206	3119
927.312	3100
927.419	3222
927.525	3154
927.631	3207
927.737	3161
927.843	3112
927.95	3055
928.056	3127
928.162	3161
928.267	3237
928.373	3884
928.479	3313
928.585	3062
928.69	3230
928.796	3256
928.901	3165
929.007	3043
929.112	3199
929.218	3150
929.323	3142
929.428	3138
929.533	3321
929.638	3116
929.743	3203
929.848	3230
929.953	3176
930.058	3150
930.163	2986
930.267	3043
930.372	3214
930.477	3028
930.581	3348
930.685	3157
930.79	3043
930.894	3112
930.998	3100
931.103	3264
931.207	2986
931.311	2944
931.415	2918
931.519	2769
931.623	2788
