Data from test_V78500241_457.txt Node
Date: Fri Mar 25 16:18:22 CST 2022
User: usil
Spectrometer: V785-0024
Trigger mode: 0
Integration Time (sec): 4.000000E-1
Scans to average: 1
Nonlinearity correction enabled: false
Boxcar width: 0
Storing dark spectrum: false
XAxis mode: Wavelengths
Number of Pixels in Spectrum: 1024
>>>>>Begin Spectral Data<<<<<
801.071	2937
801.214	2933
801.356	2880
801.499	2891
801.641	2868
801.783	2960
801.926	3055
802.068	2967
802.211	2994
802.353	3085
802.496	2956
802.638	3062
802.78	3043
802.923	3093
803.065	3005
803.208	2941
803.35	2922
803.492	2933
803.635	2876
803.777	2720
803.919	2876
804.061	3146
804.204	2941
804.346	2933
804.488	2834
804.63	2986
804.773	2849
804.915	2918
805.057	3066
805.199	2880
805.341	3005
805.483	3070
805.626	3001
805.768	2967
805.91	3112
806.052	3112
806.194	3043
806.336	3188
806.478	3043
806.62	2971
806.762	2956
806.904	3051
807.046	3154
807.188	2956
807.33	2883
807.472	2990
807.614	2914
807.756	2963
807.898	2925
808.04	2902
808.182	2986
808.324	2960
808.465	2868
808.607	2883
808.749	2826
808.891	2838
809.033	2971
809.174	3001
809.316	2872
809.458	2914
809.6	2800
809.741	2777
809.883	2785
810.025	2834
810.166	2857
810.308	2845
810.45	2834
810.591	2762
810.733	2758
810.875	2842
811.016	2773
811.158	2769
811.299	2815
811.441	2937
811.582	2937
811.724	2823
811.865	2804
812.007	2910
812.148	2902
812.29	2804
812.431	2895
812.573	2895
812.714	2963
812.855	3039
812.997	3085
813.138	3112
813.279	3036
813.421	3001
813.562	2937
813.703	2857
813.845	2902
813.986	2773
814.127	2705
814.268	2819
814.41	2811
814.551	2842
814.692	2864
814.833	2785
814.974	2887
815.115	2963
815.256	2838
815.397	2823
815.539	2845
815.68	2804
815.821	2815
815.962	2918
816.103	2918
816.244	2891
816.385	2887
816.526	2948
816.666	2929
816.807	2750
816.948	2933
817.089	2902
817.23	2834
817.371	2773
817.512	2819
817.653	2845
817.793	2823
817.934	2838
818.075	2952
818.216	2979
818.356	3009
818.497	2876
818.638	2766
818.778	2788
818.919	2777
819.06	2762
819.2	2864
819.341	2792
819.481	2804
819.622	2914
819.762	3093
819.903	3020
820.043	2948
820.184	2918
820.324	2880
820.465	2994
820.605	3001
820.746	2982
820.886	2918
821.026	3104
821.167	3173
821.307	3249
821.447	3264
821.588	3237
821.728	3192
821.868	3207
822.008	3058
822.149	3207
822.289	3214
822.429	3123
822.569	3077
822.709	3203
822.849	3032
822.99	3058
823.13	3142
823.27	3184
823.41	3119
823.55	3154
823.69	3127
823.83	3184
823.97	3108
824.11	2971
824.25	3028
824.389	3032
824.529	3093
824.669	3070
824.809	3199
824.949	3237
825.089	3199
825.228	3157
825.368	2998
825.508	2956
825.648	2994
825.787	2998
825.927	3043
826.067	2982
826.206	2975
826.346	3028
826.485	3089
826.625	3100
826.765	3199
826.904	3211
827.044	3017
827.183	2918
827.323	2849
827.462	2994
827.601	2895
827.741	2925
827.88	2925
828.02	2830
828.159	2960
828.298	3036
828.437	3093
828.577	3058
828.716	3256
828.855	3108
828.994	2906
829.134	2902
829.273	2922
829.412	2804
829.551	2876
829.69	2891
829.829	2990
829.968	3138
830.107	3024
830.246	3036
830.385	2914
830.524	2880
830.663	2834
830.802	2716
830.941	2629
831.08	2644
831.219	2781
831.357	2750
831.496	2967
831.635	2682
831.774	2701
831.913	2674
832.051	2526
832.19	2556
832.329	2701
832.467	2526
832.606	2480
832.744	2613
832.883	2583
833.022	2587
833.16	2678
833.299	2693
833.437	2674
833.576	2716
833.714	2731
833.852	2705
833.991	2758
834.129	2804
834.267	2819
834.406	2807
834.544	2861
834.682	2887
834.821	2864
834.959	3039
835.097	2891
835.235	3028
835.373	3005
835.511	2990
835.65	2963
835.788	2971
835.926	2819
836.064	2796
836.202	2887
836.34	3093
836.478	3146
836.615	3017
836.753	3116
836.891	3237
837.029	3180
837.167	3100
837.305	3077
837.443	3036
837.58	2929
837.718	3108
837.856	3047
837.993	3051
838.131	3066
838.269	3077
838.406	3100
838.544	3074
838.681	2948
838.819	2876
838.956	2796
839.094	2819
839.231	2906
839.369	3024
839.506	3359
839.643	3203
839.781	2990
839.918	2960
840.055	3047
840.193	3051
840.33	3051
840.467	3074
840.604	3100
840.742	3401
840.879	3047
841.016	3039
841.153	3131
841.29	3325
841.427	3283
841.564	3294
841.701	3294
841.838	3214
841.975	3173
842.112	3184
842.249	3077
842.385	3047
842.522	3268
842.659	3112
842.796	3066
842.933	3112
843.069	3028
843.206	3036
843.343	3146
843.479	3100
843.616	3108
843.752	2868
843.889	2857
844.025	3093
844.162	2868
844.298	3077
844.435	2914
844.571	2883
844.708	3070
844.844	3203
844.98	3237
845.117	3207
845.253	3051
845.389	3005
845.525	3062
845.661	3089
845.798	3024
845.934	3070
846.07	3047
846.206	3230
846.342	3306
846.478	3245
846.614	3070
846.75	3043
846.886	3047
847.022	3245
847.158	3131
847.294	3207
847.429	3249
847.565	3211
847.701	3481
847.837	3032
847.972	2967
848.108	3142
848.244	3116
848.379	3024
848.515	2914
848.65	2876
848.786	2963
848.921	2998
849.057	3089
849.192	3119
849.328	3039
849.463	3104
849.598	3077
849.734	3001
849.869	3001
850.004	2910
850.14	2986
850.275	2902
850.41	2804
850.545	2876
850.68	2914
850.815	2937
850.95	2944
851.085	3157
851.22	3097
851.355	3058
851.49	2937
851.625	3024
851.76	3032
851.895	2929
852.03	2906
852.165	3070
852.299	3093
852.434	3161
852.569	3119
852.703	3176
852.838	3237
852.973	3336
853.107	3317
853.242	3150
853.376	3085
853.511	2960
853.645	3028
853.78	3211
853.914	3119
854.048	3112
854.183	3055
854.317	3165
854.451	3306
854.585	3104
854.72	3081
854.854	3211
854.988	3043
855.122	3051
855.256	2933
855.39	3131
855.524	3241
855.658	3165
855.792	3146
855.926	3184
856.06	3230
856.194	3249
856.327	3176
856.461	3070
856.595	3062
856.729	3116
856.862	3211
856.996	3127
857.13	3199
857.263	3226
857.397	3245
857.53	3112
857.664	3150
857.797	3233
857.931	3279
858.064	3138
858.197	3211
858.331	3127
858.464	3066
858.597	2982
858.731	3089
858.864	3142
858.997	3097
859.13	3150
859.263	3112
859.396	3192
859.529	3070
859.662	3077
859.795	3055
859.928	3154
860.061	3268
860.194	3298
860.327	3135
860.46	3093
860.592	3207
860.725	3226
860.858	3230
860.99	3085
861.123	3024
861.256	2998
861.388	3077
861.521	3964
861.653	2982
861.786	2963
861.918	3005
862.05	3039
862.183	3100
862.315	3116
862.447	3226
862.58	3081
862.712	2902
862.844	2887
862.976	2979
863.108	2990
863.24	3306
863.372	2872
863.504	2948
863.636	2948
863.768	3017
863.9	2975
864.032	2883
864.164	2967
864.296	2998
864.428	3077
864.559	3081
864.691	3074
864.823	3017
864.954	3039
865.086	3047
865.217	2975
865.349	2910
865.48	2982
865.612	3017
865.743	3146
865.875	2994
866.006	2922
866.137	2963
866.269	2948
866.4	2922
866.531	2902
866.662	2906
866.793	2887
866.924	2872
867.055	2967
867.186	2929
867.317	2861
867.448	2823
867.579	2830
867.71	2853
867.841	2819
867.972	2864
868.103	2895
868.233	2887
868.364	2899
868.495	2876
868.625	3062
868.756	3169
868.886	3009
869.017	3058
869.147	3123
869.278	3142
869.408	3047
869.539	2960
869.669	3085
869.799	2994
869.929	3127
870.06	3081
870.19	3325
870.32	3287
870.45	3283
870.58	3378
870.71	3374
870.84	3458
870.97	3279
871.1	3249
871.23	3492
871.36	3409
871.489	3374
871.619	3363
871.749	3409
871.879	3420
872.008	3492
872.138	3344
872.267	3218
872.397	3112
872.526	3070
872.656	2986
872.785	3093
872.915	3211
873.044	3313
873.173	3226
873.303	3230
873.432	3218
873.561	3230
873.69	3127
873.819	3127
873.948	3211
874.077	3100
874.206	2998
874.335	3036
874.464	3180
874.593	3325
874.722	3230
874.851	3359
874.979	3344
875.108	3313
875.237	3180
875.365	3173
875.494	3150
875.623	3226
875.751	3108
875.88	3154
876.008	3188
876.136	3192
876.265	3355
876.393	3530
876.521	3447
876.65	3389
876.778	3332
876.906	3253
877.034	3165
877.162	3180
877.29	3188
877.418	3245
877.546	3230
877.674	3199
877.802	3226
877.93	3268
878.058	3146
878.185	3081
878.313	3203
878.441	3173
878.568	3077
878.696	3131
878.824	3226
878.951	3298
879.079	3439
879.206	3618
879.333	3420
879.461	3332
879.588	3355
879.715	3435
879.842	3549
879.97	3382
880.097	3138
880.224	3108
880.351	3150
880.478	3237
880.605	3184
880.732	3176
880.859	3443
880.986	3310
881.112	3332
881.239	3165
881.366	3108
881.493	3081
881.619	3001
881.746	3066
881.872	3085
881.999	3055
882.125	3138
882.252	3233
882.378	3283
882.505	3439
882.631	3298
882.757	3169
882.883	3195
883.01	3192
883.136	3195
883.262	3074
883.388	3131
883.514	3313
883.64	3344
883.766	3275
883.892	3176
884.018	3253
884.143	3439
884.269	3519
884.395	3199
884.52	3180
884.646	3169
884.772	3138
884.897	3077
885.023	3169
885.148	3313
885.274	3409
885.399	3386
885.524	3214
885.65	3214
885.775	3302
885.9	3249
886.025	3409
886.15	3317
886.275	3260
886.4	3207
886.525	3313
886.65	3256
886.775	3256
886.9	3454
887.025	3572
887.149	3351
887.274	3245
887.399	3184
887.523	3207
887.648	3188
887.773	3207
887.897	3344
888.021	3393
888.146	3298
888.27	3454
888.395	3473
888.519	3435
888.643	3409
888.767	3469
888.891	3332
889.015	3233
889.139	3298
889.263	3230
889.387	3370
889.511	3500
889.635	3473
889.759	3302
889.883	3256
890.006	3393
890.13	3477
890.254	3253
890.377	3405
890.501	3199
890.624	3245
890.748	3302
890.871	3176
890.995	3119
891.118	3085
891.241	3195
891.364	3207
891.488	3321
891.611	3188
891.734	3241
891.857	3310
891.98	3264
892.103	3351
892.226	3264
892.349	3245
892.471	3165
892.594	3272
892.717	3313
892.839	3287
892.962	3344
893.085	3428
893.207	3344
893.33	3176
893.452	3256
893.575	3367
893.697	3279
893.819	3481
893.941	3526
894.064	3507
894.186	3272
894.308	3279
894.43	3507
894.552	3576
894.674	3485
894.796	3310
894.918	3409
895.04	3306
895.161	3454
895.283	3428
895.405	3359
895.526	3405
895.648	3469
895.769	3447
895.891	3507
896.012	3481
896.134	3450
896.255	3431
896.376	3420
896.498	3401
896.619	3454
896.74	3401
896.861	3466
896.982	3747
897.103	3896
897.224	3641
897.345	3561
897.466	3458
897.587	3538
897.708	3705
897.828	3584
897.949	3477
898.07	3359
898.19	3439
898.311	3644
898.431	3462
898.552	3564
898.672	3625
898.792	3625
898.913	3534
899.033	3428
899.153	3340
899.273	3279
899.393	3310
899.513	3344
899.633	3355
899.753	3378
899.873	3370
899.993	3428
900.113	3386
900.232	3401
900.352	3397
900.472	3317
900.591	3275
900.711	3348
900.83	3264
900.95	3466
901.069	3523
901.189	3355
901.308	3214
901.427	3138
901.546	3230
901.665	3306
901.784	3355
901.904	3207
902.023	3154
902.141	3051
902.26	3036
902.379	3150
902.498	3127
902.617	3089
902.735	3214
902.854	3245
902.973	3245
903.091	3093
903.21	3100
903.328	3157
903.446	3161
903.565	3116
903.683	3214
903.801	3157
903.919	3268
904.038	3336
904.156	3207
904.274	3336
904.392	3298
904.51	3325
904.627	3370
904.745	3500
904.863	3515
904.981	3275
905.098	3253
905.216	3249
905.334	3291
905.451	3340
905.569	3310
905.686	3481
905.803	3485
905.921	3317
906.038	3435
906.155	3378
906.272	3306
906.389	3317
906.506	3253
906.623	3294
906.74	3264
906.857	3245
906.974	3233
907.091	3496
907.208	3568
907.324	3519
907.441	3435
907.557	3226
907.674	3275
907.79	3207
907.907	3317
908.023	3405
908.139	3382
908.256	3348
908.372	3447
908.488	3355
908.604	3294
908.72	3291
908.836	3298
908.952	3344
909.068	3374
909.184	3526
909.3	3416
909.415	3534
909.531	3504
909.647	3306
909.762	3332
909.878	3260
909.993	3367
910.108	3367
910.224	3332
910.339	3443
910.454	3370
910.57	3298
910.685	3294
910.8	3599
910.915	3542
911.03	3450
911.145	3332
911.259	3268
911.374	3359
911.489	3317
911.604	3249
911.718	3108
911.833	3203
911.947	3089
912.062	3005
912.176	3211
912.291	3245
912.405	3188
912.519	3473
912.633	3500
912.748	3397
912.862	3313
912.976	3199
913.09	3093
913.204	3157
913.318	3249
913.431	3370
913.545	3378
913.659	3481
913.772	3378
913.886	3245
914	3256
914.113	3397
914.226	3473
914.34	3401
914.453	3222
914.566	3473
914.68	3283
914.793	3359
914.906	3180
915.019	3138
915.132	3112
915.245	3188
915.358	3241
915.47	3260
915.583	3306
915.696	3332
915.809	3454
915.921	3469
916.034	3249
916.146	3294
916.259	3256
916.371	3405
916.483	3397
916.595	3313
916.708	3351
916.82	3374
916.932	3363
917.044	3367
917.156	3351
917.268	3291
917.38	3325
917.491	3306
917.603	3397
917.715	3496
917.826	3523
917.938	3416
918.049	3344
918.161	3428
918.272	3599
918.384	3618
918.495	3534
918.606	3348
918.717	3294
918.828	3405
918.939	3420
919.05	3306
919.161	3424
919.272	3218
919.383	3306
919.494	3530
919.604	3743
919.715	3523
919.826	3412
919.936	3511
920.047	3591
920.157	3603
920.267	3816
920.378	3648
920.488	3629
920.598	3816
920.708	3972
920.818	3869
920.928	3838
921.038	4063
921.148	4006
921.258	3743
921.368	3679
921.477	3599
921.587	3568
921.697	3500
921.806	3606
921.916	3523
922.025	3367
922.134	3393
922.244	3321
922.353	3485
922.462	3264
922.571	3253
922.68	3100
922.789	3157
922.898	3176
923.007	3108
923.116	3218
923.224	3184
923.333	3211
923.442	3135
923.55	3142
923.659	3150
923.767	3260
923.876	3119
923.984	3260
924.092	3157
924.201	3272
924.309	3272
924.417	3310
924.525	3237
924.633	3218
924.741	4006
924.849	3058
924.956	3294
925.064	3074
925.172	3066
925.279	3154
925.387	3180
925.494	3237
925.602	3359
925.709	3336
925.816	3169
925.924	3329
926.031	3409
926.138	3329
926.245	3355
926.352	3294
926.459	3435
926.566	3492
926.673	3329
926.779	3268
926.886	3264
926.993	3207
927.099	3180
927.206	3112
927.312	3146
927.419	3260
927.525	3245
927.631	3302
927.737	3169
927.843	3154
927.95	3070
928.056	3157
928.162	3173
928.267	3260
928.373	3827
928.479	3325
928.585	3093
928.69	3256
928.796	3294
928.901	3169
929.007	3070
929.112	3203
929.218	3256
929.323	3150
929.428	3157
929.533	3348
929.638	3165
929.743	3188
929.848	3279
929.953	3203
930.058	3176
930.163	2986
930.267	3081
930.372	3218
930.477	3051
930.581	3310
930.685	3214
930.79	3058
930.894	3135
930.998	3119
931.103	3306
931.207	3009
931.311	2937
931.415	2982
931.519	2815
931.623	2864
