Data from test_V78500241_1147.txt Node
Date: Fri Mar 25 16:23:08 CST 2022
User: usil
Spectrometer: V785-0024
Trigger mode: 0
Integration Time (sec): 4.000000E-1
Scans to average: 1
Nonlinearity correction enabled: false
Boxcar width: 0
Storing dark spectrum: false
XAxis mode: Wavelengths
Number of Pixels in Spectrum: 1024
>>>>>Begin Spectral Data<<<<<
801.071	2906
801.214	2963
801.356	2842
801.499	2883
801.641	2895
801.783	2899
801.926	3032
802.068	2979
802.211	3013
802.353	2986
802.496	2937
802.638	2975
802.78	2994
802.923	3081
803.065	3005
803.208	2868
803.35	2933
803.492	2929
803.635	2933
803.777	2746
803.919	2864
804.061	3188
804.204	2967
804.346	2895
804.488	2796
804.63	2956
804.773	2883
804.915	2918
805.057	3081
805.199	2918
805.341	2971
805.483	3020
805.626	3001
805.768	2975
805.91	3104
806.052	3081
806.194	3005
806.336	3192
806.478	3024
806.62	2948
806.762	2941
806.904	3062
807.046	3142
807.188	3001
807.33	2883
807.472	2994
807.614	2864
807.756	2994
807.898	2880
808.04	2849
808.182	2933
808.324	2922
808.465	2902
808.607	2876
808.749	2773
808.891	2788
809.033	2937
809.174	2937
809.316	2891
809.458	2883
809.6	2758
809.741	2773
809.883	2739
810.025	2872
810.166	2842
810.308	2842
810.45	2845
810.591	2746
810.733	2712
810.875	2823
811.016	2716
811.158	2762
811.299	2781
811.441	2895
811.582	2880
811.724	2826
811.865	2826
812.007	2899
812.148	2876
812.29	2807
812.431	2872
812.573	2906
812.714	2952
812.855	3051
812.997	3039
813.138	3093
813.279	3001
813.421	2944
813.562	2952
813.703	2849
813.845	2891
813.986	2731
814.127	2720
814.268	2819
814.41	2823
814.551	2796
814.692	2895
814.833	2788
814.974	2876
815.115	2902
815.256	2804
815.397	2785
815.539	2838
815.68	2735
815.821	2777
815.962	2922
816.103	2944
816.244	2872
816.385	2864
816.526	2952
816.666	2902
816.807	2746
816.948	2876
817.089	2906
817.23	2819
817.371	2777
817.512	2788
817.653	2819
817.793	2845
817.934	2883
818.075	2937
818.216	2967
818.356	3005
818.497	2880
818.638	2781
818.778	2807
818.919	2781
819.06	2724
819.2	2849
819.341	2826
819.481	2781
819.622	2929
819.762	3112
819.903	3020
820.043	2929
820.184	2883
820.324	2868
820.465	2982
820.605	3036
820.746	3009
820.886	2944
821.026	3112
821.167	3142
821.307	3203
821.447	3233
821.588	3207
821.728	3184
821.868	3188
822.008	3058
822.149	3169
822.289	3199
822.429	3051
822.569	3070
822.709	3142
822.849	3024
822.99	3020
823.13	3100
823.27	3195
823.41	3081
823.55	3123
823.69	3146
823.83	3176
823.97	3119
824.11	2948
824.25	3001
824.389	3047
824.529	3062
824.669	3028
824.809	3161
824.949	3264
825.089	3169
825.228	3119
825.368	2994
825.508	2944
825.648	2929
825.787	2967
825.927	3036
826.067	2933
826.206	2948
826.346	3055
826.485	3070
826.625	3131
826.765	3245
826.904	3195
827.044	2986
827.183	2941
827.323	2864
827.462	2971
827.601	2933
827.741	2960
827.88	2975
828.02	2830
828.159	3001
828.298	3020
828.437	3112
828.577	3085
828.716	3237
828.855	3070
828.994	2933
829.134	2883
829.273	2986
829.412	2868
829.551	2883
829.69	2918
829.829	3001
829.968	3138
830.107	3039
830.246	3020
830.385	2933
830.524	2899
830.663	2853
830.802	2739
830.941	2708
831.08	2663
831.219	2781
831.357	2773
831.496	2956
831.635	2712
831.774	2670
831.913	2701
832.051	2579
832.19	2583
832.329	2735
832.467	2583
832.606	2541
832.744	2617
832.883	2598
833.022	2621
833.16	2678
833.299	2746
833.437	2739
833.576	2720
833.714	2762
833.852	2796
833.991	2804
834.129	2883
834.267	2876
834.406	2853
834.544	2906
834.682	2933
834.821	2895
834.959	3062
835.097	2929
835.235	3081
835.373	3032
835.511	3028
835.65	3032
835.788	2956
835.926	2887
836.064	2872
836.202	2849
836.34	3131
836.478	3173
836.615	3104
836.753	3131
836.891	3260
837.029	3211
837.167	3199
837.305	3081
837.443	3119
837.58	2963
837.718	3157
837.856	3131
837.993	3058
838.131	3161
838.269	3097
838.406	3138
838.544	3127
838.681	2956
838.819	2986
838.956	2864
839.094	2857
839.231	2948
839.369	3051
839.506	3401
839.643	3256
839.781	3036
839.918	2998
840.055	3100
840.193	3081
840.33	3146
840.467	3127
840.604	3199
840.742	3397
840.879	3077
841.016	3055
841.153	3154
841.29	3336
841.427	3348
841.564	3294
841.701	3317
841.838	3272
841.975	3207
842.112	3279
842.249	3116
842.385	3051
842.522	3291
842.659	3104
842.796	3146
842.933	3131
843.069	3074
843.206	3077
843.343	3195
843.479	3119
843.616	3192
843.752	2937
843.889	2914
844.025	3116
844.162	2887
844.298	3081
844.435	2979
844.571	2910
844.708	3089
844.844	3226
844.98	3264
845.117	3218
845.253	3070
845.389	3055
845.525	3154
845.661	3119
845.798	3074
845.934	3184
846.07	3074
846.206	3245
846.342	3306
846.478	3260
846.614	3154
846.75	3081
846.886	3077
847.022	3306
847.158	3180
847.294	3237
847.429	3279
847.565	3192
847.701	3538
847.837	3036
847.972	2998
848.108	3176
848.244	3188
848.379	3024
848.515	2952
848.65	2979
848.786	2956
848.921	3032
849.057	3119
849.192	3188
849.328	3093
849.463	3119
849.598	3062
849.734	3093
849.869	3009
850.004	2941
850.14	2986
850.275	2910
850.41	2876
850.545	2910
850.68	2971
850.815	3017
850.95	3001
851.085	3241
851.22	3119
851.355	3055
851.49	3001
851.625	3055
851.76	3051
851.895	2929
852.03	2929
852.165	3074
852.299	3135
852.434	3218
852.569	3161
852.703	3188
852.838	3211
852.973	3378
853.107	3325
853.242	3146
853.376	3138
853.511	3047
853.645	3066
853.78	3260
853.914	3131
854.048	3195
854.183	3097
854.317	3161
854.451	3336
854.585	3154
854.72	3108
854.854	3226
854.988	3119
855.122	3157
855.256	2975
855.39	3173
855.524	3264
855.658	3199
855.792	3161
855.926	3222
856.06	3241
856.194	3283
856.327	3150
856.461	3104
856.595	3142
856.729	3104
856.862	3241
856.996	3199
857.13	3207
857.263	3256
857.397	3302
857.53	3173
857.664	3214
857.797	3256
857.931	3283
858.064	3150
858.197	3260
858.331	3138
858.464	3093
858.597	3001
858.731	3150
858.864	3104
858.997	3089
859.13	3146
859.263	3203
859.396	3214
859.529	3154
859.662	3089
859.795	3070
859.928	3112
860.061	3272
860.194	3298
860.327	3142
860.46	3119
860.592	3264
860.725	3294
860.858	3245
860.99	3100
861.123	3116
861.256	3066
861.388	3192
861.521	3759
861.653	3036
861.786	3020
861.918	3017
862.05	3070
862.183	3119
862.315	3165
862.447	3226
862.58	3100
862.712	3005
862.844	2925
862.976	3028
863.108	3020
863.24	3313
863.372	2910
863.504	3009
863.636	2967
863.768	3036
863.9	2994
864.032	2918
864.164	2956
864.296	3070
864.428	3131
864.559	3112
864.691	3093
864.823	3104
864.954	3043
865.086	3058
865.217	3020
865.349	2975
865.48	3039
865.612	3051
865.743	3157
865.875	2982
866.006	2982
866.137	2998
866.269	2963
866.4	2948
866.531	2922
866.662	2906
866.793	2910
866.924	2925
867.055	2952
867.186	2960
867.317	2895
867.448	2853
867.579	2853
867.71	2887
867.841	2811
867.972	2914
868.103	2910
868.233	2891
868.364	2887
868.495	2922
868.625	3085
868.756	3199
868.886	2998
869.017	3024
869.147	3169
869.278	3157
869.408	3081
869.539	3032
869.669	3119
869.799	3066
869.929	3150
870.06	3104
870.19	3340
870.32	3275
870.45	3298
870.58	3424
870.71	3462
870.84	3458
870.97	3313
871.1	3268
871.23	3504
871.36	3466
871.489	3420
871.619	3405
871.749	3397
871.879	3469
872.008	3488
872.138	3378
872.267	3359
872.397	3131
872.526	3108
872.656	3024
872.785	3131
872.915	3279
873.044	3325
873.173	3275
873.303	3256
873.432	3245
873.561	3302
873.69	3195
873.819	3176
873.948	3211
874.077	3146
874.206	3093
874.335	3093
874.464	3226
874.593	3355
874.722	3294
874.851	3370
874.979	3344
875.108	3329
875.237	3218
875.365	3169
875.494	3203
875.623	3287
875.751	3074
875.88	3142
876.008	3222
876.136	3256
876.265	3332
876.393	3530
876.521	3435
876.65	3378
876.778	3313
876.906	3291
877.034	3207
877.162	3222
877.29	3192
877.418	3294
877.546	3226
877.674	3291
877.802	3313
877.93	3245
878.058	3180
878.185	3112
878.313	3218
878.441	3211
878.568	3116
878.696	3169
878.824	3264
878.951	3329
879.079	3477
879.206	3618
879.333	3458
879.461	3348
879.588	3382
879.715	3519
879.842	3603
879.97	3382
880.097	3203
880.224	3093
880.351	3207
880.478	3230
880.605	3188
880.732	3214
880.859	3500
880.986	3336
881.112	3317
881.239	3226
881.366	3093
881.493	3055
881.619	3058
881.746	3077
881.872	3104
881.999	3154
882.125	3192
882.252	3283
882.378	3336
882.505	3504
882.631	3272
882.757	3203
882.883	3211
883.01	3256
883.136	3169
883.262	3116
883.388	3112
883.514	3321
883.64	3374
883.766	3340
883.892	3245
884.018	3230
884.143	3370
884.269	3538
884.395	3218
884.52	3192
884.646	3192
884.772	3104
884.897	3085
885.023	3245
885.148	3363
885.274	3393
885.399	3363
885.524	3275
885.65	3253
885.775	3325
885.9	3298
886.025	3435
886.15	3367
886.275	3313
886.4	3272
886.525	3329
886.65	3298
886.775	3306
886.9	3534
887.025	3633
887.149	3431
887.274	3294
887.399	3188
887.523	3222
887.648	3233
887.773	3249
887.897	3405
888.021	3409
888.146	3317
888.27	3439
888.395	3568
888.519	3393
888.643	3481
888.767	3473
888.891	3272
889.015	3264
889.139	3302
889.263	3283
889.387	3405
889.511	3523
889.635	3469
889.759	3283
889.883	3336
890.006	3397
890.13	3500
890.254	3279
890.377	3317
890.501	3192
890.624	3211
890.748	3283
890.871	3184
890.995	3131
891.118	3093
891.241	3233
891.364	3237
891.488	3321
891.611	3233
891.734	3233
891.857	3317
891.98	3241
892.103	3374
892.226	3310
892.349	3188
892.471	3154
892.594	3218
892.717	3279
892.839	3283
892.962	3348
893.085	3340
893.207	3363
893.33	3146
893.452	3188
893.575	3329
893.697	3256
893.819	3492
893.941	3477
894.064	3458
894.186	3287
894.308	3275
894.43	3439
894.552	3561
894.674	3458
894.796	3275
894.918	3344
895.04	3313
895.161	3443
895.283	3412
895.405	3321
895.526	3378
895.648	3389
895.769	3378
895.891	3462
896.012	3469
896.134	3500
896.255	3424
896.376	3409
896.498	3401
896.619	3435
896.74	3386
896.861	3409
896.982	3705
897.103	3854
897.224	3564
897.345	3504
897.466	3447
897.587	3519
897.708	3622
897.828	3572
897.949	3435
898.07	3321
898.19	3386
898.311	3564
898.431	3420
898.552	3523
898.672	3599
898.792	3572
898.913	3492
899.033	3424
899.153	3298
899.273	3230
899.393	3256
899.513	3325
899.633	3336
899.753	3367
899.873	3310
899.993	3435
900.113	3351
900.232	3405
900.352	3332
900.472	3287
900.591	3188
900.711	3294
900.83	3256
900.95	3435
901.069	3526
901.189	3351
901.308	3184
901.427	3154
901.546	3199
901.665	3317
901.784	3287
901.904	3226
902.023	3157
902.141	3024
902.26	3005
902.379	3142
902.498	3081
902.617	3047
902.735	3203
902.854	3294
902.973	3173
903.091	3047
903.21	3047
903.328	3154
903.446	3100
903.565	3077
903.683	3211
903.801	3138
903.919	3230
904.038	3279
904.156	3203
904.274	3291
904.392	3283
904.51	3291
904.627	3363
904.745	3439
904.863	3477
904.981	3291
905.098	3184
905.216	3245
905.334	3294
905.451	3310
905.569	3332
905.686	3469
905.803	3466
905.921	3287
906.038	3412
906.155	3344
906.272	3359
906.389	3374
906.506	3211
906.623	3245
906.74	3272
906.857	3199
906.974	3272
907.091	3462
907.208	3538
907.324	3454
907.441	3401
907.557	3230
907.674	3233
907.79	3237
907.907	3298
908.023	3397
908.139	3367
908.256	3325
908.372	3409
908.488	3367
908.604	3287
908.72	3230
908.836	3256
908.952	3237
909.068	3348
909.184	3466
909.3	3428
909.415	3492
909.531	3485
909.647	3306
909.762	3313
909.878	3249
909.993	3367
910.108	3325
910.224	3336
910.339	3401
910.454	3348
910.57	3294
910.685	3256
910.8	3614
910.915	3564
911.03	3443
911.145	3264
911.259	3291
911.374	3348
911.489	3283
911.604	3222
911.718	3131
911.833	3135
911.947	3062
912.062	2990
912.176	3184
912.291	3184
912.405	3211
912.519	3439
912.633	3450
912.748	3317
912.862	3306
912.976	3173
913.09	3028
913.204	3176
913.318	3230
913.431	3332
913.545	3355
913.659	3424
913.772	3348
913.886	3241
914	3211
914.113	3359
914.226	3431
914.34	3374
914.453	3241
914.566	3393
914.68	3283
914.793	3306
914.906	3154
915.019	3123
915.132	3089
915.245	3150
915.358	3218
915.47	3245
915.583	3237
915.696	3275
915.809	3405
915.921	3382
916.034	3306
916.146	3218
916.259	3272
916.371	3351
916.483	3401
916.595	3294
916.708	3340
916.82	3336
916.932	3336
917.044	3382
917.156	3332
917.268	3287
917.38	3275
917.491	3317
917.603	3389
917.715	3462
917.826	3428
917.938	3382
918.049	3272
918.161	3431
918.272	3549
918.384	3599
918.495	3496
918.606	3306
918.717	3275
918.828	3348
918.939	3420
919.05	3329
919.161	3370
919.272	3226
919.383	3283
919.494	3473
919.604	3671
919.715	3485
919.826	3374
919.936	3416
920.047	3606
920.157	3557
920.267	3774
920.378	3610
920.488	3576
920.598	3781
920.708	3934
920.818	3846
920.928	3797
921.038	4044
921.148	4025
921.258	3698
921.368	3671
921.477	3595
921.587	3542
921.697	3431
921.806	3618
921.916	3538
922.025	3355
922.134	3374
922.244	3317
922.353	3397
922.462	3283
922.571	3214
922.68	3131
922.789	3058
922.898	3138
923.007	3093
923.116	3230
923.224	3127
923.333	3184
923.442	3074
923.55	3112
923.659	3127
923.767	3253
923.876	3108
923.984	3264
924.092	3104
924.201	3199
924.309	3241
924.417	3249
924.525	3180
924.633	3275
924.741	3979
924.849	3055
924.956	3272
925.064	3089
925.172	3036
925.279	3108
925.387	3222
925.494	3192
925.602	3332
925.709	3306
925.816	3222
925.924	3253
926.031	3416
926.138	3302
926.245	3363
926.352	3264
926.459	3409
926.566	3473
926.673	3332
926.779	3256
926.886	3233
926.993	3135
927.099	3104
927.206	3077
927.312	3135
927.419	3241
927.525	3207
927.631	3272
927.737	3173
927.843	3108
927.95	3013
928.056	3123
928.162	3116
928.267	3253
928.373	3911
928.479	3306
928.585	3047
928.69	3230
928.796	3268
928.901	3184
929.007	3070
929.112	3188
929.218	3180
929.323	3131
929.428	3165
929.533	3306
929.638	3116
929.743	3192
929.848	3268
929.953	3230
930.058	3127
930.163	3005
930.267	3043
930.372	3184
930.477	3024
930.581	3359
930.685	3173
930.79	3036
930.894	3119
930.998	3070
931.103	3294
931.207	2941
931.311	2967
931.415	2914
931.519	2777
931.623	2773
