Data from test_V78500241_1207.txt Node
Date: Fri Mar 25 16:23:33 CST 2022
User: usil
Spectrometer: V785-0024
Trigger mode: 0
Integration Time (sec): 4.000000E-1
Scans to average: 1
Nonlinearity correction enabled: false
Boxcar width: 0
Storing dark spectrum: false
XAxis mode: Wavelengths
Number of Pixels in Spectrum: 1024
>>>>>Begin Spectral Data<<<<<
801.071	2937
801.214	2944
801.356	2891
801.499	2937
801.641	2906
801.783	2914
801.926	3093
802.068	3013
802.211	2963
802.353	3081
802.496	2967
802.638	3036
802.78	3066
802.923	3112
803.065	3051
803.208	2914
803.35	2956
803.492	2902
803.635	2948
803.777	2754
803.919	2910
804.061	3237
804.204	2990
804.346	2979
804.488	2864
804.63	3017
804.773	2933
804.915	2960
805.057	3093
805.199	2956
805.341	2948
805.483	3074
805.626	3001
805.768	2998
805.91	3104
806.052	3165
806.194	3066
806.336	3245
806.478	3055
806.62	2971
806.762	3013
806.904	3032
807.046	3222
807.188	3009
807.33	2933
807.472	3001
807.614	2941
807.756	3017
807.898	2948
808.04	2925
808.182	2986
808.324	2967
808.465	2933
808.607	2902
808.749	2842
808.891	2880
809.033	2994
809.174	2963
809.316	2902
809.458	2914
809.6	2788
809.741	2773
809.883	2796
810.025	2899
810.166	2899
810.308	2838
810.45	2887
810.591	2807
810.733	2815
810.875	2845
811.016	2785
811.158	2785
811.299	2819
811.441	2937
811.582	2929
811.724	2845
811.865	2830
812.007	2960
812.148	2887
812.29	2864
812.431	2925
812.573	3013
812.714	3013
812.855	3066
812.997	3058
813.138	3154
813.279	3009
813.421	2979
813.562	2948
813.703	2887
813.845	2956
813.986	2788
814.127	2731
814.268	2857
814.41	2872
814.551	2826
814.692	2876
814.833	2819
814.974	2872
815.115	2960
815.256	2849
815.397	2811
815.539	2887
815.68	2788
815.821	2819
815.962	2925
816.103	2925
816.244	2895
816.385	2883
816.526	2986
816.666	2925
816.807	2769
816.948	2899
817.089	2929
817.23	2876
817.371	2769
817.512	2853
817.653	2883
817.793	2807
817.934	2910
818.075	2982
818.216	3032
818.356	3032
818.497	2918
818.638	2788
818.778	2830
818.919	2773
819.06	2739
819.2	2906
819.341	2853
819.481	2811
819.622	2944
819.762	3100
819.903	3066
820.043	2971
820.184	2902
820.324	2929
820.465	3017
820.605	2990
820.746	3039
820.886	2948
821.026	3093
821.167	3176
821.307	3283
821.447	3298
821.588	3249
821.728	3207
821.868	3207
822.008	3062
822.149	3199
822.289	3233
822.429	3104
822.569	3100
822.709	3165
822.849	3066
822.99	3058
823.13	3161
823.27	3195
823.41	3127
823.55	3161
823.69	3173
823.83	3176
823.97	3116
824.11	3039
824.25	3001
824.389	3058
824.529	3154
824.669	3051
824.809	3192
824.949	3291
825.089	3249
825.228	3173
825.368	3020
825.508	2956
825.648	3001
825.787	3020
825.927	2998
826.067	3001
826.206	2967
826.346	3028
826.485	3066
826.625	3116
826.765	3230
826.904	3237
827.044	2967
827.183	2941
827.323	2891
827.462	3028
827.601	2937
827.741	2929
827.88	2971
828.02	2842
828.159	2998
828.298	3047
828.437	3104
828.577	3066
828.716	3249
828.855	3097
828.994	2899
829.134	2918
829.273	2899
829.412	2906
829.551	2887
829.69	2876
829.829	3005
829.968	3138
830.107	3058
830.246	3051
830.385	2918
830.524	2914
830.663	2826
830.802	2773
830.941	2655
831.08	2640
831.219	2769
831.357	2773
831.496	2960
831.635	2746
831.774	2659
831.913	2667
832.051	2594
832.19	2617
832.329	2663
832.467	2522
832.606	2492
832.744	2587
832.883	2583
833.022	2598
833.16	2682
833.299	2693
833.437	2697
833.576	2686
833.714	2754
833.852	2746
833.991	2758
834.129	2853
834.267	2876
834.406	2762
834.544	2857
834.682	2872
834.821	2845
834.959	3074
835.097	2914
835.235	3043
835.373	2986
835.511	3013
835.65	2975
835.788	2960
835.926	2834
836.064	2823
836.202	2849
836.34	3058
836.478	3131
836.615	3066
836.753	3169
836.891	3226
837.029	3161
837.167	3104
837.305	3070
837.443	3074
837.58	2967
837.718	3131
837.856	3047
837.993	3039
838.131	3138
838.269	3112
838.406	3131
838.544	3089
838.681	2956
838.819	2937
838.956	2842
839.094	2849
839.231	2883
839.369	3020
839.506	3378
839.643	3237
839.781	2990
839.918	2994
840.055	3074
840.193	3047
840.33	3077
840.467	3123
840.604	3146
840.742	3416
840.879	3055
841.016	3058
841.153	3138
841.29	3332
841.427	3291
841.564	3279
841.701	3302
841.838	3245
841.975	3154
842.112	3222
842.249	3104
842.385	3070
842.522	3279
842.659	3104
842.796	3062
842.933	3093
843.069	3070
843.206	3062
843.343	3199
843.479	3127
843.616	3131
843.752	2891
843.889	2861
844.025	3047
844.162	2880
844.298	3093
844.435	2918
844.571	2952
844.708	3089
844.844	3173
844.98	3256
845.117	3203
845.253	3051
845.389	3028
845.525	3093
845.661	3074
845.798	3005
845.934	3116
846.07	3036
846.206	3214
846.342	3336
846.478	3253
846.614	3089
846.75	3058
846.886	3013
847.022	3233
847.158	3123
847.294	3211
847.429	3253
847.565	3184
847.701	3466
847.837	2998
847.972	3001
848.108	3169
848.244	3127
848.379	3005
848.515	2944
848.65	2941
848.786	2941
848.921	3032
849.057	3116
849.192	3127
849.328	3047
849.463	3108
849.598	3020
849.734	3009
849.869	3009
850.004	2933
850.14	2967
850.275	2925
850.41	2826
850.545	2902
850.68	2918
850.815	2998
850.95	2994
851.085	3241
851.22	3146
851.355	3047
851.49	2963
851.625	3047
851.76	3028
851.895	2982
852.03	2937
852.165	3085
852.299	3100
852.434	3188
852.569	3184
852.703	3195
852.838	3260
852.973	3332
853.107	3359
853.242	3218
853.376	3127
853.511	3009
853.645	3074
853.78	3287
853.914	3176
854.048	3154
854.183	3154
854.317	3188
854.451	3370
854.585	3165
854.72	3131
854.854	3237
854.988	3077
855.122	3138
855.256	3047
855.39	3180
855.524	3294
855.658	3214
855.792	3207
855.926	3214
856.06	3260
856.194	3351
856.327	3222
856.461	3123
856.595	3112
856.729	3142
856.862	3272
856.996	3218
857.13	3241
857.263	3264
857.397	3294
857.53	3146
857.664	3253
857.797	3264
857.931	3264
858.064	3218
858.197	3253
858.331	3161
858.464	3116
858.597	3089
858.731	3188
858.864	3157
858.997	3108
859.13	3176
859.263	3211
859.396	3245
859.529	3131
859.662	3112
859.795	3062
859.928	3157
860.061	3310
860.194	3298
860.327	3192
860.46	3093
860.592	3272
860.725	3332
860.858	3253
860.99	3100
861.123	3089
861.256	3074
861.388	3150
861.521	3778
861.653	3028
861.786	3017
861.918	3013
862.05	3104
862.183	3127
862.315	3169
862.447	3264
862.58	3093
862.712	2994
862.844	2922
862.976	3066
863.108	3032
863.24	3435
863.372	2918
863.504	2998
863.636	3009
863.768	3070
863.9	3017
864.032	2944
864.164	2960
864.296	3020
864.428	3108
864.559	3104
864.691	3116
864.823	3070
864.954	3066
865.086	3047
865.217	3036
865.349	2971
865.48	3001
865.612	3055
865.743	3173
865.875	3032
866.006	2956
866.137	2998
866.269	2982
866.4	2956
866.531	2971
866.662	2906
866.793	2952
866.924	2899
867.055	3028
867.186	2952
867.317	2910
867.448	2868
867.579	2864
867.71	2872
867.841	2834
867.972	2952
868.103	2952
868.233	2933
868.364	2883
868.495	2937
868.625	3081
868.756	3226
868.886	3009
869.017	3039
869.147	3199
869.278	3180
869.408	3077
869.539	3058
869.669	3112
869.799	3066
869.929	3207
870.06	3119
870.19	3298
870.32	3294
870.45	3317
870.58	3409
870.71	3511
870.84	3462
870.97	3344
871.1	3294
871.23	3481
871.36	3500
871.489	3389
871.619	3450
871.749	3454
871.879	3481
872.008	3507
872.138	3344
872.267	3344
872.397	3169
872.526	3142
872.656	3032
872.785	3123
872.915	3306
873.044	3336
873.173	3279
873.303	3283
873.432	3298
873.561	3245
873.69	3222
873.819	3184
873.948	3214
874.077	3138
874.206	3024
874.335	3108
874.464	3249
874.593	3367
874.722	3272
874.851	3431
874.979	3370
875.108	3363
875.237	3199
875.365	3150
875.494	3180
875.623	3294
875.751	3100
875.88	3119
876.008	3226
876.136	3203
876.265	3424
876.393	3530
876.521	3412
876.65	3466
876.778	3306
876.906	3272
877.034	3253
877.162	3260
877.29	3222
877.418	3279
877.546	3245
877.674	3279
877.802	3260
877.93	3230
878.058	3188
878.185	3081
878.313	3233
878.441	3222
878.568	3112
878.696	3184
878.824	3272
878.951	3298
879.079	3481
879.206	3591
879.333	3431
879.461	3298
879.588	3386
879.715	3504
879.842	3633
879.97	3416
880.097	3230
880.224	3138
880.351	3253
880.478	3230
880.605	3218
880.732	3211
880.859	3496
880.986	3348
881.112	3294
881.239	3222
881.366	3119
881.493	3070
881.619	3055
881.746	3123
881.872	3070
881.999	3119
882.125	3169
882.252	3249
882.378	3317
882.505	3454
882.631	3268
882.757	3199
882.883	3249
883.01	3218
883.136	3207
883.262	3135
883.388	3123
883.514	3332
883.64	3428
883.766	3329
883.892	3233
884.018	3253
884.143	3431
884.269	3538
884.395	3256
884.52	3161
884.646	3222
884.772	3165
884.897	3119
885.023	3218
885.148	3348
885.274	3435
885.399	3374
885.524	3272
885.65	3310
885.775	3351
885.9	3268
886.025	3466
886.15	3374
886.275	3313
886.4	3245
886.525	3359
886.65	3279
886.775	3298
886.9	3515
887.025	3641
887.149	3409
887.274	3256
887.399	3188
887.523	3245
887.648	3176
887.773	3260
887.897	3374
888.021	3443
888.146	3332
888.27	3450
888.395	3557
888.519	3424
888.643	3458
888.767	3462
888.891	3344
889.015	3249
889.139	3313
889.263	3287
889.387	3443
889.511	3507
889.635	3492
889.759	3283
889.883	3306
890.006	3439
890.13	3492
890.254	3310
890.377	3359
890.501	3264
890.624	3203
890.748	3367
890.871	3233
890.995	3112
891.118	3066
891.241	3203
891.364	3268
891.488	3313
891.611	3184
891.734	3256
891.857	3321
891.98	3272
892.103	3306
892.226	3283
892.349	3253
892.471	3146
892.594	3275
892.717	3310
892.839	3287
892.962	3283
893.085	3382
893.207	3279
893.33	3184
893.452	3218
893.575	3336
893.697	3264
893.819	3462
893.941	3553
894.064	3485
894.186	3272
894.308	3287
894.43	3405
894.552	3580
894.674	3466
894.796	3306
894.918	3321
895.04	3287
895.161	3450
895.283	3412
895.405	3370
895.526	3386
895.648	3443
895.769	3431
895.891	3447
896.012	3492
896.134	3477
896.255	3374
896.376	3378
896.498	3355
896.619	3424
896.74	3359
896.861	3416
896.982	3679
897.103	3838
897.224	3629
897.345	3534
897.466	3462
897.587	3500
897.708	3656
897.828	3606
897.949	3450
898.07	3393
898.19	3389
898.311	3648
898.431	3485
898.552	3477
898.672	3580
898.792	3587
898.913	3538
899.033	3420
899.153	3378
899.273	3253
899.393	3325
899.513	3378
899.633	3340
899.753	3340
899.873	3336
899.993	3397
900.113	3382
900.232	3382
900.352	3351
900.472	3294
900.591	3222
900.711	3294
900.83	3222
900.95	3454
901.069	3485
901.189	3351
901.308	3214
901.427	3154
901.546	3214
901.665	3336
901.784	3329
901.904	3199
902.023	3135
902.141	3024
902.26	3024
902.379	3146
902.498	3108
902.617	3093
902.735	3218
902.854	3237
902.973	3233
903.091	3058
903.21	3081
903.328	3138
903.446	3104
903.565	3108
903.683	3230
903.801	3116
903.919	3245
904.038	3298
904.156	3192
904.274	3287
904.392	3264
904.51	3313
904.627	3351
904.745	3447
904.863	3485
904.981	3279
905.098	3180
905.216	3218
905.334	3332
905.451	3317
905.569	3321
905.686	3412
905.803	3454
905.921	3313
906.038	3428
906.155	3355
906.272	3279
906.389	3313
906.506	3253
906.623	3253
906.74	3298
906.857	3218
906.974	3245
907.091	3458
907.208	3599
907.324	3496
907.441	3401
907.557	3233
907.674	3249
907.79	3264
907.907	3313
908.023	3378
908.139	3367
908.256	3325
908.372	3412
908.488	3351
908.604	3272
908.72	3272
908.836	3287
908.952	3260
909.068	3313
909.184	3492
909.3	3424
909.415	3504
909.531	3473
909.647	3268
909.762	3294
909.878	3317
909.993	3382
910.108	3340
910.224	3329
910.339	3443
910.454	3321
910.57	3298
910.685	3260
910.8	3595
910.915	3542
911.03	3424
911.145	3241
911.259	3279
911.374	3306
911.489	3237
911.604	3256
911.718	3138
911.833	3195
911.947	3043
912.062	3013
912.176	3173
912.291	3218
912.405	3218
912.519	3454
912.633	3466
912.748	3317
912.862	3256
912.976	3173
913.09	3093
913.204	3142
913.318	3230
913.431	3340
913.545	3355
913.659	3412
913.772	3344
913.886	3226
914	3195
914.113	3351
914.226	3431
914.34	3382
914.453	3241
914.566	3397
914.68	3237
914.793	3306
914.906	3154
915.019	3135
915.132	3081
915.245	3154
915.358	3222
915.47	3268
915.583	3253
915.696	3306
915.809	3378
915.921	3393
916.034	3279
916.146	3283
916.259	3222
916.371	3382
916.483	3393
916.595	3298
916.708	3340
916.82	3359
916.932	3359
917.044	3313
917.156	3386
917.268	3272
917.38	3325
917.491	3294
917.603	3363
917.715	3477
917.826	3462
917.938	3397
918.049	3279
918.161	3416
918.272	3603
918.384	3526
918.495	3473
918.606	3317
918.717	3287
918.828	3382
918.939	3428
919.05	3298
919.161	3374
919.272	3214
919.383	3336
919.494	3485
919.604	3648
919.715	3481
919.826	3409
919.936	3466
920.047	3564
920.157	3553
920.267	3793
920.378	3591
920.488	3553
920.598	3778
920.708	4010
920.818	3800
920.928	3842
921.038	4036
921.148	4025
921.258	3713
921.368	3614
921.477	3595
921.587	3538
921.697	3469
921.806	3644
921.916	3496
922.025	3386
922.134	3378
922.244	3298
922.353	3435
922.462	3291
922.571	3237
922.68	3085
922.789	3077
922.898	3173
923.007	3135
923.116	3184
923.224	3184
923.333	3195
923.442	3131
923.55	3116
923.659	3142
923.767	3241
923.876	3116
923.984	3264
924.092	3093
924.201	3237
924.309	3207
924.417	3237
924.525	3176
924.633	3253
924.741	4029
924.849	3043
924.956	3268
925.064	3097
925.172	3112
925.279	3142
925.387	3184
925.494	3249
925.602	3363
925.709	3344
925.816	3222
925.924	3264
926.031	3412
926.138	3344
926.245	3382
926.352	3264
926.459	3389
926.566	3473
926.673	3302
926.779	3256
926.886	3264
926.993	3135
927.099	3112
927.206	3112
927.312	3100
927.419	3176
927.525	3214
927.631	3294
927.737	3097
927.843	3112
927.95	3043
928.056	3104
928.162	3150
928.267	3253
928.373	3903
928.479	3329
928.585	3081
928.69	3161
928.796	3256
928.901	3195
929.007	3039
929.112	3173
929.218	3188
929.323	3154
929.428	3165
929.533	3317
929.638	3135
929.743	3154
929.848	3291
929.953	3207
930.058	3135
930.163	2982
930.267	3036
930.372	3222
930.477	3036
930.581	3340
930.685	3199
930.79	3055
930.894	3100
930.998	3093
931.103	3294
931.207	2979
931.311	2937
931.415	2941
931.519	2746
931.623	2826
