Data from test_V78500241_1579.txt Node
Date: Fri Mar 25 16:26:08 CST 2022
User: usil
Spectrometer: V785-0024
Trigger mode: 0
Integration Time (sec): 4.000000E-1
Scans to average: 1
Nonlinearity correction enabled: false
Boxcar width: 0
Storing dark spectrum: false
XAxis mode: Wavelengths
Number of Pixels in Spectrum: 1024
>>>>>Begin Spectral Data<<<<<
801.071	2929
801.214	2937
801.356	2880
801.499	2864
801.641	2864
801.783	2922
801.926	3051
802.068	2952
802.211	3005
802.353	3055
802.496	2925
802.638	3047
802.78	3036
802.923	3085
803.065	3020
803.208	2883
803.35	2937
803.492	2956
803.635	2956
803.777	2750
803.919	2815
804.061	3218
804.204	2979
804.346	2925
804.488	2872
804.63	2963
804.773	2857
804.915	2933
805.057	3108
805.199	2960
805.341	2937
805.483	3020
805.626	2998
805.768	2933
805.91	3066
806.052	3097
806.194	3043
806.336	3188
806.478	3028
806.62	2929
806.762	2941
806.904	3062
807.046	3161
807.188	2975
807.33	2895
807.472	2990
807.614	2937
807.756	2994
807.898	2891
808.04	2861
808.182	2994
808.324	2910
808.465	2895
808.607	2895
808.749	2796
808.891	2823
809.033	2952
809.174	2952
809.316	2922
809.458	2891
809.6	2746
809.741	2766
809.883	2785
810.025	2849
810.166	2853
810.308	2823
810.45	2830
810.591	2796
810.733	2773
810.875	2826
811.016	2769
811.158	2731
811.299	2811
811.441	2891
811.582	2872
811.724	2849
811.865	2823
812.007	2948
812.148	2910
812.29	2861
812.431	2880
812.573	2952
812.714	2952
812.855	3047
812.997	3024
813.138	3089
813.279	3032
813.421	2963
813.562	2975
813.703	2838
813.845	2902
813.986	2735
814.127	2750
814.268	2811
814.41	2853
814.551	2785
814.692	2830
814.833	2830
814.974	2880
815.115	2922
815.256	2819
815.397	2834
815.539	2880
815.68	2720
815.821	2773
815.962	2944
816.103	2948
816.244	2838
816.385	2834
816.526	2975
816.666	2922
816.807	2739
816.948	2861
817.089	2963
817.23	2834
817.371	2807
817.512	2800
817.653	2845
817.793	2811
817.934	2933
818.075	2967
818.216	2967
818.356	3032
818.497	2883
818.638	2785
818.778	2804
818.919	2785
819.06	2743
819.2	2891
819.341	2792
819.481	2804
819.622	2982
819.762	3093
819.903	3017
820.043	2895
820.184	2876
820.324	2906
820.465	3036
820.605	3020
820.746	2982
820.886	2918
821.026	3089
821.167	3138
821.307	3222
821.447	3264
821.588	3241
821.728	3211
821.868	3169
822.008	3108
822.149	3169
822.289	3253
822.429	3097
822.569	3074
822.709	3157
822.849	3020
822.99	3066
823.13	3146
823.27	3188
823.41	3135
823.55	3135
823.69	3123
823.83	3180
823.97	3138
824.11	2960
824.25	3032
824.389	3062
824.529	3097
824.669	3043
824.809	3195
824.949	3249
825.089	3169
825.228	3199
825.368	3009
825.508	2937
825.648	2967
825.787	2975
825.927	3009
826.067	2960
826.206	2944
826.346	3058
826.485	3077
826.625	3104
826.765	3294
826.904	3203
827.044	2979
827.183	2929
827.323	2838
827.462	2937
827.601	2902
827.741	2944
827.88	2948
828.02	2842
828.159	2982
828.298	3047
828.437	3097
828.577	3055
828.716	3245
828.855	3123
828.994	2910
829.134	2902
829.273	2956
829.412	2861
829.551	2868
829.69	2899
829.829	2967
829.968	3161
830.107	2982
830.246	3017
830.385	2895
830.524	2864
830.663	2826
830.802	2712
830.941	2655
831.08	2674
831.219	2750
831.357	2766
831.496	3009
831.635	2697
831.774	2667
831.913	2648
832.051	2549
832.19	2583
832.329	2693
832.467	2549
832.606	2450
832.744	2587
832.883	2613
833.022	2621
833.16	2625
833.299	2689
833.437	2682
833.576	2689
833.714	2731
833.852	2716
833.991	2762
834.129	2853
834.267	2826
834.406	2796
834.544	2880
834.682	2845
834.821	2853
834.959	3032
835.097	2922
835.235	3039
835.373	2960
835.511	3036
835.65	2971
835.788	2941
835.926	2819
836.064	2834
836.202	2826
836.34	3074
836.478	3173
836.615	3051
836.753	3116
836.891	3207
837.029	3157
837.167	3100
837.305	3058
837.443	3036
837.58	2963
837.718	3104
837.856	3055
837.993	3020
838.131	3108
838.269	3104
838.406	3051
838.544	3097
838.681	2937
838.819	2891
838.956	2792
839.094	2800
839.231	2899
839.369	3013
839.506	3359
839.643	3218
839.781	3001
839.918	2982
840.055	3055
840.193	3055
840.33	3074
840.467	3047
840.604	3161
840.742	3382
840.879	3017
841.016	3066
841.153	3081
841.29	3313
841.427	3287
841.564	3245
841.701	3302
841.838	3268
841.975	3142
842.112	3192
842.249	3062
842.385	3028
842.522	3279
842.659	3100
842.796	3020
842.933	3097
843.069	3051
843.206	3013
843.343	3173
843.479	3097
843.616	3142
843.752	2864
843.889	2842
844.025	3097
844.162	2857
844.298	3093
844.435	2929
844.571	2929
844.708	3100
844.844	3173
844.98	3218
845.117	3188
845.253	3074
845.389	3001
845.525	3116
845.661	3097
845.798	2986
845.934	3131
846.07	3043
846.206	3203
846.342	3317
846.478	3192
846.614	3047
846.75	3036
846.886	2994
847.022	3256
847.158	3127
847.294	3203
847.429	3222
847.565	3211
847.701	3473
847.837	3024
847.972	2986
848.108	3157
848.244	3135
848.379	2986
848.515	2895
848.65	2910
848.786	2952
848.921	3005
849.057	3097
849.192	3157
849.328	3058
849.463	3081
849.598	3020
849.734	3051
849.869	2967
850.004	2857
850.14	2941
850.275	2891
850.41	2834
850.545	2872
850.68	2925
850.815	2967
850.95	2944
851.085	3192
851.22	3097
851.355	3013
851.49	2941
851.625	2986
851.76	2998
851.895	2952
852.03	2876
852.165	3005
852.299	3081
852.434	3154
852.569	3131
852.703	3150
852.838	3218
852.973	3317
853.107	3302
853.242	3131
853.376	3085
853.511	2948
853.645	3009
853.78	3241
853.914	3119
854.048	3127
854.183	3081
854.317	3157
854.451	3264
854.585	3093
854.72	3058
854.854	3211
854.988	3085
855.122	3058
855.256	3005
855.39	3081
855.524	3230
855.658	3150
855.792	3154
855.926	3161
856.06	3188
856.194	3233
856.327	3127
856.461	3028
856.595	3066
856.729	3093
856.862	3195
856.996	3165
857.13	3199
857.263	3245
857.397	3287
857.53	3097
857.664	3214
857.797	3237
857.931	3260
858.064	3112
858.197	3199
858.331	3116
858.464	3131
858.597	2986
858.731	3123
858.864	3116
858.997	3085
859.13	3135
859.263	3173
859.396	3184
859.529	3081
859.662	3097
859.795	3028
859.928	3123
860.061	3256
860.194	3275
860.327	3116
860.46	3089
860.592	3237
860.725	3249
860.858	3245
860.99	3108
861.123	3036
861.256	3020
861.388	3150
861.521	3892
861.653	2998
861.786	2960
861.918	2982
862.05	3055
862.183	3058
862.315	3169
862.447	3165
862.58	3089
862.712	2937
862.844	2861
862.976	2990
863.108	3032
863.24	3313
863.372	2876
863.504	2956
863.636	2960
863.768	3013
863.9	2986
864.032	2902
864.164	2922
864.296	2982
864.428	3116
864.559	3093
864.691	3058
864.823	3066
864.954	3058
865.086	3028
865.217	3001
865.349	2944
865.48	2971
865.612	3036
865.743	3123
865.875	2975
866.006	2906
866.137	2982
866.269	2952
866.4	2914
866.531	2933
866.662	2899
866.793	2880
866.924	2880
867.055	2967
867.186	2918
867.317	2853
867.448	2823
867.579	2826
867.71	2838
867.841	2819
867.972	2922
868.103	2895
868.233	2899
868.364	2883
868.495	2887
868.625	3089
868.756	3184
868.886	2952
869.017	2975
869.147	3211
869.278	3165
869.408	3039
869.539	3051
869.669	3062
869.799	3028
869.929	3108
870.06	3089
870.19	3340
870.32	3298
870.45	3310
870.58	3351
870.71	3409
870.84	3420
870.97	3275
871.1	3207
871.23	3458
871.36	3477
871.489	3325
871.619	3397
871.749	3389
871.879	3443
872.008	3523
872.138	3374
872.267	3237
872.397	3165
872.526	3104
872.656	3013
872.785	3100
872.915	3226
873.044	3325
873.173	3237
873.303	3230
873.432	3241
873.561	3241
873.69	3146
873.819	3108
873.948	3218
874.077	3081
874.206	3062
874.335	3085
874.464	3230
874.593	3336
874.722	3218
874.851	3428
874.979	3325
875.108	3283
875.237	3188
875.365	3127
875.494	3127
875.623	3230
875.751	3123
875.88	3173
876.008	3195
876.136	3188
876.265	3355
876.393	3504
876.521	3401
876.65	3386
876.778	3283
876.906	3218
877.034	3192
877.162	3214
877.29	3173
877.418	3264
877.546	3218
877.674	3230
877.802	3237
877.93	3207
878.058	3135
878.185	3108
878.313	3233
878.441	3192
878.568	3051
878.696	3154
878.824	3249
878.951	3313
879.079	3481
879.206	3622
879.333	3439
879.461	3332
879.588	3332
879.715	3542
879.842	3576
879.97	3378
880.097	3138
880.224	3138
880.351	3169
880.478	3154
880.605	3192
880.732	3195
880.859	3507
880.986	3298
881.112	3336
881.239	3226
881.366	3093
881.493	3055
881.619	3001
881.746	3093
881.872	3077
881.999	3108
882.125	3097
882.252	3214
882.378	3302
882.505	3443
882.631	3264
882.757	3161
882.883	3230
883.01	3199
883.136	3203
883.262	3074
883.388	3104
883.514	3294
883.64	3355
883.766	3279
883.892	3169
884.018	3268
884.143	3420
884.269	3526
884.395	3161
884.52	3192
884.646	3165
884.772	3112
884.897	3108
885.023	3233
885.148	3310
885.274	3454
885.399	3363
885.524	3256
885.65	3237
885.775	3340
885.9	3298
886.025	3447
886.15	3348
886.275	3291
886.4	3230
886.525	3294
886.65	3279
886.775	3283
886.9	3504
887.025	3591
887.149	3378
887.274	3260
887.399	3169
887.523	3173
887.648	3173
887.773	3184
887.897	3359
888.021	3389
888.146	3272
888.27	3424
888.395	3557
888.519	3416
888.643	3439
888.767	3405
888.891	3340
889.015	3214
889.139	3253
889.263	3192
889.387	3386
889.511	3485
889.635	3469
889.759	3268
889.883	3291
890.006	3409
890.13	3496
890.254	3291
890.377	3310
890.501	3199
890.624	3161
890.748	3302
890.871	3165
890.995	3089
891.118	3051
891.241	3207
891.364	3211
891.488	3291
891.611	3176
891.734	3199
891.857	3264
891.98	3245
892.103	3310
892.226	3279
892.349	3195
892.471	3097
892.594	3203
892.717	3321
892.839	3264
892.962	3313
893.085	3344
893.207	3291
893.33	3157
893.452	3180
893.575	3325
893.697	3233
893.819	3466
893.941	3488
894.064	3454
894.186	3275
894.308	3268
894.43	3466
894.552	3538
894.674	3458
894.796	3245
894.918	3310
895.04	3237
895.161	3401
895.283	3397
895.405	3279
895.526	3351
895.648	3454
895.769	3424
895.891	3428
896.012	3466
896.134	3443
896.255	3405
896.376	3355
896.498	3359
896.619	3424
896.74	3348
896.861	3389
896.982	3682
897.103	3846
897.224	3587
897.345	3492
897.466	3420
897.587	3477
897.708	3587
897.828	3584
897.949	3443
898.07	3310
898.19	3370
898.311	3584
898.431	3428
898.552	3511
898.672	3591
898.792	3595
898.913	3519
899.033	3367
899.153	3313
899.273	3233
899.393	3268
899.513	3294
899.633	3336
899.753	3298
899.873	3310
899.993	3397
900.113	3332
900.232	3370
900.352	3340
900.472	3329
900.591	3222
900.711	3298
900.83	3218
900.95	3435
901.069	3469
901.189	3370
901.308	3203
901.427	3127
901.546	3214
901.665	3321
901.784	3332
901.904	3203
902.023	3165
902.141	3009
902.26	2998
902.379	3097
902.498	3058
902.617	3058
902.735	3203
902.854	3222
902.973	3176
903.091	3028
903.21	3055
903.328	3127
903.446	3123
903.565	3100
903.683	3173
903.801	3131
903.919	3264
904.038	3268
904.156	3173
904.274	3283
904.392	3230
904.51	3272
904.627	3329
904.745	3443
904.863	3477
904.981	3199
905.098	3199
905.216	3207
905.334	3291
905.451	3310
905.569	3264
905.686	3454
905.803	3447
905.921	3268
906.038	3481
906.155	3389
906.272	3230
906.389	3332
906.506	3188
906.623	3279
906.74	3241
906.857	3199
906.974	3272
907.091	3447
907.208	3584
907.324	3420
907.441	3351
907.557	3230
907.674	3207
907.79	3211
907.907	3237
908.023	3363
908.139	3401
908.256	3344
908.372	3378
908.488	3336
908.604	3230
908.72	3245
908.836	3310
908.952	3233
909.068	3332
909.184	3477
909.3	3382
909.415	3507
909.531	3447
909.647	3260
909.762	3268
909.878	3253
909.993	3344
910.108	3340
910.224	3325
910.339	3397
910.454	3321
910.57	3306
910.685	3211
910.8	3553
910.915	3545
911.03	3389
911.145	3256
911.259	3253
911.374	3283
911.489	3245
911.604	3195
911.718	3097
911.833	3176
911.947	3028
912.062	2967
912.176	3165
912.291	3203
912.405	3233
912.519	3424
912.633	3481
912.748	3329
912.862	3264
912.976	3138
913.09	3032
913.204	3135
913.318	3230
913.431	3348
913.545	3351
913.659	3412
913.772	3340
913.886	3233
914	3207
914.113	3313
914.226	3401
914.34	3351
914.453	3203
914.566	3424
914.68	3279
914.793	3294
914.906	3123
915.019	3093
915.132	3138
915.245	3157
915.358	3207
915.47	3245
915.583	3256
915.696	3329
915.809	3412
915.921	3431
916.034	3237
916.146	3264
916.259	3256
916.371	3409
916.483	3332
916.595	3218
916.708	3359
916.82	3355
916.932	3340
917.044	3344
917.156	3355
917.268	3268
917.38	3336
917.491	3310
917.603	3340
917.715	3454
917.826	3420
917.938	3359
918.049	3233
918.161	3424
918.272	3553
918.384	3610
918.495	3481
918.606	3317
918.717	3298
918.828	3389
918.939	3401
919.05	3272
919.161	3374
919.272	3180
919.383	3256
919.494	3477
919.604	3720
919.715	3435
919.826	3374
919.936	3443
920.047	3610
920.157	3557
920.267	3728
920.378	3633
920.488	3542
920.598	3743
920.708	3926
920.818	3842
920.928	3823
921.038	4029
921.148	3972
921.258	3705
921.368	3660
921.477	3549
921.587	3519
921.697	3462
921.806	3614
921.916	3545
922.025	3340
922.134	3321
922.244	3302
922.353	3389
922.462	3283
922.571	3199
922.68	3100
922.789	3070
922.898	3116
923.007	3081
923.116	3203
923.224	3195
923.333	3188
923.442	3104
923.55	3100
923.659	3161
923.767	3230
923.876	3108
923.984	3256
924.092	3100
924.201	3188
924.309	3230
924.417	3256
924.525	3180
924.633	3214
924.741	4158
924.849	3074
924.956	3256
925.064	3116
925.172	3032
925.279	3119
925.387	3176
925.494	3188
925.602	3370
925.709	3336
925.816	3176
925.924	3237
926.031	3367
926.138	3291
926.245	3378
926.352	3218
926.459	3420
926.566	3477
926.673	3291
926.779	3272
926.886	3233
926.993	3157
927.099	3146
927.206	3127
927.312	3104
927.419	3218
927.525	3188
927.631	3253
927.737	3116
927.843	3112
927.95	3036
928.056	3165
928.162	3154
928.267	3260
928.373	3888
928.479	3298
928.585	3077
928.69	3226
928.796	3272
928.901	3176
929.007	3043
929.112	3195
929.218	3207
929.323	3169
929.428	3157
929.533	3317
929.638	3119
929.743	3165
929.848	3218
929.953	3211
930.058	3165
930.163	2971
930.267	3066
930.372	3195
930.477	2971
930.581	3321
930.685	3146
930.79	3020
930.894	3112
930.998	3085
931.103	3275
931.207	2960
931.311	2956
931.415	2929
931.519	2773
931.623	2773
