Data from test_V78500241_1498.txt Node
Date: Fri Mar 25 16:25:34 CST 2022
User: usil
Spectrometer: V785-0024
Trigger mode: 0
Integration Time (sec): 4.000000E-1
Scans to average: 1
Nonlinearity correction enabled: false
Boxcar width: 0
Storing dark spectrum: false
XAxis mode: Wavelengths
Number of Pixels in Spectrum: 1024
>>>>>Begin Spectral Data<<<<<
801.071	2899
801.214	2960
801.356	2918
801.499	2906
801.641	2853
801.783	2925
801.926	3036
802.068	3009
802.211	3013
802.353	3032
802.496	2967
802.638	3051
802.78	2990
802.923	3058
803.065	3028
803.208	2895
803.35	2910
803.492	2922
803.635	2918
803.777	2750
803.919	2864
804.061	3207
804.204	2960
804.346	2910
804.488	2845
804.63	2990
804.773	2872
804.915	2922
805.057	3070
805.199	2895
805.341	2967
805.483	3024
805.626	2986
805.768	2971
805.91	3093
806.052	3093
806.194	3020
806.336	3233
806.478	3036
806.62	2948
806.762	2948
806.904	3039
807.046	3138
807.188	3020
807.33	2929
807.472	2979
807.614	2914
807.756	3005
807.898	2906
808.04	2902
808.182	2971
808.324	2967
808.465	2849
808.607	2899
808.749	2781
808.891	2887
809.033	2990
809.174	2986
809.316	2937
809.458	2864
809.6	2777
809.741	2735
809.883	2766
810.025	2857
810.166	2868
810.308	2834
810.45	2861
810.591	2815
810.733	2762
810.875	2845
811.016	2773
811.158	2769
811.299	2807
811.441	2929
811.582	2899
811.724	2849
811.865	2845
812.007	2864
812.148	2880
812.29	2834
812.431	2895
812.573	2929
812.714	2982
812.855	3009
812.997	3032
813.138	3093
813.279	3013
813.421	2986
813.562	2963
813.703	2902
813.845	2872
813.986	2811
814.127	2716
814.268	2830
814.41	2853
814.551	2819
814.692	2849
814.833	2819
814.974	2902
815.115	2937
815.256	2815
815.397	2792
815.539	2838
815.68	2807
815.821	2800
815.962	2941
816.103	2914
816.244	2876
816.385	2868
816.526	2960
816.666	2944
816.807	2743
816.948	2902
817.089	2895
817.23	2845
817.371	2777
817.512	2792
817.653	2815
817.793	2826
817.934	2910
818.075	2948
818.216	2994
818.356	3001
818.497	2864
818.638	2807
818.778	2826
818.919	2777
819.06	2731
819.2	2891
819.341	2796
819.481	2781
819.622	2933
819.762	3112
819.903	3039
820.043	2933
820.184	2876
820.324	2918
820.465	3028
820.605	3017
820.746	3020
820.886	2933
821.026	3077
821.167	3165
821.307	3249
821.447	3272
821.588	3237
821.728	3226
821.868	3226
822.008	3081
822.149	3211
822.289	3192
822.429	3074
822.569	3066
822.709	3192
822.849	3043
822.99	3074
823.13	3138
823.27	3207
823.41	3108
823.55	3116
823.69	3146
823.83	3184
823.97	3070
824.11	2944
824.25	3001
824.389	3039
824.529	3119
824.669	3070
824.809	3195
824.949	3211
825.089	3199
825.228	3146
825.368	3047
825.508	2925
825.648	2948
825.787	2990
825.927	3032
826.067	2963
826.206	2933
826.346	3047
826.485	3047
826.625	3100
826.765	3279
826.904	3207
827.044	2952
827.183	2914
827.323	2823
827.462	3028
827.601	2891
827.741	2899
827.88	2956
828.02	2834
828.159	2982
828.298	2994
828.437	3119
828.577	3028
828.716	3260
828.855	3089
828.994	2914
829.134	2925
829.273	2933
829.412	2853
829.551	2864
829.69	2880
829.829	2960
829.968	3119
830.107	3024
830.246	3024
830.385	2902
830.524	2887
830.663	2804
830.802	2735
830.941	2667
831.08	2629
831.219	2739
831.357	2766
831.496	2952
831.635	2705
831.774	2670
831.913	2644
832.051	2514
832.19	2625
832.329	2674
832.467	2522
832.606	2488
832.744	2575
832.883	2587
833.022	2598
833.16	2636
833.299	2674
833.437	2655
833.576	2693
833.714	2701
833.852	2701
833.991	2750
834.129	2849
834.267	2842
834.406	2811
834.544	2853
834.682	2864
834.821	2864
834.959	3062
835.097	2906
835.235	3005
835.373	2994
835.511	3009
835.65	2937
835.788	2979
835.926	2800
836.064	2804
836.202	2834
836.34	3085
836.478	3154
836.615	3047
836.753	3116
836.891	3176
837.029	3150
837.167	3116
837.305	3093
837.443	3028
837.58	2944
837.718	3108
837.856	3043
837.993	3020
838.131	3116
838.269	3070
838.406	3070
838.544	3070
838.681	2925
838.819	2910
838.956	2785
839.094	2823
839.231	2914
839.369	3051
839.506	3340
839.643	3165
839.781	3009
839.918	2948
840.055	3051
840.193	3066
840.33	3093
840.467	3074
840.604	3104
840.742	3435
840.879	3005
841.016	3017
841.153	3123
841.29	3348
841.427	3325
841.564	3291
841.701	3340
841.838	3222
841.975	3192
842.112	3230
842.249	3051
842.385	3020
842.522	3268
842.659	3062
842.796	3077
842.933	3089
843.069	3062
843.206	3013
843.343	3173
843.479	3077
843.616	3184
843.752	2910
843.889	2872
844.025	3055
844.162	2872
844.298	3070
844.435	2967
844.571	2933
844.708	3070
844.844	3150
844.98	3241
845.117	3188
845.253	3093
845.389	3005
845.525	3093
845.661	3093
845.798	3036
845.934	3150
846.07	3070
846.206	3180
846.342	3332
846.478	3188
846.614	3055
846.75	3062
846.886	3013
847.022	3233
847.158	3157
847.294	3253
847.429	3226
847.565	3199
847.701	3454
847.837	3051
847.972	2963
848.108	3150
848.244	3131
848.379	3005
848.515	2937
848.65	2948
848.786	2941
848.921	2998
849.057	3116
849.192	3165
849.328	3077
849.463	3093
849.598	3032
849.734	3074
849.869	2937
850.004	2933
850.14	2937
850.275	2910
850.41	2861
850.545	2857
850.68	2914
850.815	2986
850.95	2956
851.085	3211
851.22	3138
851.355	3020
851.49	2956
851.625	2986
851.76	2986
851.895	2937
852.03	2929
852.165	3009
852.299	3108
852.434	3180
852.569	3142
852.703	3142
852.838	3203
852.973	3329
853.107	3321
853.242	3165
853.376	3104
853.511	2941
853.645	3039
853.78	3207
853.914	3093
854.048	3123
854.183	3093
854.317	3165
854.451	3298
854.585	3142
854.72	3062
854.854	3192
854.988	3043
855.122	3089
855.256	2963
855.39	3112
855.524	3272
855.658	3169
855.792	3192
855.926	3161
856.06	3226
856.194	3241
856.327	3135
856.461	3051
856.595	3097
856.729	3074
856.862	3188
856.996	3150
857.13	3184
857.263	3199
857.397	3264
857.53	3104
857.664	3203
857.797	3226
857.931	3283
858.064	3169
858.197	3214
858.331	3093
858.464	3112
858.597	3020
858.731	3089
858.864	3169
858.997	3062
859.13	3154
859.263	3150
859.396	3142
859.529	3123
859.662	3085
859.795	3009
859.928	3146
860.061	3249
860.194	3287
860.327	3123
860.46	3089
860.592	3241
860.725	3268
860.858	3268
860.99	3131
861.123	3039
861.256	3039
861.388	3135
861.521	3774
861.653	3013
861.786	2979
861.918	3013
862.05	3081
862.183	3085
862.315	3169
862.447	3195
862.58	3077
862.712	2937
862.844	2857
862.976	2971
863.108	2963
863.24	3294
863.372	2902
863.504	2948
863.636	2944
863.768	3036
863.9	2982
864.032	2910
864.164	2948
864.296	3039
864.428	3104
864.559	3074
864.691	3077
864.823	3066
864.954	3024
865.086	3017
865.217	2986
865.349	2975
865.48	2986
865.612	3028
865.743	3150
865.875	2982
866.006	2906
866.137	2975
866.269	2929
866.4	2933
866.531	2933
866.662	2902
866.793	2876
866.924	2925
867.055	2979
867.186	2933
867.317	2880
867.448	2819
867.579	2857
867.71	2857
867.841	2819
867.972	2906
868.103	2868
868.233	2872
868.364	2861
868.495	2887
868.625	3055
868.756	3176
868.886	2971
869.017	2963
869.147	3173
869.278	3135
869.408	3028
869.539	3051
869.669	3093
869.799	3032
869.929	3093
870.06	3119
870.19	3340
870.32	3298
870.45	3264
870.58	3378
870.71	3416
870.84	3447
870.97	3298
871.1	3192
871.23	3466
871.36	3439
871.489	3332
871.619	3409
871.749	3405
871.879	3447
872.008	3458
872.138	3336
872.267	3253
872.397	3154
872.526	3100
872.656	3039
872.785	3116
872.915	3233
873.044	3317
873.173	3230
873.303	3260
873.432	3241
873.561	3245
873.69	3188
873.819	3165
873.948	3192
874.077	3127
874.206	3024
874.335	3108
874.464	3211
874.593	3332
874.722	3226
874.851	3363
874.979	3332
875.108	3302
875.237	3222
875.365	3173
875.494	3150
875.623	3214
875.751	3070
875.88	3112
876.008	3184
876.136	3222
876.265	3332
876.393	3477
876.521	3431
876.65	3412
876.778	3332
876.906	3291
877.034	3203
877.162	3268
877.29	3173
877.418	3249
877.546	3230
877.674	3211
877.802	3211
877.93	3226
878.058	3138
878.185	3089
878.313	3203
878.441	3218
878.568	3085
878.696	3135
878.824	3256
878.951	3291
879.079	3454
879.206	3656
879.333	3401
879.461	3351
879.588	3359
879.715	3473
879.842	3595
879.97	3367
880.097	3188
880.224	3116
880.351	3142
880.478	3188
880.605	3184
880.732	3169
880.859	3500
880.986	3294
881.112	3332
881.239	3180
881.366	3112
881.493	3039
881.619	3036
881.746	3062
881.872	3077
881.999	3097
882.125	3081
882.252	3207
882.378	3275
882.505	3393
882.631	3249
882.757	3154
882.883	3199
883.01	3203
883.136	3169
883.262	3058
883.388	3089
883.514	3306
883.64	3386
883.766	3321
883.892	3180
884.018	3226
884.143	3386
884.269	3504
884.395	3230
884.52	3150
884.646	3138
884.772	3150
884.897	3112
885.023	3222
885.148	3329
885.274	3416
885.399	3348
885.524	3291
885.65	3283
885.775	3306
885.9	3272
886.025	3409
886.15	3344
886.275	3264
886.4	3241
886.525	3321
886.65	3249
886.775	3249
886.9	3519
887.025	3622
887.149	3382
887.274	3253
887.399	3150
887.523	3222
887.648	3199
887.773	3161
887.897	3359
888.021	3374
888.146	3313
888.27	3435
888.395	3538
888.519	3443
888.643	3428
888.767	3504
888.891	3268
889.015	3214
889.139	3283
889.263	3241
889.387	3367
889.511	3485
889.635	3447
889.759	3310
889.883	3272
890.006	3374
890.13	3504
890.254	3249
890.377	3355
890.501	3211
890.624	3165
890.748	3321
890.871	3192
890.995	3108
891.118	3039
891.241	3218
891.364	3214
891.488	3306
891.611	3188
891.734	3211
891.857	3272
891.98	3253
892.103	3325
892.226	3249
892.349	3188
892.471	3135
892.594	3237
892.717	3279
892.839	3306
892.962	3302
893.085	3367
893.207	3325
893.33	3165
893.452	3165
893.575	3336
893.697	3264
893.819	3473
893.941	3496
894.064	3409
894.186	3264
894.308	3241
894.43	3443
894.552	3492
894.674	3466
894.796	3249
894.918	3329
895.04	3268
895.161	3450
895.283	3367
895.405	3253
895.526	3363
895.648	3439
895.769	3405
895.891	3439
896.012	3481
896.134	3511
896.255	3435
896.376	3382
896.498	3367
896.619	3416
896.74	3336
896.861	3401
896.982	3656
897.103	3861
897.224	3576
897.345	3511
897.466	3409
897.587	3473
897.708	3606
897.828	3576
897.949	3469
898.07	3336
898.19	3397
898.311	3587
898.431	3409
898.552	3507
898.672	3545
898.792	3618
898.913	3534
899.033	3447
899.153	3245
899.273	3218
899.393	3283
899.513	3306
899.633	3306
899.753	3359
899.873	3310
899.993	3378
900.113	3329
900.232	3397
900.352	3355
900.472	3272
900.591	3180
900.711	3294
900.83	3241
900.95	3405
901.069	3488
901.189	3344
901.308	3169
901.427	3165
901.546	3180
901.665	3298
901.784	3313
901.904	3180
902.023	3161
902.141	3005
902.26	2986
902.379	3150
902.498	3066
902.617	3051
902.735	3203
902.854	3173
902.973	3203
903.091	3066
903.21	3066
903.328	3146
903.446	3093
903.565	3085
903.683	3203
903.801	3150
903.919	3264
904.038	3264
904.156	3184
904.274	3291
904.392	3203
904.51	3272
904.627	3329
904.745	3450
904.863	3511
904.981	3256
905.098	3192
905.216	3253
905.334	3294
905.451	3279
905.569	3287
905.686	3428
905.803	3443
905.921	3260
906.038	3412
906.155	3374
906.272	3253
906.389	3310
906.506	3218
906.623	3214
906.74	3287
906.857	3188
906.974	3253
907.091	3439
907.208	3538
907.324	3488
907.441	3370
907.557	3233
907.674	3241
907.79	3195
907.907	3279
908.023	3351
908.139	3389
908.256	3336
908.372	3367
908.488	3325
908.604	3279
908.72	3214
908.836	3249
908.952	3249
909.068	3329
909.184	3488
909.3	3367
909.415	3485
909.531	3431
909.647	3287
909.762	3275
909.878	3237
909.993	3325
910.108	3332
910.224	3317
910.339	3424
910.454	3351
910.57	3310
910.685	3249
910.8	3587
910.915	3538
911.03	3443
911.145	3218
911.259	3214
911.374	3310
911.489	3211
911.604	3230
911.718	3138
911.833	3142
911.947	3085
912.062	2982
912.176	3142
912.291	3180
912.405	3218
912.519	3447
912.633	3458
912.748	3348
912.862	3268
912.976	3154
913.09	3047
913.204	3131
913.318	3230
913.431	3355
913.545	3275
913.659	3397
913.772	3313
913.886	3230
914	3226
914.113	3363
914.226	3412
914.34	3359
914.453	3241
914.566	3428
914.68	3287
914.793	3336
914.906	3112
915.019	3108
915.132	3077
915.245	3192
915.358	3176
915.47	3199
915.583	3249
915.696	3317
915.809	3409
915.921	3431
916.034	3260
916.146	3264
916.259	3218
916.371	3363
916.483	3367
916.595	3283
916.708	3351
916.82	3355
916.932	3340
917.044	3321
917.156	3370
917.268	3256
917.38	3283
917.491	3325
917.603	3351
917.715	3416
917.826	3466
917.938	3382
918.049	3275
918.161	3473
918.272	3561
918.384	3542
918.495	3500
918.606	3351
918.717	3287
918.828	3412
918.939	3439
919.05	3310
919.161	3378
919.272	3192
919.383	3298
919.494	3526
919.604	3667
919.715	3481
919.826	3374
919.936	3454
920.047	3568
920.157	3568
920.267	3751
920.378	3606
920.488	3534
920.598	3804
920.708	3941
920.818	3804
920.928	3816
921.038	4074
921.148	3972
921.258	3720
921.368	3648
921.477	3606
921.587	3561
921.697	3458
921.806	3625
921.916	3496
922.025	3363
922.134	3359
922.244	3344
922.353	3416
922.462	3275
922.571	3157
922.68	3100
922.789	3085
922.898	3089
923.007	3074
923.116	3207
923.224	3199
923.333	3192
923.442	3108
923.55	3097
923.659	3146
923.767	3173
923.876	3165
923.984	3260
924.092	3089
924.201	3173
924.309	3214
924.417	3264
924.525	3165
924.633	3230
924.741	3983
924.849	3036
924.956	3313
925.064	3081
925.172	3024
925.279	3097
925.387	3184
925.494	3211
925.602	3382
925.709	3313
925.816	3176
925.924	3310
926.031	3370
926.138	3336
926.245	3401
926.352	3249
926.459	3412
926.566	3431
926.673	3329
926.779	3264
926.886	3272
926.993	3123
927.099	3146
927.206	3180
927.312	3093
927.419	3222
927.525	3218
927.631	3253
927.737	3150
927.843	3112
927.95	3089
928.056	3123
928.162	3184
928.267	3268
928.373	3778
928.479	3306
928.585	3036
928.69	3207
928.796	3279
928.901	3176
929.007	3051
929.112	3218
929.218	3157
929.323	3093
929.428	3116
929.533	3329
929.638	3169
929.743	3127
929.848	3264
929.953	3207
930.058	3165
930.163	3009
930.267	3017
930.372	3218
930.477	3058
930.581	3306
930.685	3188
930.79	3047
930.894	3116
930.998	3089
931.103	3245
931.207	2963
931.311	2918
931.415	2941
931.519	2762
931.623	2800
