Data from test_V78500241_1070.txt Node
Date: Fri Mar 25 16:22:36 CST 2022
User: usil
Spectrometer: V785-0024
Trigger mode: 0
Integration Time (sec): 4.000000E-1
Scans to average: 1
Nonlinearity correction enabled: false
Boxcar width: 0
Storing dark spectrum: false
XAxis mode: Wavelengths
Number of Pixels in Spectrum: 1024
>>>>>Begin Spectral Data<<<<<
801.071	2899
801.214	2975
801.356	2876
801.499	2918
801.641	2880
801.783	2933
801.926	3024
802.068	2937
802.211	2975
802.353	3043
802.496	2963
802.638	3028
802.78	3062
802.923	3089
803.065	2979
803.208	2880
803.35	2887
803.492	2941
803.635	2914
803.777	2724
803.919	2815
804.061	3222
804.204	2925
804.346	2891
804.488	2857
804.63	2967
804.773	2853
804.915	2918
805.057	3066
805.199	2922
805.341	2944
805.483	3036
805.626	2971
805.768	2937
805.91	3112
806.052	3089
806.194	3001
806.336	3241
806.478	2998
806.62	2925
806.762	2944
806.904	3055
807.046	3188
807.188	2971
807.33	2902
807.472	3001
807.614	2902
807.756	2956
807.898	2933
808.04	2899
808.182	2944
808.324	2944
808.465	2922
808.607	2887
808.749	2796
808.891	2872
809.033	2963
809.174	2948
809.316	2891
809.458	2849
809.6	2739
809.741	2766
809.883	2739
810.025	2861
810.166	2849
810.308	2868
810.45	2838
810.591	2750
810.733	2766
810.875	2830
811.016	2754
811.158	2727
811.299	2785
811.441	2906
811.582	2933
811.724	2838
811.865	2811
812.007	2899
812.148	2883
812.29	2861
812.431	2895
812.573	2887
812.714	2979
812.855	3036
812.997	3036
813.138	3127
813.279	3017
813.421	2998
813.562	2956
813.703	2895
813.845	2891
813.986	2788
814.127	2708
814.268	2811
814.41	2834
814.551	2826
814.692	2868
814.833	2838
814.974	2861
815.115	2929
815.256	2800
815.397	2819
815.539	2876
815.68	2807
815.821	2804
815.962	2914
816.103	2922
816.244	2883
816.385	2853
816.526	2963
816.666	2899
816.807	2716
816.948	2899
817.089	2902
817.23	2823
817.371	2758
817.512	2777
817.653	2815
817.793	2845
817.934	2902
818.075	2929
818.216	3001
818.356	3032
818.497	2891
818.638	2773
818.778	2800
818.919	2773
819.06	2781
819.2	2899
819.341	2826
819.481	2849
819.622	2914
819.762	3089
819.903	3043
820.043	2918
820.184	2922
820.324	2872
820.465	2975
820.605	2982
820.746	3036
820.886	2933
821.026	3127
821.167	3104
821.307	3264
821.447	3226
821.588	3218
821.728	3199
821.868	3184
822.008	3081
822.149	3207
822.289	3249
822.429	3070
822.569	3077
822.709	3188
822.849	3036
822.99	3036
823.13	3150
823.27	3173
823.41	3116
823.55	3127
823.69	3146
823.83	3192
823.97	3093
824.11	3001
824.25	3005
824.389	3028
824.529	3116
824.669	3104
824.809	3176
824.949	3233
825.089	3195
825.228	3131
825.368	2994
825.508	2952
825.648	2952
825.787	2998
825.927	2994
826.067	3009
826.206	2956
826.346	3024
826.485	3089
826.625	3104
826.765	3249
826.904	3165
827.044	3001
827.183	2944
827.323	2880
827.462	2971
827.601	2902
827.741	2933
827.88	2944
828.02	2842
828.159	2941
828.298	3039
828.437	3131
828.577	3036
828.716	3218
828.855	3074
828.994	2918
829.134	2899
829.273	2933
829.412	2876
829.551	2868
829.69	2857
829.829	2990
829.968	3089
830.107	3013
830.246	3070
830.385	2937
830.524	2922
830.663	2792
830.802	2735
830.941	2640
831.08	2648
831.219	2769
831.357	2758
831.496	2929
831.635	2701
831.774	2632
831.913	2640
832.051	2571
832.19	2579
832.329	2651
832.467	2522
832.606	2495
832.744	2587
832.883	2571
833.022	2571
833.16	2659
833.299	2686
833.437	2678
833.576	2716
833.714	2743
833.852	2708
833.991	2762
834.129	2819
834.267	2823
834.406	2781
834.544	2876
834.682	2853
834.821	2883
834.959	3024
835.097	2906
835.235	3024
835.373	3001
835.511	2986
835.65	2948
835.788	2967
835.926	2849
836.064	2819
836.202	2815
836.34	3089
836.478	3157
836.615	3036
836.753	3135
836.891	3176
837.029	3146
837.167	3085
837.305	3062
837.443	3009
837.58	2967
837.718	3097
837.856	3020
837.993	3009
838.131	3100
838.269	3077
838.406	3112
838.544	3062
838.681	2956
838.819	2929
838.956	2800
839.094	2861
839.231	2906
839.369	2979
839.506	3359
839.643	3207
839.781	2990
839.918	2944
840.055	3058
840.193	3047
840.33	3017
840.467	3127
840.604	3131
840.742	3378
840.879	3066
841.016	3020
841.153	3135
841.29	3329
841.427	3283
841.564	3233
841.701	3313
841.838	3249
841.975	3142
842.112	3203
842.249	3047
842.385	3055
842.522	3245
842.659	3085
842.796	3043
842.933	3055
843.069	3051
843.206	3020
843.343	3184
843.479	3116
843.616	3127
843.752	2891
843.889	2883
844.025	3093
844.162	2887
844.298	3028
844.435	2918
844.571	2937
844.708	3104
844.844	3211
844.98	3241
845.117	3199
845.253	3055
845.389	3005
845.525	3104
845.661	3058
845.798	3013
845.934	3154
846.07	3066
846.206	3207
846.342	3325
846.478	3249
846.614	3085
846.75	3081
846.886	2982
847.022	3237
847.158	3123
847.294	3150
847.429	3256
847.565	3214
847.701	3500
847.837	3047
847.972	2994
848.108	3146
848.244	3165
848.379	2971
848.515	2941
848.65	2960
848.786	2960
848.921	2998
849.057	3119
849.192	3142
849.328	3058
849.463	3097
849.598	3058
849.734	3043
849.869	2956
850.004	2868
850.14	2971
850.275	2895
850.41	2830
850.545	2895
850.68	2933
850.815	2922
850.95	2941
851.085	3176
851.22	3112
851.355	3036
851.49	2952
851.625	2967
851.76	3005
851.895	2933
852.03	2922
852.165	3013
852.299	3081
852.434	3188
852.569	3135
852.703	3161
852.838	3230
852.973	3348
853.107	3298
853.242	3135
853.376	3055
853.511	3001
853.645	3001
853.78	3237
853.914	3119
854.048	3116
854.183	3062
854.317	3123
854.451	3275
854.585	3085
854.72	3055
854.854	3150
854.988	3085
855.122	3104
855.256	2952
855.39	3100
855.524	3241
855.658	3222
855.792	3150
855.926	3203
856.06	3249
856.194	3233
856.327	3169
856.461	3066
856.595	3074
856.729	3032
856.862	3192
856.996	3180
857.13	3195
857.263	3226
857.397	3256
857.53	3112
857.664	3184
857.797	3260
857.931	3260
858.064	3142
858.197	3211
858.331	3135
858.464	3100
858.597	2986
858.731	3081
858.864	3112
858.997	3116
859.13	3173
859.263	3165
859.396	3199
859.529	3077
859.662	3062
859.795	3039
859.928	3112
860.061	3249
860.194	3310
860.327	3070
860.46	3131
860.592	3222
860.725	3226
860.858	3260
860.99	3085
861.123	3039
861.256	3043
861.388	3108
861.521	3789
861.653	2998
861.786	2960
861.918	2990
862.05	3051
862.183	3074
862.315	3142
862.447	3199
862.58	3089
862.712	2956
862.844	2838
862.976	2994
863.108	2960
863.24	3340
863.372	2891
863.504	2941
863.636	2952
863.768	3058
863.9	2998
864.032	2895
864.164	2948
864.296	2998
864.428	3039
864.559	3104
864.691	3039
864.823	3077
864.954	3055
865.086	3055
865.217	2975
865.349	2933
865.48	2979
865.612	3020
865.743	3123
865.875	2967
866.006	2967
866.137	2979
866.269	2925
866.4	2929
866.531	2952
866.662	2899
866.793	2872
866.924	2906
867.055	2944
867.186	2876
867.317	2842
867.448	2849
867.579	2815
867.71	2861
867.841	2819
867.972	2868
868.103	2845
868.233	2857
868.364	2895
868.495	2891
868.625	3116
868.756	3157
868.886	2963
869.017	3024
869.147	3138
869.278	3176
869.408	3043
869.539	3013
869.669	3066
869.799	3047
869.929	3138
870.06	3135
870.19	3283
870.32	3241
870.45	3294
870.58	3313
870.71	3454
870.84	3439
870.97	3310
871.1	3233
871.23	3469
871.36	3424
871.489	3329
871.619	3382
871.749	3420
871.879	3409
872.008	3454
872.138	3374
872.267	3245
872.397	3123
872.526	3081
872.656	2960
872.785	3097
872.915	3245
873.044	3321
873.173	3195
873.303	3253
873.432	3237
873.561	3253
873.69	3138
873.819	3135
873.948	3169
874.077	3062
874.206	3047
874.335	3097
874.464	3192
874.593	3351
874.722	3237
874.851	3367
874.979	3310
875.108	3279
875.237	3184
875.365	3154
875.494	3135
875.623	3230
875.751	3093
875.88	3112
876.008	3199
876.136	3233
876.265	3351
876.393	3504
876.521	3416
876.65	3378
876.778	3359
876.906	3230
877.034	3165
877.162	3260
877.29	3173
877.418	3249
877.546	3253
877.674	3214
877.802	3233
877.93	3256
878.058	3127
878.185	3062
878.313	3195
878.441	3222
878.568	3077
878.696	3176
878.824	3245
878.951	3287
879.079	3454
879.206	3633
879.333	3443
879.461	3298
879.588	3340
879.715	3439
879.842	3580
879.97	3374
880.097	3131
880.224	3135
880.351	3192
880.478	3214
880.605	3192
880.732	3173
880.859	3511
880.986	3310
881.112	3306
881.239	3188
881.366	3100
881.493	3009
881.619	3043
881.746	3085
881.872	3081
881.999	3108
882.125	3135
882.252	3256
882.378	3272
882.505	3401
882.631	3272
882.757	3135
882.883	3211
883.01	3237
883.136	3176
883.262	3066
883.388	3131
883.514	3329
883.64	3367
883.766	3313
883.892	3184
884.018	3211
884.143	3401
884.269	3507
884.395	3188
884.52	3165
884.646	3173
884.772	3085
884.897	3138
885.023	3230
885.148	3348
885.274	3386
885.399	3355
885.524	3226
885.65	3268
885.775	3348
885.9	3321
886.025	3401
886.15	3367
886.275	3275
886.4	3199
886.525	3329
886.65	3260
886.775	3241
886.9	3485
887.025	3603
887.149	3397
887.274	3256
887.399	3188
887.523	3157
887.648	3195
887.773	3180
887.897	3351
888.021	3389
888.146	3298
888.27	3439
888.395	3549
888.519	3424
888.643	3439
888.767	3473
888.891	3317
889.015	3260
889.139	3283
889.263	3207
889.387	3363
889.511	3507
889.635	3424
889.759	3268
889.883	3283
890.006	3359
890.13	3469
890.254	3253
890.377	3351
890.501	3245
890.624	3195
890.748	3317
890.871	3180
890.995	3097
891.118	3074
891.241	3192
891.364	3256
891.488	3306
891.611	3173
891.734	3218
891.857	3272
891.98	3211
892.103	3313
892.226	3294
892.349	3195
892.471	3074
892.594	3237
892.717	3283
892.839	3294
892.962	3253
893.085	3355
893.207	3275
893.33	3135
893.452	3192
893.575	3340
893.697	3237
893.819	3443
893.941	3500
894.064	3416
894.186	3260
894.308	3287
894.43	3416
894.552	3519
894.674	3485
894.796	3256
894.918	3287
895.04	3264
895.161	3431
895.283	3393
895.405	3348
895.526	3348
895.648	3454
895.769	3416
895.891	3416
896.012	3481
896.134	3450
896.255	3374
896.376	3382
896.498	3359
896.619	3416
896.74	3363
896.861	3348
896.982	3690
897.103	3816
897.224	3568
897.345	3488
897.466	3431
897.587	3450
897.708	3614
897.828	3519
897.949	3389
898.07	3298
898.19	3363
898.311	3564
898.431	3450
898.552	3507
898.672	3629
898.792	3576
898.913	3530
899.033	3409
899.153	3283
899.273	3184
899.393	3256
899.513	3317
899.633	3302
899.753	3294
899.873	3302
899.993	3348
900.113	3317
900.232	3393
900.352	3336
900.472	3233
900.591	3218
900.711	3310
900.83	3184
900.95	3367
901.069	3473
901.189	3310
901.308	3150
901.427	3131
901.546	3169
901.665	3256
901.784	3287
901.904	3176
902.023	3146
902.141	3001
902.26	2956
902.379	3089
902.498	3074
902.617	3020
902.735	3150
902.854	3230
902.973	3169
903.091	3020
903.21	3032
903.328	3104
903.446	3081
903.565	3085
903.683	3199
903.801	3116
903.919	3256
904.038	3298
904.156	3161
904.274	3260
904.392	3237
904.51	3294
904.627	3321
904.745	3397
904.863	3477
904.981	3260
905.098	3180
905.216	3237
905.334	3279
905.451	3287
905.569	3279
905.686	3374
905.803	3393
905.921	3302
906.038	3447
906.155	3351
906.272	3249
906.389	3359
906.506	3249
906.623	3241
906.74	3287
906.857	3195
906.974	3298
907.091	3447
907.208	3545
907.324	3458
907.441	3405
907.557	3230
907.674	3237
907.79	3237
907.907	3306
908.023	3386
908.139	3397
908.256	3367
908.372	3348
908.488	3348
908.604	3260
908.72	3249
908.836	3321
908.952	3264
909.068	3397
909.184	3507
909.3	3424
909.415	3515
909.531	3496
909.647	3340
909.762	3332
909.878	3310
909.993	3428
910.108	3332
910.224	3397
910.339	3435
910.454	3325
910.57	3325
910.685	3268
910.8	3625
910.915	3557
911.03	3450
911.145	3325
911.259	3302
911.374	3363
911.489	3260
911.604	3260
911.718	3165
911.833	3195
911.947	3108
912.062	3024
912.176	3233
912.291	3241
912.405	3249
912.519	3466
912.633	3492
912.748	3393
912.862	3294
912.976	3199
913.09	3066
913.204	3173
913.318	3287
913.431	3367
913.545	3332
913.659	3469
913.772	3405
913.886	3260
914	3264
914.113	3325
914.226	3466
914.34	3424
914.453	3214
914.566	3443
914.68	3313
914.793	3359
914.906	3192
915.019	3157
915.132	3097
915.245	3233
915.358	3245
915.47	3275
915.583	3310
915.696	3332
915.809	3447
915.921	3458
916.034	3272
916.146	3302
916.259	3226
916.371	3447
916.483	3374
916.595	3325
916.708	3382
916.82	3389
916.932	3363
917.044	3378
917.156	3374
917.268	3264
917.38	3302
917.491	3348
917.603	3428
917.715	3485
917.826	3485
917.938	3412
918.049	3291
918.161	3458
918.272	3584
918.384	3595
918.495	3526
918.606	3386
918.717	3306
918.828	3401
918.939	3454
919.05	3351
919.161	3409
919.272	3218
919.383	3321
919.494	3492
919.604	3705
919.715	3557
919.826	3435
919.936	3454
920.047	3637
920.157	3568
920.267	3793
920.378	3644
920.488	3614
920.598	3804
920.708	3994
920.818	3835
920.928	3873
921.038	4082
921.148	4013
921.258	3751
921.368	3637
921.477	3606
921.587	3576
921.697	3481
921.806	3641
921.916	3568
922.025	3389
922.134	3378
922.244	3351
922.353	3454
922.462	3249
922.571	3256
922.68	3127
922.789	3138
922.898	3176
923.007	3131
923.116	3253
923.224	3199
923.333	3237
923.442	3104
923.55	3108
923.659	3142
923.767	3253
923.876	3135
923.984	3275
924.092	3146
924.201	3207
924.309	3222
924.417	3226
924.525	3211
924.633	3260
924.741	4200
924.849	3085
924.956	3294
925.064	3146
925.172	3062
925.279	3135
925.387	3184
925.494	3211
925.602	3348
925.709	3389
925.816	3226
925.924	3329
926.031	3435
926.138	3359
926.245	3409
926.352	3306
926.459	3409
926.566	3488
926.673	3355
926.779	3260
926.886	3283
926.993	3207
927.099	3176
927.206	3127
927.312	3131
927.419	3260
927.525	3237
927.631	3287
927.737	3150
927.843	3142
927.95	3055
928.056	3154
928.162	3203
928.267	3268
928.373	3930
928.479	3351
928.585	3093
928.69	3233
928.796	3313
928.901	3214
929.007	3074
929.112	3203
929.218	3233
929.323	3165
929.428	3135
929.533	3348
929.638	3180
929.743	3203
929.848	3279
929.953	3233
930.058	3173
930.163	3020
930.267	3089
930.372	3249
930.477	3051
930.581	3294
930.685	3203
930.79	3112
930.894	3199
930.998	3161
931.103	3275
931.207	2975
931.311	2967
931.415	2933
931.519	2819
931.623	2838
