Data from test_V78500241_1602.txt Node
Date: Fri Mar 25 16:26:18 CST 2022
User: usil
Spectrometer: V785-0024
Trigger mode: 0
Integration Time (sec): 4.000000E-1
Scans to average: 1
Nonlinearity correction enabled: false
Boxcar width: 0
Storing dark spectrum: false
XAxis mode: Wavelengths
Number of Pixels in Spectrum: 1024
>>>>>Begin Spectral Data<<<<<
801.071	2910
801.214	2925
801.356	2842
801.499	2883
801.641	2861
801.783	2922
801.926	3047
802.068	2975
802.211	2994
802.353	3017
802.496	2952
802.638	2998
802.78	3039
802.923	3077
803.065	3001
803.208	2902
803.35	2918
803.492	2902
803.635	2933
803.777	2777
803.919	2819
804.061	3192
804.204	2952
804.346	2872
804.488	2819
804.63	2967
804.773	2868
804.915	2887
805.057	3074
805.199	2933
805.341	2956
805.483	3055
805.626	2998
805.768	2967
805.91	3020
806.052	3123
806.194	2998
806.336	3230
806.478	3020
806.62	2963
806.762	2956
806.904	3051
807.046	3176
807.188	3013
807.33	2910
807.472	2937
807.614	2910
807.756	3001
807.898	2899
808.04	2891
808.182	2963
808.324	2952
808.465	2834
808.607	2823
808.749	2811
808.891	2823
809.033	2967
809.174	2960
809.316	2887
809.458	2887
809.6	2743
809.741	2781
809.883	2773
810.025	2815
810.166	2861
810.308	2830
810.45	2838
810.591	2750
810.733	2781
810.875	2777
811.016	2743
811.158	2689
811.299	2777
811.441	2895
811.582	2861
811.724	2815
811.865	2849
812.007	2861
812.148	2861
812.29	2830
812.431	2887
812.573	2941
812.714	2918
812.855	3017
812.997	3024
813.138	3093
813.279	2956
813.421	2975
813.562	2952
813.703	2853
813.845	2876
813.986	2727
814.127	2697
814.268	2792
814.41	2819
814.551	2804
814.692	2883
814.833	2804
814.974	2880
815.115	2948
815.256	2823
815.397	2807
815.539	2845
815.68	2766
815.821	2811
815.962	2948
816.103	2925
816.244	2849
816.385	2845
816.526	2963
816.666	2918
816.807	2727
816.948	2861
817.089	2918
817.23	2823
817.371	2773
817.512	2788
817.653	2819
817.793	2788
817.934	2872
818.075	2979
818.216	2944
818.356	3024
818.497	2876
818.638	2777
818.778	2773
818.919	2762
819.06	2739
819.2	2872
819.341	2804
819.481	2766
819.622	2925
819.762	3070
819.903	3062
820.043	2895
820.184	2864
820.324	2864
820.465	3020
820.605	3028
820.746	3039
820.886	2929
821.026	3055
821.167	3138
821.307	3256
821.447	3275
821.588	3230
821.728	3184
821.868	3165
822.008	3070
822.149	3169
822.289	3173
822.429	3051
822.569	3104
822.709	3154
822.849	3043
822.99	3074
823.13	3104
823.27	3184
823.41	3085
823.55	3127
823.69	3135
823.83	3226
823.97	3077
824.11	2998
824.25	2952
824.389	3043
824.529	3043
824.669	3013
824.809	3176
824.949	3253
825.089	3233
825.228	3127
825.368	3024
825.508	2963
825.648	2952
825.787	2986
825.927	3032
826.067	2967
826.206	2929
826.346	3039
826.485	3047
826.625	3066
826.765	3226
826.904	3195
827.044	2971
827.183	2918
827.323	2823
827.462	2986
827.601	2941
827.741	2941
827.88	2933
828.02	2876
828.159	2933
828.298	3020
828.437	3089
828.577	3051
828.716	3230
828.855	3062
828.994	2944
829.134	2883
829.273	2902
829.412	2872
829.551	2876
829.69	2918
829.829	2963
829.968	3116
830.107	2971
830.246	3036
830.385	2876
830.524	2887
830.663	2811
830.802	2716
830.941	2667
831.08	2651
831.219	2781
831.357	2781
831.496	2929
831.635	2766
831.774	2663
831.913	2629
832.051	2549
832.19	2610
832.329	2678
832.467	2537
832.606	2484
832.744	2575
832.883	2602
833.022	2583
833.16	2640
833.299	2689
833.437	2708
833.576	2712
833.714	2693
833.852	2720
833.991	2777
834.129	2788
834.267	2823
834.406	2758
834.544	2864
834.682	2899
834.821	2830
834.959	3051
835.097	2868
835.235	3039
835.373	2986
835.511	3009
835.65	2922
835.788	2956
835.926	2857
836.064	2804
836.202	2838
836.34	3028
836.478	3176
836.615	3058
836.753	3104
836.891	3169
837.029	3157
837.167	3058
837.305	3058
837.443	3039
837.58	2956
837.718	3074
837.856	3043
837.993	3001
838.131	3131
838.269	3135
838.406	3077
838.544	3104
838.681	2929
838.819	2880
838.956	2781
839.094	2838
839.231	2914
839.369	2948
839.506	3374
839.643	3176
839.781	2990
839.918	2952
840.055	3039
840.193	3051
840.33	3036
840.467	3104
840.604	3108
840.742	3397
840.879	3009
841.016	3039
841.153	3081
841.29	3340
841.427	3302
841.564	3233
841.701	3298
841.838	3176
841.975	3146
842.112	3176
842.249	3112
842.385	3020
842.522	3226
842.659	3097
842.796	3005
842.933	3077
843.069	3058
843.206	3028
843.343	3157
843.479	3108
843.616	3100
843.752	2902
843.889	2902
844.025	3112
844.162	2880
844.298	3081
844.435	2960
844.571	2933
844.708	3108
844.844	3203
844.98	3214
845.117	3199
845.253	3039
845.389	3017
845.525	3112
845.661	3100
845.798	3001
845.934	3131
846.07	3051
846.206	3245
846.342	3378
846.478	3268
846.614	3089
846.75	3074
846.886	3017
847.022	3207
847.158	3150
847.294	3226
847.429	3294
847.565	3237
847.701	3488
847.837	3017
847.972	3070
848.108	3211
848.244	3165
848.379	2982
848.515	2998
848.65	2944
848.786	3036
848.921	3032
849.057	3123
849.192	3184
849.328	3093
849.463	3161
849.598	3142
849.734	3070
849.869	3001
850.004	2914
850.14	2994
850.275	2952
850.41	2872
850.545	2948
850.68	2971
850.815	2979
850.95	3024
851.085	3226
851.22	3093
851.355	3058
851.49	3005
851.625	3074
851.76	3036
851.895	2986
852.03	2963
852.165	3036
852.299	3180
852.434	3207
852.569	3169
852.703	3222
852.838	3275
852.973	3370
853.107	3344
853.242	3207
853.376	3154
853.511	3032
853.645	3074
853.78	3245
853.914	3161
854.048	3138
854.183	3135
854.317	3188
854.451	3310
854.585	3176
854.72	3146
854.854	3260
854.988	3100
855.122	3150
855.256	3028
855.39	3154
855.524	3294
855.658	3245
855.792	3150
855.926	3211
856.06	3268
856.194	3264
856.327	3161
856.461	3116
856.595	3081
856.729	3108
856.862	3249
856.996	3169
857.13	3226
857.263	3249
857.397	3298
857.53	3176
857.664	3256
857.797	3256
857.931	3268
858.064	3211
858.197	3211
858.331	3157
858.464	3112
858.597	3020
858.731	3131
858.864	3188
858.997	3085
859.13	3180
859.263	3176
859.396	3230
859.529	3119
859.662	3093
859.795	3070
859.928	3173
860.061	3325
860.194	3298
860.327	3146
860.46	3081
860.592	3256
860.725	3298
860.858	3287
860.99	3112
861.123	3108
861.256	3081
861.388	3173
861.521	3861
861.653	3093
861.786	3028
861.918	3013
862.05	3077
862.183	3119
862.315	3169
862.447	3237
862.58	3119
862.712	2982
862.844	2880
862.976	3039
863.108	3009
863.24	3294
863.372	2872
863.504	3009
863.636	2941
863.768	3051
863.9	3020
864.032	2929
864.164	2986
864.296	3051
864.428	3097
864.559	3131
864.691	3070
864.823	3089
864.954	3043
865.086	3062
865.217	3028
865.349	2967
865.48	2990
865.612	3020
865.743	3188
865.875	2994
866.006	2960
866.137	2998
866.269	3005
866.4	2975
866.531	2929
866.662	2937
866.793	2933
866.924	2933
867.055	2990
867.186	2929
867.317	2891
867.448	2849
867.579	2910
867.71	2880
867.841	2880
867.972	2952
868.103	2906
868.233	2948
868.364	2933
868.495	2925
868.625	3112
868.756	3203
868.886	2982
869.017	3074
869.147	3161
869.278	3165
869.408	3043
869.539	3097
869.669	3131
869.799	3066
869.929	3157
870.06	3123
870.19	3393
870.32	3306
870.45	3325
870.58	3412
870.71	3466
870.84	3492
870.97	3340
871.1	3272
871.23	3523
871.36	3500
871.489	3409
871.619	3435
871.749	3439
871.879	3469
872.008	3530
872.138	3424
872.267	3302
872.397	3165
872.526	3142
872.656	2998
872.785	3127
872.915	3287
873.044	3329
873.173	3237
873.303	3302
873.432	3264
873.561	3249
873.69	3176
873.819	3165
873.948	3233
874.077	3146
874.206	3070
874.335	3108
874.464	3226
874.593	3397
874.722	3260
874.851	3389
874.979	3370
875.108	3348
875.237	3264
875.365	3214
875.494	3195
875.623	3294
875.751	3116
875.88	3176
876.008	3218
876.136	3253
876.265	3386
876.393	3557
876.521	3424
876.65	3462
876.778	3351
876.906	3283
877.034	3214
877.162	3237
877.29	3226
877.418	3245
877.546	3272
877.674	3279
877.802	3245
877.93	3283
878.058	3161
878.185	3150
878.313	3230
878.441	3237
878.568	3100
878.696	3173
878.824	3256
878.951	3306
879.079	3469
879.206	3675
879.333	3466
879.461	3344
879.588	3374
879.715	3481
879.842	3656
879.97	3428
880.097	3207
880.224	3169
880.351	3180
880.478	3264
880.605	3233
880.732	3230
880.859	3542
880.986	3283
881.112	3340
881.239	3226
881.366	3157
881.493	3074
881.619	3051
881.746	3074
881.872	3123
881.999	3119
882.125	3146
882.252	3249
882.378	3340
882.505	3515
882.631	3321
882.757	3211
882.883	3237
883.01	3218
883.136	3165
883.262	3116
883.388	3116
883.514	3344
883.64	3397
883.766	3313
883.892	3241
884.018	3222
884.143	3443
884.269	3561
884.395	3237
884.52	3203
884.646	3218
884.772	3169
884.897	3150
885.023	3222
885.148	3313
885.274	3416
885.399	3367
885.524	3317
885.65	3264
885.775	3348
885.9	3355
886.025	3428
886.15	3355
886.275	3332
886.4	3279
886.525	3329
886.65	3313
886.775	3313
886.9	3534
887.025	3663
887.149	3397
887.274	3268
887.399	3188
887.523	3237
887.648	3203
887.773	3233
887.897	3363
888.021	3431
888.146	3310
888.27	3443
888.395	3542
888.519	3424
888.643	3454
888.767	3500
888.891	3370
889.015	3253
889.139	3344
889.263	3294
889.387	3435
889.511	3549
889.635	3466
889.759	3306
889.883	3325
890.006	3439
890.13	3466
890.254	3275
890.377	3329
890.501	3233
890.624	3222
890.748	3310
890.871	3203
890.995	3104
891.118	3081
891.241	3218
891.364	3211
891.488	3336
891.611	3207
891.734	3230
891.857	3275
891.98	3237
892.103	3359
892.226	3256
892.349	3226
892.471	3116
892.594	3283
892.717	3317
892.839	3279
892.962	3283
893.085	3374
893.207	3340
893.33	3146
893.452	3230
893.575	3367
893.697	3283
893.819	3473
893.941	3515
894.064	3477
894.186	3306
894.308	3313
894.43	3469
894.552	3538
894.674	3477
894.796	3313
894.918	3348
895.04	3291
895.161	3439
895.283	3435
895.405	3321
895.526	3386
895.648	3443
895.769	3454
895.891	3507
896.012	3511
896.134	3526
896.255	3458
896.376	3382
896.498	3405
896.619	3450
896.74	3393
896.861	3462
896.982	3717
897.103	3850
897.224	3610
897.345	3538
897.466	3450
897.587	3488
897.708	3629
897.828	3584
897.949	3492
898.07	3363
898.19	3431
898.311	3629
898.431	3485
898.552	3538
898.672	3603
898.792	3610
898.913	3530
899.033	3450
899.153	3310
899.273	3222
899.393	3313
899.513	3321
899.633	3374
899.753	3378
899.873	3344
899.993	3382
900.113	3363
900.232	3412
900.352	3336
900.472	3294
900.591	3222
900.711	3302
900.83	3237
900.95	3450
901.069	3511
901.189	3355
901.308	3157
901.427	3176
901.546	3222
901.665	3317
901.784	3359
901.904	3241
902.023	3142
902.141	3043
902.26	3005
902.379	3169
902.498	3100
902.617	3058
902.735	3222
902.854	3275
902.973	3203
903.091	3055
903.21	3058
903.328	3146
903.446	3192
903.565	3112
903.683	3218
903.801	3142
903.919	3275
904.038	3294
904.156	3176
904.274	3332
904.392	3264
904.51	3291
904.627	3310
904.745	3454
904.863	3500
904.981	3272
905.098	3157
905.216	3264
905.334	3325
905.451	3336
905.569	3287
905.686	3458
905.803	3439
905.921	3272
906.038	3412
906.155	3340
906.272	3272
906.389	3367
906.506	3287
906.623	3279
906.74	3275
906.857	3161
906.974	3268
907.091	3450
907.208	3557
907.324	3477
907.441	3412
907.557	3245
907.674	3279
907.79	3253
907.907	3275
908.023	3359
908.139	3363
908.256	3351
908.372	3393
908.488	3344
908.604	3272
908.72	3264
908.836	3313
908.952	3310
909.068	3363
909.184	3485
909.3	3389
909.415	3504
909.531	3458
909.647	3275
909.762	3275
909.878	3222
909.993	3351
910.108	3355
910.224	3382
910.339	3450
910.454	3313
910.57	3294
910.685	3245
910.8	3591
910.915	3504
911.03	3450
911.145	3291
911.259	3256
911.374	3340
911.489	3253
911.604	3241
911.718	3138
911.833	3180
911.947	3020
912.062	2986
912.176	3176
912.291	3195
912.405	3214
912.519	3428
912.633	3473
912.748	3348
912.862	3294
912.976	3150
913.09	3089
913.204	3165
913.318	3226
913.431	3325
913.545	3370
913.659	3420
913.772	3355
913.886	3222
914	3218
914.113	3393
914.226	3431
914.34	3412
914.453	3230
914.566	3412
914.68	3298
914.793	3336
914.906	3146
915.019	3112
915.132	3085
915.245	3192
915.358	3241
915.47	3249
915.583	3302
915.696	3313
915.809	3462
915.921	3435
916.034	3279
916.146	3306
916.259	3253
916.371	3462
916.483	3416
916.595	3287
916.708	3393
916.82	3355
916.932	3431
917.044	3374
917.156	3386
917.268	3279
917.38	3378
917.491	3340
917.603	3409
917.715	3466
917.826	3473
917.938	3409
918.049	3329
918.161	3450
918.272	3618
918.384	3652
918.495	3549
918.606	3389
918.717	3351
918.828	3420
918.939	3481
919.05	3389
919.161	3386
919.272	3192
919.383	3291
919.494	3496
919.604	3740
919.715	3515
919.826	3450
919.936	3511
920.047	3614
920.157	3610
920.267	3819
920.378	3690
920.488	3622
920.598	3797
920.708	3964
920.818	3888
920.928	3907
921.038	4059
921.148	4090
921.258	3740
921.368	3709
921.477	3633
921.587	3610
921.697	3530
921.806	3682
921.916	3599
922.025	3363
922.134	3393
922.244	3355
922.353	3439
922.462	3287
922.571	3253
922.68	3188
922.789	3131
922.898	3188
923.007	3169
923.116	3241
923.224	3184
923.333	3245
923.442	3138
923.55	3112
923.659	3176
923.767	3268
923.876	3195
923.984	3272
924.092	3135
924.201	3264
924.309	3249
924.417	3275
924.525	3199
924.633	3275
924.741	4215
924.849	3077
924.956	3313
925.064	3165
925.172	3097
925.279	3123
925.387	3260
925.494	3268
925.602	3420
925.709	3355
925.816	3195
925.924	3317
926.031	3428
926.138	3386
926.245	3393
926.352	3291
926.459	3443
926.566	3542
926.673	3340
926.779	3313
926.886	3294
926.993	3203
927.099	3161
927.206	3157
927.312	3131
927.419	3275
927.525	3230
927.631	3329
927.737	3195
927.843	3173
927.95	3089
928.056	3146
928.162	3214
928.267	3294
928.373	3861
928.479	3332
928.585	3119
928.69	3245
928.796	3294
928.901	3207
929.007	3081
929.112	3237
929.218	3253
929.323	3211
929.428	3199
929.533	3317
929.638	3127
929.743	3226
929.848	3260
929.953	3237
930.058	3192
930.163	3017
930.267	3100
930.372	3230
930.477	3062
930.581	3382
930.685	3230
930.79	3066
930.894	3154
930.998	3112
931.103	3325
931.207	3020
931.311	2975
931.415	2952
931.519	2819
931.623	2845
