Data from test_V78500241_1202.txt Node
Date: Fri Mar 25 16:23:31 CST 2022
User: usil
Spectrometer: V785-0024
Trigger mode: 0
Integration Time (sec): 4.000000E-1
Scans to average: 1
Nonlinearity correction enabled: false
Boxcar width: 0
Storing dark spectrum: false
XAxis mode: Wavelengths
Number of Pixels in Spectrum: 1024
>>>>>Begin Spectral Data<<<<<
801.071	2883
801.214	2956
801.356	2887
801.499	2895
801.641	2880
801.783	2910
801.926	3047
802.068	2952
802.211	2982
802.353	3024
802.496	2941
802.638	2998
802.78	3074
802.923	3066
803.065	3005
803.208	2899
803.35	2933
803.492	2967
803.635	2929
803.777	2739
803.919	2872
804.061	3195
804.204	2948
804.346	2918
804.488	2861
804.63	2963
804.773	2861
804.915	2880
805.057	3001
805.199	2937
805.341	2971
805.483	3058
805.626	2975
805.768	2982
805.91	3097
806.052	3077
806.194	3032
806.336	3241
806.478	2994
806.62	2948
806.762	2982
806.904	3036
807.046	3154
807.188	2982
807.33	2910
807.472	2975
807.614	2914
807.756	2952
807.898	2910
808.04	2891
808.182	2971
808.324	2910
808.465	2887
808.607	2887
808.749	2792
808.891	2857
809.033	2994
809.174	2975
809.316	2868
809.458	2899
809.6	2766
809.741	2777
809.883	2758
810.025	2826
810.166	2895
810.308	2861
810.45	2861
810.591	2766
810.733	2746
810.875	2807
811.016	2769
811.158	2754
811.299	2781
811.441	2899
811.582	2891
811.724	2823
811.865	2857
812.007	2887
812.148	2941
812.29	2807
812.431	2864
812.573	2922
812.714	2982
812.855	3055
812.997	3028
813.138	3112
813.279	3005
813.421	2979
813.562	2963
813.703	2853
813.845	2849
813.986	2766
814.127	2727
814.268	2815
814.41	2845
814.551	2834
814.692	2868
814.833	2842
814.974	2883
815.115	2941
815.256	2826
815.397	2811
815.539	2857
815.68	2781
815.821	2785
815.962	2914
816.103	2876
816.244	2887
816.385	2872
816.526	2982
816.666	2883
816.807	2758
816.948	2887
817.089	2929
817.23	2845
817.371	2785
817.512	2811
817.653	2887
817.793	2811
817.934	2842
818.075	2994
818.216	2979
818.356	3013
818.497	2902
818.638	2781
818.778	2804
818.919	2804
819.06	2712
819.2	2857
819.341	2807
819.481	2796
819.622	2952
819.762	3081
819.903	3062
820.043	2906
820.184	2880
820.324	2895
820.465	2994
820.605	3001
820.746	3017
820.886	2937
821.026	3108
821.167	3176
821.307	3256
821.447	3253
821.588	3226
821.728	3199
821.868	3146
822.008	3066
822.149	3173
822.289	3203
822.429	3077
822.569	3051
822.709	3188
822.849	3047
822.99	3097
823.13	3154
823.27	3195
823.41	3077
823.55	3146
823.69	3165
823.83	3214
823.97	3070
824.11	2990
824.25	2998
824.389	3070
824.529	3097
824.669	3062
824.809	3214
824.949	3222
825.089	3241
825.228	3173
825.368	3005
825.508	2933
825.648	2944
825.787	2986
825.927	2986
826.067	2975
826.206	2960
826.346	3051
826.485	3055
826.625	3100
826.765	3256
826.904	3207
827.044	2967
827.183	2902
827.323	2876
827.462	2994
827.601	2902
827.741	2933
827.88	2925
828.02	2830
828.159	2956
828.298	3017
828.437	3100
828.577	3017
828.716	3218
828.855	3055
828.994	2887
829.134	2899
829.273	2902
829.412	2876
829.551	2845
829.69	2910
829.829	2948
829.968	3146
830.107	2979
830.246	3051
830.385	2933
830.524	2868
830.663	2766
830.802	2708
830.941	2670
831.08	2659
831.219	2739
831.357	2739
831.496	2929
831.635	2708
831.774	2625
831.913	2663
832.051	2545
832.19	2545
832.329	2701
832.467	2545
832.606	2446
832.744	2590
832.883	2571
833.022	2568
833.16	2632
833.299	2636
833.437	2674
833.576	2708
833.714	2712
833.852	2724
833.991	2754
834.129	2819
834.267	2819
834.406	2739
834.544	2861
834.682	2895
834.821	2868
834.959	3047
835.097	2887
835.235	3051
835.373	2998
835.511	3028
835.65	2914
835.788	2929
835.926	2842
836.064	2788
836.202	2849
836.34	3081
836.478	3176
836.615	3001
836.753	3131
836.891	3207
837.029	3161
837.167	3100
837.305	3089
837.443	3039
837.58	2967
837.718	3154
837.856	3070
837.993	3070
838.131	3081
838.269	3093
838.406	3077
838.544	3062
838.681	2899
838.819	2910
838.956	2807
839.094	2811
839.231	2899
839.369	3001
839.506	3370
839.643	3195
839.781	3020
839.918	2952
840.055	3051
840.193	3013
840.33	3043
840.467	3093
840.604	3127
840.742	3412
840.879	3077
841.016	3062
841.153	3097
841.29	3279
841.427	3294
841.564	3287
841.701	3351
841.838	3218
841.975	3195
842.112	3192
842.249	3062
842.385	3039
842.522	3214
842.659	3104
842.796	3028
842.933	3097
843.069	3024
843.206	3009
843.343	3169
843.479	3108
843.616	3123
843.752	2887
843.889	2876
844.025	3055
844.162	2883
844.298	3062
844.435	2925
844.571	2895
844.708	3043
844.844	3161
844.98	3253
845.117	3176
845.253	3051
845.389	2990
845.525	3070
845.661	3074
845.798	3047
845.934	3127
846.07	3097
846.206	3268
846.342	3306
846.478	3218
846.614	3104
846.75	3024
846.886	2998
847.022	3218
847.158	3161
847.294	3207
847.429	3214
847.565	3214
847.701	3424
847.837	2998
847.972	3020
848.108	3173
848.244	3135
848.379	3009
848.515	2925
848.65	2941
848.786	2952
848.921	2971
849.057	3093
849.192	3131
849.328	3066
849.463	3081
849.598	3055
849.734	3017
849.869	2967
850.004	2883
850.14	2956
850.275	2918
850.41	2834
850.545	2925
850.68	2906
850.815	2918
850.95	2952
851.085	3146
851.22	3116
851.355	3032
851.49	2967
851.625	2990
851.76	2982
851.895	2918
852.03	2925
852.165	3024
852.299	3108
852.434	3154
852.569	3100
852.703	3176
852.838	3241
852.973	3332
853.107	3317
853.242	3123
853.376	3085
853.511	2990
853.645	3001
853.78	3233
853.914	3100
854.048	3123
854.183	3097
854.317	3116
854.451	3256
854.585	3131
854.72	3043
854.854	3237
854.988	3020
855.122	3077
855.256	2971
855.39	3077
855.524	3203
855.658	3150
855.792	3127
855.926	3161
856.06	3214
856.194	3268
856.327	3154
856.461	3093
856.595	3077
856.729	3097
856.862	3184
856.996	3154
857.13	3195
857.263	3241
857.397	3287
857.53	3093
857.664	3157
857.797	3214
857.931	3233
858.064	3165
858.197	3188
858.331	3169
858.464	3093
858.597	2998
858.731	3047
858.864	3138
858.997	3116
859.13	3176
859.263	3173
859.396	3188
859.529	3051
859.662	3074
859.795	3051
859.928	3135
860.061	3275
860.194	3268
860.327	3142
860.46	3093
860.592	3237
860.725	3260
860.858	3226
860.99	3104
861.123	3028
861.256	3028
861.388	3108
861.521	3629
861.653	3001
861.786	2960
861.918	2986
862.05	3085
862.183	3085
862.315	3173
862.447	3195
862.58	3070
862.712	2922
862.844	2849
862.976	3051
863.108	3005
863.24	3397
863.372	2872
863.504	2929
863.636	2956
863.768	3028
863.9	2963
864.032	2906
864.164	2971
864.296	3005
864.428	3100
864.559	3070
864.691	3062
864.823	3085
864.954	3055
865.086	3039
865.217	2982
865.349	2899
865.48	2982
865.612	3028
865.743	3146
865.875	2963
866.006	2963
866.137	2963
866.269	2910
866.4	2922
866.531	2895
866.662	2891
866.793	2857
866.924	2887
867.055	2952
867.186	2902
867.317	2857
867.448	2830
867.579	2830
867.71	2887
867.841	2804
867.972	2925
868.103	2876
868.233	2861
868.364	2902
868.495	2887
868.625	3058
868.756	3165
868.886	2937
869.017	3001
869.147	3131
869.278	3112
869.408	3039
869.539	3024
869.669	3123
869.799	2998
869.929	3116
870.06	3127
870.19	3294
870.32	3317
870.45	3313
870.58	3336
870.71	3450
870.84	3435
870.97	3283
871.1	3222
871.23	3462
871.36	3454
871.489	3336
871.619	3374
871.749	3378
871.879	3393
872.008	3488
872.138	3359
872.267	3264
872.397	3146
872.526	3074
872.656	3055
872.785	3097
872.915	3237
873.044	3291
873.173	3195
873.303	3214
873.432	3245
873.561	3233
873.69	3138
873.819	3119
873.948	3184
874.077	3058
874.206	3043
874.335	3077
874.464	3226
874.593	3291
874.722	3237
874.851	3389
874.979	3340
875.108	3325
875.237	3203
875.365	3146
875.494	3146
875.623	3253
875.751	3104
875.88	3127
876.008	3226
876.136	3188
876.265	3348
876.393	3500
876.521	3420
876.65	3397
876.778	3329
876.906	3207
877.034	3214
877.162	3237
877.29	3233
877.418	3256
877.546	3226
877.674	3245
877.802	3287
877.93	3233
878.058	3131
878.185	3104
878.313	3188
878.441	3195
878.568	3062
878.696	3180
878.824	3237
878.951	3325
879.079	3412
879.206	3595
879.333	3443
879.461	3348
879.588	3378
879.715	3496
879.842	3614
879.97	3355
880.097	3165
880.224	3116
880.351	3146
880.478	3207
880.605	3195
880.732	3131
880.859	3500
880.986	3294
881.112	3306
881.239	3176
881.366	3081
881.493	2994
881.619	3028
881.746	3077
881.872	3077
881.999	3062
882.125	3131
882.252	3272
882.378	3264
882.505	3344
882.631	3207
882.757	3135
882.883	3195
883.01	3253
883.136	3169
883.262	3093
883.388	3135
883.514	3310
883.64	3351
883.766	3268
883.892	3180
884.018	3245
884.143	3393
884.269	3549
884.395	3150
884.52	3119
884.646	3176
884.772	3116
884.897	3089
885.023	3188
885.148	3336
885.274	3389
885.399	3382
885.524	3268
885.65	3237
885.775	3344
885.9	3283
886.025	3431
886.15	3329
886.275	3325
886.4	3176
886.525	3272
886.65	3313
886.775	3268
886.9	3469
887.025	3610
887.149	3412
887.274	3237
887.399	3127
887.523	3161
887.648	3142
887.773	3207
887.897	3340
888.021	3382
888.146	3275
888.27	3435
888.395	3549
888.519	3370
888.643	3473
888.767	3447
888.891	3310
889.015	3214
889.139	3283
889.263	3211
889.387	3405
889.511	3523
889.635	3454
889.759	3275
889.883	3302
890.006	3378
890.13	3462
890.254	3268
890.377	3332
890.501	3226
890.624	3142
890.748	3287
890.871	3157
890.995	3097
891.118	3074
891.241	3154
891.364	3268
891.488	3313
891.611	3142
891.734	3199
891.857	3275
891.98	3230
892.103	3340
892.226	3291
892.349	3180
892.471	3093
892.594	3249
892.717	3321
892.839	3272
892.962	3287
893.085	3382
893.207	3310
893.33	3161
893.452	3218
893.575	3332
893.697	3245
893.819	3435
893.941	3507
894.064	3370
894.186	3275
894.308	3279
894.43	3428
894.552	3481
894.674	3458
894.796	3302
894.918	3321
895.04	3268
895.161	3424
895.283	3359
895.405	3287
895.526	3336
895.648	3462
895.769	3424
895.891	3409
896.012	3458
896.134	3515
896.255	3389
896.376	3355
896.498	3348
896.619	3428
896.74	3340
896.861	3409
896.982	3690
897.103	3857
897.224	3568
897.345	3538
897.466	3454
897.587	3469
897.708	3614
897.828	3519
897.949	3428
898.07	3298
898.19	3405
898.311	3618
898.431	3485
898.552	3492
898.672	3584
898.792	3568
898.913	3515
899.033	3397
899.153	3256
899.273	3218
899.393	3279
899.513	3291
899.633	3310
899.753	3329
899.873	3302
899.993	3393
900.113	3348
900.232	3344
900.352	3310
900.472	3264
900.591	3192
900.711	3294
900.83	3230
900.95	3439
901.069	3454
901.189	3344
901.308	3192
901.427	3142
901.546	3214
901.665	3268
901.784	3302
901.904	3195
902.023	3123
902.141	2998
902.26	3024
902.379	3161
902.498	3066
902.617	3066
902.735	3211
902.854	3253
902.973	3169
903.091	3043
903.21	3043
903.328	3127
903.446	3074
903.565	3089
903.683	3192
903.801	3150
903.919	3268
904.038	3272
904.156	3173
904.274	3272
904.392	3245
904.51	3241
904.627	3351
904.745	3412
904.863	3526
904.981	3218
905.098	3165
905.216	3226
905.334	3294
905.451	3287
905.569	3306
905.686	3424
905.803	3431
905.921	3241
906.038	3428
906.155	3344
906.272	3287
906.389	3306
906.506	3188
906.623	3256
906.74	3291
906.857	3173
906.974	3275
907.091	3416
907.208	3576
907.324	3496
907.441	3340
907.557	3214
907.674	3245
907.79	3226
907.907	3260
908.023	3382
908.139	3351
908.256	3329
908.372	3359
908.488	3325
908.604	3230
908.72	3218
908.836	3249
908.952	3268
909.068	3313
909.184	3435
909.3	3393
909.415	3519
909.531	3454
909.647	3287
909.762	3260
909.878	3230
909.993	3351
910.108	3325
910.224	3313
910.339	3431
910.454	3329
910.57	3283
910.685	3218
910.8	3614
910.915	3515
911.03	3393
911.145	3211
911.259	3272
911.374	3287
911.489	3211
911.604	3211
911.718	3100
911.833	3142
911.947	3028
912.062	2982
912.176	3154
912.291	3173
912.405	3180
912.519	3409
912.633	3485
912.748	3340
912.862	3287
912.976	3146
913.09	3039
913.204	3173
913.318	3233
913.431	3329
913.545	3336
913.659	3412
913.772	3302
913.886	3226
914	3230
914.113	3363
914.226	3382
914.34	3363
914.453	3249
914.566	3389
914.68	3268
914.793	3298
914.906	3127
915.019	3116
915.132	3055
915.245	3184
915.358	3245
915.47	3233
915.583	3226
915.696	3245
915.809	3378
915.921	3439
916.034	3272
916.146	3233
916.259	3195
916.371	3351
916.483	3355
916.595	3321
916.708	3302
916.82	3382
916.932	3340
917.044	3313
917.156	3359
917.268	3237
917.38	3302
917.491	3302
917.603	3389
917.715	3439
917.826	3473
917.938	3378
918.049	3253
918.161	3462
918.272	3564
918.384	3515
918.495	3500
918.606	3344
918.717	3275
918.828	3386
918.939	3389
919.05	3291
919.161	3359
919.272	3173
919.383	3279
919.494	3504
919.604	3667
919.715	3473
919.826	3389
919.936	3420
920.047	3542
920.157	3564
920.267	3759
920.378	3576
920.488	3553
920.598	3819
920.708	3956
920.818	3804
920.928	3850
921.038	4029
921.148	3987
921.258	3679
921.368	3595
921.477	3568
921.587	3511
921.697	3454
921.806	3595
921.916	3526
922.025	3351
922.134	3359
922.244	3306
922.353	3393
922.462	3279
922.571	3226
922.68	3066
922.789	3077
922.898	3119
923.007	3131
923.116	3169
923.224	3157
923.333	3214
923.442	3116
923.55	3116
923.659	3116
923.767	3226
923.876	3089
923.984	3253
924.092	3165
924.201	3249
924.309	3203
924.417	3272
924.525	3180
924.633	3237
924.741	4051
924.849	3066
924.956	3279
925.064	3116
925.172	3039
925.279	3138
925.387	3226
925.494	3192
925.602	3378
925.709	3336
925.816	3188
925.924	3294
926.031	3374
926.138	3313
926.245	3310
926.352	3230
926.459	3367
926.566	3450
926.673	3317
926.779	3264
926.886	3230
926.993	3154
927.099	3093
927.206	3112
927.312	3157
927.419	3218
927.525	3195
927.631	3256
927.737	3112
927.843	3097
927.95	3024
928.056	3119
928.162	3142
928.267	3253
928.373	3816
928.479	3325
928.585	3032
928.69	3199
928.796	3264
928.901	3154
929.007	3089
929.112	3184
929.218	3176
929.323	3161
929.428	3173
929.533	3340
929.638	3104
929.743	3165
929.848	3272
929.953	3199
930.058	3135
930.163	2967
930.267	3024
930.372	3195
930.477	3039
930.581	3298
930.685	3180
930.79	3043
930.894	3119
930.998	3093
931.103	3287
931.207	2990
931.311	2925
931.415	2925
931.519	2773
931.623	2777
