Data from test_V78500241_210.txt Node
Date: Fri Mar 25 16:16:39 CST 2022
User: usil
Spectrometer: V785-0024
Trigger mode: 0
Integration Time (sec): 4.000000E-1
Scans to average: 1
Nonlinearity correction enabled: false
Boxcar width: 0
Storing dark spectrum: false
XAxis mode: Wavelengths
Number of Pixels in Spectrum: 1024
>>>>>Begin Spectral Data<<<<<
801.071	2929
801.214	2967
801.356	2861
801.499	2899
801.641	2864
801.783	2929
801.926	3089
802.068	2963
802.211	3001
802.353	3055
802.496	2941
802.638	3005
802.78	3058
802.923	3055
803.065	2982
803.208	2891
803.35	2899
803.492	2933
803.635	2933
803.777	2788
803.919	2849
804.061	3176
804.204	2960
804.346	2914
804.488	2880
804.63	3005
804.773	2868
804.915	2929
805.057	3077
805.199	2906
805.341	2975
805.483	3028
805.626	2994
805.768	2956
805.91	3051
806.052	3085
806.194	3024
806.336	3233
806.478	3051
806.62	2952
806.762	3024
806.904	3055
807.046	3150
807.188	2971
807.33	2902
807.472	2937
807.614	2929
807.756	3009
807.898	2918
808.04	2941
808.182	3005
808.324	2929
808.465	2864
808.607	2883
808.749	2807
808.891	2864
809.033	2944
809.174	2963
809.316	2891
809.458	2887
809.6	2792
809.741	2777
809.883	2785
810.025	2868
810.166	2910
810.308	2880
810.45	2857
810.591	2781
810.733	2800
810.875	2849
811.016	2785
811.158	2735
811.299	2834
811.441	2941
811.582	2883
811.724	2842
811.865	2872
812.007	2906
812.148	2880
812.29	2868
812.431	2887
812.573	2941
812.714	3013
812.855	3055
812.997	3062
813.138	3081
813.279	3036
813.421	3001
813.562	2967
813.703	2887
813.845	2902
813.986	2807
814.127	2731
814.268	2823
814.41	2861
814.551	2842
814.692	2868
814.833	2823
814.974	2922
815.115	2967
815.256	2845
815.397	2800
815.539	2876
815.68	2788
815.821	2785
815.962	2982
816.103	2922
816.244	2914
816.385	2868
816.526	2975
816.666	2906
816.807	2766
816.948	2883
817.089	2887
817.23	2872
817.371	2800
817.512	2777
817.653	2868
817.793	2819
817.934	2891
818.075	2971
818.216	2967
818.356	3051
818.497	2895
818.638	2758
818.778	2819
818.919	2804
819.06	2758
819.2	2876
819.341	2804
819.481	2766
819.622	2937
819.762	3104
819.903	3036
820.043	2902
820.184	2902
820.324	2910
820.465	3036
820.605	3005
820.746	2990
820.886	2948
821.026	3112
821.167	3142
821.307	3226
821.447	3237
821.588	3264
821.728	3203
821.868	3188
822.008	3100
822.149	3180
822.289	3230
822.429	3085
822.569	3119
822.709	3180
822.849	3020
822.99	3047
823.13	3195
823.27	3173
823.41	3123
823.55	3135
823.69	3146
823.83	3135
823.97	3074
824.11	2986
824.25	3024
824.389	3081
824.529	3131
824.669	3077
824.809	3199
824.949	3283
825.089	3226
825.228	3142
825.368	3020
825.508	2979
825.648	2986
825.787	3028
825.927	3028
826.067	2990
826.206	2914
826.346	3058
826.485	3108
826.625	3127
826.765	3264
826.904	3192
827.044	3005
827.183	2948
827.323	2887
827.462	3036
827.601	2925
827.741	2929
827.88	2963
828.02	2902
828.159	2998
828.298	3058
828.437	3150
828.577	3070
828.716	3298
828.855	3104
828.994	2933
829.134	2914
829.273	2975
829.412	2872
829.551	2914
829.69	2960
829.829	3058
829.968	3169
830.107	3043
830.246	3036
830.385	2944
830.524	2906
830.663	2868
830.802	2769
830.941	2678
831.08	2705
831.219	2785
831.357	2815
831.496	3017
831.635	2769
831.774	2659
831.913	2682
832.051	2602
832.19	2640
832.329	2743
832.467	2621
832.606	2526
832.744	2621
832.883	2651
833.022	2632
833.16	2678
833.299	2720
833.437	2724
833.576	2724
833.714	2796
833.852	2762
833.991	2800
834.129	2906
834.267	2887
834.406	2861
834.544	2914
834.682	2948
834.821	2922
834.959	3108
835.097	2979
835.235	3138
835.373	3070
835.511	3070
835.65	3024
835.788	3017
835.926	2876
836.064	2861
836.202	2941
836.34	3150
836.478	3188
836.615	3119
836.753	3184
836.891	3272
837.029	3203
837.167	3157
837.305	3135
837.443	3081
837.58	3032
837.718	3192
837.856	3131
837.993	3085
838.131	3176
838.269	3157
838.406	3119
838.544	3146
838.681	2998
838.819	2952
838.956	2830
839.094	2902
839.231	2944
839.369	3062
839.506	3447
839.643	3268
839.781	3062
839.918	3024
840.055	3097
840.193	3104
840.33	3138
840.467	3184
840.604	3203
840.742	3447
840.879	3093
841.016	3070
841.153	3157
841.29	3374
841.427	3370
841.564	3283
841.701	3389
841.838	3256
841.975	3249
842.112	3287
842.249	3150
842.385	3089
842.522	3298
842.659	3123
842.796	3131
842.933	3097
843.069	3070
843.206	3135
843.343	3211
843.479	3203
843.616	3188
843.752	2952
843.889	2956
844.025	3116
844.162	2937
844.298	3146
844.435	2956
844.571	2960
844.708	3123
844.844	3233
844.98	3291
845.117	3230
845.253	3123
845.389	3062
845.525	3154
845.661	3116
845.798	3070
845.934	3176
846.07	3127
846.206	3279
846.342	3336
846.478	3264
846.614	3131
846.75	3104
846.886	3047
847.022	3287
847.158	3211
847.294	3283
847.429	3317
847.565	3275
847.701	3504
847.837	3066
847.972	3020
848.108	3192
848.244	3180
848.379	3039
848.515	3043
848.65	2990
848.786	3028
848.921	3070
849.057	3146
849.192	3184
849.328	3093
849.463	3165
849.598	3085
849.734	3047
849.869	3055
850.004	2998
850.14	3005
850.275	2982
850.41	2880
850.545	2952
850.68	2967
850.815	3020
850.95	3013
851.085	3211
851.22	3169
851.355	3062
851.49	3047
851.625	3017
851.76	3055
851.895	2986
852.03	2963
852.165	3089
852.299	3154
852.434	3188
852.569	3184
852.703	3241
852.838	3287
852.973	3378
853.107	3389
853.242	3218
853.376	3127
853.511	3009
853.645	3081
853.78	3294
853.914	3150
854.048	3188
854.183	3146
854.317	3161
854.451	3321
854.585	3142
854.72	3150
854.854	3249
854.988	3104
855.122	3123
855.256	3028
855.39	3146
855.524	3264
855.658	3249
855.792	3203
855.926	3233
856.06	3272
856.194	3344
856.327	3199
856.461	3119
856.595	3116
856.729	3169
856.862	3249
856.996	3188
857.13	3264
857.263	3260
857.397	3306
857.53	3199
857.664	3214
857.797	3298
857.931	3279
858.064	3260
858.197	3260
858.331	3142
858.464	3127
858.597	3028
858.731	3169
858.864	3173
858.997	3131
859.13	3192
859.263	3226
859.396	3241
859.529	3165
859.662	3150
859.795	3066
859.928	3176
860.061	3302
860.194	3310
860.327	3169
860.46	3131
860.592	3241
860.725	3241
860.858	3268
860.99	3146
861.123	3097
861.256	3093
861.388	3176
861.521	3922
861.653	3036
861.786	3009
861.918	3020
862.05	3119
862.183	3123
862.315	3195
862.447	3218
862.58	3131
862.712	2979
862.844	2914
862.976	3062
863.108	3051
863.24	3329
863.372	2918
863.504	3017
863.636	2979
863.768	3058
863.9	3024
864.032	2941
864.164	3024
864.296	3047
864.428	3100
864.559	3165
864.691	3089
864.823	3077
864.954	3058
865.086	3112
865.217	2982
865.349	2975
865.48	3032
865.612	3024
865.743	3157
865.875	3028
866.006	3013
866.137	3039
866.269	2952
866.4	2998
866.531	2971
866.662	2941
866.793	2937
866.924	2937
867.055	3017
867.186	2967
867.317	2925
867.448	2887
867.579	2887
867.71	2880
867.841	2826
867.972	2944
868.103	2960
868.233	2887
868.364	2914
868.495	2941
868.625	3108
868.756	3199
868.886	2994
869.017	3081
869.147	3195
869.278	3211
869.408	3097
869.539	3047
869.669	3135
869.799	3055
869.929	3180
870.06	3154
870.19	3409
870.32	3344
870.45	3291
870.58	3416
870.71	3515
870.84	3504
870.97	3348
871.1	3279
871.23	3519
871.36	3515
871.489	3370
871.619	3424
871.749	3447
871.879	3424
872.008	3580
872.138	3412
872.267	3306
872.397	3176
872.526	3154
872.656	3051
872.785	3119
872.915	3272
873.044	3321
873.173	3245
873.303	3260
873.432	3264
873.561	3279
873.69	3218
873.819	3226
873.948	3241
874.077	3173
874.206	3055
874.335	3119
874.464	3245
874.593	3370
874.722	3287
874.851	3409
874.979	3367
875.108	3332
875.237	3230
875.365	3184
875.494	3169
875.623	3302
875.751	3142
875.88	3165
876.008	3199
876.136	3272
876.265	3370
876.393	3523
876.521	3485
876.65	3447
876.778	3363
876.906	3279
877.034	3275
877.162	3275
877.29	3203
877.418	3317
877.546	3302
877.674	3279
877.802	3253
877.93	3291
878.058	3192
878.185	3154
878.313	3230
878.441	3226
878.568	3146
878.696	3195
878.824	3294
878.951	3332
879.079	3481
879.206	3625
879.333	3428
879.461	3370
879.588	3389
879.715	3511
879.842	3644
879.97	3439
880.097	3188
880.224	3169
880.351	3233
880.478	3233
880.605	3260
880.732	3211
880.859	3523
880.986	3298
881.112	3355
881.239	3233
881.366	3089
881.493	3062
881.619	3058
881.746	3135
881.872	3119
881.999	3108
882.125	3173
882.252	3294
882.378	3279
882.505	3454
882.631	3287
882.757	3176
882.883	3245
883.01	3241
883.136	3180
883.262	3142
883.388	3135
883.514	3329
883.64	3389
883.766	3283
883.892	3195
884.018	3272
884.143	3450
884.269	3538
884.395	3192
884.52	3199
884.646	3199
884.772	3199
884.897	3138
885.023	3249
885.148	3367
885.274	3443
885.399	3401
885.524	3317
885.65	3325
885.775	3374
885.9	3294
886.025	3462
886.15	3420
886.275	3317
886.4	3272
886.525	3355
886.65	3264
886.775	3310
886.9	3549
887.025	3660
887.149	3431
887.274	3294
887.399	3188
887.523	3233
887.648	3279
887.773	3214
887.897	3405
888.021	3454
888.146	3317
888.27	3492
888.395	3576
888.519	3488
888.643	3488
888.767	3466
888.891	3344
889.015	3256
889.139	3321
889.263	3321
889.387	3439
889.511	3504
889.635	3515
889.759	3336
889.883	3336
890.006	3401
890.13	3515
890.254	3313
890.377	3363
890.501	3241
890.624	3195
890.748	3317
890.871	3180
890.995	3138
891.118	3123
891.241	3199
891.364	3275
891.488	3359
891.611	3207
891.734	3245
891.857	3317
891.98	3249
892.103	3370
892.226	3287
892.349	3253
892.471	3127
892.594	3275
892.717	3329
892.839	3294
892.962	3344
893.085	3363
893.207	3325
893.33	3211
893.452	3226
893.575	3386
893.697	3283
893.819	3458
893.941	3553
894.064	3485
894.186	3298
894.308	3279
894.43	3492
894.552	3542
894.674	3507
894.796	3268
894.918	3313
895.04	3264
895.161	3473
895.283	3439
895.405	3355
895.526	3370
895.648	3428
895.769	3431
895.891	3462
896.012	3481
896.134	3511
896.255	3454
896.376	3409
896.498	3401
896.619	3466
896.74	3370
896.861	3424
896.982	3740
897.103	3861
897.224	3610
897.345	3511
897.466	3439
897.587	3511
897.708	3648
897.828	3576
897.949	3435
898.07	3329
898.19	3481
898.311	3614
898.431	3431
898.552	3515
898.672	3603
898.792	3610
898.913	3519
899.033	3435
899.153	3332
899.273	3253
899.393	3313
899.513	3367
899.633	3348
899.753	3348
899.873	3325
899.993	3370
900.113	3351
900.232	3435
900.352	3348
900.472	3313
900.591	3237
900.711	3332
900.83	3249
900.95	3447
901.069	3568
901.189	3336
901.308	3180
901.427	3146
901.546	3233
901.665	3329
901.784	3382
901.904	3233
902.023	3199
902.141	2990
902.26	3009
902.379	3161
902.498	3085
902.617	3074
902.735	3192
902.854	3272
902.973	3195
903.091	3058
903.21	3093
903.328	3154
903.446	3135
903.565	3127
903.683	3226
903.801	3154
903.919	3287
904.038	3344
904.156	3195
904.274	3298
904.392	3302
904.51	3351
904.627	3348
904.745	3473
904.863	3530
904.981	3294
905.098	3211
905.216	3264
905.334	3332
905.451	3302
905.569	3313
905.686	3458
905.803	3450
905.921	3287
906.038	3458
906.155	3351
906.272	3279
906.389	3367
906.506	3264
906.623	3272
906.74	3348
906.857	3222
906.974	3287
907.091	3473
907.208	3587
907.324	3500
907.441	3416
907.557	3272
907.674	3222
907.79	3184
907.907	3325
908.023	3409
908.139	3348
908.256	3359
908.372	3412
908.488	3378
908.604	3275
908.72	3275
908.836	3302
908.952	3310
909.068	3351
909.184	3488
909.3	3424
909.415	3519
909.531	3515
909.647	3283
909.762	3302
909.878	3260
909.993	3397
910.108	3393
910.224	3325
910.339	3443
910.454	3405
910.57	3351
910.685	3256
910.8	3614
910.915	3553
911.03	3439
911.145	3321
911.259	3317
911.374	3348
911.489	3283
911.604	3230
911.718	3176
911.833	3161
911.947	3058
912.062	3013
912.176	3222
912.291	3253
912.405	3222
912.519	3485
912.633	3511
912.748	3378
912.862	3253
912.976	3188
913.09	3051
913.204	3180
913.318	3287
913.431	3340
913.545	3348
913.659	3416
913.772	3340
913.886	3222
914	3253
914.113	3348
914.226	3401
914.34	3409
914.453	3264
914.566	3450
914.68	3306
914.793	3340
914.906	3138
915.019	3150
915.132	3074
915.245	3211
915.358	3268
915.47	3253
915.583	3283
915.696	3317
915.809	3386
915.921	3450
916.034	3283
916.146	3275
916.259	3294
916.371	3431
916.483	3405
916.595	3245
916.708	3393
916.82	3332
916.932	3367
917.044	3348
917.156	3386
917.268	3291
917.38	3332
917.491	3306
917.603	3424
917.715	3466
917.826	3477
917.938	3397
918.049	3317
918.161	3450
918.272	3599
918.384	3622
918.495	3515
918.606	3351
918.717	3294
918.828	3378
918.939	3454
919.05	3336
919.161	3367
919.272	3222
919.383	3302
919.494	3534
919.604	3682
919.715	3542
919.826	3409
919.936	3477
920.047	3614
920.157	3545
920.267	3804
920.378	3656
920.488	3610
920.598	3812
920.708	3979
920.818	3884
920.928	3857
921.038	4029
921.148	4006
921.258	3751
921.368	3641
921.477	3530
921.587	3549
921.697	3469
921.806	3648
921.916	3553
922.025	3363
922.134	3351
922.244	3340
922.353	3401
922.462	3317
922.571	3249
922.68	3146
922.789	3108
922.898	3157
923.007	3077
923.116	3207
923.224	3195
923.333	3214
923.442	3131
923.55	3093
923.659	3195
923.767	3237
923.876	3127
923.984	3249
924.092	3131
924.201	3195
924.309	3272
924.417	3272
924.525	3199
924.633	3256
924.741	4242
924.849	3047
924.956	3317
925.064	3135
925.172	3058
925.279	3154
925.387	3230
925.494	3199
925.602	3355
925.709	3325
925.816	3211
925.924	3283
926.031	3401
926.138	3340
926.245	3348
926.352	3310
926.459	3412
926.566	3466
926.673	3306
926.779	3249
926.886	3245
926.993	3195
927.099	3146
927.206	3112
927.312	3146
927.419	3245
927.525	3192
927.631	3256
927.737	3214
927.843	3119
927.95	3039
928.056	3116
928.162	3195
928.267	3272
928.373	3857
928.479	3351
928.585	3112
928.69	3264
928.796	3279
928.901	3199
929.007	3062
929.112	3195
929.218	3165
929.323	3161
929.428	3161
929.533	3313
929.638	3127
929.743	3184
929.848	3241
929.953	3241
930.058	3173
930.163	3001
930.267	3058
930.372	3207
930.477	3017
930.581	3313
930.685	3211
930.79	3135
930.894	3127
930.998	3112
931.103	3291
931.207	2990
931.311	2967
931.415	2918
931.519	2815
931.623	2826
