Data from test_V78500241_1556.txt Node
Date: Fri Mar 25 16:25:58 CST 2022
User: usil
Spectrometer: V785-0024
Trigger mode: 0
Integration Time (sec): 4.000000E-1
Scans to average: 1
Nonlinearity correction enabled: false
Boxcar width: 0
Storing dark spectrum: false
XAxis mode: Wavelengths
Number of Pixels in Spectrum: 1024
>>>>>Begin Spectral Data<<<<<
801.071	2887
801.214	2952
801.356	2868
801.499	2899
801.641	2876
801.783	2937
801.926	3062
802.068	2986
802.211	3001
802.353	3028
802.496	2998
802.638	2986
802.78	3013
802.923	3070
803.065	3009
803.208	2872
803.35	2883
803.492	2944
803.635	2937
803.777	2746
803.919	2819
804.061	3211
804.204	2944
804.346	2918
804.488	2834
804.63	2967
804.773	2857
804.915	2891
805.057	3066
805.199	2960
805.341	2948
805.483	3066
805.626	3020
805.768	2975
805.91	3097
806.052	3093
806.194	3024
806.336	3245
806.478	3017
806.62	2941
806.762	2956
806.904	3043
807.046	3222
807.188	2952
807.33	2887
807.472	2994
807.614	2918
807.756	2982
807.898	2937
808.04	2880
808.182	2960
808.324	2979
808.465	2845
808.607	2876
808.749	2788
808.891	2815
809.033	2963
809.174	2979
809.316	2891
809.458	2883
809.6	2781
809.741	2788
809.883	2785
810.025	2838
810.166	2861
810.308	2819
810.45	2899
810.591	2785
810.733	2750
810.875	2826
811.016	2758
811.158	2724
811.299	2804
811.441	2910
811.582	2895
811.724	2773
811.865	2834
812.007	2914
812.148	2910
812.29	2834
812.431	2887
812.573	2914
812.714	2948
812.855	3047
812.997	3036
813.138	3146
813.279	3062
813.421	3020
813.562	2948
813.703	2842
813.845	2891
813.986	2769
814.127	2705
814.268	2788
814.41	2819
814.551	2792
814.692	2880
814.833	2819
814.974	2880
815.115	2971
815.256	2849
815.397	2819
815.539	2842
815.68	2781
815.821	2762
815.962	2937
816.103	2899
816.244	2857
816.385	2880
816.526	2925
816.666	2922
816.807	2724
816.948	2891
817.089	2910
817.23	2842
817.371	2762
817.512	2754
817.653	2845
817.793	2800
817.934	2891
818.075	2948
818.216	2956
818.356	3009
818.497	2857
818.638	2788
818.778	2800
818.919	2769
819.06	2773
819.2	2864
819.341	2811
819.481	2777
819.622	2914
819.762	3081
819.903	3028
820.043	2929
820.184	2872
820.324	2952
820.465	3013
820.605	3055
820.746	2994
820.886	2922
821.026	3081
821.167	3173
821.307	3233
821.447	3268
821.588	3230
821.728	3188
821.868	3165
822.008	3047
822.149	3161
822.289	3207
822.429	3081
822.569	3077
822.709	3218
822.849	3043
822.99	3074
823.13	3173
823.27	3184
823.41	3081
823.55	3127
823.69	3150
823.83	3161
823.97	3070
824.11	2994
824.25	2979
824.389	3070
824.529	3104
824.669	3043
824.809	3218
824.949	3237
825.089	3184
825.228	3176
825.368	2960
825.508	2944
825.648	2982
825.787	2990
825.927	2990
826.067	2998
826.206	2982
826.346	3020
826.485	3047
826.625	3097
826.765	3272
826.904	3207
827.044	3017
827.183	2937
827.323	2853
827.462	2960
827.601	2857
827.741	2895
827.88	2948
828.02	2876
828.159	2941
828.298	3039
828.437	3081
828.577	3020
828.716	3268
828.855	3055
828.994	2906
829.134	2899
829.273	2902
829.412	2857
829.551	2864
829.69	2872
829.829	2990
829.968	3112
830.107	3020
830.246	3005
830.385	2902
830.524	2864
830.663	2826
830.802	2739
830.941	2629
831.08	2648
831.219	2743
831.357	2735
831.496	2990
831.635	2720
831.774	2659
831.913	2640
832.051	2556
832.19	2571
832.329	2663
832.467	2514
832.606	2488
832.744	2575
832.883	2530
833.022	2579
833.16	2636
833.299	2697
833.437	2705
833.576	2701
833.714	2697
833.852	2727
833.991	2720
834.129	2796
834.267	2823
834.406	2792
834.544	2853
834.682	2864
834.821	2864
834.959	3077
835.097	2880
835.235	3043
835.373	3013
835.511	2971
835.65	2952
835.788	2941
835.926	2826
836.064	2788
836.202	2842
836.34	3051
836.478	3146
836.615	3024
836.753	3112
836.891	3180
837.029	3169
837.167	3100
837.305	3055
837.443	3062
837.58	2948
837.718	3100
837.856	3074
837.993	3001
838.131	3127
838.269	3138
838.406	3123
838.544	3081
838.681	2937
838.819	2937
838.956	2811
839.094	2826
839.231	2895
839.369	2998
839.506	3355
839.643	3214
839.781	3001
839.918	2944
840.055	3085
840.193	3051
840.33	3062
840.467	3074
840.604	3127
840.742	3397
840.879	3058
841.016	3039
841.153	3097
841.29	3329
841.427	3302
841.564	3272
841.701	3294
841.838	3230
841.975	3161
842.112	3203
842.249	3119
842.385	3043
842.522	3253
842.659	3112
842.796	3047
842.933	3112
843.069	3039
843.206	3062
843.343	3176
843.479	3100
843.616	3146
843.752	2899
843.889	2868
844.025	3085
844.162	2872
844.298	3020
844.435	2933
844.571	2899
844.708	3077
844.844	3165
844.98	3279
845.117	3214
845.253	3047
845.389	2971
845.525	3100
845.661	3066
845.798	2994
845.934	3123
846.07	3043
846.206	3241
846.342	3344
846.478	3253
846.614	3089
846.75	3066
846.886	3013
847.022	3203
847.158	3142
847.294	3165
847.429	3241
847.565	3214
847.701	3500
847.837	3032
847.972	2982
848.108	3150
848.244	3097
848.379	2963
848.515	2918
848.65	2933
848.786	2944
848.921	2982
849.057	3104
849.192	3138
849.328	3070
849.463	3097
849.598	3028
849.734	3013
849.869	2979
850.004	2883
850.14	2956
850.275	2925
850.41	2868
850.545	2834
850.68	2899
850.815	2986
850.95	2952
851.085	3207
851.22	3074
851.355	3020
851.49	2975
851.625	2994
851.76	3005
851.895	2906
852.03	2933
852.165	2998
852.299	3093
852.434	3176
852.569	3135
852.703	3146
852.838	3275
852.973	3367
853.107	3313
853.242	3150
853.376	3077
853.511	2967
853.645	2990
853.78	3199
853.914	3104
854.048	3127
854.183	3077
854.317	3138
854.451	3253
854.585	3074
854.72	3108
854.854	3199
854.988	3081
855.122	3104
855.256	2979
855.39	3138
855.524	3253
855.658	3169
855.792	3146
855.926	3192
856.06	3195
856.194	3253
856.327	3150
856.461	3100
856.595	3100
856.729	3097
856.862	3214
856.996	3169
857.13	3211
857.263	3192
857.397	3256
857.53	3104
857.664	3150
857.797	3214
857.931	3218
858.064	3180
858.197	3192
858.331	3116
858.464	3066
858.597	3039
858.731	3097
858.864	3104
858.997	3074
859.13	3108
859.263	3169
859.396	3211
859.529	3062
859.662	3055
859.795	3077
859.928	3123
860.061	3275
860.194	3306
860.327	3150
860.46	3047
860.592	3245
860.725	3260
860.858	3275
860.99	3108
861.123	3036
861.256	3074
861.388	3123
861.521	3915
861.653	3009
861.786	2990
861.918	2986
862.05	3051
862.183	3081
862.315	3146
862.447	3165
862.58	3108
862.712	2902
862.844	2883
862.976	3020
863.108	2994
863.24	3298
863.372	2902
863.504	2990
863.636	2918
863.768	3028
863.9	2986
864.032	2902
864.164	2944
864.296	3013
864.428	3089
864.559	3100
864.691	3066
864.823	3058
864.954	3028
865.086	3051
865.217	2986
865.349	2948
865.48	2960
865.612	3013
865.743	3116
865.875	2971
866.006	2960
866.137	2929
866.269	2933
866.4	2910
866.531	2925
866.662	2883
866.793	2868
866.924	2895
867.055	2990
867.186	2922
867.317	2902
867.448	2830
867.579	2804
867.71	2868
867.841	2823
867.972	2883
868.103	2895
868.233	2872
868.364	2868
868.495	2861
868.625	3024
868.756	3165
868.886	2948
869.017	3001
869.147	3135
869.278	3150
869.408	3051
869.539	2994
869.669	3051
869.799	3032
869.929	3135
870.06	3119
870.19	3298
870.32	3264
870.45	3321
870.58	3344
870.71	3435
870.84	3443
870.97	3264
871.1	3249
871.23	3481
871.36	3428
871.489	3378
871.619	3409
871.749	3382
871.879	3409
872.008	3485
872.138	3306
872.267	3325
872.397	3119
872.526	3070
872.656	3001
872.785	3108
872.915	3207
873.044	3310
873.173	3226
873.303	3237
873.432	3218
873.561	3230
873.69	3154
873.819	3146
873.948	3195
874.077	3127
874.206	3051
874.335	3116
874.464	3222
874.593	3325
874.722	3214
874.851	3355
874.979	3291
875.108	3329
875.237	3207
875.365	3157
875.494	3161
875.623	3218
875.751	3097
875.88	3108
876.008	3180
876.136	3211
876.265	3370
876.393	3534
876.521	3401
876.65	3393
876.778	3355
876.906	3268
877.034	3211
877.162	3272
877.29	3180
877.418	3260
877.546	3241
877.674	3249
877.802	3256
877.93	3203
878.058	3127
878.185	3104
878.313	3184
878.441	3192
878.568	3062
878.696	3150
878.824	3233
878.951	3283
879.079	3458
879.206	3641
879.333	3454
879.461	3287
879.588	3363
879.715	3462
879.842	3564
879.97	3393
880.097	3150
880.224	3119
880.351	3207
880.478	3214
880.605	3230
880.732	3199
880.859	3500
880.986	3291
881.112	3329
881.239	3207
881.366	3116
881.493	3043
881.619	3039
881.746	3058
881.872	3081
881.999	3093
882.125	3142
882.252	3222
882.378	3306
882.505	3393
882.631	3256
882.757	3135
882.883	3199
883.01	3226
883.136	3154
883.262	3066
883.388	3127
883.514	3317
883.64	3351
883.766	3329
883.892	3180
884.018	3237
884.143	3401
884.269	3553
884.395	3157
884.52	3135
884.646	3180
884.772	3093
884.897	3077
885.023	3192
885.148	3344
885.274	3409
885.399	3386
885.524	3287
885.65	3256
885.775	3294
885.9	3237
886.025	3409
886.15	3336
886.275	3279
886.4	3268
886.525	3272
886.65	3287
886.775	3264
886.9	3500
887.025	3603
887.149	3374
887.274	3237
887.399	3192
887.523	3195
887.648	3150
887.773	3192
887.897	3348
888.021	3378
888.146	3279
888.27	3412
888.395	3553
888.519	3439
888.643	3447
888.767	3454
888.891	3332
889.015	3218
889.139	3268
889.263	3245
889.387	3397
889.511	3488
889.635	3447
889.759	3283
889.883	3302
890.006	3382
890.13	3477
890.254	3294
890.377	3325
890.501	3211
890.624	3161
890.748	3279
890.871	3157
890.995	3135
891.118	3070
891.241	3184
891.364	3245
891.488	3336
891.611	3165
891.734	3230
891.857	3287
891.98	3237
892.103	3355
892.226	3272
892.349	3211
892.471	3108
892.594	3199
892.717	3260
892.839	3230
892.962	3287
893.085	3382
893.207	3283
893.33	3104
893.452	3222
893.575	3336
893.697	3287
893.819	3466
893.941	3473
894.064	3409
894.186	3272
894.308	3253
894.43	3431
894.552	3492
894.674	3481
894.796	3283
894.918	3329
895.04	3310
895.161	3443
895.283	3374
895.405	3291
895.526	3386
895.648	3405
895.769	3409
895.891	3466
896.012	3473
896.134	3473
896.255	3412
896.376	3389
896.498	3340
896.619	3424
896.74	3359
896.861	3389
896.982	3671
897.103	3816
897.224	3545
897.345	3519
897.466	3393
897.587	3492
897.708	3603
897.828	3534
897.949	3397
898.07	3344
898.19	3416
898.311	3606
898.431	3473
898.552	3530
898.672	3557
898.792	3580
898.913	3500
899.033	3389
899.153	3348
899.273	3157
899.393	3253
899.513	3310
899.633	3329
899.753	3325
899.873	3256
899.993	3389
900.113	3332
900.232	3367
900.352	3344
900.472	3291
900.591	3207
900.711	3275
900.83	3226
900.95	3409
901.069	3469
901.189	3306
901.308	3165
901.427	3116
901.546	3180
901.665	3306
901.784	3336
901.904	3207
902.023	3135
902.141	3001
902.26	2967
902.379	3089
902.498	3032
902.617	3020
902.735	3203
902.854	3207
902.973	3169
903.091	3055
903.21	3058
903.328	3116
903.446	3116
903.565	3081
903.683	3192
903.801	3142
903.919	3264
904.038	3279
904.156	3218
904.274	3256
904.392	3260
904.51	3291
904.627	3348
904.745	3412
904.863	3496
904.981	3245
905.098	3195
905.216	3222
905.334	3317
905.451	3279
905.569	3287
905.686	3462
905.803	3435
905.921	3298
906.038	3416
906.155	3336
906.272	3268
906.389	3325
906.506	3218
906.623	3245
906.74	3279
906.857	3233
906.974	3230
907.091	3443
907.208	3580
907.324	3454
907.441	3340
907.557	3245
907.674	3226
907.79	3195
907.907	3264
908.023	3397
908.139	3348
908.256	3310
908.372	3344
908.488	3355
908.604	3279
908.72	3195
908.836	3233
908.952	3298
909.068	3382
909.184	3473
909.3	3405
909.415	3488
909.531	3496
909.647	3245
909.762	3287
909.878	3294
909.993	3355
910.108	3348
910.224	3367
910.339	3401
910.454	3367
910.57	3253
910.685	3245
910.8	3580
910.915	3492
911.03	3439
911.145	3226
911.259	3264
911.374	3306
911.489	3211
911.604	3245
911.718	3123
911.833	3146
911.947	3032
912.062	2990
912.176	3146
912.291	3173
912.405	3165
912.519	3431
912.633	3458
912.748	3370
912.862	3241
912.976	3150
913.09	3089
913.204	3093
913.318	3195
913.431	3291
913.545	3321
913.659	3359
913.772	3287
913.886	3203
914	3192
914.113	3374
914.226	3397
914.34	3363
914.453	3199
914.566	3389
914.68	3268
914.793	3329
914.906	3146
915.019	3070
915.132	3051
915.245	3154
915.358	3214
915.47	3203
915.583	3279
915.696	3256
915.809	3386
915.921	3458
916.034	3283
916.146	3253
916.259	3226
916.371	3363
916.483	3355
916.595	3233
916.708	3348
916.82	3264
916.932	3332
917.044	3272
917.156	3317
917.268	3253
917.38	3321
917.491	3260
917.603	3348
917.715	3462
917.826	3405
917.938	3321
918.049	3256
918.161	3439
918.272	3557
918.384	3576
918.495	3496
918.606	3332
918.717	3233
918.828	3370
918.939	3393
919.05	3313
919.161	3332
919.272	3161
919.383	3268
919.494	3534
919.604	3690
919.715	3481
919.826	3386
919.936	3458
920.047	3576
920.157	3580
920.267	3747
920.378	3660
920.488	3584
920.598	3747
920.708	3956
920.818	3846
920.928	3854
921.038	4013
921.148	3972
921.258	3740
921.368	3629
921.477	3568
921.587	3561
921.697	3511
921.806	3629
921.916	3542
922.025	3386
922.134	3389
922.244	3355
922.353	3466
922.462	3313
922.571	3241
922.68	3169
922.789	3093
922.898	3207
923.007	3119
923.116	3218
923.224	3214
923.333	3237
923.442	3150
923.55	3138
923.659	3214
923.767	3218
923.876	3154
923.984	3268
924.092	3150
924.201	3241
924.309	3218
924.417	3287
924.525	3237
924.633	3294
924.741	4219
924.849	3074
924.956	3291
925.064	3127
925.172	3123
925.279	3135
925.387	3264
925.494	3237
925.602	3389
925.709	3416
925.816	3226
925.924	3348
926.031	3431
926.138	3378
926.245	3420
926.352	3329
926.459	3469
926.566	3485
926.673	3397
926.779	3287
926.886	3313
926.993	3199
927.099	3173
927.206	3135
927.312	3157
927.419	3260
927.525	3230
927.631	3256
927.737	3184
927.843	3161
927.95	3066
928.056	3169
928.162	3165
928.267	3310
928.373	3797
928.479	3359
928.585	3146
928.69	3249
928.796	3283
928.901	3214
929.007	3062
929.112	3237
929.218	3230
929.323	3226
929.428	3161
929.533	3389
929.638	3123
929.743	3230
929.848	3298
929.953	3207
930.058	3207
930.163	3062
930.267	3089
930.372	3256
930.477	3074
930.581	3325
930.685	3169
930.79	3104
930.894	3165
930.998	3131
931.103	3287
931.207	2971
931.311	2979
931.415	2914
931.519	2804
931.623	2834
