Data from test_V78500241_195.txt Node
Date: Fri Mar 25 16:16:33 CST 2022
User: usil
Spectrometer: V785-0024
Trigger mode: 0
Integration Time (sec): 4.000000E-1
Scans to average: 1
Nonlinearity correction enabled: false
Boxcar width: 0
Storing dark spectrum: false
XAxis mode: Wavelengths
Number of Pixels in Spectrum: 1024
>>>>>Begin Spectral Data<<<<<
801.071	2925
801.214	2967
801.356	2880
801.499	2918
801.641	2906
801.783	2922
801.926	3074
802.068	2967
802.211	3005
802.353	3005
802.496	2967
802.638	3043
802.78	3051
802.923	3085
803.065	3001
803.208	2883
803.35	2899
803.492	2941
803.635	2929
803.777	2750
803.919	2861
804.061	3211
804.204	2982
804.346	2929
804.488	2868
804.63	2990
804.773	2876
804.915	2929
805.057	3077
805.199	2906
805.341	2941
805.483	3017
805.626	2982
805.768	2952
805.91	3093
806.052	3093
806.194	3051
806.336	3211
806.478	3047
806.62	2929
806.762	3009
806.904	3070
807.046	3176
807.188	3009
807.33	2914
807.472	2979
807.614	2891
807.756	2956
807.898	2918
808.04	2906
808.182	3005
808.324	2971
808.465	2887
808.607	2887
808.749	2823
808.891	2838
809.033	3001
809.174	2990
809.316	2902
809.458	2902
809.6	2819
809.741	2785
809.883	2781
810.025	2861
810.166	2880
810.308	2838
810.45	2849
810.591	2781
810.733	2762
810.875	2864
811.016	2815
811.158	2750
811.299	2811
811.441	2967
811.582	2872
811.724	2819
811.865	2853
812.007	2922
812.148	2868
812.29	2861
812.431	2883
812.573	2941
812.714	2982
812.855	3062
812.997	3058
813.138	3142
813.279	3051
813.421	2967
813.562	2979
813.703	2842
813.845	2883
813.986	2792
814.127	2735
814.268	2834
814.41	2830
814.551	2800
814.692	2906
814.833	2804
814.974	2914
815.115	2929
815.256	2842
815.397	2800
815.539	2842
815.68	2785
815.821	2758
815.962	2902
816.103	2960
816.244	2895
816.385	2864
816.526	2979
816.666	2941
816.807	2735
816.948	2880
817.089	2887
817.23	2849
817.371	2788
817.512	2800
817.653	2842
817.793	2807
817.934	2876
818.075	2948
818.216	3032
818.356	3043
818.497	2876
818.638	2788
818.778	2811
818.919	2788
819.06	2785
819.2	2910
819.341	2826
819.481	2811
819.622	2902
819.762	3104
819.903	3070
820.043	2922
820.184	2895
820.324	2872
820.465	3013
820.605	3028
820.746	3028
820.886	2910
821.026	3100
821.167	3123
821.307	3272
821.447	3302
821.588	3222
821.728	3192
821.868	3207
822.008	3074
822.149	3222
822.289	3253
822.429	3112
822.569	3085
822.709	3161
822.849	3009
822.99	3058
823.13	3154
823.27	3203
823.41	3127
823.55	3127
823.69	3135
823.83	3176
823.97	3097
824.11	2994
824.25	2998
824.389	3062
824.529	3116
824.669	3081
824.809	3192
824.949	3275
825.089	3233
825.228	3169
825.368	3028
825.508	3005
825.648	2971
825.787	3017
825.927	2986
826.067	2994
826.206	2937
826.346	3070
826.485	3116
826.625	3131
826.765	3249
826.904	3218
827.044	3005
827.183	2960
827.323	2891
827.462	2975
827.601	2941
827.741	2956
827.88	2975
828.02	2830
828.159	2971
828.298	3043
828.437	3097
828.577	3024
828.716	3211
828.855	3058
828.994	2952
829.134	2864
829.273	2902
829.412	2861
829.551	2902
829.69	2910
829.829	2990
829.968	3161
830.107	3028
830.246	3036
830.385	2933
830.524	2883
830.663	2853
830.802	2705
830.941	2651
831.08	2651
831.219	2762
831.357	2785
831.496	2941
831.635	2720
831.774	2640
831.913	2697
832.051	2564
832.19	2568
832.329	2689
832.467	2564
832.606	2473
832.744	2571
832.883	2552
833.022	2564
833.16	2648
833.299	2689
833.437	2708
833.576	2727
833.714	2720
833.852	2739
833.991	2766
834.129	2823
834.267	2811
834.406	2804
834.544	2853
834.682	2853
834.821	2861
834.959	3066
835.097	2914
835.235	3043
835.373	3005
835.511	2975
835.65	2963
835.788	2937
835.926	2826
836.064	2815
836.202	2845
836.34	3077
836.478	3138
836.615	3055
836.753	3142
836.891	3188
837.029	3157
837.167	3123
837.305	3074
837.443	3036
837.58	2967
837.718	3123
837.856	3074
837.993	3020
838.131	3154
838.269	3097
838.406	3085
838.544	3097
838.681	2960
838.819	2895
838.956	2807
839.094	2807
839.231	2906
839.369	2998
839.506	3386
839.643	3218
839.781	3043
839.918	2948
840.055	3081
840.193	3017
840.33	3017
840.467	3093
840.604	3154
840.742	3389
840.879	3013
841.016	3051
841.153	3089
841.29	3291
841.427	3275
841.564	3275
841.701	3287
841.838	3226
841.975	3214
842.112	3260
842.249	3108
842.385	3043
842.522	3253
842.659	3051
842.796	3043
842.933	3108
843.069	3051
843.206	3070
843.343	3192
843.479	3100
843.616	3157
843.752	2922
843.889	2876
844.025	3097
844.162	2906
844.298	3097
844.435	2998
844.571	2948
844.708	3085
844.844	3203
844.98	3268
845.117	3264
845.253	3093
845.389	3036
845.525	3112
845.661	3150
845.798	3020
845.934	3154
846.07	3066
846.206	3283
846.342	3363
846.478	3256
846.614	3135
846.75	3097
846.886	3055
847.022	3298
847.158	3207
847.294	3218
847.429	3287
847.565	3237
847.701	3534
847.837	3074
847.972	3020
848.108	3188
848.244	3157
848.379	3074
848.515	2979
848.65	2971
848.786	3001
848.921	3070
849.057	3146
849.192	3192
849.328	3093
849.463	3161
849.598	3097
849.734	3089
849.869	3009
850.004	2956
850.14	3020
850.275	2963
850.41	2922
850.545	2948
850.68	2960
850.815	3043
850.95	3024
851.085	3233
851.22	3138
851.355	3081
851.49	3070
851.625	3055
851.76	3074
851.895	3013
852.03	2979
852.165	3074
852.299	3161
852.434	3233
852.569	3192
852.703	3222
852.838	3310
852.973	3370
853.107	3389
853.242	3226
853.376	3161
853.511	3047
853.645	3070
853.78	3253
853.914	3199
854.048	3142
854.183	3131
854.317	3176
854.451	3340
854.585	3192
854.72	3176
854.854	3237
854.988	3100
855.122	3135
855.256	3005
855.39	3127
855.524	3321
855.658	3211
855.792	3237
855.926	3256
856.06	3294
856.194	3294
856.327	3199
856.461	3100
856.595	3165
856.729	3116
856.862	3279
856.996	3218
857.13	3245
857.263	3275
857.397	3302
857.53	3127
857.664	3249
857.797	3310
857.931	3298
858.064	3211
858.197	3249
858.331	3207
858.464	3085
858.597	3028
858.731	3150
858.864	3169
858.997	3116
859.13	3154
859.263	3207
859.396	3245
859.529	3138
859.662	3123
859.795	3089
859.928	3199
860.061	3313
860.194	3310
860.327	3184
860.46	3180
860.592	3272
860.725	3268
860.858	3306
860.99	3165
861.123	3077
861.256	3055
861.388	3199
861.521	3880
861.653	3074
861.786	3028
861.918	3036
862.05	3074
862.183	3138
862.315	3203
862.447	3253
862.58	3150
862.712	2994
862.844	2941
862.976	3074
863.108	3047
863.24	3382
863.372	2967
863.504	3005
863.636	2967
863.768	3047
863.9	3009
864.032	2963
864.164	2986
864.296	3070
864.428	3146
864.559	3135
864.691	3127
864.823	3100
864.954	3089
865.086	3089
865.217	3005
865.349	2956
865.48	3020
865.612	3055
865.743	3203
865.875	3028
866.006	2967
866.137	3009
866.269	2956
866.4	2971
866.531	2960
866.662	2941
866.793	2914
866.924	2922
867.055	3001
867.186	2948
867.317	2902
867.448	2864
867.579	2857
867.71	2891
867.841	2845
867.972	2941
868.103	2960
868.233	2910
868.364	2944
868.495	2944
868.625	3131
868.756	3245
868.886	3013
869.017	3066
869.147	3180
869.278	3222
869.408	3081
869.539	3036
869.669	3104
869.799	3093
869.929	3203
870.06	3150
870.19	3393
870.32	3348
870.45	3370
870.58	3439
870.71	3466
870.84	3496
870.97	3344
871.1	3291
871.23	3553
871.36	3496
871.489	3374
871.619	3447
871.749	3458
871.879	3462
872.008	3504
872.138	3389
872.267	3310
872.397	3195
872.526	3157
872.656	3039
872.785	3146
872.915	3287
873.044	3355
873.173	3279
873.303	3294
873.432	3291
873.561	3294
873.69	3184
873.819	3180
873.948	3226
874.077	3165
874.206	3081
874.335	3093
874.464	3245
874.593	3329
874.722	3310
874.851	3420
874.979	3367
875.108	3389
875.237	3260
875.365	3218
875.494	3218
875.623	3264
875.751	3104
875.88	3165
876.008	3275
876.136	3264
876.265	3424
876.393	3564
876.521	3477
876.65	3431
876.778	3363
876.906	3260
877.034	3279
877.162	3264
877.29	3230
877.418	3321
877.546	3298
877.674	3287
877.802	3256
877.93	3253
878.058	3169
878.185	3100
878.313	3256
878.441	3279
878.568	3097
878.696	3169
878.824	3298
878.951	3351
879.079	3492
879.206	3648
879.333	3507
879.461	3374
879.588	3401
879.715	3477
879.842	3610
879.97	3405
880.097	3214
880.224	3184
880.351	3218
880.478	3256
880.605	3253
880.732	3249
880.859	3557
880.986	3336
881.112	3355
881.239	3275
881.366	3123
881.493	3062
881.619	3077
881.746	3104
881.872	3131
881.999	3104
882.125	3184
882.252	3325
882.378	3317
882.505	3485
882.631	3332
882.757	3184
882.883	3233
883.01	3241
883.136	3222
883.262	3150
883.388	3165
883.514	3367
883.64	3397
883.766	3313
883.892	3218
884.018	3249
884.143	3431
884.269	3610
884.395	3226
884.52	3195
884.646	3199
884.772	3173
884.897	3127
885.023	3237
885.148	3363
885.274	3447
885.399	3393
885.524	3310
885.65	3317
885.775	3367
885.9	3340
886.025	3473
886.15	3389
886.275	3340
886.4	3287
886.525	3325
886.65	3336
886.775	3272
886.9	3519
887.025	3656
887.149	3431
887.274	3310
887.399	3272
887.523	3188
887.648	3222
887.773	3211
887.897	3363
888.021	3447
888.146	3336
888.27	3469
888.395	3584
888.519	3481
888.643	3454
888.767	3481
888.891	3332
889.015	3294
889.139	3340
889.263	3268
889.387	3409
889.511	3519
889.635	3488
889.759	3302
889.883	3367
890.006	3424
890.13	3507
890.254	3325
890.377	3363
890.501	3241
890.624	3184
890.748	3306
890.871	3245
890.995	3108
891.118	3116
891.241	3199
891.364	3260
891.488	3389
891.611	3180
891.734	3268
891.857	3336
891.98	3294
892.103	3401
892.226	3306
892.349	3222
892.471	3131
892.594	3294
892.717	3321
892.839	3313
892.962	3317
893.085	3409
893.207	3351
893.33	3199
893.452	3207
893.575	3405
893.697	3272
893.819	3534
893.941	3561
894.064	3473
894.186	3313
894.308	3332
894.43	3462
894.552	3545
894.674	3534
894.796	3279
894.918	3359
895.04	3370
895.161	3454
895.283	3435
895.405	3359
895.526	3389
895.648	3466
895.769	3447
895.891	3511
896.012	3511
896.134	3500
896.255	3424
896.376	3431
896.498	3428
896.619	3488
896.74	3397
896.861	3435
896.982	3743
897.103	3903
897.224	3663
897.345	3595
897.466	3496
897.587	3511
897.708	3644
897.828	3591
897.949	3462
898.07	3340
898.19	3447
898.311	3629
898.431	3485
898.552	3545
898.672	3629
898.792	3663
898.913	3538
899.033	3435
899.153	3344
899.273	3264
899.393	3317
899.513	3378
899.633	3329
899.753	3374
899.873	3332
899.993	3454
900.113	3389
900.232	3447
900.352	3340
900.472	3321
900.591	3249
900.711	3306
900.83	3302
900.95	3447
901.069	3500
901.189	3363
901.308	3279
901.427	3184
901.546	3207
901.665	3332
901.784	3382
901.904	3245
902.023	3161
902.141	3043
902.26	3005
902.379	3161
902.498	3104
902.617	3093
902.735	3237
902.854	3275
902.973	3226
903.091	3062
903.21	3104
903.328	3176
903.446	3116
903.565	3116
903.683	3203
903.801	3157
903.919	3306
904.038	3348
904.156	3199
904.274	3306
904.392	3253
904.51	3302
904.627	3355
904.745	3492
904.863	3557
904.981	3313
905.098	3207
905.216	3298
905.334	3340
905.451	3321
905.569	3332
905.686	3466
905.803	3492
905.921	3325
906.038	3435
906.155	3370
906.272	3325
906.389	3409
906.506	3253
906.623	3298
906.74	3294
906.857	3233
906.974	3264
907.091	3458
907.208	3587
907.324	3511
907.441	3443
907.557	3275
907.674	3226
907.79	3218
907.907	3294
908.023	3424
908.139	3405
908.256	3348
908.372	3374
908.488	3340
908.604	3283
908.72	3253
908.836	3302
908.952	3321
909.068	3386
909.184	3538
909.3	3401
909.415	3523
909.531	3485
909.647	3302
909.762	3359
909.878	3264
909.993	3424
910.108	3355
910.224	3370
910.339	3428
910.454	3370
910.57	3321
910.685	3256
910.8	3625
910.915	3584
911.03	3469
911.145	3283
911.259	3287
911.374	3317
911.489	3260
911.604	3260
911.718	3161
911.833	3199
911.947	3058
912.062	3028
912.176	3211
912.291	3203
912.405	3233
912.519	3424
912.633	3500
912.748	3370
912.862	3317
912.976	3188
913.09	3070
913.204	3195
913.318	3226
913.431	3310
913.545	3363
913.659	3428
913.772	3332
913.886	3249
914	3249
914.113	3378
914.226	3424
914.34	3439
914.453	3260
914.566	3424
914.68	3336
914.793	3332
914.906	3169
915.019	3203
915.132	3104
915.245	3233
915.358	3253
915.47	3249
915.583	3302
915.696	3313
915.809	3462
915.921	3477
916.034	3275
916.146	3287
916.259	3272
916.371	3443
916.483	3409
916.595	3313
916.708	3382
916.82	3367
916.932	3393
917.044	3370
917.156	3386
917.268	3291
917.38	3367
917.491	3363
917.603	3439
917.715	3485
917.826	3519
917.938	3420
918.049	3329
918.161	3485
918.272	3610
918.384	3603
918.495	3564
918.606	3439
918.717	3351
918.828	3405
918.939	3469
919.05	3389
919.161	3424
919.272	3249
919.383	3378
919.494	3549
919.604	3709
919.715	3568
919.826	3473
919.936	3515
920.047	3652
920.157	3625
920.267	3808
920.378	3648
920.488	3660
920.598	3846
920.708	4055
920.818	3888
920.928	3903
921.038	4082
921.148	4048
921.258	3717
921.368	3629
921.477	3694
921.587	3614
921.697	3538
921.806	3667
921.916	3614
922.025	3382
922.134	3443
922.244	3393
922.353	3458
922.462	3310
922.571	3310
922.68	3184
922.789	3157
922.898	3207
923.007	3161
923.116	3249
923.224	3230
923.333	3237
923.442	3188
923.55	3112
923.659	3207
923.767	3283
923.876	3180
923.984	3294
924.092	3161
924.201	3260
924.309	3294
924.417	3325
924.525	3264
924.633	3313
924.741	4265
924.849	3097
924.956	3310
925.064	3108
925.172	3097
925.279	3150
925.387	3291
925.494	3260
925.602	3359
925.709	3389
925.816	3253
925.924	3344
926.031	3420
926.138	3412
926.245	3424
926.352	3321
926.459	3492
926.566	3557
926.673	3374
926.779	3317
926.886	3313
926.993	3226
927.099	3176
927.206	3173
927.312	3188
927.419	3264
927.525	3287
927.631	3294
927.737	3192
927.843	3146
927.95	3081
928.056	3211
928.162	3176
928.267	3317
928.373	3934
928.479	3348
928.585	3108
928.69	3237
928.796	3298
928.901	3218
929.007	3093
929.112	3222
929.218	3233
929.323	3226
929.428	3188
929.533	3367
929.638	3184
929.743	3249
929.848	3291
929.953	3291
930.058	3222
930.163	3066
930.267	3093
930.372	3260
930.477	3089
930.581	3389
930.685	3249
930.79	3085
930.894	3195
930.998	3169
931.103	3321
931.207	3043
931.311	2963
931.415	2982
931.519	2796
931.623	2868
