Data from test_V78500241_447.txt Node
Date: Fri Mar 25 16:18:18 CST 2022
User: usil
Spectrometer: V785-0024
Trigger mode: 0
Integration Time (sec): 4.000000E-1
Scans to average: 1
Nonlinearity correction enabled: false
Boxcar width: 0
Storing dark spectrum: false
XAxis mode: Wavelengths
Number of Pixels in Spectrum: 1024
>>>>>Begin Spectral Data<<<<<
801.071	2902
801.214	2979
801.356	2845
801.499	2899
801.641	2883
801.783	2952
801.926	3043
802.068	3013
802.211	2979
802.353	3051
802.496	2960
802.638	2994
802.78	3017
802.923	3077
803.065	3032
803.208	2887
803.35	2922
803.492	2948
803.635	2941
803.777	2769
803.919	2853
804.061	3192
804.204	2929
804.346	2929
804.488	2830
804.63	2982
804.773	2849
804.915	2937
805.057	3070
805.199	2925
805.341	3001
805.483	3009
805.626	3009
805.768	2952
805.91	3066
806.052	3104
806.194	3024
806.336	3230
806.478	3009
806.62	2937
806.762	2948
806.904	3039
807.046	3146
807.188	2998
807.33	2922
807.472	2986
807.614	2891
807.756	3013
807.898	2925
808.04	2891
808.182	2979
808.324	2982
808.465	2925
808.607	2895
808.749	2826
808.891	2861
809.033	3009
809.174	2956
809.316	2849
809.458	2914
809.6	2777
809.741	2754
809.883	2750
810.025	2857
810.166	2853
810.308	2823
810.45	2861
810.591	2777
810.733	2743
810.875	2861
811.016	2773
811.158	2758
811.299	2815
811.441	2895
811.582	2872
811.724	2811
811.865	2815
812.007	2914
812.148	2857
812.29	2838
812.431	2902
812.573	2891
812.714	2967
812.855	3036
812.997	3051
813.138	3100
813.279	2982
813.421	2986
813.562	2937
813.703	2864
813.845	2880
813.986	2773
814.127	2720
814.268	2826
814.41	2838
814.551	2788
814.692	2864
814.833	2819
814.974	2845
815.115	2979
815.256	2811
815.397	2826
815.539	2864
815.68	2766
815.821	2800
815.962	2941
816.103	2914
816.244	2883
816.385	2895
816.526	2948
816.666	2891
816.807	2743
816.948	2883
817.089	2929
817.23	2849
817.371	2788
817.512	2762
817.653	2807
817.793	2842
817.934	2853
818.075	3001
818.216	3001
818.356	3017
818.497	2891
818.638	2781
818.778	2796
818.919	2769
819.06	2735
819.2	2880
819.341	2804
819.481	2785
819.622	2906
819.762	3116
819.903	3039
820.043	2933
820.184	2937
820.324	2925
820.465	3017
820.605	2979
820.746	2998
820.886	2963
821.026	3116
821.167	3165
821.307	3256
821.447	3287
821.588	3214
821.728	3173
821.868	3169
822.008	3062
822.149	3154
822.289	3203
822.429	3074
822.569	3104
822.709	3180
822.849	3005
822.99	3066
823.13	3161
823.27	3192
823.41	3093
823.55	3154
823.69	3154
823.83	3161
823.97	3104
824.11	2982
824.25	2971
824.389	3047
824.529	3108
824.669	3062
824.809	3199
824.949	3249
825.089	3253
825.228	3165
825.368	3013
825.508	2975
825.648	2986
825.787	3013
825.927	3028
826.067	2944
826.206	2975
826.346	3024
826.485	3070
826.625	3119
826.765	3272
826.904	3211
827.044	3009
827.183	2937
827.323	2842
827.462	2979
827.601	2891
827.741	2918
827.88	2956
828.02	2849
828.159	2971
828.298	3017
828.437	3097
828.577	3032
828.716	3275
828.855	3077
828.994	2899
829.134	2883
829.273	2922
829.412	2880
829.551	2887
829.69	2872
829.829	2994
829.968	3123
830.107	3036
830.246	3028
830.385	2914
830.524	2891
830.663	2807
830.802	2716
830.941	2655
831.08	2678
831.219	2758
831.357	2758
831.496	2887
831.635	2697
831.774	2663
831.913	2659
832.051	2549
832.19	2556
832.329	2655
832.467	2530
832.606	2473
832.744	2594
832.883	2564
833.022	2556
833.16	2655
833.299	2667
833.437	2689
833.576	2667
833.714	2731
833.852	2735
833.991	2731
834.129	2872
834.267	2838
834.406	2781
834.544	2845
834.682	2891
834.821	2864
834.959	3058
835.097	2872
835.235	3024
835.373	2986
835.511	3001
835.65	2914
835.788	2925
835.926	2815
836.064	2758
836.202	2804
836.34	3081
836.478	3173
836.615	3039
836.753	3127
836.891	3184
837.029	3150
837.167	3119
837.305	3043
837.443	3036
837.58	3001
837.718	3135
837.856	3077
837.993	3013
838.131	3119
838.269	3089
838.406	3077
838.544	3085
838.681	2933
838.819	2929
838.956	2800
839.094	2830
839.231	2891
839.369	3020
839.506	3336
839.643	3176
839.781	2990
839.918	2963
840.055	3036
840.193	3062
840.33	3024
840.467	3097
840.604	3154
840.742	3370
840.879	2998
841.016	3047
841.153	3104
841.29	3302
841.427	3275
841.564	3249
841.701	3310
841.838	3226
841.975	3157
842.112	3176
842.249	3036
842.385	2990
842.522	3264
842.659	3070
842.796	3051
842.933	3123
843.069	3036
843.206	3070
843.343	3203
843.479	3108
843.616	3146
843.752	2906
843.889	2876
844.025	3058
844.162	2868
844.298	3062
844.435	2933
844.571	2895
844.708	3066
844.844	3176
844.98	3226
845.117	3184
845.253	3032
845.389	3017
845.525	3097
845.661	3077
845.798	3032
845.934	3104
846.07	3077
846.206	3218
846.342	3336
846.478	3226
846.614	3085
846.75	3058
846.886	3039
847.022	3264
847.158	3112
847.294	3184
847.429	3249
847.565	3195
847.701	3477
847.837	3017
847.972	2975
848.108	3188
848.244	3161
848.379	2994
848.515	2918
848.65	2922
848.786	2960
848.921	3005
849.057	3123
849.192	3142
849.328	3062
849.463	3116
849.598	3066
849.734	2979
849.869	2975
850.004	2948
850.14	2948
850.275	2952
850.41	2868
850.545	2883
850.68	2975
850.815	2933
850.95	3005
851.085	3207
851.22	3100
851.355	3013
851.49	2975
851.625	2982
851.76	2982
851.895	2941
852.03	2883
852.165	3020
852.299	3100
852.434	3161
852.569	3157
852.703	3165
852.838	3230
852.973	3344
853.107	3332
853.242	3150
853.376	3077
853.511	2952
853.645	3036
853.78	3233
853.914	3131
854.048	3077
854.183	3077
854.317	3142
854.451	3241
854.585	3123
854.72	3074
854.854	3180
854.988	3085
855.122	3074
855.256	2963
855.39	3093
855.524	3268
855.658	3161
855.792	3176
855.926	3203
856.06	3226
856.194	3241
856.327	3142
856.461	3062
856.595	3043
856.729	3085
856.862	3245
856.996	3157
857.13	3188
857.263	3211
857.397	3268
857.53	3085
857.664	3176
857.797	3241
857.931	3241
858.064	3184
858.197	3203
858.331	3131
858.464	3089
858.597	3013
858.731	3116
858.864	3116
858.997	3089
859.13	3131
859.263	3169
859.396	3188
859.529	3043
859.662	3062
859.795	3062
859.928	3123
860.061	3264
860.194	3272
860.327	3119
860.46	3108
860.592	3237
860.725	3253
860.858	3199
860.99	3097
861.123	3020
861.256	3081
861.388	3093
861.521	3937
861.653	3032
861.786	2994
861.918	2971
862.05	3032
862.183	3089
862.315	3173
862.447	3184
862.58	3085
862.712	2960
862.844	2864
862.976	3001
863.108	3032
863.24	3378
863.372	2876
863.504	2986
863.636	2937
863.768	3028
863.9	2975
864.032	2922
864.164	2906
864.296	3005
864.428	3074
864.559	3097
864.691	3093
864.823	3085
864.954	3051
865.086	3020
865.217	2963
865.349	2929
865.48	2994
865.612	3032
865.743	3165
865.875	3005
866.006	2933
866.137	2986
866.269	2975
866.4	2933
866.531	2929
866.662	2861
866.793	2918
866.924	2853
867.055	2971
867.186	2918
867.317	2864
867.448	2868
867.579	2838
867.71	2815
867.841	2815
867.972	2891
868.103	2902
868.233	2914
868.364	2857
868.495	2872
868.625	3077
868.756	3157
868.886	2956
869.017	2986
869.147	3165
869.278	3112
869.408	3028
869.539	3036
869.669	3100
869.799	3028
869.929	3127
870.06	3108
870.19	3317
870.32	3279
870.45	3325
870.58	3340
870.71	3435
870.84	3424
870.97	3325
871.1	3272
871.23	3469
871.36	3511
871.489	3329
871.619	3405
871.749	3359
871.879	3428
872.008	3462
872.138	3332
872.267	3291
872.397	3100
872.526	3089
872.656	3020
872.785	3089
872.915	3253
873.044	3321
873.173	3211
873.303	3264
873.432	3237
873.561	3260
873.69	3173
873.819	3154
873.948	3184
874.077	3112
874.206	3047
874.335	3161
874.464	3203
874.593	3348
874.722	3260
874.851	3416
874.979	3370
875.108	3313
875.237	3184
875.365	3123
875.494	3176
875.623	3233
875.751	3108
875.88	3131
876.008	3176
876.136	3222
876.265	3359
876.393	3477
876.521	3401
876.65	3416
876.778	3351
876.906	3249
877.034	3173
877.162	3233
877.29	3161
877.418	3253
877.546	3237
877.674	3241
877.802	3237
877.93	3214
878.058	3138
878.185	3085
878.313	3222
878.441	3169
878.568	3085
878.696	3150
878.824	3211
878.951	3298
879.079	3469
879.206	3629
879.333	3439
879.461	3310
879.588	3351
879.715	3454
879.842	3584
879.97	3344
880.097	3131
880.224	3157
880.351	3199
880.478	3188
880.605	3192
880.732	3180
880.859	3500
880.986	3279
881.112	3348
881.239	3218
881.366	3089
881.493	3036
881.619	2994
881.746	3051
881.872	3081
881.999	3058
882.125	3119
882.252	3249
882.378	3287
882.505	3450
882.631	3272
882.757	3169
882.883	3192
883.01	3195
883.136	3173
883.262	3051
883.388	3097
883.514	3313
883.64	3348
883.766	3298
883.892	3173
884.018	3230
884.143	3424
884.269	3519
884.395	3230
884.52	3169
884.646	3195
884.772	3127
884.897	3116
885.023	3233
885.148	3332
885.274	3393
885.399	3310
885.524	3291
885.65	3287
885.775	3245
885.9	3272
886.025	3428
886.15	3351
886.275	3321
886.4	3249
886.525	3313
886.65	3233
886.775	3272
886.9	3481
887.025	3648
887.149	3393
887.274	3283
887.399	3176
887.523	3188
887.648	3184
887.773	3195
887.897	3389
888.021	3359
888.146	3283
888.27	3447
888.395	3515
888.519	3466
888.643	3420
888.767	3458
888.891	3291
889.015	3226
889.139	3291
889.263	3218
889.387	3416
889.511	3515
889.635	3485
889.759	3294
889.883	3298
890.006	3389
890.13	3481
890.254	3253
890.377	3313
890.501	3169
890.624	3173
890.748	3279
890.871	3188
890.995	3066
891.118	3028
891.241	3199
891.364	3218
891.488	3291
891.611	3192
891.734	3207
891.857	3253
891.98	3287
892.103	3340
892.226	3298
892.349	3199
892.471	3104
892.594	3245
892.717	3302
892.839	3272
892.962	3260
893.085	3367
893.207	3275
893.33	3161
893.452	3199
893.575	3329
893.697	3260
893.819	3439
893.941	3507
894.064	3424
894.186	3260
894.308	3245
894.43	3424
894.552	3538
894.674	3466
894.796	3279
894.918	3283
895.04	3298
895.161	3405
895.283	3382
895.405	3298
895.526	3332
895.648	3428
895.769	3389
895.891	3416
896.012	3496
896.134	3469
896.255	3405
896.376	3401
896.498	3355
896.619	3431
896.74	3351
896.861	3397
896.982	3656
897.103	3827
897.224	3572
897.345	3500
897.466	3439
897.587	3454
897.708	3603
897.828	3572
897.949	3439
898.07	3287
898.19	3389
898.311	3595
898.431	3431
898.552	3515
898.672	3549
898.792	3580
898.913	3515
899.033	3386
899.153	3291
899.273	3264
899.393	3268
899.513	3336
899.633	3298
899.753	3310
899.873	3294
899.993	3329
900.113	3306
900.232	3382
900.352	3332
900.472	3298
900.591	3195
900.711	3310
900.83	3291
900.95	3409
901.069	3458
901.189	3313
901.308	3173
901.427	3127
901.546	3176
901.665	3310
901.784	3351
901.904	3249
902.023	3165
902.141	3009
902.26	3013
902.379	3142
902.498	3093
902.617	3062
902.735	3222
902.854	3226
902.973	3169
903.091	3020
903.21	3081
903.328	3127
903.446	3104
903.565	3112
903.683	3184
903.801	3135
903.919	3275
904.038	3272
904.156	3180
904.274	3283
904.392	3256
904.51	3306
904.627	3321
904.745	3462
904.863	3500
904.981	3253
905.098	3146
905.216	3237
905.334	3287
905.451	3302
905.569	3325
905.686	3409
905.803	3435
905.921	3310
906.038	3424
906.155	3351
906.272	3298
906.389	3332
906.506	3214
906.623	3222
906.74	3249
906.857	3195
906.974	3211
907.091	3481
907.208	3576
907.324	3420
907.441	3348
907.557	3222
907.674	3203
907.79	3237
907.907	3256
908.023	3363
908.139	3382
908.256	3317
908.372	3389
908.488	3348
908.604	3256
908.72	3222
908.836	3275
908.952	3298
909.068	3351
909.184	3488
909.3	3397
909.415	3507
909.531	3462
909.647	3249
909.762	3260
909.878	3294
909.993	3367
910.108	3344
910.224	3332
910.339	3397
910.454	3317
910.57	3306
910.685	3230
910.8	3610
910.915	3511
911.03	3473
911.145	3253
911.259	3283
911.374	3310
911.489	3275
911.604	3203
911.718	3138
911.833	3169
911.947	3055
912.062	2967
912.176	3188
912.291	3188
912.405	3203
912.519	3405
912.633	3477
912.748	3351
912.862	3275
912.976	3165
913.09	3043
913.204	3150
913.318	3211
913.431	3310
913.545	3351
913.659	3389
913.772	3348
913.886	3214
914	3226
914.113	3294
914.226	3428
914.34	3374
914.453	3207
914.566	3412
914.68	3287
914.793	3298
914.906	3188
915.019	3077
915.132	3074
915.245	3165
915.358	3192
915.47	3249
915.583	3237
915.696	3283
915.809	3405
915.921	3431
916.034	3260
916.146	3291
916.259	3211
916.371	3367
916.483	3370
916.595	3268
916.708	3332
916.82	3389
916.932	3325
917.044	3298
917.156	3348
917.268	3256
917.38	3310
917.491	3279
917.603	3370
917.715	3466
917.826	3462
917.938	3363
918.049	3279
918.161	3435
918.272	3576
918.384	3572
918.495	3500
918.606	3355
918.717	3294
918.828	3367
918.939	3409
919.05	3283
919.161	3351
919.272	3192
919.383	3279
919.494	3462
919.604	3717
919.715	3481
919.826	3378
919.936	3458
920.047	3606
920.157	3580
920.267	3808
920.378	3572
920.488	3557
920.598	3762
920.708	3964
920.818	3819
920.928	3846
921.038	4021
921.148	3983
921.258	3724
921.368	3637
921.477	3519
921.587	3557
921.697	3458
921.806	3618
921.916	3519
922.025	3420
922.134	3329
922.244	3355
922.353	3416
922.462	3253
922.571	3222
922.68	3112
922.789	3081
922.898	3112
923.007	3070
923.116	3195
923.224	3188
923.333	3165
923.442	3119
923.55	3066
923.659	3176
923.767	3233
923.876	3089
923.984	3272
924.092	3055
924.201	3195
924.309	3230
924.417	3214
924.525	3214
924.633	3230
924.741	3998
924.849	3066
924.956	3245
925.064	3100
925.172	3047
925.279	3062
925.387	3184
925.494	3184
925.602	3317
925.709	3348
925.816	3173
925.924	3245
926.031	3348
926.138	3294
926.245	3409
926.352	3233
926.459	3397
926.566	3431
926.673	3302
926.779	3260
926.886	3222
926.993	3146
927.099	3142
927.206	3104
927.312	3116
927.419	3253
927.525	3192
927.631	3294
927.737	3135
927.843	3108
927.95	3032
928.056	3138
928.162	3199
928.267	3233
928.373	3770
928.479	3310
928.585	3070
928.69	3233
928.796	3264
928.901	3157
929.007	3070
929.112	3222
929.218	3188
929.323	3131
929.428	3157
929.533	3306
929.638	3116
929.743	3207
929.848	3260
929.953	3245
930.058	3131
930.163	3013
930.267	3066
930.372	3233
930.477	3043
930.581	3340
930.685	3154
930.79	3062
930.894	3104
930.998	3093
931.103	3291
931.207	2929
931.311	2910
931.415	2914
931.519	2781
931.623	2838
