Data from test_V78500241_1936.txt Node
Date: Fri Mar 25 16:28:36 CST 2022
User: usil
Spectrometer: V785-0024
Trigger mode: 0
Integration Time (sec): 4.000000E-1
Scans to average: 1
Nonlinearity correction enabled: false
Boxcar width: 0
Storing dark spectrum: false
XAxis mode: Wavelengths
Number of Pixels in Spectrum: 1024
>>>>>Begin Spectral Data<<<<<
801.071	2952
801.214	2944
801.356	2876
801.499	2910
801.641	2883
801.783	2982
801.926	3077
802.068	3028
802.211	3055
802.353	3066
802.496	3005
802.638	3081
802.78	3097
802.923	3062
803.065	3058
803.208	2941
803.35	2960
803.492	3009
803.635	2960
803.777	2804
803.919	2906
804.061	3256
804.204	2982
804.346	2941
804.488	2895
804.63	3043
804.773	2880
804.915	2941
805.057	3138
805.199	2929
805.341	3009
805.483	3100
805.626	3062
805.768	3039
805.91	3157
806.052	3184
806.194	3051
806.336	3264
806.478	3066
806.62	3009
806.762	2994
806.904	3116
807.046	3207
807.188	3051
807.33	2963
807.472	3020
807.614	2963
807.756	3058
807.898	2952
808.04	2937
808.182	3039
808.324	3005
808.465	2906
808.607	2906
808.749	2853
808.891	2872
809.033	3017
809.174	2971
809.316	2918
809.458	2937
809.6	2800
809.741	2800
809.883	2804
810.025	2899
810.166	2925
810.308	2861
810.45	2883
810.591	2796
810.733	2838
810.875	2864
811.016	2830
811.158	2758
811.299	2819
811.441	2960
811.582	2971
811.724	2876
811.865	2868
812.007	2937
812.148	2906
812.29	2876
812.431	2902
812.573	2982
812.714	2998
812.855	3055
812.997	3093
813.138	3138
813.279	3036
813.421	3036
813.562	3001
813.703	2899
813.845	2948
813.986	2777
814.127	2788
814.268	2853
814.41	2861
814.551	2838
814.692	2914
814.833	2800
814.974	2899
815.115	2956
815.256	2845
815.397	2876
815.539	2872
815.68	2804
815.821	2868
815.962	2967
816.103	2960
816.244	2899
816.385	2895
816.526	2990
816.666	2948
816.807	2758
816.948	2929
817.089	2948
817.23	2887
817.371	2804
817.512	2823
817.653	2891
817.793	2815
817.934	2899
818.075	3020
818.216	3009
818.356	3017
818.497	2891
818.638	2804
818.778	2819
818.919	2876
819.06	2811
819.2	2910
819.341	2819
819.481	2792
819.622	2952
819.762	3165
819.903	3112
820.043	2941
820.184	2929
820.324	2944
820.465	3039
820.605	3062
820.746	3077
820.886	2929
821.026	3142
821.167	3195
821.307	3272
821.447	3306
821.588	3287
821.728	3241
821.868	3207
822.008	3112
822.149	3180
822.289	3226
822.429	3127
822.569	3108
822.709	3199
822.849	3013
822.99	3070
823.13	3188
823.27	3222
823.41	3123
823.55	3169
823.69	3165
823.83	3207
823.97	3131
824.11	3047
824.25	3013
824.389	3104
824.529	3173
824.669	3116
824.809	3253
824.949	3279
825.089	3230
825.228	3169
825.368	3020
825.508	2986
825.648	2990
825.787	3074
825.927	3024
826.067	2994
826.206	2994
826.346	3036
826.485	3081
826.625	3112
826.765	3325
826.904	3237
827.044	3039
827.183	2944
827.323	2914
827.462	3036
827.601	2925
827.741	2956
827.88	2979
828.02	2899
828.159	2986
828.298	3051
828.437	3150
828.577	3062
828.716	3233
828.855	3112
828.994	2925
829.134	2914
829.273	2960
829.412	2880
829.551	2845
829.69	2902
829.829	2998
829.968	3142
830.107	3058
830.246	3024
830.385	2925
830.524	2902
830.663	2857
830.802	2735
830.941	2674
831.08	2686
831.219	2796
831.357	2819
831.496	3001
831.635	2708
831.774	2655
831.913	2693
832.051	2568
832.19	2640
832.329	2716
832.467	2590
832.606	2511
832.744	2606
832.883	2621
833.022	2632
833.16	2648
833.299	2720
833.437	2720
833.576	2735
833.714	2758
833.852	2785
833.991	2773
834.129	2883
834.267	2845
834.406	2800
834.544	2910
834.682	2895
834.821	2861
834.959	3077
835.097	2895
835.235	3104
835.373	3036
835.511	3032
835.65	2990
835.788	2979
835.926	2883
836.064	2845
836.202	2872
836.34	3116
836.478	3161
836.615	3043
836.753	3169
836.891	3222
837.029	3226
837.167	3142
837.305	3077
837.443	3074
837.58	2990
837.718	3142
837.856	3131
837.993	3043
838.131	3180
838.269	3154
838.406	3112
838.544	3070
838.681	2933
838.819	2922
838.956	2845
839.094	2834
839.231	2979
839.369	3066
839.506	3412
839.643	3230
839.781	3005
839.918	2982
840.055	3058
840.193	3051
840.33	3085
840.467	3135
840.604	3169
840.742	3416
840.879	3066
841.016	3089
841.153	3146
841.29	3378
841.427	3310
841.564	3275
841.701	3310
841.838	3253
841.975	3180
842.112	3218
842.249	3077
842.385	3047
842.522	3268
842.659	3142
842.796	3051
842.933	3112
843.069	3058
843.206	3116
843.343	3207
843.479	3108
843.616	3195
843.752	2895
843.889	2899
844.025	3089
844.162	2887
844.298	3070
844.435	3009
844.571	2922
844.708	3085
844.844	3207
844.98	3241
845.117	3222
845.253	3043
845.389	3020
845.525	3119
845.661	3138
845.798	3017
845.934	3150
846.07	3055
846.206	3218
846.342	3325
846.478	3253
846.614	3104
846.75	3066
846.886	3020
847.022	3279
847.158	3169
847.294	3199
847.429	3256
847.565	3192
847.701	3492
847.837	3051
847.972	3013
848.108	3192
848.244	3169
848.379	2975
848.515	2998
848.65	2963
848.786	2975
848.921	3032
849.057	3085
849.192	3180
849.328	3043
849.463	3123
849.598	3127
849.734	3081
849.869	3036
850.004	2914
850.14	2998
850.275	2906
850.41	2842
850.545	2918
850.68	2933
850.815	2990
850.95	2952
851.085	3195
851.22	3142
851.355	3036
851.49	3024
851.625	3032
851.76	3039
851.895	2941
852.03	2937
852.165	3039
852.299	3161
852.434	3169
852.569	3188
852.703	3188
852.838	3260
852.973	3355
853.107	3355
853.242	3173
853.376	3077
853.511	2994
853.645	3058
853.78	3253
853.914	3127
854.048	3157
854.183	3093
854.317	3150
854.451	3298
854.585	3157
854.72	3127
854.854	3237
854.988	3043
855.122	3062
855.256	3013
855.39	3112
855.524	3241
855.658	3195
855.792	3195
855.926	3237
856.06	3237
856.194	3291
856.327	3180
856.461	3104
856.595	3127
856.729	3070
856.862	3226
856.996	3176
857.13	3218
857.263	3237
857.397	3291
857.53	3150
857.664	3230
857.797	3245
857.931	3253
858.064	3146
858.197	3249
858.331	3184
858.464	3119
858.597	3024
858.731	3123
858.864	3116
858.997	3119
859.13	3161
859.263	3188
859.396	3195
859.529	3138
859.662	3085
859.795	3066
859.928	3142
860.061	3283
860.194	3260
860.327	3165
860.46	3108
860.592	3245
860.725	3275
860.858	3237
860.99	3165
861.123	3058
861.256	3039
861.388	3173
861.521	3876
861.653	3032
861.786	2982
861.918	3024
862.05	3097
862.183	3119
862.315	3138
862.447	3203
862.58	3154
862.712	2979
862.844	2880
862.976	3028
863.108	2994
863.24	3332
863.372	2876
863.504	2982
863.636	2956
863.768	3024
863.9	2963
864.032	2941
864.164	2944
864.296	3017
864.428	3119
864.559	3116
864.691	3047
864.823	3097
864.954	3032
865.086	3089
865.217	2982
865.349	2933
865.48	2986
865.612	3039
865.743	3146
865.875	3005
866.006	2967
866.137	2982
866.269	2986
866.4	2925
866.531	2975
866.662	2899
866.793	2887
866.924	2933
867.055	3013
867.186	2952
867.317	2902
867.448	2842
867.579	2849
867.71	2868
867.841	2834
867.972	2933
868.103	2922
868.233	2891
868.364	2887
868.495	2929
868.625	3093
868.756	3112
868.886	2971
869.017	2982
869.147	3154
869.278	3180
869.408	3074
869.539	3009
869.669	3131
869.799	3070
869.929	3157
870.06	3081
870.19	3367
870.32	3275
870.45	3275
870.58	3374
870.71	3439
870.84	3458
870.97	3306
871.1	3233
871.23	3485
871.36	3466
871.489	3336
871.619	3378
871.749	3416
871.879	3393
872.008	3485
872.138	3370
872.267	3260
872.397	3135
872.526	3108
872.656	3017
872.785	3108
872.915	3237
873.044	3306
873.173	3199
873.303	3237
873.432	3230
873.561	3264
873.69	3157
873.819	3123
873.948	3180
874.077	3100
874.206	3032
874.335	3108
874.464	3249
874.593	3374
874.722	3233
874.851	3378
874.979	3378
875.108	3340
875.237	3192
875.365	3157
875.494	3180
875.623	3268
875.751	3089
875.88	3112
876.008	3211
876.136	3253
876.265	3389
876.393	3530
876.521	3443
876.65	3393
876.778	3332
876.906	3275
877.034	3199
877.162	3237
877.29	3192
877.418	3287
877.546	3222
877.674	3272
877.802	3279
877.93	3211
878.058	3142
878.185	3127
878.313	3207
878.441	3199
878.568	3074
878.696	3146
878.824	3226
878.951	3302
879.079	3473
879.206	3648
879.333	3447
879.461	3313
879.588	3370
879.715	3462
879.842	3584
879.97	3393
880.097	3207
880.224	3108
880.351	3165
880.478	3199
880.605	3222
880.732	3157
880.859	3545
880.986	3344
881.112	3317
881.239	3245
881.366	3097
881.493	3036
881.619	3017
881.746	3093
881.872	3097
881.999	3077
882.125	3173
882.252	3230
882.378	3260
882.505	3458
882.631	3268
882.757	3157
882.883	3203
883.01	3233
883.136	3146
883.262	3138
883.388	3112
883.514	3325
883.64	3351
883.766	3294
883.892	3222
884.018	3230
884.143	3466
884.269	3542
884.395	3226
884.52	3116
884.646	3180
884.772	3142
884.897	3104
885.023	3184
885.148	3287
885.274	3424
885.399	3382
885.524	3291
885.65	3233
885.775	3298
885.9	3253
886.025	3435
886.15	3359
886.275	3321
886.4	3253
886.525	3279
886.65	3268
886.775	3241
886.9	3458
887.025	3629
887.149	3431
887.274	3264
887.399	3180
887.523	3184
887.648	3184
887.773	3188
887.897	3344
888.021	3397
888.146	3302
888.27	3431
888.395	3538
888.519	3466
888.643	3431
888.767	3469
888.891	3325
889.015	3230
889.139	3279
889.263	3260
889.387	3405
889.511	3523
889.635	3435
889.759	3260
889.883	3302
890.006	3405
890.13	3462
890.254	3249
890.377	3351
890.501	3192
890.624	3203
890.748	3344
890.871	3211
890.995	3093
891.118	3070
891.241	3192
891.364	3253
891.488	3317
891.611	3154
891.734	3207
891.857	3279
891.98	3253
892.103	3306
892.226	3241
892.349	3214
892.471	3123
892.594	3218
892.717	3260
892.839	3279
892.962	3294
893.085	3389
893.207	3279
893.33	3154
893.452	3214
893.575	3336
893.697	3233
893.819	3485
893.941	3454
894.064	3447
894.186	3268
894.308	3249
894.43	3386
894.552	3534
894.674	3481
894.796	3291
894.918	3298
895.04	3279
895.161	3420
895.283	3416
895.405	3329
895.526	3378
895.648	3466
895.769	3439
895.891	3450
896.012	3492
896.134	3443
896.255	3401
896.376	3359
896.498	3378
896.619	3435
896.74	3344
896.861	3420
896.982	3732
897.103	3823
897.224	3591
897.345	3500
897.466	3435
897.587	3523
897.708	3603
897.828	3545
897.949	3420
898.07	3348
898.19	3420
898.311	3618
898.431	3420
898.552	3511
898.672	3584
898.792	3549
898.913	3542
899.033	3424
899.153	3310
899.273	3214
899.393	3294
899.513	3329
899.633	3291
899.753	3332
899.873	3264
899.993	3409
900.113	3310
900.232	3393
900.352	3321
900.472	3268
900.591	3207
900.711	3279
900.83	3226
900.95	3420
901.069	3519
901.189	3363
901.308	3157
901.427	3138
901.546	3169
901.665	3294
901.784	3306
901.904	3203
902.023	3146
902.141	3036
902.26	3013
902.379	3089
902.498	3066
902.617	3024
902.735	3195
902.854	3233
902.973	3207
903.091	3032
903.21	3085
903.328	3154
903.446	3146
903.565	3142
903.683	3207
903.801	3146
903.919	3222
904.038	3310
904.156	3169
904.274	3272
904.392	3256
904.51	3310
904.627	3344
904.745	3435
904.863	3481
904.981	3275
905.098	3142
905.216	3253
905.334	3302
905.451	3332
905.569	3294
905.686	3431
905.803	3424
905.921	3249
906.038	3420
906.155	3363
906.272	3268
906.389	3367
906.506	3256
906.623	3249
906.74	3275
906.857	3226
906.974	3260
907.091	3454
907.208	3557
907.324	3439
907.441	3389
907.557	3260
907.674	3241
907.79	3207
907.907	3264
908.023	3378
908.139	3389
908.256	3340
908.372	3389
908.488	3359
908.604	3264
908.72	3241
908.836	3294
908.952	3283
909.068	3344
909.184	3507
909.3	3397
909.415	3481
909.531	3485
909.647	3253
909.762	3268
909.878	3233
909.993	3359
910.108	3367
910.224	3359
910.339	3401
910.454	3355
910.57	3302
910.685	3230
910.8	3644
910.915	3519
911.03	3435
911.145	3306
911.259	3226
911.374	3317
911.489	3264
911.604	3222
911.718	3123
911.833	3138
911.947	3020
912.062	2975
912.176	3138
912.291	3184
912.405	3249
912.519	3386
912.633	3485
912.748	3317
912.862	3294
912.976	3173
913.09	3032
913.204	3165
913.318	3211
913.431	3325
913.545	3321
913.659	3409
913.772	3332
913.886	3214
914	3154
914.113	3332
914.226	3389
914.34	3344
914.453	3207
914.566	3435
914.68	3291
914.793	3302
914.906	3146
915.019	3108
915.132	3039
915.245	3192
915.358	3214
915.47	3272
915.583	3256
915.696	3279
915.809	3378
915.921	3428
916.034	3256
916.146	3237
916.259	3241
916.371	3393
916.483	3344
916.595	3256
916.708	3336
916.82	3302
916.932	3329
917.044	3329
917.156	3351
917.268	3256
917.38	3313
917.491	3302
917.603	3370
917.715	3424
917.826	3462
917.938	3348
918.049	3253
918.161	3412
918.272	3534
918.384	3542
918.495	3466
918.606	3355
918.717	3245
918.828	3374
918.939	3424
919.05	3272
919.161	3367
919.272	3161
919.383	3253
919.494	3488
919.604	3641
919.715	3488
919.826	3397
919.936	3447
920.047	3591
920.157	3538
920.267	3770
920.378	3606
920.488	3553
920.598	3743
920.708	3941
920.818	3846
920.928	3865
921.038	4055
921.148	3983
921.258	3724
921.368	3644
921.477	3580
921.587	3515
921.697	3477
921.806	3618
921.916	3523
922.025	3332
922.134	3336
922.244	3306
922.353	3374
922.462	3253
922.571	3218
922.68	3104
922.789	3085
922.898	3161
923.007	3085
923.116	3226
923.224	3184
923.333	3138
923.442	3081
923.55	3112
923.659	3116
923.767	3218
923.876	3123
923.984	3256
924.092	3123
924.201	3203
924.309	3184
924.417	3268
924.525	3150
924.633	3264
924.741	4211
924.849	3043
924.956	3291
925.064	3089
925.172	3032
925.279	3081
925.387	3180
925.494	3199
925.602	3355
925.709	3355
925.816	3192
925.924	3279
926.031	3363
926.138	3344
926.245	3340
926.352	3237
926.459	3386
926.566	3481
926.673	3294
926.779	3260
926.886	3256
926.993	3173
927.099	3142
927.206	3127
927.312	3108
927.419	3226
927.525	3169
927.631	3283
927.737	3119
927.843	3157
927.95	3032
928.056	3112
928.162	3180
928.267	3214
928.373	3880
928.479	3325
928.585	3093
928.69	3214
928.796	3283
928.901	3165
929.007	3036
929.112	3207
929.218	3165
929.323	3154
929.428	3142
929.533	3302
929.638	3112
929.743	3188
929.848	3253
929.953	3176
930.058	3127
930.163	3028
930.267	3062
930.372	3192
930.477	3055
930.581	3302
930.685	3142
930.79	3070
930.894	3085
930.998	3093
931.103	3294
931.207	2971
931.311	2910
931.415	2883
931.519	2777
931.623	2796
