Data from test_V78500241_682.txt Node
Date: Fri Mar 25 16:19:55 CST 2022
User: usil
Spectrometer: V785-0024
Trigger mode: 0
Integration Time (sec): 4.000000E-1
Scans to average: 1
Nonlinearity correction enabled: false
Boxcar width: 0
Storing dark spectrum: false
XAxis mode: Wavelengths
Number of Pixels in Spectrum: 1024
>>>>>Begin Spectral Data<<<<<
801.071	2937
801.214	2933
801.356	2853
801.499	2887
801.641	2887
801.783	2918
801.926	3028
802.068	2963
802.211	2998
802.353	3032
802.496	2982
802.638	3017
802.78	3036
802.923	3112
803.065	3009
803.208	2925
803.35	2899
803.492	2967
803.635	2914
803.777	2758
803.919	2864
804.061	3184
804.204	2956
804.346	2906
804.488	2811
804.63	3009
804.773	2857
804.915	2922
805.057	3047
805.199	2952
805.341	2975
805.483	3028
805.626	2971
805.768	2994
805.91	3116
806.052	3100
806.194	3039
806.336	3249
806.478	3013
806.62	2967
806.762	2963
806.904	3085
807.046	3146
807.188	3024
807.33	2895
807.472	3001
807.614	2899
807.756	2975
807.898	2948
808.04	2868
808.182	2948
808.324	2982
808.465	2861
808.607	2887
808.749	2788
808.891	2842
809.033	2990
809.174	2994
809.316	2880
809.458	2906
809.6	2769
809.741	2746
809.883	2766
810.025	2830
810.166	2868
810.308	2845
810.45	2876
810.591	2754
810.733	2769
810.875	2857
811.016	2800
811.158	2766
811.299	2823
811.441	2922
811.582	2872
811.724	2792
811.865	2807
812.007	2922
812.148	2887
812.29	2861
812.431	2864
812.573	2880
812.714	2971
812.855	3070
812.997	3028
813.138	3097
813.279	3017
813.421	2975
813.562	2925
813.703	2872
813.845	2864
813.986	2785
814.127	2712
814.268	2842
814.41	2857
814.551	2815
814.692	2872
814.833	2857
814.974	2887
815.115	2948
815.256	2796
815.397	2834
815.539	2842
815.68	2781
815.821	2769
815.962	2906
816.103	2887
816.244	2868
816.385	2868
816.526	2960
816.666	2933
816.807	2769
816.948	2864
817.089	2899
817.23	2899
817.371	2785
817.512	2781
817.653	2842
817.793	2823
817.934	2868
818.075	2975
818.216	2960
818.356	3047
818.497	2864
818.638	2804
818.778	2826
818.919	2804
819.06	2731
819.2	2872
819.341	2834
819.481	2830
819.622	2918
819.762	3070
819.903	3043
820.043	2899
820.184	2883
820.324	2883
820.465	2971
820.605	2990
820.746	3024
820.886	2956
821.026	3104
821.167	3146
821.307	3275
821.447	3279
821.588	3268
821.728	3176
821.868	3176
822.008	3055
822.149	3214
822.289	3211
822.429	3119
822.569	3097
822.709	3195
822.849	3032
822.99	3066
823.13	3161
823.27	3192
823.41	3097
823.55	3097
823.69	3127
823.83	3188
823.97	3100
824.11	2998
824.25	2994
824.389	3043
824.529	3093
824.669	3077
824.809	3154
824.949	3260
825.089	3283
825.228	3146
825.368	2994
825.508	2982
825.648	2963
825.787	2975
825.927	3028
826.067	2975
826.206	2967
826.346	3032
826.485	3055
826.625	3097
826.765	3256
826.904	3230
827.044	2994
827.183	2925
827.323	2838
827.462	3013
827.601	2929
827.741	2906
827.88	2948
828.02	2849
828.159	2948
828.298	3043
828.437	3081
828.577	3039
828.716	3214
828.855	3081
828.994	2895
829.134	2899
829.273	2944
829.412	2830
829.551	2857
829.69	2891
829.829	2956
829.968	3169
830.107	3001
830.246	3013
830.385	2906
830.524	2868
830.663	2826
830.802	2762
830.941	2674
831.08	2625
831.219	2743
831.357	2754
831.496	2948
831.635	2720
831.774	2632
831.913	2648
832.051	2568
832.19	2583
832.329	2651
832.467	2549
832.606	2480
832.744	2579
832.883	2552
833.022	2575
833.16	2621
833.299	2670
833.437	2716
833.576	2667
833.714	2708
833.852	2716
833.991	2739
834.129	2845
834.267	2792
834.406	2785
834.544	2887
834.682	2883
834.821	2842
834.959	3070
835.097	2891
835.235	3043
835.373	2982
835.511	3005
835.65	2929
835.788	2925
835.926	2807
836.064	2773
836.202	2838
836.34	3097
836.478	3116
836.615	3024
836.753	3135
836.891	3192
837.029	3138
837.167	3104
837.305	3085
837.443	3005
837.58	2948
837.718	3116
837.856	3051
837.993	3032
838.131	3135
838.269	3062
838.406	3085
838.544	3089
838.681	2914
838.819	2929
838.956	2826
839.094	2823
839.231	2887
839.369	3017
839.506	3348
839.643	3253
839.781	2990
839.918	2960
840.055	3058
840.193	3043
840.33	3066
840.467	3089
840.604	3146
840.742	3397
840.879	3032
841.016	3066
841.153	3108
841.29	3306
841.427	3302
841.564	3275
841.701	3317
841.838	3199
841.975	3165
842.112	3165
842.249	3066
842.385	3058
842.522	3230
842.659	3081
842.796	3077
842.933	3138
843.069	3062
843.206	3013
843.343	3214
843.479	3077
843.616	3146
843.752	2895
843.889	2853
844.025	3077
844.162	2918
844.298	3074
844.435	2960
844.571	2899
844.708	3043
844.844	3211
844.98	3237
845.117	3203
845.253	3001
845.389	3043
845.525	3100
845.661	3123
845.798	2994
845.934	3135
846.07	3085
846.206	3226
846.342	3317
846.478	3211
846.614	3089
846.75	3032
846.886	3051
847.022	3264
847.158	3138
847.294	3192
847.429	3245
847.565	3218
847.701	3500
847.837	3081
847.972	3001
848.108	3184
848.244	3154
848.379	2990
848.515	2910
848.65	2922
848.786	2944
848.921	3024
849.057	3135
849.192	3135
849.328	3100
849.463	3089
849.598	3077
849.734	3043
849.869	2990
850.004	2899
850.14	2960
850.275	2929
850.41	2861
850.545	2891
850.68	2914
850.815	2933
850.95	2956
851.085	3192
851.22	3089
851.355	3024
851.49	2998
851.625	2994
851.76	3028
851.895	2941
852.03	2883
852.165	3043
852.299	3104
852.434	3169
852.569	3135
852.703	3173
852.838	3279
852.973	3344
853.107	3332
853.242	3161
853.376	3081
853.511	2986
853.645	3009
853.78	3214
853.914	3150
854.048	3089
854.183	3116
854.317	3142
854.451	3313
854.585	3123
854.72	3074
854.854	3173
854.988	3062
855.122	3062
855.256	2982
855.39	3108
855.524	3272
855.658	3165
855.792	3135
855.926	3218
856.06	3237
856.194	3291
856.327	3146
856.461	3097
856.595	3036
856.729	3039
856.862	3207
856.996	3165
857.13	3214
857.263	3203
857.397	3260
857.53	3116
857.664	3176
857.797	3256
857.931	3253
858.064	3131
858.197	3214
858.331	3131
858.464	3047
858.597	3020
858.731	3135
858.864	3119
858.997	3085
859.13	3131
859.263	3184
859.396	3218
859.529	3104
859.662	3051
859.795	3009
859.928	3116
860.061	3287
860.194	3268
860.327	3138
860.46	3100
860.592	3218
860.725	3253
860.858	3253
860.99	3119
861.123	3058
861.256	3024
861.388	3112
861.521	3960
861.653	3043
861.786	2963
861.918	3009
862.05	3055
862.183	3108
862.315	3150
862.447	3192
862.58	3070
862.712	2963
862.844	2883
862.976	3013
863.108	2967
863.24	3450
863.372	2899
863.504	2929
863.636	2948
863.768	3001
863.9	3005
864.032	2906
864.164	2960
864.296	3047
864.428	3066
864.559	3108
864.691	3032
864.823	3036
864.954	3028
865.086	3032
865.217	2967
865.349	2929
865.48	2960
865.612	3017
865.743	3123
865.875	2986
866.006	2944
866.137	3017
866.269	2975
866.4	2910
866.531	2960
866.662	2823
866.793	2861
866.924	2899
867.055	2933
867.186	2918
867.317	2868
867.448	2823
867.579	2807
867.71	2823
867.841	2792
867.972	2861
868.103	2914
868.233	2895
868.364	2876
868.495	2902
868.625	3085
868.756	3169
868.886	2960
869.017	3024
869.147	3154
869.278	3154
869.408	3020
869.539	3039
869.669	3062
869.799	3028
869.929	3119
870.06	3138
870.19	3321
870.32	3245
870.45	3313
870.58	3393
870.71	3450
870.84	3405
870.97	3313
871.1	3211
871.23	3450
871.36	3443
871.489	3348
871.619	3401
871.749	3389
871.879	3409
872.008	3500
872.138	3329
872.267	3237
872.397	3138
872.526	3100
872.656	2986
872.785	3116
872.915	3199
873.044	3332
873.173	3203
873.303	3211
873.432	3211
873.561	3218
873.69	3146
873.819	3123
873.948	3195
874.077	3062
874.206	2998
874.335	3055
874.464	3226
874.593	3351
874.722	3226
874.851	3382
874.979	3321
875.108	3325
875.237	3180
875.365	3180
875.494	3135
875.623	3207
875.751	3055
875.88	3062
876.008	3173
876.136	3203
876.265	3336
876.393	3492
876.521	3435
876.65	3382
876.778	3291
876.906	3268
877.034	3173
877.162	3256
877.29	3173
877.418	3279
877.546	3241
877.674	3275
877.802	3241
877.93	3192
878.058	3104
878.185	3119
878.313	3180
878.441	3192
878.568	3066
878.696	3135
878.824	3249
878.951	3279
879.079	3428
879.206	3580
879.333	3447
879.461	3325
879.588	3382
879.715	3462
879.842	3587
879.97	3382
880.097	3169
880.224	3116
880.351	3188
880.478	3241
880.605	3192
880.732	3180
880.859	3496
880.986	3306
881.112	3317
881.239	3211
881.366	3093
881.493	3077
881.619	3009
881.746	3051
881.872	3085
881.999	3085
882.125	3131
882.252	3230
882.378	3264
882.505	3447
882.631	3256
882.757	3146
882.883	3199
883.01	3188
883.136	3119
883.262	3093
883.388	3108
883.514	3332
883.64	3374
883.766	3302
883.892	3176
884.018	3260
884.143	3374
884.269	3534
884.395	3230
884.52	3165
884.646	3173
884.772	3131
884.897	3131
885.023	3207
885.148	3359
885.274	3378
885.399	3348
885.524	3268
885.65	3203
885.775	3298
885.9	3279
886.025	3416
886.15	3370
886.275	3283
886.4	3241
886.525	3310
886.65	3241
886.775	3249
886.9	3469
887.025	3606
887.149	3382
887.274	3237
887.399	3161
887.523	3226
887.648	3188
887.773	3188
887.897	3355
888.021	3370
888.146	3272
888.27	3424
888.395	3530
888.519	3409
888.643	3412
888.767	3424
888.891	3275
889.015	3241
889.139	3275
889.263	3256
889.387	3367
889.511	3454
889.635	3473
889.759	3287
889.883	3256
890.006	3382
890.13	3511
890.254	3283
890.377	3355
890.501	3154
890.624	3203
890.748	3302
890.871	3154
890.995	3112
891.118	3066
891.241	3207
891.364	3226
891.488	3313
891.611	3157
891.734	3192
891.857	3233
891.98	3214
892.103	3317
892.226	3249
892.349	3222
892.471	3100
892.594	3214
892.717	3283
892.839	3260
892.962	3283
893.085	3370
893.207	3264
893.33	3127
893.452	3237
893.575	3378
893.697	3275
893.819	3443
893.941	3466
894.064	3466
894.186	3264
894.308	3256
894.43	3431
894.552	3542
894.674	3431
894.796	3294
894.918	3302
895.04	3241
895.161	3447
895.283	3386
895.405	3306
895.526	3367
895.648	3386
895.769	3401
895.891	3458
896.012	3447
896.134	3424
896.255	3443
896.376	3336
896.498	3332
896.619	3416
896.74	3329
896.861	3389
896.982	3675
897.103	3838
897.224	3545
897.345	3504
897.466	3439
897.587	3492
897.708	3641
897.828	3538
897.949	3416
898.07	3298
898.19	3397
898.311	3599
898.431	3481
898.552	3488
898.672	3587
898.792	3591
898.913	3572
899.033	3397
899.153	3279
899.273	3195
899.393	3283
899.513	3279
899.633	3302
899.753	3317
899.873	3245
899.993	3393
900.113	3310
900.232	3405
900.352	3325
900.472	3306
900.591	3199
900.711	3294
900.83	3214
900.95	3397
901.069	3469
901.189	3363
901.308	3150
901.427	3104
901.546	3169
901.665	3313
901.784	3355
901.904	3226
902.023	3169
902.141	3009
902.26	2990
902.379	3146
902.498	3089
902.617	3032
902.735	3226
902.854	3203
902.973	3203
903.091	3024
903.21	3058
903.328	3112
903.446	3093
903.565	3135
903.683	3192
903.801	3104
903.919	3233
904.038	3253
904.156	3169
904.274	3283
904.392	3260
904.51	3283
904.627	3321
904.745	3412
904.863	3488
904.981	3275
905.098	3161
905.216	3169
905.334	3279
905.451	3348
905.569	3291
905.686	3409
905.803	3469
905.921	3302
906.038	3405
906.155	3340
906.272	3268
906.389	3336
906.506	3275
906.623	3253
906.74	3340
906.857	3218
906.974	3241
907.091	3488
907.208	3606
907.324	3466
907.441	3405
907.557	3253
907.674	3226
907.79	3222
907.907	3291
908.023	3355
908.139	3363
908.256	3336
908.372	3363
908.488	3329
908.604	3260
908.72	3214
908.836	3268
908.952	3275
909.068	3332
909.184	3473
909.3	3389
909.415	3530
909.531	3454
909.647	3226
909.762	3317
909.878	3249
909.993	3355
910.108	3332
910.224	3317
910.339	3412
910.454	3340
910.57	3275
910.685	3214
910.8	3568
910.915	3500
911.03	3431
911.145	3287
911.259	3287
911.374	3287
911.489	3218
911.604	3222
911.718	3138
911.833	3154
911.947	3020
912.062	3005
912.176	3138
912.291	3195
912.405	3188
912.519	3447
912.633	3477
912.748	3283
912.862	3253
912.976	3218
913.09	3001
913.204	3135
913.318	3211
913.431	3302
913.545	3344
913.659	3401
913.772	3329
913.886	3226
914	3199
914.113	3355
914.226	3412
914.34	3370
914.453	3211
914.566	3420
914.68	3275
914.793	3321
914.906	3104
915.019	3146
915.132	3062
915.245	3203
915.358	3207
915.47	3211
915.583	3256
915.696	3275
915.809	3374
915.921	3416
916.034	3237
916.146	3233
916.259	3230
916.371	3393
916.483	3351
916.595	3233
916.708	3359
916.82	3336
916.932	3317
917.044	3397
917.156	3329
917.268	3260
917.38	3291
917.491	3275
917.603	3329
917.715	3443
917.826	3447
917.938	3359
918.049	3321
918.161	3409
918.272	3545
918.384	3561
918.495	3519
918.606	3348
918.717	3272
918.828	3359
918.939	3370
919.05	3294
919.161	3378
919.272	3188
919.383	3329
919.494	3530
919.604	3637
919.715	3428
919.826	3397
919.936	3462
920.047	3557
920.157	3526
920.267	3762
920.378	3652
920.488	3549
920.598	3808
920.708	3975
920.818	3823
920.928	3819
921.038	3975
921.148	3979
921.258	3682
921.368	3637
921.477	3564
921.587	3542
921.697	3469
921.806	3603
921.916	3500
922.025	3329
922.134	3359
922.244	3313
922.353	3420
922.462	3222
922.571	3241
922.68	3138
922.789	3074
922.898	3123
923.007	3085
923.116	3192
923.224	3176
923.333	3218
923.442	3097
923.55	3104
923.659	3108
923.767	3214
923.876	3135
923.984	3256
924.092	3085
924.201	3237
924.309	3195
924.417	3253
924.525	3180
924.633	3260
924.741	3998
924.849	3077
924.956	3260
925.064	3104
925.172	3013
925.279	3108
925.387	3161
925.494	3207
925.602	3359
925.709	3321
925.816	3180
925.924	3291
926.031	3424
926.138	3294
926.245	3336
926.352	3256
926.459	3393
926.566	3473
926.673	3302
926.779	3233
926.886	3230
926.993	3157
927.099	3089
927.206	3097
927.312	3142
927.419	3256
927.525	3199
927.631	3302
927.737	3119
927.843	3135
927.95	3009
928.056	3112
928.162	3180
928.267	3214
928.373	3778
928.479	3321
928.585	3039
928.69	3203
928.796	3245
928.901	3176
929.007	3055
929.112	3230
929.218	3192
929.323	3127
929.428	3169
929.533	3306
929.638	3119
929.743	3173
929.848	3218
929.953	3203
930.058	3165
930.163	3005
930.267	3077
930.372	3207
930.477	3055
930.581	3310
930.685	3154
930.79	3066
930.894	3154
930.998	3104
931.103	3294
931.207	2967
931.311	2944
931.415	2899
931.519	2800
931.623	2830
