Data from test_V78500241_1095.txt Node
Date: Fri Mar 25 16:22:47 CST 2022
User: usil
Spectrometer: V785-0024
Trigger mode: 0
Integration Time (sec): 4.000000E-1
Scans to average: 1
Nonlinearity correction enabled: false
Boxcar width: 0
Storing dark spectrum: false
XAxis mode: Wavelengths
Number of Pixels in Spectrum: 1024
>>>>>Begin Spectral Data<<<<<
801.071	2933
801.214	2925
801.356	2864
801.499	2883
801.641	2887
801.783	2933
801.926	3036
802.068	2998
802.211	2990
802.353	3062
802.496	2952
802.638	3009
802.78	3028
802.923	3081
803.065	3009
803.208	2906
803.35	2918
803.492	2925
803.635	2929
803.777	2735
803.919	2887
804.061	3180
804.204	2918
804.346	2883
804.488	2864
804.63	2982
804.773	2887
804.915	2906
805.057	3081
805.199	2960
805.341	2979
805.483	3013
805.626	3005
805.768	2963
805.91	3036
806.052	3127
806.194	3032
806.336	3230
806.478	3062
806.62	2963
806.762	2975
806.904	3043
807.046	3199
807.188	2998
807.33	2967
807.472	2998
807.614	2963
807.756	3009
807.898	2944
808.04	2902
808.182	2982
808.324	2967
808.465	2929
808.607	2906
808.749	2823
808.891	2845
809.033	3001
809.174	3017
809.316	2910
809.458	2929
809.6	2796
809.741	2758
809.883	2849
810.025	2849
810.166	2902
810.308	2857
810.45	2861
810.591	2807
810.733	2849
810.875	2902
811.016	2807
811.158	2796
811.299	2815
811.441	2948
811.582	2937
811.724	2849
811.865	2857
812.007	2948
812.148	2910
812.29	2891
812.431	2941
812.573	2982
812.714	3005
812.855	3089
812.997	3108
813.138	3173
813.279	3074
813.421	2998
813.562	2971
813.703	2887
813.845	2902
813.986	2800
814.127	2785
814.268	2868
814.41	2861
814.551	2864
814.692	2902
814.833	2845
814.974	2902
815.115	2998
815.256	2857
815.397	2826
815.539	2922
815.68	2826
815.821	2819
815.962	2952
816.103	2982
816.244	2925
816.385	2895
816.526	3013
816.666	2941
816.807	2792
816.948	2887
817.089	2941
817.23	2872
817.371	2811
817.512	2807
817.653	2906
817.793	2861
817.934	2956
818.075	3032
818.216	3043
818.356	3043
818.497	2925
818.638	2804
818.778	2830
818.919	2823
819.06	2804
819.2	2902
819.341	2857
819.481	2834
819.622	2975
819.762	3112
819.903	3074
820.043	2994
820.184	2944
820.324	2948
820.465	3032
820.605	3028
820.746	3047
820.886	2952
821.026	3131
821.167	3176
821.307	3283
821.447	3294
821.588	3272
821.728	3237
821.868	3222
822.008	3108
822.149	3226
822.289	3226
822.429	3116
822.569	3116
822.709	3188
822.849	3062
822.99	3081
823.13	3173
823.27	3245
823.41	3123
823.55	3165
823.69	3184
823.83	3214
823.97	3138
824.11	3020
824.25	3024
824.389	3093
824.529	3116
824.669	3077
824.809	3199
824.949	3253
825.089	3245
825.228	3203
825.368	3036
825.508	2986
825.648	3001
825.787	3062
825.927	3047
826.067	3005
826.206	2960
826.346	3077
826.485	3081
826.625	3127
826.765	3275
826.904	3275
827.044	3028
827.183	2967
827.323	2910
827.462	3032
827.601	2937
827.741	2971
827.88	2986
828.02	2887
828.159	3001
828.298	3024
828.437	3116
828.577	3085
828.716	3264
828.855	3119
828.994	2960
829.134	2864
829.273	2952
829.412	2883
829.551	2902
829.69	2906
829.829	3009
829.968	3169
830.107	3051
830.246	3112
830.385	2937
830.524	2902
830.663	2872
830.802	2727
830.941	2670
831.08	2689
831.219	2792
831.357	2777
831.496	2952
831.635	2758
831.774	2663
831.913	2678
832.051	2583
832.19	2613
832.329	2727
832.467	2579
832.606	2526
832.744	2621
832.883	2606
833.022	2613
833.16	2674
833.299	2712
833.437	2720
833.576	2689
833.714	2766
833.852	2777
833.991	2800
834.129	2868
834.267	2845
834.406	2804
834.544	2887
834.682	2929
834.821	2914
834.959	3070
835.097	2941
835.235	3089
835.373	3036
835.511	3043
835.65	3020
835.788	2998
835.926	2842
836.064	2857
836.202	2891
836.34	3135
836.478	3138
836.615	3070
836.753	3123
836.891	3241
837.029	3195
837.167	3150
837.305	3093
837.443	3051
837.58	2986
837.718	3135
837.856	3077
837.993	3017
838.131	3116
838.269	3127
838.406	3142
838.544	3100
838.681	2994
838.819	2929
838.956	2830
839.094	2883
839.231	2967
839.369	3039
839.506	3370
839.643	3264
839.781	3024
839.918	3009
840.055	3058
840.193	3100
840.33	3119
840.467	3119
840.604	3161
840.742	3397
840.879	3089
841.016	3055
841.153	3150
841.29	3359
841.427	3325
841.564	3253
841.701	3313
841.838	3260
841.975	3199
842.112	3241
842.249	3100
842.385	3089
842.522	3256
842.659	3077
842.796	3093
842.933	3135
843.069	3070
843.206	3032
843.343	3249
843.479	3100
843.616	3112
843.752	2933
843.889	2880
844.025	3100
844.162	2963
844.298	3055
844.435	2952
844.571	2914
844.708	3112
844.844	3203
844.98	3287
845.117	3230
845.253	3066
845.389	3047
845.525	3146
845.661	3089
845.798	3051
845.934	3131
846.07	3070
846.206	3260
846.342	3355
846.478	3222
846.614	3135
846.75	3062
846.886	3077
847.022	3264
847.158	3157
847.294	3199
847.429	3241
847.565	3272
847.701	3488
847.837	3032
847.972	3047
848.108	3211
848.244	3119
848.379	3017
848.515	2937
848.65	2975
848.786	2971
848.921	3032
849.057	3123
849.192	3173
849.328	3077
849.463	3150
849.598	3089
849.734	3047
849.869	2998
850.004	2948
850.14	2967
850.275	2929
850.41	2842
850.545	2906
850.68	2929
850.815	2975
850.95	2941
851.085	3203
851.22	3131
851.355	3070
851.49	3013
851.625	3017
851.76	3028
851.895	2910
852.03	2941
852.165	3039
852.299	3127
852.434	3199
852.569	3184
852.703	3157
852.838	3256
852.973	3313
853.107	3332
853.242	3207
853.376	3116
853.511	2956
853.645	3051
853.78	3245
853.914	3150
854.048	3116
854.183	3097
854.317	3169
854.451	3302
854.585	3077
854.72	3150
854.854	3233
854.988	3074
855.122	3085
855.256	3032
855.39	3104
855.524	3245
855.658	3199
855.792	3165
855.926	3180
856.06	3233
856.194	3268
856.327	3161
856.461	3097
856.595	3123
856.729	3104
856.862	3195
856.996	3154
857.13	3226
857.263	3249
857.397	3302
857.53	3104
857.664	3203
857.797	3264
857.931	3264
858.064	3146
858.197	3237
858.331	3192
858.464	3119
858.597	3009
858.731	3146
858.864	3180
858.997	3097
859.13	3161
859.263	3192
859.396	3226
859.529	3085
859.662	3066
859.795	3051
859.928	3161
860.061	3313
860.194	3253
860.327	3157
860.46	3085
860.592	3226
860.725	3245
860.858	3279
860.99	3112
861.123	3036
861.256	3077
861.388	3154
861.521	3732
861.653	3028
861.786	3005
861.918	2990
862.05	3074
862.183	3108
862.315	3131
862.447	3264
862.58	3108
862.712	2956
862.844	2910
862.976	3036
863.108	3009
863.24	3424
863.372	2842
863.504	2971
863.636	2982
863.768	3081
863.9	2986
864.032	2906
864.164	2944
864.296	3028
864.428	3112
864.559	3131
864.691	3100
864.823	3051
864.954	3036
865.086	3032
865.217	3036
865.349	2975
865.48	3024
865.612	3055
865.743	3169
865.875	2990
866.006	2956
866.137	2986
866.269	2956
866.4	2899
866.531	2941
866.662	2914
866.793	2922
866.924	2937
867.055	2982
867.186	2956
867.317	2861
867.448	2834
867.579	2868
867.71	2849
867.841	2838
867.972	2925
868.103	2929
868.233	2895
868.364	2838
868.495	2899
868.625	3093
868.756	3165
868.886	2971
869.017	3032
869.147	3195
869.278	3135
869.408	3055
869.539	2998
869.669	3077
869.799	3066
869.929	3135
870.06	3108
870.19	3355
870.32	3260
870.45	3302
870.58	3355
870.71	3454
870.84	3473
870.97	3313
871.1	3249
871.23	3477
871.36	3469
871.489	3332
871.619	3401
871.749	3420
871.879	3466
872.008	3515
872.138	3401
872.267	3275
872.397	3173
872.526	3108
872.656	2979
872.785	3085
872.915	3226
873.044	3313
873.173	3241
873.303	3310
873.432	3275
873.561	3233
873.69	3180
873.819	3150
873.948	3192
874.077	3119
874.206	3081
874.335	3074
874.464	3214
874.593	3310
874.722	3233
874.851	3412
874.979	3351
875.108	3310
875.237	3222
875.365	3154
875.494	3195
875.623	3268
875.751	3100
875.88	3135
876.008	3230
876.136	3230
876.265	3351
876.393	3511
876.521	3450
876.65	3374
876.778	3340
876.906	3245
877.034	3226
877.162	3249
877.29	3180
877.418	3233
877.546	3237
877.674	3272
877.802	3207
877.93	3256
878.058	3157
878.185	3093
878.313	3230
878.441	3173
878.568	3055
878.696	3157
878.824	3249
878.951	3279
879.079	3462
879.206	3595
879.333	3397
879.461	3313
879.588	3329
879.715	3496
879.842	3568
879.97	3405
880.097	3161
880.224	3108
880.351	3233
880.478	3195
880.605	3184
880.732	3233
880.859	3496
880.986	3325
881.112	3325
881.239	3192
881.366	3100
881.493	3089
881.619	3013
881.746	3066
881.872	3077
881.999	3119
882.125	3135
882.252	3226
882.378	3306
882.505	3454
882.631	3294
882.757	3161
882.883	3211
883.01	3214
883.136	3192
883.262	3081
883.388	3116
883.514	3317
883.64	3359
883.766	3351
883.892	3173
884.018	3245
884.143	3424
884.269	3526
884.395	3222
884.52	3180
884.646	3214
884.772	3104
884.897	3116
885.023	3214
885.148	3325
885.274	3420
885.399	3386
885.524	3306
885.65	3310
885.775	3291
885.9	3264
886.025	3454
886.15	3359
886.275	3283
886.4	3275
886.525	3294
886.65	3249
886.775	3253
886.9	3500
887.025	3644
887.149	3409
887.274	3230
887.399	3169
887.523	3226
887.648	3173
887.773	3173
887.897	3389
888.021	3367
888.146	3313
888.27	3428
888.395	3515
888.519	3416
888.643	3420
888.767	3458
888.891	3332
889.015	3253
889.139	3287
889.263	3275
889.387	3412
889.511	3466
889.635	3488
889.759	3317
889.883	3325
890.006	3393
890.13	3530
890.254	3260
890.377	3370
890.501	3154
890.624	3203
890.748	3313
890.871	3173
890.995	3089
891.118	3051
891.241	3154
891.364	3226
891.488	3325
891.611	3176
891.734	3241
891.857	3329
891.98	3253
892.103	3332
892.226	3302
892.349	3211
892.471	3150
892.594	3233
892.717	3310
892.839	3275
892.962	3306
893.085	3287
893.207	3306
893.33	3119
893.452	3192
893.575	3351
893.697	3233
893.819	3515
893.941	3542
894.064	3428
894.186	3264
894.308	3279
894.43	3420
894.552	3530
894.674	3462
894.796	3260
894.918	3294
895.04	3279
895.161	3416
895.283	3367
895.405	3302
895.526	3340
895.648	3409
895.769	3420
895.891	3439
896.012	3458
896.134	3466
896.255	3420
896.376	3393
896.498	3332
896.619	3382
896.74	3348
896.861	3363
896.982	3682
897.103	3831
897.224	3587
897.345	3526
897.466	3416
897.587	3488
897.708	3660
897.828	3568
897.949	3420
898.07	3310
898.19	3386
898.311	3572
898.431	3409
898.552	3500
898.672	3614
898.792	3580
898.913	3515
899.033	3431
899.153	3294
899.273	3233
899.393	3268
899.513	3348
899.633	3367
899.753	3348
899.873	3329
899.993	3405
900.113	3340
900.232	3405
900.352	3325
900.472	3291
900.591	3192
900.711	3264
900.83	3230
900.95	3420
901.069	3500
901.189	3367
901.308	3169
901.427	3131
901.546	3199
901.665	3302
901.784	3344
901.904	3272
902.023	3165
902.141	2994
902.26	2982
902.379	3169
902.498	3070
902.617	3081
902.735	3230
902.854	3241
902.973	3176
903.091	3032
903.21	3081
903.328	3173
903.446	3077
903.565	3116
903.683	3222
903.801	3123
903.919	3222
904.038	3291
904.156	3138
904.274	3287
904.392	3241
904.51	3317
904.627	3302
904.745	3405
904.863	3530
904.981	3283
905.098	3176
905.216	3264
905.334	3291
905.451	3313
905.569	3317
905.686	3462
905.803	3488
905.921	3310
906.038	3435
906.155	3313
906.272	3260
906.389	3344
906.506	3245
906.623	3279
906.74	3272
906.857	3218
906.974	3253
907.091	3469
907.208	3587
907.324	3462
907.441	3409
907.557	3207
907.674	3226
907.79	3203
907.907	3279
908.023	3355
908.139	3367
908.256	3310
908.372	3363
908.488	3351
908.604	3233
908.72	3218
908.836	3279
908.952	3260
909.068	3340
909.184	3496
909.3	3405
909.415	3473
909.531	3492
909.647	3253
909.762	3298
909.878	3245
909.993	3359
910.108	3332
910.224	3332
910.339	3393
910.454	3332
910.57	3287
910.685	3249
910.8	3561
910.915	3519
911.03	3439
911.145	3272
911.259	3260
911.374	3332
911.489	3233
911.604	3192
911.718	3123
911.833	3180
911.947	3032
912.062	2986
912.176	3150
912.291	3176
912.405	3211
912.519	3469
912.633	3477
912.748	3363
912.862	3310
912.976	3184
913.09	3062
913.204	3165
913.318	3199
913.431	3329
913.545	3351
913.659	3412
913.772	3348
913.886	3237
914	3192
914.113	3374
914.226	3382
914.34	3370
914.453	3199
914.566	3435
914.68	3298
914.793	3279
914.906	3131
915.019	3112
915.132	3036
915.245	3165
915.358	3203
915.47	3192
915.583	3256
915.696	3287
915.809	3389
915.921	3405
916.034	3272
916.146	3226
916.259	3176
916.371	3348
916.483	3374
916.595	3283
916.708	3351
916.82	3332
916.932	3332
917.044	3325
917.156	3329
917.268	3249
917.38	3268
917.491	3306
917.603	3401
917.715	3431
917.826	3462
917.938	3389
918.049	3256
918.161	3431
918.272	3614
918.384	3584
918.495	3469
918.606	3336
918.717	3291
918.828	3363
918.939	3458
919.05	3272
919.161	3340
919.272	3161
919.383	3298
919.494	3466
919.604	3728
919.715	3462
919.826	3397
919.936	3439
920.047	3618
920.157	3557
920.267	3736
920.378	3618
920.488	3572
920.598	3812
920.708	3972
920.818	3831
920.928	3831
921.038	4036
921.148	4010
921.258	3709
921.368	3618
921.477	3580
921.587	3538
921.697	3492
921.806	3587
921.916	3500
922.025	3367
922.134	3348
922.244	3313
922.353	3409
922.462	3253
922.571	3245
922.68	3081
922.789	3036
922.898	3150
923.007	3097
923.116	3233
923.224	3195
923.333	3203
923.442	3127
923.55	3070
923.659	3150
923.767	3184
923.876	3112
923.984	3264
924.092	3097
924.201	3214
924.309	3256
924.417	3268
924.525	3230
924.633	3230
924.741	4025
924.849	3043
924.956	3272
925.064	3062
925.172	3005
925.279	3146
925.387	3188
925.494	3199
925.602	3351
925.709	3359
925.816	3165
925.924	3294
926.031	3367
926.138	3370
926.245	3363
926.352	3222
926.459	3393
926.566	3450
926.673	3306
926.779	3245
926.886	3230
926.993	3150
927.099	3138
927.206	3108
927.312	3100
927.419	3241
927.525	3195
927.631	3222
927.737	3142
927.843	3112
927.95	3009
928.056	3135
928.162	3188
928.267	3256
928.373	3884
928.479	3317
928.585	3028
928.69	3256
928.796	3268
928.901	3169
929.007	3032
929.112	3207
929.218	3176
929.323	3169
929.428	3176
929.533	3275
929.638	3104
929.743	3192
929.848	3241
929.953	3233
930.058	3081
930.163	2971
930.267	3024
930.372	3169
930.477	3032
930.581	3332
930.685	3188
930.79	3081
930.894	3097
930.998	3097
931.103	3321
931.207	2944
931.311	2925
931.415	2918
931.519	2743
931.623	2777
