Data from test_V78500241_473.txt Node
Date: Fri Mar 25 16:18:28 CST 2022
User: usil
Spectrometer: V785-0024
Trigger mode: 0
Integration Time (sec): 4.000000E-1
Scans to average: 1
Nonlinearity correction enabled: false
Boxcar width: 0
Storing dark spectrum: false
XAxis mode: Wavelengths
Number of Pixels in Spectrum: 1024
>>>>>Begin Spectral Data<<<<<
801.071	2925
801.214	2929
801.356	2853
801.499	2899
801.641	2891
801.783	2960
801.926	3093
802.068	3009
802.211	3005
802.353	3043
802.496	2975
802.638	3039
802.78	3081
802.923	3093
803.065	2975
803.208	2937
803.35	2933
803.492	2948
803.635	2975
803.777	2773
803.919	2880
804.061	3188
804.204	2982
804.346	2925
804.488	2861
804.63	3009
804.773	2853
804.915	2910
805.057	3112
805.199	2910
805.341	2979
805.483	3047
805.626	2982
805.768	2941
805.91	3085
806.052	3093
806.194	3032
806.336	3249
806.478	3024
806.62	2948
806.762	2990
806.904	3097
807.046	3138
807.188	2952
807.33	2952
807.472	2998
807.614	2895
807.756	2967
807.898	2929
808.04	2861
808.182	2994
808.324	2937
808.465	2883
808.607	2910
808.749	2796
808.891	2857
809.033	2986
809.174	2975
809.316	2880
809.458	2910
809.6	2800
809.741	2750
809.883	2773
810.025	2845
810.166	2838
810.308	2845
810.45	2899
810.591	2762
810.733	2792
810.875	2838
811.016	2788
811.158	2796
811.299	2857
811.441	2963
811.582	2906
811.724	2872
811.865	2815
812.007	2925
812.148	2925
812.29	2849
812.431	2937
812.573	2971
812.714	2956
812.855	3051
812.997	3066
813.138	3135
813.279	3009
813.421	3028
813.562	2941
813.703	2880
813.845	2906
813.986	2769
814.127	2712
814.268	2819
814.41	2815
814.551	2838
814.692	2868
814.833	2838
814.974	2887
815.115	2979
815.256	2823
815.397	2815
815.539	2849
815.68	2823
815.821	2788
815.962	2918
816.103	2933
816.244	2857
816.385	2895
816.526	2948
816.666	2948
816.807	2750
816.948	2864
817.089	2876
817.23	2864
817.371	2766
817.512	2807
817.653	2845
817.793	2857
817.934	2872
818.075	2967
818.216	3009
818.356	3058
818.497	2868
818.638	2815
818.778	2838
818.919	2804
819.06	2804
819.2	2872
819.341	2826
819.481	2819
819.622	2941
819.762	3119
819.903	3055
820.043	2906
820.184	2937
820.324	2902
820.465	3039
820.605	3005
820.746	3051
820.886	2910
821.026	3100
821.167	3165
821.307	3272
821.447	3291
821.588	3260
821.728	3195
821.868	3192
822.008	3062
822.149	3188
822.289	3237
822.429	3135
822.569	3070
822.709	3188
822.849	3036
822.99	3066
823.13	3184
823.27	3237
823.41	3058
823.55	3150
823.69	3119
823.83	3180
823.97	3127
824.11	2998
824.25	3036
824.389	3119
824.529	3138
824.669	3074
824.809	3192
824.949	3233
825.089	3222
825.228	3176
825.368	2998
825.508	2960
825.648	2982
825.787	3036
825.927	3047
826.067	2975
826.206	2982
826.346	3020
826.485	3058
826.625	3127
826.765	3249
826.904	3222
827.044	3036
827.183	2929
827.323	2853
827.462	3005
827.601	2902
827.741	2922
827.88	2952
828.02	2842
828.159	2956
828.298	3024
828.437	3119
828.577	3051
828.716	3256
828.855	3051
828.994	2937
829.134	2899
829.273	2937
829.412	2876
829.551	2872
829.69	2929
829.829	3017
829.968	3108
830.107	3058
830.246	3028
830.385	2952
830.524	2876
830.663	2819
830.802	2773
830.941	2648
831.08	2632
831.219	2758
831.357	2735
831.496	2952
831.635	2727
831.774	2640
831.913	2678
832.051	2594
832.19	2613
832.329	2689
832.467	2533
832.606	2492
832.744	2579
832.883	2571
833.022	2610
833.16	2648
833.299	2640
833.437	2731
833.576	2682
833.714	2708
833.852	2731
833.991	2773
834.129	2853
834.267	2819
834.406	2800
834.544	2880
834.682	2861
834.821	2864
834.959	3055
835.097	2868
835.235	3028
835.373	2990
835.511	3020
835.65	2986
835.788	2929
835.926	2849
836.064	2830
836.202	2842
836.34	3066
836.478	3165
836.615	3070
836.753	3116
836.891	3165
837.029	3161
837.167	3116
837.305	3081
837.443	3036
837.58	2982
837.718	3138
837.856	3028
837.993	3055
838.131	3135
838.269	3138
838.406	3066
838.544	3093
838.681	2929
838.819	2895
838.956	2826
839.094	2883
839.231	2910
839.369	3001
839.506	3374
839.643	3214
839.781	2998
839.918	2963
840.055	3047
840.193	3020
840.33	3062
840.467	3135
840.604	3146
840.742	3412
840.879	3058
841.016	3001
841.153	3123
841.29	3389
841.427	3302
841.564	3287
841.701	3344
841.838	3230
841.975	3161
842.112	3211
842.249	3077
842.385	3017
842.522	3233
842.659	3081
842.796	3058
842.933	3104
843.069	3058
843.206	3043
843.343	3203
843.479	3100
843.616	3131
843.752	2899
843.889	2876
844.025	3097
844.162	2906
844.298	3085
844.435	2937
844.571	2925
844.708	3074
844.844	3173
844.98	3241
845.117	3173
845.253	3047
845.389	2990
845.525	3097
845.661	3135
845.798	3047
845.934	3085
846.07	3066
846.206	3237
846.342	3302
846.478	3226
846.614	3077
846.75	3066
846.886	3005
847.022	3283
847.158	3138
847.294	3195
847.429	3249
847.565	3222
847.701	3485
847.837	3017
847.972	3001
848.108	3150
848.244	3108
848.379	2982
848.515	2963
848.65	2925
848.786	2910
848.921	2998
849.057	3116
849.192	3138
849.328	3077
849.463	3131
849.598	3077
849.734	3039
849.869	3013
850.004	2906
850.14	2956
850.275	2937
850.41	2823
850.545	2861
850.68	2963
850.815	2982
850.95	2971
851.085	3150
851.22	3085
851.355	3024
851.49	3013
851.625	2971
851.76	3047
851.895	2910
852.03	2933
852.165	3039
852.299	3093
852.434	3203
852.569	3135
852.703	3131
852.838	3272
852.973	3336
853.107	3325
853.242	3131
853.376	3062
853.511	2979
853.645	3058
853.78	3253
853.914	3104
854.048	3081
854.183	3089
854.317	3161
854.451	3287
854.585	3146
854.72	3081
854.854	3245
854.988	3017
855.122	3085
855.256	2982
855.39	3112
855.524	3195
855.658	3192
855.792	3142
855.926	3230
856.06	3199
856.194	3249
856.327	3142
856.461	3074
856.595	3077
856.729	3100
856.862	3188
856.996	3154
857.13	3173
857.263	3211
857.397	3264
857.53	3154
857.664	3195
857.797	3245
857.931	3218
858.064	3195
858.197	3260
858.331	3173
858.464	3112
858.597	3024
858.731	3135
858.864	3176
858.997	3070
859.13	3135
859.263	3146
859.396	3161
859.529	3093
859.662	3062
859.795	3039
859.928	3093
860.061	3249
860.194	3264
860.327	3154
860.46	3093
860.592	3241
860.725	3260
860.858	3264
860.99	3074
861.123	3028
861.256	3013
861.388	3142
861.521	3937
861.653	2982
861.786	2990
861.918	2967
862.05	3043
862.183	3119
862.315	3150
862.447	3214
862.58	3074
862.712	2944
862.844	2845
862.976	3020
863.108	2994
863.24	3306
863.372	2891
863.504	2944
863.636	2963
863.768	3032
863.9	3001
864.032	2922
864.164	2948
864.296	3036
864.428	3062
864.559	3112
864.691	3077
864.823	3070
864.954	3028
865.086	3047
865.217	3005
865.349	2956
865.48	2975
865.612	3009
865.743	3150
865.875	2971
866.006	2933
866.137	2971
866.269	2929
866.4	2937
866.531	2922
866.662	2906
866.793	2887
866.924	2891
867.055	2952
867.186	2944
867.317	2853
867.448	2811
867.579	2834
867.71	2830
867.841	2819
867.972	2880
868.103	2910
868.233	2849
868.364	2861
868.495	2899
868.625	3043
868.756	3161
868.886	2986
869.017	2998
869.147	3138
869.278	3123
869.408	3020
869.539	3028
869.669	3074
869.799	3066
869.929	3116
870.06	3131
870.19	3298
870.32	3283
870.45	3264
870.58	3397
870.71	3428
870.84	3363
870.97	3279
871.1	3230
871.23	3507
871.36	3428
871.489	3348
871.619	3386
871.749	3401
871.879	3420
872.008	3454
872.138	3340
872.267	3264
872.397	3165
872.526	3058
872.656	3009
872.785	3100
872.915	3218
873.044	3291
873.173	3218
873.303	3230
873.432	3233
873.561	3226
873.69	3135
873.819	3161
873.948	3169
874.077	3123
874.206	3066
874.335	3070
874.464	3214
874.593	3382
874.722	3233
874.851	3374
874.979	3306
875.108	3370
875.237	3207
875.365	3154
875.494	3150
875.623	3253
875.751	3077
875.88	3116
876.008	3184
876.136	3214
876.265	3374
876.393	3523
876.521	3386
876.65	3409
876.778	3351
876.906	3264
877.034	3173
877.162	3218
877.29	3161
877.418	3226
877.546	3253
877.674	3230
877.802	3233
877.93	3195
878.058	3173
878.185	3112
878.313	3161
878.441	3230
878.568	3070
878.696	3154
878.824	3237
878.951	3275
879.079	3450
879.206	3637
879.333	3454
879.461	3313
879.588	3332
879.715	3519
879.842	3580
879.97	3367
880.097	3138
880.224	3108
880.351	3211
880.478	3176
880.605	3199
880.732	3176
880.859	3507
880.986	3291
881.112	3294
881.239	3207
881.366	3097
881.493	3039
881.619	3032
881.746	3058
881.872	3089
881.999	3127
882.125	3131
882.252	3287
882.378	3283
882.505	3428
882.631	3306
882.757	3146
882.883	3214
883.01	3207
883.136	3184
883.262	3119
883.388	3108
883.514	3332
883.64	3370
883.766	3313
883.892	3184
884.018	3256
884.143	3416
884.269	3507
884.395	3176
884.52	3131
884.646	3207
884.772	3131
884.897	3104
885.023	3180
885.148	3325
885.274	3424
885.399	3344
885.524	3264
885.65	3294
885.775	3329
885.9	3298
886.025	3405
886.15	3386
886.275	3275
886.4	3233
886.525	3306
886.65	3287
886.775	3226
886.9	3473
887.025	3591
887.149	3409
887.274	3214
887.399	3157
887.523	3203
887.648	3161
887.773	3176
887.897	3370
888.021	3393
888.146	3249
888.27	3420
888.395	3515
888.519	3389
888.643	3492
888.767	3443
888.891	3329
889.015	3253
889.139	3310
889.263	3260
889.387	3412
889.511	3477
889.635	3439
889.759	3272
889.883	3260
890.006	3374
890.13	3473
890.254	3275
890.377	3336
890.501	3203
890.624	3180
890.748	3294
890.871	3138
890.995	3108
891.118	3039
891.241	3195
891.364	3222
891.488	3306
891.611	3188
891.734	3214
891.857	3260
891.98	3226
892.103	3332
892.226	3275
892.349	3184
892.471	3135
892.594	3245
892.717	3287
892.839	3306
892.962	3226
893.085	3340
893.207	3253
893.33	3135
893.452	3192
893.575	3310
893.697	3253
893.819	3454
893.941	3519
894.064	3450
894.186	3279
894.308	3275
894.43	3439
894.552	3507
894.674	3458
894.796	3249
894.918	3382
895.04	3245
895.161	3439
895.283	3386
895.405	3313
895.526	3355
895.648	3428
895.769	3412
895.891	3431
896.012	3469
896.134	3466
896.255	3389
896.376	3405
896.498	3336
896.619	3401
896.74	3348
896.861	3420
896.982	3660
897.103	3823
897.224	3625
897.345	3511
897.466	3450
897.587	3500
897.708	3637
897.828	3564
897.949	3450
898.07	3348
898.19	3401
898.311	3576
898.431	3469
898.552	3500
898.672	3610
898.792	3595
898.913	3511
899.033	3409
899.153	3298
899.273	3195
899.393	3249
899.513	3268
899.633	3325
899.753	3317
899.873	3329
899.993	3348
900.113	3317
900.232	3359
900.352	3340
900.472	3272
900.591	3230
900.711	3302
900.83	3218
900.95	3401
901.069	3504
901.189	3378
901.308	3180
901.427	3100
901.546	3188
901.665	3313
901.784	3329
901.904	3207
902.023	3108
902.141	2990
902.26	3039
902.379	3123
902.498	3055
902.617	3036
902.735	3203
902.854	3249
902.973	3169
903.091	3036
903.21	3051
903.328	3123
903.446	3119
903.565	3074
903.683	3222
903.801	3123
903.919	3233
904.038	3306
904.156	3165
904.274	3291
904.392	3287
904.51	3291
904.627	3340
904.745	3405
904.863	3469
904.981	3222
905.098	3123
905.216	3260
905.334	3268
905.451	3279
905.569	3291
905.686	3409
905.803	3405
905.921	3294
906.038	3450
906.155	3348
906.272	3260
906.389	3329
906.506	3237
906.623	3268
906.74	3256
906.857	3180
906.974	3230
907.091	3431
907.208	3580
907.324	3435
907.441	3401
907.557	3233
907.674	3233
907.79	3226
907.907	3294
908.023	3340
908.139	3359
908.256	3313
908.372	3348
908.488	3348
908.604	3211
908.72	3237
908.836	3237
908.952	3272
909.068	3348
909.184	3496
909.3	3405
909.415	3500
909.531	3519
909.647	3294
909.762	3249
909.878	3249
909.993	3382
910.108	3351
910.224	3355
910.339	3386
910.454	3325
910.57	3317
910.685	3199
910.8	3599
910.915	3507
911.03	3409
911.145	3291
911.259	3287
911.374	3294
911.489	3218
911.604	3180
911.718	3112
911.833	3169
911.947	3039
912.062	2944
912.176	3154
912.291	3180
912.405	3211
912.519	3428
912.633	3424
912.748	3310
912.862	3272
912.976	3123
913.09	3032
913.204	3108
913.318	3192
913.431	3294
913.545	3317
913.659	3393
913.772	3351
913.886	3214
914	3180
914.113	3351
914.226	3424
914.34	3370
914.453	3214
914.566	3401
914.68	3268
914.793	3313
914.906	3154
915.019	3104
915.132	3058
915.245	3180
915.358	3180
915.47	3237
915.583	3264
915.696	3294
915.809	3412
915.921	3405
916.034	3268
916.146	3249
916.259	3161
916.371	3370
916.483	3329
916.595	3207
916.708	3332
916.82	3332
916.932	3317
917.044	3313
917.156	3325
917.268	3195
917.38	3306
917.491	3287
917.603	3298
917.715	3454
917.826	3431
917.938	3389
918.049	3310
918.161	3405
918.272	3553
918.384	3564
918.495	3443
918.606	3321
918.717	3275
918.828	3351
918.939	3428
919.05	3256
919.161	3382
919.272	3169
919.383	3279
919.494	3462
919.604	3644
919.715	3485
919.826	3393
919.936	3492
920.047	3584
920.157	3530
920.267	3728
920.378	3576
920.488	3553
920.598	3789
920.708	3960
920.818	3804
920.928	3869
921.038	4021
921.148	3964
921.258	3736
921.368	3667
921.477	3595
921.587	3526
921.697	3435
921.806	3637
921.916	3504
922.025	3325
922.134	3325
922.244	3321
922.353	3409
922.462	3291
922.571	3218
922.68	3116
922.789	3047
922.898	3131
923.007	3135
923.116	3211
923.224	3154
923.333	3157
923.442	3100
923.55	3104
923.659	3131
923.767	3203
923.876	3131
923.984	3226
924.092	3077
924.201	3173
924.309	3230
924.417	3245
924.525	3211
924.633	3230
924.741	4036
924.849	3051
924.956	3287
925.064	3070
925.172	3047
925.279	3127
925.387	3207
925.494	3214
925.602	3367
925.709	3329
925.816	3199
925.924	3294
926.031	3351
926.138	3298
926.245	3325
926.352	3237
926.459	3443
926.566	3454
926.673	3348
926.779	3249
926.886	3264
926.993	3135
927.099	3131
927.206	3131
927.312	3142
927.419	3222
927.525	3207
927.631	3260
927.737	3146
927.843	3127
927.95	3028
928.056	3157
928.162	3169
928.267	3211
928.373	3770
928.479	3321
928.585	3074
928.69	3192
928.796	3275
928.901	3157
929.007	3028
929.112	3226
929.218	3169
929.323	3154
929.428	3119
929.533	3313
929.638	3154
929.743	3165
929.848	3241
929.953	3241
930.058	3154
930.163	3009
930.267	3066
930.372	3165
930.477	3039
930.581	3298
930.685	3142
930.79	3066
930.894	3100
930.998	3047
931.103	3275
931.207	2986
931.311	2937
931.415	2910
931.519	2754
931.623	2815
