Data from test_V78500241_654.txt Node
Date: Fri Mar 25 16:19:44 CST 2022
User: usil
Spectrometer: V785-0024
Trigger mode: 0
Integration Time (sec): 4.000000E-1
Scans to average: 1
Nonlinearity correction enabled: false
Boxcar width: 0
Storing dark spectrum: false
XAxis mode: Wavelengths
Number of Pixels in Spectrum: 1024
>>>>>Begin Spectral Data<<<<<
801.071	2910
801.214	2941
801.356	2902
801.499	2876
801.641	2857
801.783	2925
801.926	3039
802.068	2960
802.211	3005
802.353	3024
802.496	2937
802.638	3001
802.78	3043
802.923	3085
803.065	3005
803.208	2876
803.35	2868
803.492	2914
803.635	2933
803.777	2743
803.919	2857
804.061	3203
804.204	2914
804.346	2887
804.488	2834
804.63	2956
804.773	2864
804.915	2918
805.057	3104
805.199	2933
805.341	2971
805.483	3024
805.626	2994
805.768	2963
805.91	3074
806.052	3108
806.194	3055
806.336	3230
806.478	3047
806.62	2948
806.762	2990
806.904	3032
807.046	3203
807.188	2967
807.33	2899
807.472	2956
807.614	2944
807.756	2998
807.898	2914
808.04	2902
808.182	2952
808.324	2937
808.465	2883
808.607	2895
808.749	2769
808.891	2872
809.033	2990
809.174	2952
809.316	2868
809.458	2891
809.6	2769
809.741	2754
809.883	2754
810.025	2811
810.166	2887
810.308	2807
810.45	2811
810.591	2766
810.733	2792
810.875	2838
811.016	2819
811.158	2773
811.299	2788
811.441	2910
811.582	2902
811.724	2811
811.865	2849
812.007	2929
812.148	2868
812.29	2826
812.431	2861
812.573	2944
812.714	2918
812.855	3020
812.997	3039
813.138	3097
813.279	2990
813.421	3001
813.562	2944
813.703	2868
813.845	2891
813.986	2750
814.127	2750
814.268	2826
814.41	2815
814.551	2811
814.692	2895
814.833	2792
814.974	2868
815.115	2990
815.256	2819
815.397	2823
815.539	2880
815.68	2762
815.821	2773
815.962	2929
816.103	2922
816.244	2887
816.385	2883
816.526	2948
816.666	2891
816.807	2754
816.948	2853
817.089	2891
817.23	2830
817.371	2769
817.512	2815
817.653	2811
817.793	2819
817.934	2880
818.075	2975
818.216	2982
818.356	3020
818.497	2857
818.638	2781
818.778	2815
818.919	2769
819.06	2735
819.2	2887
819.341	2773
819.481	2781
819.622	2929
819.762	3116
819.903	3047
820.043	2918
820.184	2906
820.324	2872
820.465	2986
820.605	3005
820.746	3039
820.886	2925
821.026	3116
821.167	3119
821.307	3291
821.447	3272
821.588	3230
821.728	3203
821.868	3203
822.008	3047
822.149	3154
822.289	3260
822.429	3089
822.569	3047
822.709	3184
822.849	2998
822.99	3097
823.13	3188
823.27	3192
823.41	3093
823.55	3127
823.69	3169
823.83	3165
823.97	3104
824.11	2986
824.25	2998
824.389	3058
824.529	3089
824.669	3051
824.809	3165
824.949	3245
825.089	3237
825.228	3180
825.368	2975
825.508	2967
825.648	2960
825.787	3005
825.927	3028
826.067	2956
826.206	2982
826.346	3047
826.485	3081
826.625	3131
826.765	3275
826.904	3180
827.044	2982
827.183	2933
827.323	2853
827.462	2975
827.601	2887
827.741	2918
827.88	2941
828.02	2872
828.159	2986
828.298	3020
828.437	3123
828.577	3032
828.716	3253
828.855	3097
828.994	2918
829.134	2899
829.273	2922
829.412	2895
829.551	2849
829.69	2895
829.829	2982
829.968	3123
830.107	3036
830.246	3036
830.385	2925
830.524	2880
830.663	2792
830.802	2712
830.941	2659
831.08	2640
831.219	2750
831.357	2750
831.496	2956
831.635	2701
831.774	2640
831.913	2651
832.051	2545
832.19	2575
832.329	2659
832.467	2526
832.606	2476
832.744	2571
832.883	2613
833.022	2587
833.16	2663
833.299	2655
833.437	2689
833.576	2689
833.714	2724
833.852	2735
833.991	2754
834.129	2834
834.267	2819
834.406	2769
834.544	2883
834.682	2864
834.821	2902
834.959	3047
835.097	2925
835.235	3066
835.373	2990
835.511	3024
835.65	2933
835.788	2956
835.926	2807
836.064	2792
836.202	2815
836.34	3097
836.478	3146
836.615	3081
836.753	3131
836.891	3165
837.029	3199
837.167	3123
837.305	3055
837.443	3028
837.58	2963
837.718	3089
837.856	3062
837.993	2994
838.131	3097
838.269	3108
838.406	3074
838.544	3081
838.681	2948
838.819	2937
838.956	2857
839.094	2804
839.231	2887
839.369	2998
839.506	3374
839.643	3184
839.781	2994
839.918	2982
840.055	3074
840.193	3043
840.33	3062
840.467	3077
840.604	3161
840.742	3405
840.879	3043
841.016	3032
841.153	3104
841.29	3317
841.427	3313
841.564	3272
841.701	3294
841.838	3188
841.975	3157
842.112	3203
842.249	3058
842.385	3058
842.522	3260
842.659	3070
842.796	3100
842.933	3089
843.069	3047
843.206	3024
843.343	3154
843.479	3093
843.616	3150
843.752	2891
843.889	2857
844.025	3066
844.162	2899
844.298	3062
844.435	2952
844.571	2906
844.708	3066
844.844	3199
844.98	3226
845.117	3192
845.253	3043
845.389	3028
845.525	3077
845.661	3089
845.798	2998
845.934	3093
846.07	3039
846.206	3192
846.342	3321
846.478	3230
846.614	3066
846.75	3055
846.886	3032
847.022	3264
847.158	3123
847.294	3211
847.429	3207
847.565	3176
847.701	3473
847.837	3051
847.972	3013
848.108	3169
848.244	3169
848.379	2986
848.515	2937
848.65	2960
848.786	2986
848.921	2990
849.057	3077
849.192	3135
849.328	3058
849.463	3097
849.598	3043
849.734	3039
849.869	2990
850.004	2899
850.14	2979
850.275	2918
850.41	2838
850.545	2853
850.68	2941
850.815	2925
850.95	2963
851.085	3218
851.22	3097
851.355	3017
851.49	2990
851.625	2990
851.76	3005
851.895	2937
852.03	2876
852.165	3055
852.299	3112
852.434	3169
852.569	3138
852.703	3165
852.838	3203
852.973	3325
853.107	3329
853.242	3138
853.376	3070
853.511	2960
853.645	3017
853.78	3253
853.914	3077
854.048	3089
854.183	3062
854.317	3127
854.451	3298
854.585	3146
854.72	3051
854.854	3237
854.988	3020
855.122	3043
855.256	2948
855.39	3108
855.524	3264
855.658	3154
855.792	3119
855.926	3184
856.06	3211
856.194	3272
856.327	3135
856.461	3043
856.595	3085
856.729	3077
856.862	3245
856.996	3195
857.13	3157
857.263	3214
857.397	3256
857.53	3119
857.664	3176
857.797	3230
857.931	3249
858.064	3131
858.197	3214
858.331	3131
858.464	3112
858.597	2986
858.731	3097
858.864	3135
858.997	3051
859.13	3123
859.263	3150
859.396	3176
859.529	3055
859.662	3062
859.795	3028
859.928	3131
860.061	3260
860.194	3253
860.327	3157
860.46	3093
860.592	3188
860.725	3264
860.858	3245
860.99	3085
861.123	3036
861.256	3036
861.388	3127
861.521	3831
861.653	3017
861.786	2963
861.918	2982
862.05	3062
862.183	3089
862.315	3150
862.447	3161
862.58	3066
862.712	2948
862.844	2891
862.976	3005
863.108	3024
863.24	3374
863.372	2876
863.504	2933
863.636	2929
863.768	3066
863.9	2960
864.032	2925
864.164	2956
864.296	3028
864.428	3077
864.559	3112
864.691	3028
864.823	3062
864.954	3043
865.086	3024
865.217	3024
865.349	2925
865.48	3005
865.612	3013
865.743	3112
865.875	2971
866.006	2963
866.137	2944
866.269	2948
866.4	2906
866.531	2914
866.662	2872
866.793	2899
866.924	2872
867.055	2941
867.186	2925
867.317	2872
867.448	2823
867.579	2857
867.71	2853
867.841	2834
867.972	2906
868.103	2864
868.233	2914
868.364	2864
868.495	2883
868.625	3077
868.756	3169
868.886	2986
869.017	3032
869.147	3112
869.278	3123
869.408	3020
869.539	2979
869.669	3081
869.799	3005
869.929	3131
870.06	3085
870.19	3313
870.32	3249
870.45	3294
870.58	3367
870.71	3458
870.84	3420
870.97	3283
871.1	3226
871.23	3481
871.36	3481
871.489	3363
871.619	3393
871.749	3393
871.879	3439
872.008	3473
872.138	3355
872.267	3253
872.397	3116
872.526	3097
872.656	2971
872.785	3081
872.915	3218
873.044	3329
873.173	3207
873.303	3264
873.432	3230
873.561	3192
873.69	3165
873.819	3112
873.948	3184
874.077	3089
874.206	3024
874.335	3077
874.464	3176
874.593	3359
874.722	3233
874.851	3367
874.979	3332
875.108	3291
875.237	3199
875.365	3116
875.494	3116
875.623	3214
875.751	3074
875.88	3104
876.008	3192
876.136	3233
876.265	3325
876.393	3481
876.521	3439
876.65	3382
876.778	3355
876.906	3199
877.034	3218
877.162	3203
877.29	3165
877.418	3249
877.546	3211
877.674	3260
877.802	3222
877.93	3260
878.058	3123
878.185	3104
878.313	3188
878.441	3203
878.568	3070
878.696	3123
878.824	3214
878.951	3298
879.079	3428
879.206	3633
879.333	3424
879.461	3332
879.588	3363
879.715	3435
879.842	3561
879.97	3374
880.097	3169
880.224	3127
880.351	3222
880.478	3214
880.605	3203
880.732	3180
880.859	3500
880.986	3310
881.112	3306
881.239	3173
881.366	3108
881.493	3024
881.619	3009
881.746	3062
881.872	3074
881.999	3085
882.125	3184
882.252	3256
882.378	3268
882.505	3401
882.631	3294
882.757	3154
882.883	3203
883.01	3241
883.136	3199
883.262	3112
883.388	3127
883.514	3336
883.64	3393
883.766	3287
883.892	3150
884.018	3222
884.143	3409
884.269	3515
884.395	3184
884.52	3142
884.646	3203
884.772	3138
884.897	3077
885.023	3180
885.148	3355
885.274	3409
885.399	3370
885.524	3291
885.65	3272
885.775	3298
885.9	3268
886.025	3458
886.15	3340
886.275	3329
886.4	3184
886.525	3313
886.65	3298
886.775	3275
886.9	3488
887.025	3610
887.149	3428
887.274	3211
887.399	3211
887.523	3211
887.648	3161
887.773	3222
887.897	3351
888.021	3420
888.146	3298
888.27	3416
888.395	3500
888.519	3454
888.643	3431
888.767	3485
888.891	3310
889.015	3173
889.139	3249
889.263	3226
889.387	3389
889.511	3515
889.635	3450
889.759	3272
889.883	3291
890.006	3370
890.13	3447
890.254	3260
890.377	3370
890.501	3214
890.624	3192
890.748	3298
890.871	3176
890.995	3104
891.118	3104
891.241	3184
891.364	3211
891.488	3283
891.611	3165
891.734	3199
891.857	3283
891.98	3222
892.103	3325
892.226	3241
892.349	3207
892.471	3119
892.594	3218
892.717	3260
892.839	3237
892.962	3291
893.085	3370
893.207	3249
893.33	3180
893.452	3199
893.575	3336
893.697	3256
893.819	3481
893.941	3485
894.064	3420
894.186	3275
894.308	3306
894.43	3481
894.552	3523
894.674	3447
894.796	3253
894.918	3329
895.04	3302
895.161	3420
895.283	3416
895.405	3264
895.526	3317
895.648	3428
895.769	3435
895.891	3481
896.012	3485
896.134	3477
896.255	3409
896.376	3348
896.498	3359
896.619	3428
896.74	3363
896.861	3386
896.982	3713
897.103	3823
897.224	3610
897.345	3466
897.466	3405
897.587	3500
897.708	3603
897.828	3530
897.949	3397
898.07	3329
898.19	3397
898.311	3603
898.431	3412
898.552	3485
898.672	3595
898.792	3580
898.913	3504
899.033	3374
899.153	3268
899.273	3199
899.393	3226
899.513	3306
899.633	3279
899.753	3325
899.873	3336
899.993	3367
900.113	3348
900.232	3401
900.352	3329
900.472	3222
900.591	3211
900.711	3306
900.83	3260
900.95	3397
901.069	3473
901.189	3348
901.308	3180
901.427	3131
901.546	3218
901.665	3287
901.784	3336
901.904	3203
902.023	3154
902.141	2990
902.26	2975
902.379	3150
902.498	3055
902.617	3066
902.735	3207
902.854	3207
902.973	3222
903.091	3001
903.21	3043
903.328	3142
903.446	3138
903.565	3112
903.683	3195
903.801	3146
903.919	3237
904.038	3302
904.156	3116
904.274	3287
904.392	3214
904.51	3291
904.627	3348
904.745	3409
904.863	3507
904.981	3241
905.098	3157
905.216	3226
905.334	3279
905.451	3344
905.569	3298
905.686	3405
905.803	3428
905.921	3264
906.038	3389
906.155	3355
906.272	3268
906.389	3294
906.506	3291
906.623	3245
906.74	3321
906.857	3169
906.974	3249
907.091	3409
907.208	3542
907.324	3515
907.441	3386
907.557	3237
907.674	3241
907.79	3192
907.907	3249
908.023	3389
908.139	3393
908.256	3332
908.372	3386
908.488	3313
908.604	3226
908.72	3260
908.836	3218
908.952	3272
909.068	3374
909.184	3466
909.3	3401
909.415	3473
909.531	3462
909.647	3298
909.762	3302
909.878	3256
909.993	3363
910.108	3306
910.224	3283
910.339	3397
910.454	3310
910.57	3241
910.685	3249
910.8	3591
910.915	3534
911.03	3454
911.145	3249
911.259	3283
911.374	3275
911.489	3321
911.604	3199
911.718	3104
911.833	3150
911.947	3020
912.062	2982
912.176	3161
912.291	3154
912.405	3203
912.519	3420
912.633	3466
912.748	3340
912.862	3287
912.976	3154
913.09	3009
913.204	3154
913.318	3222
913.431	3332
913.545	3359
913.659	3405
913.772	3340
913.886	3180
914	3230
914.113	3363
914.226	3382
914.34	3370
914.453	3184
914.566	3382
914.68	3287
914.793	3310
914.906	3150
915.019	3108
915.132	3100
915.245	3146
915.358	3184
915.47	3249
915.583	3241
915.696	3294
915.809	3374
915.921	3416
916.034	3272
916.146	3268
916.259	3195
916.371	3344
916.483	3363
916.595	3226
916.708	3336
916.82	3325
916.932	3329
917.044	3351
917.156	3359
917.268	3237
917.38	3291
917.491	3294
917.603	3386
917.715	3439
917.826	3466
917.938	3397
918.049	3287
918.161	3412
918.272	3545
918.384	3576
918.495	3450
918.606	3351
918.717	3241
918.828	3367
918.939	3386
919.05	3298
919.161	3386
919.272	3192
919.383	3233
919.494	3458
919.604	3682
919.715	3458
919.826	3359
919.936	3481
920.047	3549
920.157	3549
920.267	3751
920.378	3595
920.488	3591
920.598	3819
920.708	3972
920.818	3819
920.928	3808
921.038	3979
921.148	3968
921.258	3686
921.368	3652
921.477	3587
921.587	3557
921.697	3450
921.806	3606
921.916	3538
922.025	3374
922.134	3416
922.244	3317
922.353	3443
922.462	3249
922.571	3195
922.68	3070
922.789	3062
922.898	3146
923.007	3116
923.116	3180
923.224	3176
923.333	3184
923.442	3131
923.55	3093
923.659	3138
923.767	3195
923.876	3100
923.984	3211
924.092	3085
924.201	3169
924.309	3195
924.417	3237
924.525	3199
924.633	3207
924.741	3991
924.849	3047
924.956	3268
925.064	3097
925.172	3081
925.279	3077
925.387	3211
925.494	3233
925.602	3359
925.709	3363
925.816	3169
925.924	3313
926.031	3412
926.138	3359
926.245	3370
926.352	3256
926.459	3393
926.566	3458
926.673	3351
926.779	3218
926.886	3245
926.993	3119
927.099	3116
927.206	3135
927.312	3100
927.419	3203
927.525	3264
927.631	3237
927.737	3123
927.843	3093
927.95	3009
928.056	3116
928.162	3157
928.267	3207
928.373	3770
928.479	3344
928.585	3070
928.69	3184
928.796	3279
928.901	3150
929.007	3009
929.112	3207
929.218	3150
929.323	3146
929.428	3154
929.533	3306
929.638	3112
929.743	3165
929.848	3233
929.953	3199
930.058	3146
930.163	3005
930.267	3036
930.372	3195
930.477	3039
930.581	3313
930.685	3188
930.79	3066
930.894	3131
930.998	3104
931.103	3279
931.207	2929
931.311	2937
931.415	2929
931.519	2766
931.623	2823
