Data from test_V78500241_1217.txt Node
Date: Fri Mar 25 16:23:38 CST 2022
User: usil
Spectrometer: V785-0024
Trigger mode: 0
Integration Time (sec): 4.000000E-1
Scans to average: 1
Nonlinearity correction enabled: false
Boxcar width: 0
Storing dark spectrum: false
XAxis mode: Wavelengths
Number of Pixels in Spectrum: 1024
>>>>>Begin Spectral Data<<<<<
801.071	2922
801.214	2937
801.356	2876
801.499	2883
801.641	2872
801.783	2944
801.926	3043
802.068	2979
802.211	3005
802.353	3039
802.496	2982
802.638	2998
802.78	3055
802.923	3108
803.065	2994
803.208	2922
803.35	2933
803.492	2925
803.635	2929
803.777	2788
803.919	2872
804.061	3207
804.204	2944
804.346	2891
804.488	2811
804.63	2994
804.773	2887
804.915	2910
805.057	3100
805.199	2899
805.341	2975
805.483	3020
805.626	2971
805.768	2971
805.91	3058
806.052	3131
806.194	3036
806.336	3241
806.478	3058
806.62	2952
806.762	3001
806.904	3013
807.046	3116
807.188	2952
807.33	2925
807.472	2960
807.614	2880
807.756	2960
807.898	2906
808.04	2887
808.182	2982
808.324	2933
808.465	2887
808.607	2864
808.749	2819
808.891	2849
809.033	2979
809.174	2963
809.316	2868
809.458	2902
809.6	2807
809.741	2785
809.883	2769
810.025	2853
810.166	2861
810.308	2834
810.45	2887
810.591	2777
810.733	2769
810.875	2845
811.016	2754
811.158	2762
811.299	2811
811.441	2944
811.582	2895
811.724	2800
811.865	2823
812.007	2891
812.148	2899
812.29	2845
812.431	2861
812.573	2910
812.714	2982
812.855	3036
812.997	3024
813.138	3138
813.279	3001
813.421	2990
813.562	2922
813.703	2902
813.845	2914
813.986	2769
814.127	2720
814.268	2853
814.41	2868
814.551	2819
814.692	2864
814.833	2804
814.974	2925
815.115	2948
815.256	2842
815.397	2804
815.539	2880
815.68	2792
815.821	2769
815.962	2922
816.103	2933
816.244	2895
816.385	2838
816.526	2975
816.666	2887
816.807	2777
816.948	2914
817.089	2876
817.23	2834
817.371	2754
817.512	2830
817.653	2830
817.793	2788
817.934	2853
818.075	2998
818.216	2967
818.356	3009
818.497	2891
818.638	2792
818.778	2800
818.919	2815
819.06	2781
819.2	2864
819.341	2815
819.481	2788
819.622	2899
819.762	3093
819.903	3085
820.043	2914
820.184	2887
820.324	2922
820.465	3017
820.605	2975
820.746	3051
820.886	2902
821.026	3074
821.167	3192
821.307	3275
821.447	3283
821.588	3214
821.728	3195
821.868	3188
822.008	3055
822.149	3169
822.289	3222
822.429	3058
822.569	3074
822.709	3192
822.849	3020
822.99	3085
823.13	3138
823.27	3203
823.41	3066
823.55	3150
823.69	3146
823.83	3195
823.97	3081
824.11	3009
824.25	2963
824.389	3074
824.529	3100
824.669	3081
824.809	3199
824.949	3214
825.089	3253
825.228	3150
825.368	2998
825.508	2990
825.648	2982
825.787	3001
825.927	3013
826.067	2971
826.206	2994
826.346	3051
826.485	3085
826.625	3081
826.765	3260
826.904	3222
827.044	2994
827.183	2944
827.323	2899
827.462	2948
827.601	2876
827.741	2922
827.88	2948
828.02	2861
828.159	2952
828.298	3036
828.437	3097
828.577	3043
828.716	3256
828.855	3093
828.994	2899
829.134	2883
829.273	2910
829.412	2849
829.551	2842
829.69	2899
829.829	2994
829.968	3131
830.107	3024
830.246	3043
830.385	2902
830.524	2876
830.663	2807
830.802	2724
830.941	2613
831.08	2636
831.219	2750
831.357	2788
831.496	2918
831.635	2705
831.774	2659
831.913	2636
832.051	2552
832.19	2549
832.329	2686
832.467	2507
832.606	2473
832.744	2560
832.883	2552
833.022	2552
833.16	2617
833.299	2693
833.437	2648
833.576	2697
833.714	2712
833.852	2693
833.991	2754
834.129	2830
834.267	2834
834.406	2762
834.544	2880
834.682	2864
834.821	2861
834.959	2979
835.097	2887
835.235	3066
835.373	2990
835.511	3047
835.65	2937
835.788	2922
835.926	2842
836.064	2811
836.202	2788
836.34	3093
836.478	3142
836.615	3028
836.753	3142
836.891	3146
837.029	3161
837.167	3108
837.305	3062
837.443	3039
837.58	2963
837.718	3127
837.856	3074
837.993	3055
838.131	3108
838.269	3077
838.406	3062
838.544	3070
838.681	2902
838.819	2914
838.956	2823
839.094	2792
839.231	2902
839.369	3036
839.506	3363
839.643	3173
839.781	3024
839.918	2975
840.055	3005
840.193	3058
840.33	3104
840.467	3085
840.604	3180
840.742	3420
840.879	3032
841.016	3066
841.153	3070
841.29	3321
841.427	3317
841.564	3272
841.701	3298
841.838	3214
841.975	3112
842.112	3222
842.249	3051
842.385	3047
842.522	3260
842.659	3081
842.796	3058
842.933	3047
843.069	3055
843.206	3005
843.343	3184
843.479	3089
843.616	3146
843.752	2883
843.889	2895
844.025	3093
844.162	2876
844.298	3077
844.435	2937
844.571	2899
844.708	3070
844.844	3173
844.98	3192
845.117	3169
845.253	3058
845.389	2998
845.525	3116
845.661	3112
845.798	3017
845.934	3108
846.07	3043
846.206	3184
846.342	3279
846.478	3211
846.614	3089
846.75	3062
846.886	3032
847.022	3207
847.158	3100
847.294	3188
847.429	3241
847.565	3233
847.701	3485
847.837	3017
847.972	2982
848.108	3127
848.244	3131
848.379	2998
848.515	2944
848.65	2933
848.786	2941
848.921	3017
849.057	3100
849.192	3150
849.328	3062
849.463	3100
849.598	3058
849.734	2975
849.869	2990
850.004	2895
850.14	2948
850.275	2883
850.41	2842
850.545	2887
850.68	2929
850.815	2941
850.95	2967
851.085	3138
851.22	3112
851.355	2994
851.49	2952
851.625	3005
851.76	2986
851.895	2948
852.03	2914
852.165	3009
852.299	3119
852.434	3142
852.569	3108
852.703	3161
852.838	3230
852.973	3344
853.107	3313
853.242	3169
853.376	3066
853.511	2967
853.645	3051
853.78	3207
853.914	3089
854.048	3100
854.183	3066
854.317	3116
854.451	3287
854.585	3089
854.72	3074
854.854	3157
854.988	3036
855.122	3055
855.256	2937
855.39	3131
855.524	3245
855.658	3165
855.792	3142
855.926	3157
856.06	3211
856.194	3260
856.327	3146
856.461	3036
856.595	3058
856.729	3074
856.862	3195
856.996	3184
857.13	3180
857.263	3222
857.397	3291
857.53	3089
857.664	3169
857.797	3222
857.931	3195
858.064	3165
858.197	3192
858.331	3138
858.464	3070
858.597	3001
858.731	3108
858.864	3074
858.997	3058
859.13	3165
859.263	3157
859.396	3214
859.529	3093
859.662	3085
859.795	3051
859.928	3138
860.061	3298
860.194	3283
860.327	3100
860.46	3108
860.592	3233
860.725	3222
860.858	3260
860.99	3093
861.123	3028
861.256	3009
861.388	3154
861.521	3755
861.653	3009
861.786	2986
861.918	3001
862.05	3043
862.183	3104
862.315	3131
862.447	3188
862.58	3085
862.712	2941
862.844	2853
862.976	2998
863.108	2979
863.24	3401
863.372	2864
863.504	2963
863.636	2906
863.768	3043
863.9	2982
864.032	2887
864.164	2944
864.296	3013
864.428	3089
864.559	3093
864.691	3058
864.823	3028
864.954	2990
865.086	3005
865.217	2979
865.349	2925
865.48	2986
865.612	3028
865.743	3112
865.875	2952
866.006	2891
866.137	2956
866.269	2922
866.4	2944
866.531	2902
866.662	2883
866.793	2876
866.924	2899
867.055	2944
867.186	2922
867.317	2857
867.448	2853
867.579	2872
867.71	2796
867.841	2785
867.972	2864
868.103	2895
868.233	2902
868.364	2849
868.495	2883
868.625	3043
868.756	3131
868.886	2956
869.017	3013
869.147	3161
869.278	3173
869.408	3024
869.539	2998
869.669	3055
869.799	3032
869.929	3093
870.06	3127
870.19	3332
870.32	3283
870.45	3317
870.58	3336
870.71	3462
870.84	3443
870.97	3294
871.1	3222
871.23	3485
871.36	3447
871.489	3348
871.619	3409
871.749	3405
871.879	3416
872.008	3488
872.138	3355
872.267	3253
872.397	3097
872.526	3077
872.656	2979
872.785	3093
872.915	3249
873.044	3317
873.173	3226
873.303	3237
873.432	3222
873.561	3199
873.69	3131
873.819	3150
873.948	3146
874.077	3089
874.206	2994
874.335	3070
874.464	3211
874.593	3374
874.722	3253
874.851	3367
874.979	3329
875.108	3332
875.237	3157
875.365	3161
875.494	3157
875.623	3222
875.751	3055
875.88	3116
876.008	3127
876.136	3203
876.265	3393
876.393	3496
876.521	3454
876.65	3397
876.778	3298
876.906	3264
877.034	3188
877.162	3249
877.29	3165
877.418	3237
877.546	3207
877.674	3226
877.802	3218
877.93	3233
878.058	3192
878.185	3112
878.313	3169
878.441	3218
878.568	3043
878.696	3135
878.824	3233
878.951	3302
879.079	3450
879.206	3561
879.333	3401
879.461	3310
879.588	3321
879.715	3477
879.842	3599
879.97	3382
880.097	3180
880.224	3108
880.351	3146
880.478	3195
880.605	3211
880.732	3161
880.859	3507
880.986	3268
881.112	3279
881.239	3173
881.366	3077
881.493	3039
881.619	3001
881.746	3055
881.872	3070
881.999	3138
882.125	3165
882.252	3222
882.378	3294
882.505	3416
882.631	3268
882.757	3100
882.883	3207
883.01	3207
883.136	3142
883.262	3085
883.388	3081
883.514	3325
883.64	3344
883.766	3340
883.892	3157
884.018	3188
884.143	3344
884.269	3545
884.395	3203
884.52	3146
884.646	3192
884.772	3100
884.897	3093
885.023	3184
885.148	3264
885.274	3367
885.399	3359
885.524	3268
885.65	3256
885.775	3279
885.9	3268
886.025	3378
886.15	3355
886.275	3287
886.4	3173
886.525	3310
886.65	3253
886.775	3264
886.9	3466
887.025	3595
887.149	3348
887.274	3249
887.399	3154
887.523	3173
887.648	3207
887.773	3188
887.897	3355
888.021	3393
888.146	3275
888.27	3462
888.395	3488
888.519	3462
888.643	3412
888.767	3469
888.891	3294
889.015	3214
889.139	3302
889.263	3241
889.387	3397
889.511	3496
889.635	3447
889.759	3298
889.883	3317
890.006	3386
890.13	3466
890.254	3260
890.377	3340
890.501	3211
890.624	3199
890.748	3275
890.871	3199
890.995	3108
891.118	3074
891.241	3207
891.364	3253
891.488	3325
891.611	3199
891.734	3211
891.857	3313
891.98	3211
892.103	3378
892.226	3283
892.349	3203
892.471	3112
892.594	3245
892.717	3310
892.839	3275
892.962	3329
893.085	3401
893.207	3302
893.33	3195
893.452	3249
893.575	3355
893.697	3256
893.819	3504
893.941	3568
894.064	3485
894.186	3313
894.308	3283
894.43	3485
894.552	3549
894.674	3507
894.796	3306
894.918	3336
895.04	3348
895.161	3469
895.283	3420
895.405	3374
895.526	3412
895.648	3458
895.769	3458
895.891	3477
896.012	3496
896.134	3477
896.255	3439
896.376	3428
896.498	3397
896.619	3492
896.74	3447
896.861	3420
896.982	3705
897.103	3865
897.224	3625
897.345	3530
897.466	3481
897.587	3534
897.708	3671
897.828	3576
897.949	3507
898.07	3344
898.19	3443
898.311	3625
898.431	3469
898.552	3526
898.672	3603
898.792	3633
898.913	3568
899.033	3431
899.153	3279
899.273	3260
899.393	3294
899.513	3374
899.633	3389
899.753	3374
899.873	3344
899.993	3397
900.113	3351
900.232	3420
900.352	3348
900.472	3306
900.591	3226
900.711	3329
900.83	3283
900.95	3462
901.069	3519
901.189	3389
901.308	3199
901.427	3192
901.546	3207
901.665	3302
901.784	3348
901.904	3256
902.023	3180
902.141	3062
902.26	3062
902.379	3180
902.498	3119
902.617	3131
902.735	3233
902.854	3249
902.973	3203
903.091	3100
903.21	3100
903.328	3150
903.446	3173
903.565	3138
903.683	3226
903.801	3169
903.919	3245
904.038	3283
904.156	3207
904.274	3291
904.392	3275
904.51	3348
904.627	3359
904.745	3458
904.863	3538
904.981	3272
905.098	3180
905.216	3230
905.334	3298
905.451	3298
905.569	3351
905.686	3504
905.803	3454
905.921	3344
906.038	3454
906.155	3382
906.272	3268
906.389	3389
906.506	3214
906.623	3287
906.74	3340
906.857	3245
906.974	3298
907.091	3488
907.208	3576
907.324	3492
907.441	3355
907.557	3233
907.674	3256
907.79	3260
907.907	3275
908.023	3401
908.139	3420
908.256	3340
908.372	3412
908.488	3367
908.604	3275
908.72	3256
908.836	3325
908.952	3298
909.068	3355
909.184	3561
909.3	3424
909.415	3519
909.531	3496
909.647	3310
909.762	3329
909.878	3283
909.993	3374
910.108	3378
910.224	3348
910.339	3386
910.454	3378
910.57	3298
910.685	3253
910.8	3622
910.915	3587
911.03	3431
911.145	3302
911.259	3302
911.374	3355
911.489	3249
911.604	3226
911.718	3157
911.833	3138
911.947	3081
912.062	3009
912.176	3203
912.291	3230
912.405	3233
912.519	3443
912.633	3530
912.748	3405
912.862	3306
912.976	3188
913.09	3112
913.204	3154
913.318	3241
913.431	3367
913.545	3359
913.659	3488
913.772	3329
913.886	3245
914	3237
914.113	3374
914.226	3416
914.34	3382
914.453	3256
914.566	3447
914.68	3317
914.793	3348
914.906	3207
915.019	3108
915.132	3108
915.245	3203
915.358	3222
915.47	3302
915.583	3272
915.696	3313
915.809	3443
915.921	3458
916.034	3268
916.146	3275
916.259	3260
916.371	3389
916.483	3386
916.595	3298
916.708	3378
916.82	3401
916.932	3340
917.044	3340
917.156	3378
917.268	3294
917.38	3355
917.491	3287
917.603	3397
917.715	3507
917.826	3447
917.938	3416
918.049	3321
918.161	3428
918.272	3599
918.384	3595
918.495	3507
918.606	3325
918.717	3317
918.828	3409
918.939	3420
919.05	3321
919.161	3393
919.272	3211
919.383	3287
919.494	3545
919.604	3709
919.715	3530
919.826	3420
919.936	3416
920.047	3580
920.157	3576
920.267	3724
920.378	3603
920.488	3591
920.598	3793
920.708	3987
920.818	3838
920.928	3819
921.038	4067
921.148	4021
921.258	3728
921.368	3675
921.477	3568
921.587	3576
921.697	3511
921.806	3606
921.916	3511
922.025	3367
922.134	3378
922.244	3351
922.353	3496
922.462	3302
922.571	3237
922.68	3108
922.789	3089
922.898	3119
923.007	3104
923.116	3214
923.224	3222
923.333	3161
923.442	3138
923.55	3089
923.659	3173
923.767	3268
923.876	3112
923.984	3272
924.092	3100
924.201	3218
924.309	3218
924.417	3291
924.525	3226
924.633	3211
924.741	4029
924.849	3093
924.956	3298
925.064	3157
925.172	3036
925.279	3100
925.387	3195
925.494	3230
925.602	3393
925.709	3344
925.816	3207
925.924	3348
926.031	3443
926.138	3340
926.245	3348
926.352	3275
926.459	3447
926.566	3500
926.673	3340
926.779	3222
926.886	3279
926.993	3222
927.099	3184
927.206	3123
927.312	3104
927.419	3253
927.525	3237
927.631	3268
927.737	3116
927.843	3192
927.95	3028
928.056	3214
928.162	3188
928.267	3245
928.373	3876
928.479	3340
928.585	3070
928.69	3226
928.796	3313
928.901	3157
929.007	3089
929.112	3241
929.218	3214
929.323	3116
929.428	3176
929.533	3321
929.638	3127
929.743	3184
929.848	3253
929.953	3226
930.058	3199
930.163	3032
930.267	3058
930.372	3211
930.477	3058
930.581	3348
930.685	3233
930.79	3051
930.894	3131
930.998	3077
931.103	3287
931.207	2967
931.311	2952
931.415	2937
931.519	2788
931.623	2872
