Data from test_V78500241_1650.txt Node
Date: Fri Mar 25 16:26:38 CST 2022
User: usil
Spectrometer: V785-0024
Trigger mode: 0
Integration Time (sec): 4.000000E-1
Scans to average: 1
Nonlinearity correction enabled: false
Boxcar width: 0
Storing dark spectrum: false
XAxis mode: Wavelengths
Number of Pixels in Spectrum: 1024
>>>>>Begin Spectral Data<<<<<
801.071	2933
801.214	2952
801.356	2899
801.499	2906
801.641	2902
801.783	2944
801.926	3032
802.068	3032
802.211	3013
802.353	3077
802.496	2979
802.638	3039
802.78	3119
802.923	3066
803.065	3032
803.208	2910
803.35	2937
803.492	2929
803.635	2937
803.777	2754
803.919	2883
804.061	3211
804.204	2944
804.346	2914
804.488	2845
804.63	3005
804.773	2899
804.915	2948
805.057	3062
805.199	2925
805.341	2986
805.483	3017
805.626	2986
805.768	2979
805.91	3093
806.052	3108
806.194	3005
806.336	3233
806.478	3020
806.62	2925
806.762	2960
806.904	3055
807.046	3180
807.188	2986
807.33	2895
807.472	3024
807.614	2887
807.756	3001
807.898	2952
808.04	2941
808.182	2944
808.324	2956
808.465	2880
808.607	2883
808.749	2819
808.891	2853
809.033	2944
809.174	2956
809.316	2922
809.458	2899
809.6	2750
809.741	2746
809.883	2792
810.025	2830
810.166	2834
810.308	2842
810.45	2861
810.591	2781
810.733	2739
810.875	2826
811.016	2796
811.158	2773
811.299	2773
811.441	2922
811.582	2891
811.724	2826
811.865	2842
812.007	2922
812.148	2853
812.29	2849
812.431	2887
812.573	2948
812.714	2982
812.855	3066
812.997	3066
813.138	3135
813.279	2963
813.421	2998
813.562	2979
813.703	2880
813.845	2891
813.986	2773
814.127	2731
814.268	2796
814.41	2842
814.551	2785
814.692	2853
814.833	2819
814.974	2902
815.115	2944
815.256	2857
815.397	2819
815.539	2864
815.68	2788
815.821	2731
815.962	2982
816.103	2967
816.244	2861
816.385	2845
816.526	2960
816.666	2941
816.807	2739
816.948	2872
817.089	2922
817.23	2861
817.371	2788
817.512	2788
817.653	2845
817.793	2811
817.934	2857
818.075	2971
818.216	2998
818.356	2994
818.497	2906
818.638	2826
818.778	2826
818.919	2785
819.06	2735
819.2	2887
819.341	2830
819.481	2804
819.622	2929
819.762	3085
819.903	2990
820.043	2929
820.184	2914
820.324	2845
820.465	3032
820.605	3001
820.746	2986
820.886	2929
821.026	3077
821.167	3112
821.307	3268
821.447	3275
821.588	3256
821.728	3195
821.868	3180
822.008	3055
822.149	3173
822.289	3211
822.429	3131
822.569	3093
822.709	3188
822.849	3051
822.99	3062
823.13	3150
823.27	3203
823.41	3112
823.55	3119
823.69	3169
823.83	3188
823.97	3108
824.11	2960
824.25	2986
824.389	3074
824.529	3116
824.669	3104
824.809	3184
824.949	3192
825.089	3222
825.228	3165
825.368	2998
825.508	2929
825.648	2967
825.787	3024
825.927	2979
826.067	2986
826.206	2960
826.346	3055
826.485	3070
826.625	3108
826.765	3222
826.904	3203
827.044	3017
827.183	2918
827.323	2906
827.462	3017
827.601	2933
827.741	2975
827.88	2975
828.02	2876
828.159	2971
828.298	3062
828.437	3108
828.577	3039
828.716	3253
828.855	3081
828.994	2941
829.134	2887
829.273	2944
829.412	2876
829.551	2910
829.69	2895
829.829	2986
829.968	3138
830.107	3024
830.246	3039
830.385	2922
830.524	2899
830.663	2849
830.802	2785
830.941	2670
831.08	2670
831.219	2762
831.357	2830
831.496	2952
831.635	2811
831.774	2720
831.913	2670
832.051	2583
832.19	2629
832.329	2758
832.467	2613
832.606	2514
832.744	2613
832.883	2602
833.022	2606
833.16	2689
833.299	2727
833.437	2731
833.576	2785
833.714	2739
833.852	2792
833.991	2819
834.129	2872
834.267	2872
834.406	2811
834.544	2918
834.682	2891
834.821	2883
834.959	3047
835.097	2948
835.235	3066
835.373	3032
835.511	3058
835.65	2967
835.788	2979
835.926	2845
836.064	2842
836.202	2895
836.34	3119
836.478	3184
836.615	3074
836.753	3176
836.891	3245
837.029	3173
837.167	3157
837.305	3085
837.443	3058
837.58	3028
837.718	3188
837.856	3127
837.993	3070
838.131	3165
838.269	3108
838.406	3112
838.544	3138
838.681	2952
838.819	2956
838.956	2872
839.094	2876
839.231	2952
839.369	3017
839.506	3420
839.643	3256
839.781	3043
839.918	2998
840.055	3051
840.193	3100
840.33	3089
840.467	3146
840.604	3154
840.742	3466
840.879	3081
841.016	3112
841.153	3157
841.29	3370
841.427	3306
841.564	3340
841.701	3287
841.838	3245
841.975	3207
842.112	3253
842.249	3119
842.385	3058
842.522	3321
842.659	3135
842.796	3100
842.933	3157
843.069	3108
843.206	3047
843.343	3199
843.479	3169
843.616	3192
843.752	2933
843.889	2891
844.025	3070
844.162	2933
844.298	3093
844.435	2982
844.571	2937
844.708	3116
844.844	3199
844.98	3287
845.117	3241
845.253	3085
845.389	3070
845.525	3112
845.661	3112
845.798	3032
845.934	3188
846.07	3093
846.206	3272
846.342	3382
846.478	3253
846.614	3093
846.75	3127
846.886	3039
847.022	3256
847.158	3154
847.294	3222
847.429	3241
847.565	3203
847.701	3492
847.837	3051
847.972	3039
848.108	3207
848.244	3131
848.379	3009
848.515	2967
848.65	2948
848.786	3005
848.921	3043
849.057	3100
849.192	3207
849.328	3112
849.463	3127
849.598	3058
849.734	3024
849.869	3058
850.004	2960
850.14	2982
850.275	2933
850.41	2876
850.545	2933
850.68	2967
850.815	3024
850.95	3001
851.085	3203
851.22	3127
851.355	3024
851.49	2990
851.625	3001
851.76	3055
851.895	2960
852.03	2929
852.165	3058
852.299	3119
852.434	3241
852.569	3180
852.703	3268
852.838	3306
852.973	3386
853.107	3332
853.242	3184
853.376	3154
853.511	3028
853.645	3085
853.78	3279
853.914	3146
854.048	3131
854.183	3112
854.317	3192
854.451	3348
854.585	3165
854.72	3112
854.854	3272
854.988	3085
855.122	3093
855.256	3005
855.39	3138
855.524	3287
855.658	3226
855.792	3188
855.926	3222
856.06	3241
856.194	3268
856.327	3184
856.461	3119
856.595	3085
856.729	3093
856.862	3199
856.996	3184
857.13	3207
857.263	3272
857.397	3329
857.53	3112
857.664	3237
857.797	3233
857.931	3268
858.064	3165
858.197	3230
858.331	3135
858.464	3135
858.597	3005
858.731	3135
858.864	3150
858.997	3116
859.13	3211
859.263	3180
859.396	3199
859.529	3077
859.662	3108
859.795	3062
859.928	3165
860.061	3313
860.194	3302
860.327	3138
860.46	3108
860.592	3279
860.725	3275
860.858	3294
860.99	3127
861.123	3055
861.256	3093
861.388	3146
861.521	3865
861.653	3066
861.786	3001
861.918	3032
862.05	3116
862.183	3116
862.315	3161
862.447	3230
862.58	3131
862.712	3017
862.844	2895
862.976	3058
863.108	3051
863.24	3473
863.372	2914
863.504	2998
863.636	2971
863.768	3077
863.9	2986
864.032	2952
864.164	2979
864.296	2979
864.428	3097
864.559	3100
864.691	3062
864.823	3070
864.954	3055
865.086	3066
865.217	3024
865.349	2967
865.48	3013
865.612	3051
865.743	3157
865.875	3024
866.006	2967
866.137	3017
866.269	2994
866.4	2967
866.531	2944
866.662	2941
866.793	2918
866.924	2922
867.055	3001
867.186	2937
867.317	2933
867.448	2861
867.579	2868
867.71	2853
867.841	2823
867.972	2925
868.103	2960
868.233	2895
868.364	2902
868.495	2902
868.625	3104
868.756	3188
868.886	3020
869.017	3032
869.147	3192
869.278	3188
869.408	3100
869.539	3062
869.669	3085
869.799	3093
869.929	3150
870.06	3123
870.19	3348
870.32	3321
870.45	3298
870.58	3420
870.71	3435
870.84	3507
870.97	3298
871.1	3268
871.23	3500
871.36	3473
871.489	3386
871.619	3435
871.749	3420
871.879	3447
872.008	3450
872.138	3386
872.267	3283
872.397	3138
872.526	3146
872.656	3020
872.785	3116
872.915	3298
873.044	3344
873.173	3264
873.303	3260
873.432	3256
873.561	3249
873.69	3180
873.819	3165
873.948	3211
874.077	3142
874.206	3055
874.335	3074
874.464	3249
874.593	3367
874.722	3287
874.851	3420
874.979	3378
875.108	3351
875.237	3199
875.365	3116
875.494	3203
875.623	3218
875.751	3051
875.88	3108
876.008	3214
876.136	3237
876.265	3382
876.393	3545
876.521	3439
876.65	3420
876.778	3351
876.906	3253
877.034	3249
877.162	3275
877.29	3176
877.418	3264
877.546	3245
877.674	3256
877.802	3275
877.93	3253
878.058	3192
878.185	3161
878.313	3230
878.441	3256
878.568	3112
878.696	3184
878.824	3268
878.951	3367
879.079	3458
879.206	3656
879.333	3435
879.461	3329
879.588	3363
879.715	3511
879.842	3625
879.97	3386
880.097	3199
880.224	3127
880.351	3222
880.478	3268
880.605	3184
880.732	3199
880.859	3504
880.986	3344
881.112	3329
881.239	3211
881.366	3104
881.493	3066
881.619	3024
881.746	3108
881.872	3116
881.999	3123
882.125	3169
882.252	3283
882.378	3287
882.505	3469
882.631	3302
882.757	3157
882.883	3237
883.01	3245
883.136	3222
883.262	3062
883.388	3142
883.514	3298
883.64	3386
883.766	3329
883.892	3214
884.018	3249
884.143	3454
884.269	3591
884.395	3211
884.52	3199
884.646	3195
884.772	3135
884.897	3123
885.023	3226
885.148	3340
885.274	3393
885.399	3348
885.524	3260
885.65	3298
885.775	3329
885.9	3302
886.025	3439
886.15	3340
886.275	3310
886.4	3249
886.525	3344
886.65	3306
886.775	3317
886.9	3473
887.025	3656
887.149	3462
887.274	3275
887.399	3218
887.523	3180
887.648	3207
887.773	3192
887.897	3382
888.021	3431
888.146	3329
888.27	3405
888.395	3545
888.519	3458
888.643	3466
888.767	3488
888.891	3310
889.015	3272
889.139	3272
889.263	3249
889.387	3405
889.511	3591
889.635	3454
889.759	3291
889.883	3279
890.006	3382
890.13	3538
890.254	3272
890.377	3355
890.501	3230
890.624	3165
890.748	3329
890.871	3192
890.995	3104
891.118	3074
891.241	3226
891.364	3237
891.488	3306
891.611	3199
891.734	3275
891.857	3298
891.98	3245
892.103	3298
892.226	3329
892.349	3253
892.471	3154
892.594	3256
892.717	3279
892.839	3222
892.962	3268
893.085	3397
893.207	3302
893.33	3184
893.452	3233
893.575	3355
893.697	3245
893.819	3492
893.941	3511
894.064	3477
894.186	3317
894.308	3310
894.43	3420
894.552	3576
894.674	3492
894.796	3260
894.918	3317
895.04	3245
895.161	3450
895.283	3424
895.405	3287
895.526	3393
895.648	3462
895.769	3401
895.891	3458
896.012	3488
896.134	3507
896.255	3409
896.376	3370
896.498	3359
896.619	3431
896.74	3386
896.861	3420
896.982	3743
897.103	3808
897.224	3614
897.345	3538
897.466	3473
897.587	3526
897.708	3675
897.828	3534
897.949	3397
898.07	3348
898.19	3416
898.311	3629
898.431	3477
898.552	3530
898.672	3603
898.792	3595
898.913	3542
899.033	3420
899.153	3313
899.273	3253
899.393	3291
899.513	3355
899.633	3313
899.753	3332
899.873	3348
899.993	3348
900.113	3367
900.232	3359
900.352	3344
900.472	3306
900.591	3211
900.711	3272
900.83	3214
900.95	3409
901.069	3545
901.189	3351
901.308	3222
901.427	3154
901.546	3176
901.665	3302
901.784	3325
901.904	3222
902.023	3165
902.141	3051
902.26	3020
902.379	3089
902.498	3100
902.617	3066
902.735	3230
902.854	3214
902.973	3192
903.091	3043
903.21	3085
903.328	3150
903.446	3146
903.565	3116
903.683	3211
903.801	3112
903.919	3272
904.038	3306
904.156	3176
904.274	3317
904.392	3233
904.51	3302
904.627	3348
904.745	3473
904.863	3523
904.981	3321
905.098	3173
905.216	3192
905.334	3291
905.451	3294
905.569	3294
905.686	3450
905.803	3454
905.921	3272
906.038	3447
906.155	3367
906.272	3256
906.389	3401
906.506	3195
906.623	3291
906.74	3279
906.857	3188
906.974	3283
907.091	3492
907.208	3625
907.324	3507
907.441	3355
907.557	3283
907.674	3241
907.79	3218
907.907	3283
908.023	3351
908.139	3367
908.256	3336
908.372	3416
908.488	3351
908.604	3287
908.72	3218
908.836	3291
908.952	3306
909.068	3370
909.184	3496
909.3	3416
909.415	3492
909.531	3443
909.647	3313
909.762	3249
909.878	3272
909.993	3382
910.108	3325
910.224	3355
910.339	3420
910.454	3310
910.57	3302
910.685	3268
910.8	3587
910.915	3545
911.03	3473
911.145	3279
911.259	3226
911.374	3294
911.489	3214
911.604	3214
911.718	3184
911.833	3116
911.947	3020
912.062	2990
912.176	3188
912.291	3249
912.405	3218
912.519	3420
912.633	3469
912.748	3332
912.862	3291
912.976	3157
913.09	3055
913.204	3169
913.318	3245
913.431	3336
913.545	3374
913.659	3367
913.772	3355
913.886	3241
914	3222
914.113	3325
914.226	3393
914.34	3340
914.453	3214
914.566	3462
914.68	3340
914.793	3249
914.906	3157
915.019	3081
915.132	3055
915.245	3211
915.358	3195
915.47	3230
915.583	3329
915.696	3317
915.809	3397
915.921	3428
916.034	3256
916.146	3302
916.259	3230
916.371	3393
916.483	3344
916.595	3237
916.708	3363
916.82	3317
916.932	3332
917.044	3325
917.156	3325
917.268	3268
917.38	3272
917.491	3310
917.603	3386
917.715	3428
917.826	3477
917.938	3401
918.049	3256
918.161	3412
918.272	3580
918.384	3572
918.495	3458
918.606	3348
918.717	3268
918.828	3389
918.939	3393
919.05	3302
919.161	3344
919.272	3188
919.383	3275
919.494	3500
919.604	3698
919.715	3504
919.826	3416
919.936	3481
920.047	3587
920.157	3530
920.267	3732
920.378	3633
920.488	3584
920.598	3755
920.708	3964
920.818	3835
920.928	3831
921.038	4013
921.148	3972
921.258	3728
921.368	3644
921.477	3572
921.587	3534
921.697	3466
921.806	3648
921.916	3542
922.025	3344
922.134	3367
922.244	3306
922.353	3412
922.462	3264
922.571	3211
922.68	3100
922.789	3077
922.898	3142
923.007	3085
923.116	3203
923.224	3173
923.333	3195
923.442	3112
923.55	3119
923.659	3142
923.767	3226
923.876	3131
923.984	3249
924.092	3142
924.201	3176
924.309	3272
924.417	3279
924.525	3226
924.633	3230
924.741	4158
924.849	3089
924.956	3241
925.064	3043
925.172	3043
925.279	3138
925.387	3161
925.494	3195
925.602	3329
925.709	3340
925.816	3184
925.924	3287
926.031	3370
926.138	3348
926.245	3344
926.352	3256
926.459	3424
926.566	3477
926.673	3268
926.779	3275
926.886	3253
926.993	3165
927.099	3127
927.206	3116
927.312	3093
927.419	3241
927.525	3214
927.631	3310
927.737	3146
927.843	3097
927.95	3062
928.056	3138
928.162	3169
928.267	3245
928.373	3781
928.479	3313
928.585	3051
928.69	3188
928.796	3272
928.901	3188
929.007	3043
929.112	3207
929.218	3192
929.323	3157
929.428	3123
929.533	3302
929.638	3085
929.743	3203
929.848	3275
929.953	3214
930.058	3123
930.163	3032
930.267	3066
930.372	3188
930.477	3043
930.581	3287
930.685	3165
930.79	3074
930.894	3097
930.998	3108
931.103	3268
931.207	2956
931.311	2948
931.415	2956
931.519	2754
931.623	2788
