Data from test_V78500241_943.txt Node
Date: Fri Mar 25 16:21:44 CST 2022
User: usil
Spectrometer: V785-0024
Trigger mode: 0
Integration Time (sec): 4.000000E-1
Scans to average: 1
Nonlinearity correction enabled: false
Boxcar width: 0
Storing dark spectrum: false
XAxis mode: Wavelengths
Number of Pixels in Spectrum: 1024
>>>>>Begin Spectral Data<<<<<
801.071	2937
801.214	2929
801.356	2849
801.499	2922
801.641	2872
801.783	2944
801.926	3074
802.068	2967
802.211	2986
802.353	3028
802.496	2922
802.638	3005
802.78	3005
802.923	3070
803.065	3020
803.208	2857
803.35	2899
803.492	2944
803.635	2937
803.777	2769
803.919	2857
804.061	3169
804.204	2944
804.346	2902
804.488	2838
804.63	2998
804.773	2876
804.915	2914
805.057	3055
805.199	2941
805.341	2960
805.483	3036
805.626	2998
805.768	2929
805.91	3089
806.052	3112
806.194	3032
806.336	3192
806.478	3024
806.62	2952
806.762	2960
806.904	3093
807.046	3138
807.188	2963
807.33	2948
807.472	2975
807.614	2918
807.756	2994
807.898	2910
808.04	2899
808.182	2979
808.324	2948
808.465	2857
808.607	2891
808.749	2781
808.891	2872
809.033	2956
809.174	2952
809.316	2883
809.458	2910
809.6	2739
809.741	2746
809.883	2777
810.025	2834
810.166	2838
810.308	2849
810.45	2834
810.591	2773
810.733	2788
810.875	2849
811.016	2777
811.158	2743
811.299	2826
811.441	2937
811.582	2895
811.724	2815
811.865	2819
812.007	2910
812.148	2876
812.29	2842
812.431	2876
812.573	2998
812.714	2933
812.855	3036
812.997	3074
813.138	3138
813.279	3047
813.421	2998
813.562	2941
813.703	2876
813.845	2914
813.986	2792
814.127	2724
814.268	2804
814.41	2819
814.551	2796
814.692	2880
814.833	2781
814.974	2872
815.115	2967
815.256	2811
815.397	2800
815.539	2868
815.68	2819
815.821	2788
815.962	2933
816.103	2918
816.244	2845
816.385	2857
816.526	2952
816.666	2922
816.807	2705
816.948	2914
817.089	2880
817.23	2864
817.371	2796
817.512	2777
817.653	2838
817.793	2830
817.934	2899
818.075	2963
818.216	2982
818.356	3013
818.497	2876
818.638	2804
818.778	2830
818.919	2807
819.06	2766
819.2	2838
819.341	2788
819.481	2830
819.622	2902
819.762	3093
819.903	3013
820.043	2948
820.184	2872
820.324	2906
820.465	3028
820.605	3020
820.746	3005
820.886	2933
821.026	3116
821.167	3203
821.307	3260
821.447	3287
821.588	3245
821.728	3207
821.868	3218
822.008	3077
822.149	3173
822.289	3214
822.429	3066
822.569	3074
822.709	3180
822.849	3009
822.99	3081
823.13	3165
823.27	3207
823.41	3123
823.55	3150
823.69	3157
823.83	3176
823.97	3085
824.11	3009
824.25	3013
824.389	3074
824.529	3131
824.669	3024
824.809	3199
824.949	3233
825.089	3195
825.228	3157
825.368	3020
825.508	2941
825.648	2986
825.787	3005
825.927	3005
826.067	2963
826.206	2944
826.346	3047
826.485	3055
826.625	3127
826.765	3218
826.904	3214
827.044	2975
827.183	2887
827.323	2819
827.462	2975
827.601	2899
827.741	2902
827.88	2910
828.02	2861
828.159	2975
828.298	3017
828.437	3093
828.577	3009
828.716	3241
828.855	3051
828.994	2906
829.134	2887
829.273	2902
829.412	2845
829.551	2857
829.69	2906
829.829	2994
829.968	3093
830.107	2956
830.246	3005
830.385	2910
830.524	2872
830.663	2796
830.802	2727
830.941	2625
831.08	2617
831.219	2754
831.357	2754
831.496	2941
831.635	2712
831.774	2667
831.913	2632
832.051	2541
832.19	2564
832.329	2678
832.467	2522
832.606	2476
832.744	2579
832.883	2594
833.022	2533
833.16	2667
833.299	2659
833.437	2701
833.576	2701
833.714	2705
833.852	2754
833.991	2781
834.129	2807
834.267	2796
834.406	2819
834.544	2895
834.682	2864
834.821	2880
834.959	3039
835.097	2906
835.235	3047
835.373	2994
835.511	3001
835.65	2990
835.788	2990
835.926	2792
836.064	2762
836.202	2842
836.34	3062
836.478	3097
836.615	3024
836.753	3169
836.891	3176
837.029	3142
837.167	3089
837.305	3024
837.443	3047
837.58	2956
837.718	3093
837.856	3074
837.993	3009
838.131	3039
838.269	3112
838.406	3074
838.544	3077
838.681	2937
838.819	2895
838.956	2807
839.094	2819
839.231	2918
839.369	2979
839.506	3367
839.643	3253
839.781	3009
839.918	2986
840.055	3028
840.193	3043
840.33	3062
840.467	3070
840.604	3135
840.742	3397
840.879	3062
841.016	3058
841.153	3100
841.29	3310
841.427	3306
841.564	3222
841.701	3313
841.838	3214
841.975	3131
842.112	3188
842.249	3062
842.385	3017
842.522	3264
842.659	3047
842.796	3055
842.933	3077
843.069	3020
843.206	3024
843.343	3169
843.479	3112
843.616	3108
843.752	2902
843.889	2864
844.025	3112
844.162	2849
844.298	3089
844.435	2918
844.571	2941
844.708	3051
844.844	3150
844.98	3260
845.117	3192
845.253	3032
845.389	2998
845.525	3116
845.661	3119
845.798	2998
845.934	3135
846.07	3032
846.206	3195
846.342	3317
846.478	3218
846.614	3112
846.75	3036
846.886	3043
847.022	3245
847.158	3169
847.294	3169
847.429	3230
847.565	3230
847.701	3492
847.837	3036
847.972	2994
848.108	3184
848.244	3119
848.379	2963
848.515	2963
848.65	2952
848.786	2952
848.921	2963
849.057	3051
849.192	3138
849.328	3051
849.463	3074
849.598	3043
849.734	2998
849.869	2998
850.004	2918
850.14	2914
850.275	2899
850.41	2811
850.545	2876
850.68	2956
850.815	2963
850.95	2960
851.085	3176
851.22	3066
851.355	3028
851.49	3005
851.625	2994
851.76	2979
851.895	2944
852.03	2887
852.165	3005
852.299	3131
852.434	3184
852.569	3138
852.703	3184
852.838	3207
852.973	3348
853.107	3329
853.242	3123
853.376	3104
853.511	2956
853.645	3024
853.78	3176
853.914	3112
854.048	3127
854.183	3074
854.317	3142
854.451	3275
854.585	3077
854.72	3058
854.854	3195
854.988	3070
855.122	3097
855.256	2979
855.39	3085
855.524	3226
855.658	3188
855.792	3127
855.926	3176
856.06	3230
856.194	3256
856.327	3142
856.461	3055
856.595	3081
856.729	3104
856.862	3211
856.996	3195
857.13	3222
857.263	3218
857.397	3294
857.53	3097
857.664	3142
857.797	3233
857.931	3218
858.064	3180
858.197	3218
858.331	3135
858.464	3112
858.597	2982
858.731	3127
858.864	3146
858.997	3097
859.13	3169
859.263	3138
859.396	3176
859.529	3074
859.662	3070
859.795	3020
859.928	3142
860.061	3294
860.194	3233
860.327	3131
860.46	3070
860.592	3222
860.725	3253
860.858	3256
860.99	3104
861.123	3074
861.256	3039
861.388	3146
861.521	3793
861.653	2967
861.786	2994
861.918	2986
862.05	3009
862.183	3119
862.315	3154
862.447	3203
862.58	3081
862.712	2941
862.844	2868
862.976	2990
863.108	3005
863.24	3412
863.372	2899
863.504	2975
863.636	2933
863.768	3043
863.9	2994
864.032	2899
864.164	2925
864.296	3013
864.428	3093
864.559	3093
864.691	3074
864.823	3024
864.954	3024
865.086	3047
865.217	2979
865.349	2910
865.48	3009
865.612	3005
865.743	3127
865.875	3009
866.006	2914
866.137	2982
866.269	2906
866.4	2937
866.531	2876
866.662	2872
866.793	2902
866.924	2868
867.055	2944
867.186	2925
867.317	2880
867.448	2842
867.579	2842
867.71	2857
867.841	2838
867.972	2876
868.103	2883
868.233	2887
868.364	2826
868.495	2876
868.625	3077
868.756	3192
868.886	2933
869.017	3020
869.147	3138
869.278	3135
869.408	3051
869.539	3032
869.669	3131
869.799	3039
869.929	3150
870.06	3081
870.19	3287
870.32	3264
870.45	3321
870.58	3389
870.71	3420
870.84	3450
870.97	3294
871.1	3260
871.23	3492
871.36	3420
871.489	3340
871.619	3389
871.749	3412
871.879	3447
872.008	3454
872.138	3317
872.267	3233
872.397	3127
872.526	3116
872.656	3020
872.785	3135
872.915	3253
873.044	3287
873.173	3180
873.303	3287
873.432	3218
873.561	3241
873.69	3161
873.819	3142
873.948	3184
874.077	3116
874.206	3043
874.335	3097
874.464	3203
874.593	3367
874.722	3237
874.851	3409
874.979	3294
875.108	3317
875.237	3199
875.365	3157
875.494	3173
875.623	3272
875.751	3097
875.88	3108
876.008	3176
876.136	3199
876.265	3344
876.393	3492
876.521	3367
876.65	3386
876.778	3355
876.906	3237
877.034	3192
877.162	3233
877.29	3188
877.418	3218
877.546	3237
877.674	3222
877.802	3218
877.93	3253
878.058	3123
878.185	3093
878.313	3176
878.441	3226
878.568	3081
878.696	3165
878.824	3241
878.951	3291
879.079	3469
879.206	3618
879.333	3439
879.461	3332
879.588	3325
879.715	3443
879.842	3587
879.97	3382
880.097	3192
880.224	3157
880.351	3180
880.478	3241
880.605	3230
880.732	3176
880.859	3538
880.986	3310
881.112	3313
881.239	3192
881.366	3093
881.493	2998
881.619	3009
881.746	3085
881.872	3077
881.999	3116
882.125	3131
882.252	3222
882.378	3249
882.505	3424
882.631	3264
882.757	3165
882.883	3253
883.01	3214
883.136	3142
883.262	3104
883.388	3093
883.514	3279
883.64	3359
883.766	3287
883.892	3184
884.018	3207
884.143	3428
884.269	3549
884.395	3192
884.52	3169
884.646	3165
884.772	3116
884.897	3058
885.023	3195
885.148	3340
885.274	3450
885.399	3370
885.524	3264
885.65	3245
885.775	3298
885.9	3260
886.025	3431
886.15	3351
886.275	3306
886.4	3245
886.525	3310
886.65	3272
886.775	3260
886.9	3492
887.025	3618
887.149	3420
887.274	3283
887.399	3146
887.523	3184
887.648	3207
887.773	3195
887.897	3351
888.021	3378
888.146	3310
888.27	3439
888.395	3519
888.519	3431
888.643	3412
888.767	3469
888.891	3351
889.015	3241
889.139	3249
889.263	3218
889.387	3409
889.511	3485
889.635	3439
889.759	3291
889.883	3264
890.006	3378
890.13	3454
890.254	3310
890.377	3344
890.501	3195
890.624	3180
890.748	3283
890.871	3123
890.995	3104
891.118	3055
891.241	3146
891.364	3211
891.488	3321
891.611	3195
891.734	3192
891.857	3275
891.98	3245
892.103	3306
892.226	3211
892.349	3161
892.471	3119
892.594	3249
892.717	3302
892.839	3245
892.962	3302
893.085	3344
893.207	3321
893.33	3165
893.452	3226
893.575	3351
893.697	3230
893.819	3439
893.941	3515
894.064	3431
894.186	3249
894.308	3256
894.43	3431
894.552	3553
894.674	3454
894.796	3260
894.918	3332
895.04	3275
895.161	3424
895.283	3386
895.405	3336
895.526	3340
895.648	3443
895.769	3424
895.891	3435
896.012	3458
896.134	3458
896.255	3370
896.376	3374
896.498	3325
896.619	3405
896.74	3363
896.861	3378
896.982	3652
897.103	3831
897.224	3591
897.345	3488
897.466	3409
897.587	3477
897.708	3625
897.828	3534
897.949	3450
898.07	3287
898.19	3428
898.311	3561
898.431	3435
898.552	3500
898.672	3576
898.792	3534
898.913	3492
899.033	3420
899.153	3291
899.273	3192
899.393	3249
899.513	3351
899.633	3332
899.753	3291
899.873	3283
899.993	3332
900.113	3310
900.232	3370
900.352	3370
900.472	3275
900.591	3203
900.711	3260
900.83	3211
900.95	3389
901.069	3488
901.189	3317
901.308	3176
901.427	3142
901.546	3157
901.665	3287
901.784	3294
901.904	3222
902.023	3104
902.141	3032
902.26	2982
902.379	3089
902.498	3070
902.617	3036
902.735	3211
902.854	3195
902.973	3150
903.091	3017
903.21	3081
903.328	3119
903.446	3089
903.565	3066
903.683	3157
903.801	3089
903.919	3237
904.038	3313
904.156	3165
904.274	3272
904.392	3268
904.51	3302
904.627	3329
904.745	3431
904.863	3504
904.981	3283
905.098	3157
905.216	3192
905.334	3310
905.451	3325
905.569	3291
905.686	3409
905.803	3454
905.921	3302
906.038	3439
906.155	3351
906.272	3264
906.389	3359
906.506	3218
906.623	3260
906.74	3275
906.857	3188
906.974	3237
907.091	3435
907.208	3561
907.324	3469
907.441	3367
907.557	3214
907.674	3226
907.79	3184
907.907	3260
908.023	3348
908.139	3332
908.256	3351
908.372	3359
908.488	3351
908.604	3264
908.72	3245
908.836	3268
908.952	3279
909.068	3336
909.184	3496
909.3	3367
909.415	3488
909.531	3488
909.647	3253
909.762	3283
909.878	3226
909.993	3313
910.108	3332
910.224	3332
910.339	3405
910.454	3332
910.57	3268
910.685	3256
910.8	3580
910.915	3515
911.03	3389
911.145	3260
911.259	3222
911.374	3310
911.489	3233
911.604	3237
911.718	3066
911.833	3104
911.947	2979
912.062	2963
912.176	3146
912.291	3199
912.405	3180
912.519	3428
912.633	3443
912.748	3332
912.862	3222
912.976	3146
913.09	3047
913.204	3127
913.318	3188
913.431	3363
913.545	3348
913.659	3378
913.772	3336
913.886	3203
914	3192
914.113	3332
914.226	3374
914.34	3355
914.453	3226
914.566	3412
914.68	3264
914.793	3317
914.906	3108
915.019	3097
915.132	3058
915.245	3135
915.358	3188
915.47	3184
915.583	3245
915.696	3310
915.809	3443
915.921	3374
916.034	3226
916.146	3226
916.259	3207
916.371	3344
916.483	3332
916.595	3275
916.708	3344
916.82	3325
916.932	3325
917.044	3344
917.156	3367
917.268	3264
917.38	3294
917.491	3310
917.603	3393
917.715	3466
917.826	3469
917.938	3378
918.049	3249
918.161	3458
918.272	3553
918.384	3542
918.495	3511
918.606	3359
918.717	3283
918.828	3401
918.939	3424
919.05	3306
919.161	3389
919.272	3214
919.383	3317
919.494	3492
919.604	3694
919.715	3477
919.826	3435
919.936	3477
920.047	3618
920.157	3587
920.267	3823
920.378	3622
920.488	3576
920.598	3797
920.708	3987
920.818	3854
920.928	3896
921.038	4029
921.148	4013
921.258	3747
921.368	3682
921.477	3595
921.587	3557
921.697	3481
921.806	3648
921.916	3557
922.025	3420
922.134	3389
922.244	3359
922.353	3458
922.462	3287
922.571	3237
922.68	3119
922.789	3150
922.898	3161
923.007	3146
923.116	3272
923.224	3249
923.333	3218
923.442	3146
923.55	3123
923.659	3188
923.767	3283
923.876	3169
923.984	3260
924.092	3131
924.201	3260
924.309	3211
924.417	3313
924.525	3245
924.633	3253
924.741	4246
924.849	3055
924.956	3306
925.064	3131
925.172	3085
925.279	3131
925.387	3230
925.494	3264
925.602	3393
925.709	3367
925.816	3195
925.924	3340
926.031	3416
926.138	3355
926.245	3401
926.352	3287
926.459	3466
926.566	3473
926.673	3359
926.779	3249
926.886	3283
926.993	3222
927.099	3188
927.206	3165
927.312	3135
927.419	3298
927.525	3222
927.631	3256
927.737	3195
927.843	3173
927.95	3081
928.056	3173
928.162	3184
928.267	3321
928.373	3899
928.479	3325
928.585	3093
928.69	3253
928.796	3329
928.901	3207
929.007	3104
929.112	3241
929.218	3192
929.323	3184
929.428	3199
929.533	3351
929.638	3127
929.743	3180
929.848	3298
929.953	3211
930.058	3180
930.163	3028
930.267	3081
930.372	3218
930.477	3093
930.581	3306
930.685	3176
930.79	3081
930.894	3157
930.998	3157
931.103	3298
931.207	3020
931.311	2990
931.415	2941
931.519	2838
931.623	2876
