Data from test_V78500241_1280.txt Node
Date: Fri Mar 25 16:24:04 CST 2022
User: usil
Spectrometer: V785-0024
Trigger mode: 0
Integration Time (sec): 4.000000E-1
Scans to average: 1
Nonlinearity correction enabled: false
Boxcar width: 0
Storing dark spectrum: false
XAxis mode: Wavelengths
Number of Pixels in Spectrum: 1024
>>>>>Begin Spectral Data<<<<<
801.071	2948
801.214	2948
801.356	2891
801.499	2929
801.641	2895
801.783	2952
801.926	3089
802.068	3028
802.211	3017
802.353	3051
802.496	3001
802.638	3036
802.78	3036
802.923	3112
803.065	3020
803.208	2899
803.35	2914
803.492	2925
803.635	2895
803.777	2792
803.919	2876
804.061	3195
804.204	2971
804.346	2937
804.488	2857
804.63	2990
804.773	2891
804.915	2891
805.057	3058
805.199	2933
805.341	2956
805.483	3039
805.626	3009
805.768	2960
805.91	3112
806.052	3119
806.194	3036
806.336	3260
806.478	3047
806.62	2933
806.762	3009
806.904	3089
807.046	3203
807.188	2998
807.33	2933
807.472	2998
807.614	2899
807.756	3020
807.898	2944
808.04	2883
808.182	2998
808.324	2975
808.465	2937
808.607	2891
808.749	2800
808.891	2902
809.033	3005
809.174	2998
809.316	2868
809.458	2910
809.6	2785
809.741	2773
809.883	2781
810.025	2895
810.166	2861
810.308	2861
810.45	2864
810.591	2788
810.733	2766
810.875	2864
811.016	2796
811.158	2792
811.299	2823
811.441	2975
811.582	2925
811.724	2849
811.865	2826
812.007	2952
812.148	2902
812.29	2876
812.431	2887
812.573	2918
812.714	3001
812.855	3043
812.997	3055
813.138	3146
813.279	3017
813.421	2982
813.562	2967
813.703	2872
813.845	2887
813.986	2769
814.127	2762
814.268	2815
814.41	2861
814.551	2769
814.692	2895
814.833	2849
814.974	2937
815.115	2960
815.256	2880
815.397	2838
815.539	2864
815.68	2785
815.821	2769
815.962	2941
816.103	2952
816.244	2899
816.385	2868
816.526	2998
816.666	2910
816.807	2769
816.948	2914
817.089	2910
817.23	2876
817.371	2834
817.512	2800
817.653	2845
817.793	2838
817.934	2922
818.075	2979
818.216	2982
818.356	3036
818.497	2891
818.638	2811
818.778	2857
818.919	2773
819.06	2746
819.2	2880
819.341	2826
819.481	2838
819.622	2906
819.762	3142
819.903	3112
820.043	2887
820.184	2925
820.324	2899
820.465	3020
820.605	3024
820.746	3055
820.886	2929
821.026	3142
821.167	3180
821.307	3260
821.447	3256
821.588	3245
821.728	3237
821.868	3214
822.008	3070
822.149	3199
822.289	3260
822.429	3112
822.569	3081
822.709	3176
822.849	3055
822.99	3093
823.13	3169
823.27	3199
823.41	3074
823.55	3199
823.69	3127
823.83	3173
823.97	3100
824.11	3005
824.25	2994
824.389	3089
824.529	3127
824.669	3093
824.809	3195
824.949	3302
825.089	3241
825.228	3138
825.368	3005
825.508	2990
825.648	2986
825.787	2986
825.927	3017
826.067	2963
826.206	2956
826.346	3062
826.485	3058
826.625	3135
826.765	3241
826.904	3203
827.044	2979
827.183	2948
827.323	2868
827.462	3005
827.601	2944
827.741	2929
827.88	2948
828.02	2845
828.159	2963
828.298	3062
828.437	3081
828.577	3081
828.716	3249
828.855	3070
828.994	2914
829.134	2868
829.273	2944
829.412	2891
829.551	2910
829.69	2914
829.829	2982
829.968	3146
830.107	3005
830.246	3005
830.385	2910
830.524	2864
830.663	2823
830.802	2762
830.941	2682
831.08	2644
831.219	2777
831.357	2739
831.496	2944
831.635	2724
831.774	2640
831.913	2678
832.051	2564
832.19	2575
832.329	2674
832.467	2530
832.606	2484
832.744	2564
832.883	2606
833.022	2602
833.16	2655
833.299	2689
833.437	2708
833.576	2678
833.714	2743
833.852	2731
833.991	2762
834.129	2861
834.267	2861
834.406	2796
834.544	2880
834.682	2868
834.821	2838
834.959	3058
835.097	2910
835.235	3085
835.373	3017
835.511	3039
835.65	2982
835.788	2967
835.926	2853
836.064	2796
836.202	2861
836.34	3104
836.478	3150
836.615	3062
836.753	3127
836.891	3203
837.029	3150
837.167	3112
837.305	3077
837.443	3036
837.58	2975
837.718	3154
837.856	3066
837.993	3013
838.131	3112
838.269	3097
838.406	3085
838.544	3062
838.681	2952
838.819	2941
838.956	2819
839.094	2796
839.231	2868
839.369	3020
839.506	3382
839.643	3226
839.781	3047
839.918	2986
840.055	3055
840.193	3051
840.33	3077
840.467	3104
840.604	3176
840.742	3363
840.879	3085
841.016	3081
841.153	3112
841.29	3306
841.427	3256
841.564	3279
841.701	3298
841.838	3264
841.975	3161
842.112	3230
842.249	3043
842.385	3074
842.522	3264
842.659	3089
842.796	3024
842.933	3127
843.069	3017
843.206	3009
843.343	3176
843.479	3112
843.616	3131
843.752	2857
843.889	2910
844.025	3085
844.162	2891
844.298	3112
844.435	3005
844.571	2933
844.708	3097
844.844	3173
844.98	3241
845.117	3218
845.253	3085
845.389	2960
845.525	3138
845.661	3127
845.798	3005
845.934	3176
846.07	3051
846.206	3222
846.342	3283
846.478	3279
846.614	3081
846.75	3032
846.886	3036
847.022	3245
847.158	3165
847.294	3180
847.429	3233
847.565	3199
847.701	3454
847.837	3028
847.972	3017
848.108	3157
848.244	3135
848.379	2963
848.515	2952
848.65	2963
848.786	2975
848.921	2990
849.057	3112
849.192	3154
849.328	3032
849.463	3074
849.598	3032
849.734	3039
849.869	2956
850.004	2922
850.14	2975
850.275	2895
850.41	2807
850.545	2918
850.68	2902
850.815	2952
850.95	2975
851.085	3192
851.22	3097
851.355	3043
851.49	2956
851.625	2990
851.76	3005
851.895	2941
852.03	2906
852.165	3013
852.299	3135
852.434	3176
852.569	3131
852.703	3169
852.838	3275
852.973	3332
853.107	3355
853.242	3165
853.376	3097
853.511	2979
853.645	3009
853.78	3184
853.914	3081
854.048	3108
854.183	3085
854.317	3188
854.451	3294
854.585	3127
854.72	3055
854.854	3226
854.988	3081
855.122	3074
855.256	2960
855.39	3119
855.524	3253
855.658	3192
855.792	3154
855.926	3176
856.06	3233
856.194	3291
856.327	3165
856.461	3055
856.595	3081
856.729	3112
856.862	3203
856.996	3154
857.13	3150
857.263	3199
857.397	3283
857.53	3108
857.664	3173
857.797	3188
857.931	3245
858.064	3138
858.197	3207
858.331	3116
858.464	3089
858.597	3009
858.731	3093
858.864	3161
858.997	3085
859.13	3169
859.263	3157
859.396	3207
859.529	3081
859.662	3081
859.795	3051
859.928	3161
860.061	3245
860.194	3306
860.327	3112
860.46	3058
860.592	3233
860.725	3279
860.858	3207
860.99	3135
861.123	3066
861.256	3009
861.388	3150
861.521	3694
861.653	3013
861.786	2994
861.918	3028
862.05	3074
862.183	3165
862.315	3119
862.447	3203
862.58	3104
862.712	2933
862.844	2872
862.976	3009
863.108	3009
863.24	3321
863.372	2906
863.504	2994
863.636	2933
863.768	3043
863.9	2960
864.032	2876
864.164	2937
864.296	3028
864.428	3081
864.559	3066
864.691	3039
864.823	3066
864.954	3039
865.086	3036
865.217	2986
865.349	2982
865.48	3013
865.612	2990
865.743	3154
865.875	2975
866.006	2948
866.137	2971
866.269	2948
866.4	2925
866.531	2948
866.662	2891
866.793	2895
866.924	2922
867.055	2914
867.186	2922
867.317	2861
867.448	2804
867.579	2807
867.71	2830
867.841	2811
867.972	2876
868.103	2922
868.233	2861
868.364	2891
868.495	2933
868.625	3085
868.756	3154
868.886	2963
869.017	3009
869.147	3146
869.278	3176
869.408	3009
869.539	3009
869.669	3127
869.799	3058
869.929	3131
870.06	3108
870.19	3306
870.32	3264
870.45	3325
870.58	3344
870.71	3401
870.84	3424
870.97	3283
871.1	3203
871.23	3447
871.36	3416
871.489	3386
871.619	3359
871.749	3416
871.879	3439
872.008	3462
872.138	3344
872.267	3260
872.397	3112
872.526	3062
872.656	3055
872.785	3070
872.915	3237
873.044	3332
873.173	3184
873.303	3249
873.432	3188
873.561	3275
873.69	3135
873.819	3135
873.948	3222
874.077	3085
874.206	3089
874.335	3051
874.464	3207
874.593	3340
874.722	3241
874.851	3397
874.979	3344
875.108	3348
875.237	3214
875.365	3161
875.494	3150
875.623	3260
875.751	3085
875.88	3100
876.008	3199
876.136	3218
876.265	3374
876.393	3507
876.521	3412
876.65	3374
876.778	3336
876.906	3245
877.034	3176
877.162	3203
877.29	3157
877.418	3237
877.546	3203
877.674	3241
877.802	3214
877.93	3237
878.058	3161
878.185	3131
878.313	3192
878.441	3233
878.568	3058
878.696	3135
878.824	3222
878.951	3306
879.079	3477
879.206	3606
879.333	3393
879.461	3298
879.588	3317
879.715	3443
879.842	3618
879.97	3412
880.097	3154
880.224	3138
880.351	3176
880.478	3214
880.605	3169
880.732	3180
880.859	3447
880.986	3287
881.112	3306
881.239	3184
881.366	3097
881.493	3043
881.619	3009
881.746	3093
881.872	3097
881.999	3081
882.125	3116
882.252	3245
882.378	3291
882.505	3401
882.631	3275
882.757	3104
882.883	3256
883.01	3241
883.136	3146
883.262	3093
883.388	3093
883.514	3279
883.64	3370
883.766	3298
883.892	3150
884.018	3173
884.143	3397
884.269	3549
884.395	3169
884.52	3154
884.646	3169
884.772	3112
884.897	3100
885.023	3237
885.148	3317
885.274	3397
885.399	3405
885.524	3260
885.65	3237
885.775	3279
885.9	3253
886.025	3462
886.15	3325
886.275	3306
886.4	3268
886.525	3302
886.65	3279
886.775	3272
886.9	3466
887.025	3622
887.149	3435
887.274	3226
887.399	3180
887.523	3199
887.648	3173
887.773	3176
887.897	3405
888.021	3401
888.146	3272
888.27	3428
888.395	3507
888.519	3473
888.643	3447
888.767	3485
888.891	3287
889.015	3249
889.139	3249
889.263	3241
889.387	3405
889.511	3515
889.635	3477
889.759	3302
889.883	3291
890.006	3389
890.13	3477
890.254	3256
890.377	3344
890.501	3192
890.624	3180
890.748	3306
890.871	3211
890.995	3077
891.118	3051
891.241	3188
891.364	3222
891.488	3325
891.611	3195
891.734	3199
891.857	3275
891.98	3226
892.103	3344
892.226	3245
892.349	3211
892.471	3146
892.594	3214
892.717	3291
892.839	3233
892.962	3272
893.085	3401
893.207	3275
893.33	3138
893.452	3180
893.575	3340
893.697	3256
893.819	3466
893.941	3530
894.064	3462
894.186	3249
894.308	3260
894.43	3443
894.552	3488
894.674	3473
894.796	3245
894.918	3302
895.04	3279
895.161	3412
895.283	3386
895.405	3264
895.526	3370
895.648	3401
895.769	3405
895.891	3420
896.012	3488
896.134	3492
896.255	3412
896.376	3351
896.498	3382
896.619	3393
896.74	3344
896.861	3389
896.982	3690
897.103	3827
897.224	3610
897.345	3458
897.466	3412
897.587	3424
897.708	3587
897.828	3545
897.949	3431
898.07	3294
898.19	3363
898.311	3610
898.431	3424
898.552	3500
898.672	3591
898.792	3603
898.913	3492
899.033	3412
899.153	3256
899.273	3245
899.393	3256
899.513	3283
899.633	3287
899.753	3325
899.873	3268
899.993	3348
900.113	3336
900.232	3348
900.352	3332
900.472	3256
900.591	3165
900.711	3294
900.83	3241
900.95	3382
901.069	3504
901.189	3340
901.308	3180
901.427	3116
901.546	3176
901.665	3279
901.784	3348
901.904	3230
902.023	3135
902.141	2982
902.26	2990
902.379	3108
902.498	3089
902.617	3017
902.735	3154
902.854	3218
902.973	3203
903.091	3043
903.21	3127
903.328	3150
903.446	3097
903.565	3112
903.683	3195
903.801	3093
903.919	3249
904.038	3253
904.156	3173
904.274	3283
904.392	3272
904.51	3279
904.627	3325
904.745	3386
904.863	3450
904.981	3233
905.098	3169
905.216	3199
905.334	3272
905.451	3313
905.569	3275
905.686	3389
905.803	3424
905.921	3253
906.038	3401
906.155	3370
906.272	3256
906.389	3332
906.506	3203
906.623	3268
906.74	3275
906.857	3207
906.974	3237
907.091	3462
907.208	3545
907.324	3466
907.441	3378
907.557	3237
907.674	3249
907.79	3237
907.907	3256
908.023	3401
908.139	3355
908.256	3306
908.372	3382
908.488	3386
908.604	3275
908.72	3214
908.836	3298
908.952	3275
909.068	3279
909.184	3450
909.3	3363
909.415	3488
909.531	3454
909.647	3275
909.762	3291
909.878	3233
909.993	3344
910.108	3344
910.224	3348
910.339	3401
910.454	3291
910.57	3264
910.685	3233
910.8	3542
910.915	3549
911.03	3420
911.145	3287
911.259	3275
911.374	3321
911.489	3195
911.604	3222
911.718	3123
911.833	3119
911.947	3058
912.062	3009
912.176	3123
912.291	3180
912.405	3192
912.519	3454
912.633	3469
912.748	3313
912.862	3226
912.976	3150
913.09	3104
913.204	3116
913.318	3230
913.431	3279
913.545	3340
913.659	3386
913.772	3321
913.886	3207
914	3195
914.113	3340
914.226	3389
914.34	3412
914.453	3203
914.566	3382
914.68	3264
914.793	3321
914.906	3150
915.019	3123
915.132	3036
915.245	3116
915.358	3214
915.47	3237
915.583	3241
915.696	3283
915.809	3382
915.921	3416
916.034	3272
916.146	3272
916.259	3241
916.371	3382
916.483	3405
916.595	3275
916.708	3302
916.82	3367
916.932	3344
917.044	3317
917.156	3310
917.268	3256
917.38	3287
917.491	3272
917.603	3378
917.715	3469
917.826	3431
917.938	3412
918.049	3256
918.161	3424
918.272	3587
918.384	3523
918.495	3469
918.606	3310
918.717	3317
918.828	3386
918.939	3447
919.05	3325
919.161	3420
919.272	3195
919.383	3302
919.494	3507
919.604	3644
919.715	3473
919.826	3397
919.936	3466
920.047	3542
920.157	3538
920.267	3774
920.378	3625
920.488	3584
920.598	3778
920.708	3956
920.818	3823
920.928	3804
921.038	4010
921.148	3975
921.258	3682
921.368	3618
921.477	3580
921.587	3542
921.697	3424
921.806	3633
921.916	3530
922.025	3336
922.134	3367
922.244	3332
922.353	3443
922.462	3264
922.571	3195
922.68	3104
922.789	3100
922.898	3176
923.007	3097
923.116	3214
923.224	3195
923.333	3203
923.442	3074
923.55	3074
923.659	3142
923.767	3245
923.876	3157
923.984	3222
924.092	3100
924.201	3211
924.309	3230
924.417	3226
924.525	3203
924.633	3207
924.741	4059
924.849	3055
924.956	3245
925.064	3127
925.172	3058
925.279	3104
925.387	3192
925.494	3195
925.602	3348
925.709	3351
925.816	3180
925.924	3272
926.031	3348
926.138	3336
926.245	3355
926.352	3226
926.459	3367
926.566	3466
926.673	3313
926.779	3245
926.886	3207
926.993	3119
927.099	3108
927.206	3089
927.312	3104
927.419	3203
927.525	3195
927.631	3260
927.737	3142
927.843	3077
927.95	2960
928.056	3127
928.162	3157
928.267	3253
928.373	3846
928.479	3279
928.585	3081
928.69	3176
928.796	3283
928.901	3146
929.007	3043
929.112	3207
929.218	3199
929.323	3135
929.428	3123
929.533	3291
929.638	3077
929.743	3192
929.848	3279
929.953	3214
930.058	3169
930.163	3020
930.267	3032
930.372	3176
930.477	3032
930.581	3298
930.685	3207
930.79	3028
930.894	3108
930.998	3081
931.103	3279
931.207	2963
931.311	2925
931.415	2925
931.519	2781
931.623	2781
