Data from test_V78500241_721.txt Node
Date: Fri Mar 25 16:20:11 CST 2022
User: usil
Spectrometer: V785-0024
Trigger mode: 0
Integration Time (sec): 4.000000E-1
Scans to average: 1
Nonlinearity correction enabled: false
Boxcar width: 0
Storing dark spectrum: false
XAxis mode: Wavelengths
Number of Pixels in Spectrum: 1024
>>>>>Begin Spectral Data<<<<<
801.071	2925
801.214	2975
801.356	2925
801.499	2922
801.641	2906
801.783	2986
801.926	3089
802.068	2975
802.211	3047
802.353	3009
802.496	3036
802.638	3028
802.78	3032
802.923	3100
803.065	3001
803.208	2910
803.35	2944
803.492	2975
803.635	2952
803.777	2773
803.919	2899
804.061	3222
804.204	2963
804.346	2925
804.488	2864
804.63	3005
804.773	2876
804.915	2952
805.057	3112
805.199	2937
805.341	2967
805.483	3043
805.626	3062
805.768	3005
805.91	3116
806.052	3127
806.194	3058
806.336	3230
806.478	3032
806.62	2941
806.762	3017
806.904	3097
807.046	3207
807.188	2979
807.33	2895
807.472	3013
807.614	2906
807.756	2990
807.898	2925
808.04	2906
808.182	2963
808.324	3001
808.465	2891
808.607	2906
808.749	2815
808.891	2849
809.033	2986
809.174	2998
809.316	2895
809.458	2902
809.6	2762
809.741	2777
809.883	2834
810.025	2868
810.166	2891
810.308	2845
810.45	2834
810.591	2785
810.733	2792
810.875	2845
811.016	2819
811.158	2785
811.299	2826
811.441	2941
811.582	2895
811.724	2864
811.865	2880
812.007	2956
812.148	2887
812.29	2876
812.431	2880
812.573	2990
812.714	2994
812.855	3058
812.997	3032
813.138	3131
813.279	2994
813.421	3005
813.562	2971
813.703	2887
813.845	2891
813.986	2781
814.127	2758
814.268	2853
814.41	2853
814.551	2823
814.692	2910
814.833	2868
814.974	2960
815.115	2975
815.256	2876
815.397	2788
815.539	2864
815.68	2796
815.821	2807
815.962	2952
816.103	2960
816.244	2883
816.385	2872
816.526	3032
816.666	2948
816.807	2792
816.948	2914
817.089	2963
817.23	2864
817.371	2807
817.512	2792
817.653	2853
817.793	2861
817.934	2891
818.075	2998
818.216	3009
818.356	3051
818.497	2902
818.638	2811
818.778	2823
818.919	2773
819.06	2746
819.2	2887
819.341	2792
819.481	2823
819.622	2941
819.762	3081
819.903	3070
820.043	2941
820.184	2948
820.324	2941
820.465	3036
820.605	3036
820.746	3051
820.886	2963
821.026	3104
821.167	3169
821.307	3302
821.447	3298
821.588	3256
821.728	3211
821.868	3192
822.008	3123
822.149	3222
822.289	3294
822.429	3135
822.569	3138
822.709	3241
822.849	3070
822.99	3051
823.13	3165
823.27	3184
823.41	3116
823.55	3188
823.69	3188
823.83	3180
823.97	3123
824.11	2952
824.25	3017
824.389	3074
824.529	3127
824.669	3062
824.809	3199
824.949	3260
825.089	3203
825.228	3176
825.368	3028
825.508	2994
825.648	2986
825.787	2994
825.927	3028
826.067	3017
826.206	2960
826.346	3047
826.485	3097
826.625	3142
826.765	3264
826.904	3226
827.044	3032
827.183	2967
827.323	2902
827.462	3001
827.601	2952
827.741	2952
827.88	2948
828.02	2887
828.159	2982
828.298	3024
828.437	3127
828.577	3047
828.716	3256
828.855	3089
828.994	2937
829.134	2880
829.273	2925
829.412	2872
829.551	2883
829.69	2906
829.829	2948
829.968	3131
830.107	3024
830.246	3020
830.385	2971
830.524	2876
830.663	2834
830.802	2689
830.941	2659
831.08	2663
831.219	2758
831.357	2758
831.496	2971
831.635	2724
831.774	2663
831.913	2678
832.051	2545
832.19	2587
832.329	2640
832.467	2549
832.606	2492
832.744	2613
832.883	2617
833.022	2617
833.16	2663
833.299	2682
833.437	2701
833.576	2716
833.714	2754
833.852	2754
833.991	2811
834.129	2807
834.267	2880
834.406	2773
834.544	2872
834.682	2830
834.821	2883
834.959	3051
835.097	2918
835.235	3077
835.373	3032
835.511	3020
835.65	2948
835.788	2994
835.926	2868
836.064	2804
836.202	2864
836.34	3131
836.478	3127
836.615	3093
836.753	3157
836.891	3195
837.029	3173
837.167	3123
837.305	3127
837.443	3074
837.58	2963
837.718	3108
837.856	3108
837.993	3028
838.131	3089
838.269	3081
838.406	3074
838.544	3077
838.681	2948
838.819	2872
838.956	2826
839.094	2845
839.231	2910
839.369	3085
839.506	3359
839.643	3245
839.781	3028
839.918	2971
840.055	3066
840.193	3036
840.33	3047
840.467	3081
840.604	3157
840.742	3386
840.879	3097
841.016	3070
841.153	3123
841.29	3378
841.427	3291
841.564	3313
841.701	3302
841.838	3245
841.975	3207
842.112	3207
842.249	3123
842.385	3024
842.522	3283
842.659	3112
842.796	3108
842.933	3138
843.069	3055
843.206	3055
843.343	3214
843.479	3112
843.616	3146
843.752	2914
843.889	2872
844.025	3104
844.162	2887
844.298	3089
844.435	2960
844.571	2922
844.708	3066
844.844	3199
844.98	3226
845.117	3192
845.253	3055
845.389	3009
845.525	3154
845.661	3062
845.798	2986
845.934	3135
846.07	3062
846.206	3207
846.342	3332
846.478	3272
846.614	3100
846.75	3070
846.886	3020
847.022	3253
847.158	3123
847.294	3192
847.429	3241
847.565	3184
847.701	3458
847.837	3036
847.972	3017
848.108	3192
848.244	3154
848.379	2994
848.515	2956
848.65	2899
848.786	2963
848.921	3001
849.057	3097
849.192	3116
849.328	3074
849.463	3108
849.598	3055
849.734	3028
849.869	2994
850.004	2941
850.14	2975
850.275	2952
850.41	2845
850.545	2887
850.68	2899
850.815	2944
850.95	2971
851.085	3226
851.22	3116
851.355	3039
851.49	2990
851.625	3039
851.76	2998
851.895	2902
852.03	2895
852.165	3043
852.299	3097
852.434	3173
852.569	3146
852.703	3184
852.838	3264
852.973	3351
853.107	3313
853.242	3165
853.376	3108
853.511	3001
853.645	3032
853.78	3245
853.914	3112
854.048	3150
854.183	3093
854.317	3142
854.451	3310
854.585	3161
854.72	3093
854.854	3211
854.988	3047
855.122	3093
855.256	2971
855.39	3142
855.524	3237
855.658	3207
855.792	3157
855.926	3192
856.06	3218
856.194	3260
856.327	3173
856.461	3070
856.595	3123
856.729	3123
856.862	3245
856.996	3184
857.13	3218
857.263	3245
857.397	3298
857.53	3123
857.664	3188
857.797	3264
857.931	3313
858.064	3157
858.197	3241
858.331	3138
858.464	3135
858.597	2982
858.731	3100
858.864	3127
858.997	3119
859.13	3165
859.263	3135
859.396	3226
859.529	3112
859.662	3051
859.795	3077
859.928	3150
860.061	3279
860.194	3287
860.327	3119
860.46	3077
860.592	3199
860.725	3279
860.858	3218
860.99	3093
861.123	3039
861.256	3077
861.388	3150
861.521	3907
861.653	3009
861.786	2990
861.918	2979
862.05	3081
862.183	3104
862.315	3184
862.447	3233
862.58	3077
862.712	2971
862.844	2914
862.976	3036
863.108	3032
863.24	3416
863.372	2895
863.504	2944
863.636	2948
863.768	3020
863.9	2990
864.032	2914
864.164	2967
864.296	3005
864.428	3112
864.559	3116
864.691	3077
864.823	3074
864.954	3058
865.086	3039
865.217	2994
865.349	2929
865.48	2979
865.612	3017
865.743	3154
865.875	2975
866.006	2967
866.137	2975
866.269	2944
866.4	2941
866.531	2918
866.662	2899
866.793	2906
866.924	2941
867.055	2975
867.186	2937
867.317	2868
867.448	2857
867.579	2838
867.71	2906
867.841	2804
867.972	2899
868.103	2922
868.233	2906
868.364	2891
868.495	2876
868.625	3032
868.756	3173
868.886	2986
869.017	2998
869.147	3161
869.278	3173
869.408	3032
869.539	3001
869.669	3104
869.799	3039
869.929	3131
870.06	3097
870.19	3355
870.32	3332
870.45	3325
870.58	3359
870.71	3466
870.84	3488
870.97	3291
871.1	3241
871.23	3481
871.36	3458
871.489	3325
871.619	3378
871.749	3378
871.879	3462
872.008	3504
872.138	3351
872.267	3256
872.397	3161
872.526	3070
872.656	3009
872.785	3100
872.915	3253
873.044	3340
873.173	3176
873.303	3245
873.432	3214
873.561	3218
873.69	3135
873.819	3161
873.948	3195
874.077	3104
874.206	3043
874.335	3081
874.464	3241
874.593	3351
874.722	3272
874.851	3389
874.979	3363
875.108	3332
875.237	3188
875.365	3146
875.494	3157
875.623	3165
875.751	3066
875.88	3119
876.008	3176
876.136	3211
876.265	3370
876.393	3504
876.521	3401
876.65	3428
876.778	3340
876.906	3249
877.034	3203
877.162	3249
877.29	3157
877.418	3279
877.546	3260
877.674	3249
877.802	3249
877.93	3245
878.058	3127
878.185	3116
878.313	3195
878.441	3203
878.568	3066
878.696	3173
878.824	3249
878.951	3272
879.079	3466
879.206	3663
879.333	3439
879.461	3363
879.588	3378
879.715	3473
879.842	3591
879.97	3424
880.097	3169
880.224	3123
880.351	3169
880.478	3237
880.605	3173
880.732	3169
880.859	3492
880.986	3329
881.112	3287
881.239	3249
881.366	3123
881.493	3066
881.619	3024
881.746	3039
881.872	3081
881.999	3104
882.125	3119
882.252	3245
882.378	3279
882.505	3428
882.631	3279
882.757	3146
882.883	3226
883.01	3195
883.136	3157
883.262	3108
883.388	3108
883.514	3291
883.64	3378
883.766	3283
883.892	3180
884.018	3233
884.143	3431
884.269	3447
884.395	3218
884.52	3195
884.646	3188
884.772	3112
884.897	3100
885.023	3214
885.148	3348
885.274	3409
885.399	3374
885.524	3253
885.65	3310
885.775	3298
885.9	3294
886.025	3439
886.15	3370
886.275	3294
886.4	3230
886.525	3321
886.65	3230
886.775	3272
886.9	3511
887.025	3614
887.149	3370
887.274	3241
887.399	3188
887.523	3203
887.648	3169
887.773	3169
887.897	3370
888.021	3405
888.146	3287
888.27	3466
888.395	3519
888.519	3412
888.643	3428
888.767	3469
888.891	3310
889.015	3188
889.139	3279
889.263	3245
889.387	3397
889.511	3507
889.635	3454
889.759	3306
889.883	3287
890.006	3386
890.13	3485
890.254	3245
890.377	3340
890.501	3199
890.624	3214
890.748	3287
890.871	3173
890.995	3108
891.118	3066
891.241	3138
891.364	3207
891.488	3332
891.611	3192
891.734	3214
891.857	3291
891.98	3233
892.103	3321
892.226	3317
892.349	3218
892.471	3112
892.594	3222
892.717	3313
892.839	3275
892.962	3298
893.085	3363
893.207	3291
893.33	3138
893.452	3176
893.575	3294
893.697	3249
893.819	3458
893.941	3504
894.064	3439
894.186	3287
894.308	3249
894.43	3405
894.552	3519
894.674	3488
894.796	3260
894.918	3291
895.04	3249
895.161	3397
895.283	3367
895.405	3298
895.526	3351
895.648	3462
895.769	3428
895.891	3443
896.012	3447
896.134	3458
896.255	3409
896.376	3374
896.498	3336
896.619	3454
896.74	3348
896.861	3382
896.982	3644
897.103	3835
897.224	3564
897.345	3507
897.466	3428
897.587	3435
897.708	3614
897.828	3542
897.949	3473
898.07	3325
898.19	3412
898.311	3606
898.431	3439
898.552	3492
898.672	3610
898.792	3625
898.913	3545
899.033	3378
899.153	3287
899.273	3218
899.393	3287
899.513	3332
899.633	3332
899.753	3294
899.873	3287
899.993	3389
900.113	3329
900.232	3359
900.352	3302
900.472	3279
900.591	3192
900.711	3275
900.83	3260
900.95	3424
901.069	3485
901.189	3336
901.308	3188
901.427	3127
901.546	3195
901.665	3298
901.784	3348
901.904	3184
902.023	3138
902.141	3005
902.26	3020
902.379	3165
902.498	3074
902.617	3066
902.735	3176
902.854	3260
902.973	3192
903.091	3028
903.21	3066
903.328	3104
903.446	3112
903.565	3138
903.683	3188
903.801	3116
903.919	3249
904.038	3298
904.156	3169
904.274	3256
904.392	3256
904.51	3275
904.627	3340
904.745	3447
904.863	3507
904.981	3268
905.098	3184
905.216	3268
905.334	3313
905.451	3287
905.569	3287
905.686	3424
905.803	3443
905.921	3249
906.038	3424
906.155	3348
906.272	3256
906.389	3359
906.506	3241
906.623	3222
906.74	3245
906.857	3184
906.974	3260
907.091	3450
907.208	3584
907.324	3511
907.441	3389
907.557	3245
907.674	3237
907.79	3241
907.907	3287
908.023	3374
908.139	3332
908.256	3355
908.372	3348
908.488	3348
908.604	3272
908.72	3230
908.836	3302
908.952	3272
909.068	3340
909.184	3492
909.3	3424
909.415	3530
909.531	3450
909.647	3268
909.762	3287
909.878	3287
909.993	3344
910.108	3348
910.224	3344
910.339	3355
910.454	3344
910.57	3279
910.685	3268
910.8	3515
910.915	3515
911.03	3466
911.145	3260
911.259	3268
911.374	3325
911.489	3199
911.604	3214
911.718	3123
911.833	3165
911.947	3066
912.062	2982
912.176	3180
912.291	3165
912.405	3233
912.519	3397
912.633	3511
912.748	3313
912.862	3237
912.976	3184
913.09	3051
913.204	3138
913.318	3211
913.431	3321
913.545	3351
913.659	3397
913.772	3367
913.886	3207
914	3180
914.113	3378
914.226	3393
914.34	3370
914.453	3233
914.566	3393
914.68	3306
914.793	3291
914.906	3176
915.019	3146
915.132	3062
915.245	3165
915.358	3211
915.47	3241
915.583	3245
915.696	3279
915.809	3405
915.921	3340
916.034	3249
916.146	3298
916.259	3192
916.371	3378
916.483	3321
916.595	3260
916.708	3332
916.82	3313
916.932	3367
917.044	3294
917.156	3329
917.268	3237
917.38	3294
917.491	3321
917.603	3374
917.715	3485
917.826	3401
917.938	3386
918.049	3291
918.161	3447
918.272	3618
918.384	3561
918.495	3485
918.606	3332
918.717	3256
918.828	3370
918.939	3412
919.05	3317
919.161	3317
919.272	3195
919.383	3279
919.494	3538
919.604	3671
919.715	3500
919.826	3401
919.936	3435
920.047	3591
920.157	3553
920.267	3759
920.378	3599
920.488	3587
920.598	3785
920.708	3941
920.818	3804
920.928	3804
921.038	4017
921.148	3987
921.258	3686
921.368	3660
921.477	3576
921.587	3511
921.697	3477
921.806	3618
921.916	3515
922.025	3386
922.134	3336
922.244	3310
922.353	3428
922.462	3237
922.571	3226
922.68	3112
922.789	3089
922.898	3104
923.007	3074
923.116	3218
923.224	3157
923.333	3218
923.442	3081
923.55	3089
923.659	3131
923.767	3199
923.876	3154
923.984	3214
924.092	3070
924.201	3203
924.309	3233
924.417	3256
924.525	3214
924.633	3207
924.741	4173
924.849	3028
924.956	3260
925.064	3089
925.172	3051
925.279	3116
925.387	3192
925.494	3207
925.602	3306
925.709	3336
925.816	3195
925.924	3302
926.031	3405
926.138	3302
926.245	3344
926.352	3291
926.459	3409
926.566	3462
926.673	3272
926.779	3218
926.886	3233
926.993	3108
927.099	3146
927.206	3097
927.312	3116
927.419	3226
927.525	3211
927.631	3283
927.737	3138
927.843	3135
927.95	3062
928.056	3112
928.162	3154
928.267	3237
928.373	3842
928.479	3306
928.585	3077
928.69	3253
928.796	3245
928.901	3112
929.007	3047
929.112	3207
929.218	3195
929.323	3150
929.428	3138
929.533	3302
929.638	3104
929.743	3180
929.848	3245
929.953	3230
930.058	3119
930.163	2982
930.267	3043
930.372	3169
930.477	3005
930.581	3310
930.685	3157
930.79	3066
930.894	3108
930.998	3062
931.103	3260
931.207	2960
931.311	2937
931.415	2941
931.519	2807
931.623	2826
