Data from test_V78500241_837.txt Node
Date: Fri Mar 25 16:21:00 CST 2022
User: usil
Spectrometer: V785-0024
Trigger mode: 0
Integration Time (sec): 4.000000E-1
Scans to average: 1
Nonlinearity correction enabled: false
Boxcar width: 0
Storing dark spectrum: false
XAxis mode: Wavelengths
Number of Pixels in Spectrum: 1024
>>>>>Begin Spectral Data<<<<<
801.071	2963
801.214	3017
801.356	2883
801.499	2963
801.641	2944
801.783	3001
801.926	3142
802.068	3017
802.211	3043
802.353	3062
802.496	2982
802.638	3043
802.78	3077
802.923	3089
803.065	3032
803.208	2910
803.35	2937
803.492	3001
803.635	2975
803.777	2804
803.919	2918
804.061	3199
804.204	3009
804.346	2944
804.488	2891
804.63	2990
804.773	2937
804.915	2963
805.057	3127
805.199	2963
805.341	3013
805.483	3074
805.626	3085
805.768	3024
805.91	3127
806.052	3146
806.194	3070
806.336	3294
806.478	3070
806.62	2990
806.762	2998
806.904	3108
807.046	3207
807.188	3013
807.33	2963
807.472	3001
807.614	2925
807.756	3009
807.898	2982
808.04	2922
808.182	2994
808.324	2998
808.465	2918
808.607	2914
808.749	2864
808.891	2925
809.033	3028
809.174	2998
809.316	2918
809.458	2937
809.6	2807
809.741	2811
809.883	2796
810.025	2891
810.166	2880
810.308	2914
810.45	2895
810.591	2796
810.733	2792
810.875	2857
811.016	2796
811.158	2815
811.299	2842
811.441	2933
811.582	2914
811.724	2826
811.865	2880
812.007	2899
812.148	2891
812.29	2857
812.431	2925
812.573	2906
812.714	2967
812.855	3077
812.997	3104
813.138	3127
813.279	3047
813.421	2998
813.562	2994
813.703	2910
813.845	2948
813.986	2830
814.127	2758
814.268	2857
814.41	2883
814.551	2826
814.692	2906
814.833	2834
814.974	2944
815.115	2967
815.256	2868
815.397	2853
815.539	2906
815.68	2823
815.821	2807
815.962	2914
816.103	2937
816.244	2880
816.385	2891
816.526	2979
816.666	2910
816.807	2754
816.948	2956
817.089	2933
817.23	2864
817.371	2777
817.512	2792
817.653	2872
817.793	2838
817.934	2944
818.075	2998
818.216	3005
818.356	3074
818.497	2925
818.638	2796
818.778	2826
818.919	2819
819.06	2804
819.2	2941
819.341	2838
819.481	2834
819.622	2960
819.762	3146
819.903	3108
820.043	2956
820.184	2933
820.324	2925
820.465	3005
820.605	3051
820.746	3055
820.886	2967
821.026	3127
821.167	3195
821.307	3268
821.447	3306
821.588	3272
821.728	3245
821.868	3214
822.008	3085
822.149	3192
822.289	3264
822.429	3108
822.569	3131
822.709	3207
822.849	3028
822.99	3093
823.13	3180
823.27	3222
823.41	3100
823.55	3150
823.69	3161
823.83	3176
823.97	3119
824.11	3020
824.25	3013
824.389	3112
824.529	3131
824.669	3085
824.809	3188
824.949	3283
825.089	3245
825.228	3222
825.368	3055
825.508	2998
825.648	2963
825.787	3013
825.927	3005
826.067	2952
826.206	3001
826.346	3074
826.485	3085
826.625	3131
826.765	3302
826.904	3260
827.044	2994
827.183	2963
827.323	2883
827.462	2998
827.601	2967
827.741	2944
827.88	2967
828.02	2842
828.159	2975
828.298	3055
828.437	3146
828.577	3093
828.716	3260
828.855	3112
828.994	2914
829.134	2902
829.273	2963
829.412	2876
829.551	2883
829.69	2918
829.829	2990
829.968	3146
830.107	3039
830.246	3058
830.385	2952
830.524	2902
830.663	2857
830.802	2743
830.941	2663
831.08	2667
831.219	2800
831.357	2792
831.496	2967
831.635	2762
831.774	2697
831.913	2651
832.051	2533
832.19	2594
832.329	2705
832.467	2583
832.606	2522
832.744	2610
832.883	2598
833.022	2598
833.16	2682
833.299	2724
833.437	2739
833.576	2720
833.714	2743
833.852	2762
833.991	2804
834.129	2880
834.267	2838
834.406	2811
834.544	2880
834.682	2876
834.821	2868
834.959	3081
835.097	2895
835.235	3089
835.373	3013
835.511	3066
835.65	2982
835.788	2948
835.926	2902
836.064	2792
836.202	2857
836.34	3138
836.478	3199
836.615	3070
836.753	3165
836.891	3237
837.029	3180
837.167	3108
837.305	3100
837.443	3074
837.58	3013
837.718	3169
837.856	3058
837.993	3062
838.131	3119
838.269	3104
838.406	3119
838.544	3116
838.681	2963
838.819	2971
838.956	2830
839.094	2872
839.231	2910
839.369	3001
839.506	3359
839.643	3237
839.781	3077
839.918	2994
840.055	3074
840.193	3039
840.33	3097
840.467	3100
840.604	3169
840.742	3389
840.879	3093
841.016	3055
841.153	3161
841.29	3329
841.427	3302
841.564	3310
841.701	3325
841.838	3241
841.975	3214
842.112	3253
842.249	3108
842.385	3066
842.522	3256
842.659	3108
842.796	3017
842.933	3154
843.069	3116
843.206	3043
843.343	3207
843.479	3138
843.616	3127
843.752	2899
843.889	2944
844.025	3116
844.162	2906
844.298	3093
844.435	2944
844.571	2944
844.708	3097
844.844	3211
844.98	3264
845.117	3211
845.253	3077
845.389	3032
845.525	3119
845.661	3142
845.798	3043
845.934	3154
846.07	3081
846.206	3245
846.342	3340
846.478	3279
846.614	3100
846.75	3066
846.886	3039
847.022	3256
847.158	3138
847.294	3214
847.429	3294
847.565	3237
847.701	3492
847.837	3028
847.972	3028
848.108	3169
848.244	3161
848.379	3001
848.515	2956
848.65	2929
848.786	3001
848.921	3051
849.057	3169
849.192	3146
849.328	3039
849.463	3173
849.598	3077
849.734	3051
849.869	3001
850.004	2960
850.14	2975
850.275	2929
850.41	2883
850.545	2899
850.68	2952
850.815	2975
850.95	2937
851.085	3165
851.22	3135
851.355	3051
851.49	3013
851.625	2979
851.76	3028
851.895	2948
852.03	2922
852.165	3055
852.299	3138
852.434	3192
852.569	3169
852.703	3207
852.838	3245
852.973	3351
853.107	3363
853.242	3188
853.376	3097
853.511	2994
853.645	3036
853.78	3230
853.914	3123
854.048	3116
854.183	3116
854.317	3123
854.451	3298
854.585	3142
854.72	3119
854.854	3245
854.988	3100
855.122	3119
855.256	2967
855.39	3173
855.524	3249
855.658	3195
855.792	3154
855.926	3188
856.06	3214
856.194	3253
856.327	3146
856.461	3077
856.595	3142
856.729	3077
856.862	3230
856.996	3173
857.13	3188
857.263	3249
857.397	3291
857.53	3138
857.664	3237
857.797	3275
857.931	3237
858.064	3176
858.197	3214
858.331	3146
858.464	3070
858.597	2982
858.731	3104
858.864	3135
858.997	3085
859.13	3154
859.263	3127
859.396	3207
859.529	3108
859.662	3093
859.795	3074
859.928	3116
860.061	3294
860.194	3283
860.327	3127
860.46	3066
860.592	3256
860.725	3268
860.858	3230
860.99	3108
861.123	3051
861.256	3089
861.388	3154
861.521	3949
861.653	3009
861.786	2975
861.918	3009
862.05	3077
862.183	3127
862.315	3157
862.447	3203
862.58	3097
862.712	2948
862.844	2876
862.976	3039
863.108	2990
863.24	3329
863.372	2849
863.504	2948
863.636	2948
863.768	3066
863.9	2994
864.032	2910
864.164	2937
864.296	3051
864.428	3081
864.559	3085
864.691	3119
864.823	3081
864.954	3051
865.086	3051
865.217	3047
865.349	2933
865.48	3005
865.612	3028
865.743	3116
865.875	2998
866.006	2967
866.137	2971
866.269	2963
866.4	2914
866.531	2918
866.662	2922
866.793	2891
866.924	2883
867.055	2941
867.186	2944
867.317	2918
867.448	2857
867.579	2861
867.71	2861
867.841	2819
867.972	2933
868.103	2925
868.233	2883
868.364	2902
868.495	2922
868.625	3123
868.756	3154
868.886	2948
869.017	3017
869.147	3184
869.278	3211
869.408	3066
869.539	3017
869.669	3089
869.799	3070
869.929	3142
870.06	3135
870.19	3351
870.32	3294
870.45	3321
870.58	3382
870.71	3458
870.84	3450
870.97	3279
871.1	3272
871.23	3488
871.36	3424
871.489	3332
871.619	3405
871.749	3416
871.879	3450
872.008	3496
872.138	3367
872.267	3237
872.397	3146
872.526	3127
872.656	3005
872.785	3093
872.915	3241
873.044	3306
873.173	3192
873.303	3230
873.432	3253
873.561	3268
873.69	3195
873.819	3157
873.948	3188
874.077	3119
874.206	3043
874.335	3112
874.464	3184
874.593	3340
874.722	3226
874.851	3409
874.979	3348
875.108	3351
875.237	3199
875.365	3184
875.494	3135
875.623	3214
875.751	3077
875.88	3119
876.008	3180
876.136	3211
876.265	3367
876.393	3485
876.521	3450
876.65	3382
876.778	3332
876.906	3256
877.034	3188
877.162	3237
877.29	3161
877.418	3245
877.546	3218
877.674	3207
877.802	3211
877.93	3192
878.058	3116
878.185	3100
878.313	3195
878.441	3203
878.568	3074
878.696	3176
878.824	3279
878.951	3313
879.079	3485
879.206	3591
879.333	3401
879.461	3313
879.588	3359
879.715	3488
879.842	3591
879.97	3363
880.097	3157
880.224	3142
880.351	3180
880.478	3211
880.605	3203
880.732	3195
880.859	3504
880.986	3283
881.112	3291
881.239	3222
881.366	3062
881.493	3036
881.619	3028
881.746	3093
881.872	3066
881.999	3119
882.125	3154
882.252	3245
882.378	3298
882.505	3454
882.631	3249
882.757	3165
882.883	3192
883.01	3218
883.136	3146
883.262	3081
883.388	3138
883.514	3298
883.64	3386
883.766	3272
883.892	3169
884.018	3237
884.143	3420
884.269	3538
884.395	3184
884.52	3184
884.646	3180
884.772	3142
884.897	3108
885.023	3192
885.148	3298
885.274	3420
885.399	3370
885.524	3310
885.65	3260
885.775	3283
885.9	3260
886.025	3416
886.15	3355
886.275	3279
886.4	3230
886.525	3310
886.65	3287
886.775	3268
886.9	3485
887.025	3633
887.149	3374
887.274	3230
887.399	3195
887.523	3211
887.648	3203
887.773	3176
887.897	3344
888.021	3409
888.146	3279
888.27	3435
888.395	3507
888.519	3447
888.643	3477
888.767	3454
888.891	3302
889.015	3237
889.139	3279
889.263	3211
889.387	3428
889.511	3485
889.635	3431
889.759	3302
889.883	3302
890.006	3363
890.13	3492
890.254	3260
890.377	3382
890.501	3249
890.624	3195
890.748	3287
890.871	3150
890.995	3112
891.118	3055
891.241	3195
891.364	3222
891.488	3336
891.611	3169
891.734	3199
891.857	3313
891.98	3253
892.103	3374
892.226	3294
892.349	3241
892.471	3146
892.594	3233
892.717	3272
892.839	3256
892.962	3313
893.085	3378
893.207	3272
893.33	3165
893.452	3233
893.575	3348
893.697	3264
893.819	3424
893.941	3549
894.064	3431
894.186	3260
894.308	3306
894.43	3420
894.552	3515
894.674	3469
894.796	3317
894.918	3321
895.04	3298
895.161	3447
895.283	3393
895.405	3313
895.526	3348
895.648	3443
895.769	3431
895.891	3435
896.012	3454
896.134	3454
896.255	3412
896.376	3389
896.498	3355
896.619	3462
896.74	3370
896.861	3412
896.982	3686
897.103	3850
897.224	3610
897.345	3492
897.466	3435
897.587	3466
897.708	3633
897.828	3507
897.949	3435
898.07	3325
898.19	3409
898.311	3591
898.431	3435
898.552	3488
898.672	3614
898.792	3557
898.913	3507
899.033	3359
899.153	3268
899.273	3249
899.393	3291
899.513	3287
899.633	3306
899.753	3336
899.873	3298
899.993	3386
900.113	3359
900.232	3378
900.352	3329
900.472	3340
900.591	3214
900.711	3279
900.83	3241
900.95	3409
901.069	3500
901.189	3389
901.308	3195
901.427	3116
901.546	3195
901.665	3264
901.784	3332
901.904	3165
902.023	3176
902.141	3055
902.26	2990
902.379	3146
902.498	3062
902.617	3051
902.735	3237
902.854	3245
902.973	3176
903.091	3020
903.21	3032
903.328	3233
903.446	3104
903.565	3097
903.683	3188
903.801	3127
903.919	3222
904.038	3226
904.156	3203
904.274	3291
904.392	3237
904.51	3348
904.627	3329
904.745	3424
904.863	3462
904.981	3272
905.098	3150
905.216	3245
905.334	3268
905.451	3230
905.569	3298
905.686	3454
905.803	3458
905.921	3283
906.038	3450
906.155	3336
906.272	3268
906.389	3306
906.506	3211
906.623	3272
906.74	3317
906.857	3176
906.974	3264
907.091	3420
907.208	3553
907.324	3485
907.441	3378
907.557	3230
907.674	3245
907.79	3230
907.907	3260
908.023	3382
908.139	3378
908.256	3336
908.372	3378
908.488	3317
908.604	3245
908.72	3241
908.836	3291
908.952	3272
909.068	3306
909.184	3507
909.3	3367
909.415	3534
909.531	3466
909.647	3268
909.762	3268
909.878	3249
909.993	3321
910.108	3336
910.224	3294
910.339	3424
910.454	3336
910.57	3306
910.685	3207
910.8	3618
910.915	3545
911.03	3435
911.145	3264
911.259	3283
911.374	3302
911.489	3253
911.604	3268
911.718	3127
911.833	3192
911.947	3001
912.062	2990
912.176	3157
912.291	3184
912.405	3237
912.519	3447
912.633	3454
912.748	3329
912.862	3256
912.976	3161
913.09	3028
913.204	3131
913.318	3207
913.431	3329
913.545	3351
913.659	3393
913.772	3313
913.886	3241
914	3165
914.113	3332
914.226	3424
914.34	3389
914.453	3184
914.566	3409
914.68	3268
914.793	3321
914.906	3154
915.019	3119
915.132	3043
915.245	3192
915.358	3218
915.47	3226
915.583	3241
915.696	3302
915.809	3397
915.921	3389
916.034	3249
916.146	3233
916.259	3253
916.371	3393
916.483	3329
916.595	3256
916.708	3306
916.82	3298
916.932	3332
917.044	3351
917.156	3367
917.268	3226
917.38	3336
917.491	3302
917.603	3336
917.715	3405
917.826	3439
917.938	3348
918.049	3283
918.161	3424
918.272	3580
918.384	3557
918.495	3477
918.606	3325
918.717	3264
918.828	3389
918.939	3401
919.05	3306
919.161	3374
919.272	3180
919.383	3310
919.494	3492
919.604	3667
919.715	3473
919.826	3393
919.936	3496
920.047	3572
920.157	3568
920.267	3789
920.378	3591
920.488	3564
920.598	3762
920.708	3949
920.818	3751
920.928	3838
921.038	4017
921.148	3987
921.258	3713
921.368	3652
921.477	3587
921.587	3545
921.697	3469
921.806	3625
921.916	3492
922.025	3336
922.134	3370
922.244	3310
922.353	3428
922.462	3268
922.571	3245
922.68	3123
922.789	3081
922.898	3127
923.007	3055
923.116	3188
923.224	3218
923.333	3188
923.442	3104
923.55	3085
923.659	3135
923.767	3233
923.876	3085
923.984	3230
924.092	3119
924.201	3169
924.309	3214
924.417	3275
924.525	3199
924.633	3226
924.741	3994
924.849	3074
924.956	3287
925.064	3123
925.172	3024
925.279	3127
925.387	3176
925.494	3188
925.602	3332
925.709	3302
925.816	3192
925.924	3264
926.031	3359
926.138	3298
926.245	3336
926.352	3211
926.459	3424
926.566	3481
926.673	3321
926.779	3214
926.886	3253
926.993	3127
927.099	3108
927.206	3127
927.312	3116
927.419	3211
927.525	3180
927.631	3249
927.737	3123
927.843	3165
927.95	3005
928.056	3104
928.162	3157
928.267	3222
928.373	3774
928.479	3344
928.585	3043
928.69	3199
928.796	3283
928.901	3184
929.007	3020
929.112	3165
929.218	3226
929.323	3150
929.428	3146
929.533	3344
929.638	3119
929.743	3138
929.848	3253
929.953	3199
930.058	3161
930.163	3036
930.267	3039
930.372	3214
930.477	3043
930.581	3332
930.685	3150
930.79	3070
930.894	3093
930.998	3100
931.103	3275
931.207	2944
931.311	2948
931.415	2899
931.519	2777
931.623	2804
