Data from test_V78500241_961.txt Node
Date: Fri Mar 25 16:21:51 CST 2022
User: usil
Spectrometer: V785-0024
Trigger mode: 0
Integration Time (sec): 4.000000E-1
Scans to average: 1
Nonlinearity correction enabled: false
Boxcar width: 0
Storing dark spectrum: false
XAxis mode: Wavelengths
Number of Pixels in Spectrum: 1024
>>>>>Begin Spectral Data<<<<<
801.071	2895
801.214	2902
801.356	2876
801.499	2902
801.641	2868
801.783	2899
801.926	3055
802.068	2952
802.211	2975
802.353	3013
802.496	2937
802.638	3005
802.78	3032
802.923	3077
803.065	3017
803.208	2868
803.35	2918
803.492	2941
803.635	2937
803.777	2754
803.919	2861
804.061	3211
804.204	2929
804.346	2910
804.488	2853
804.63	2994
804.773	2838
804.915	2891
805.057	3066
805.199	2944
805.341	2952
805.483	3020
805.626	3020
805.768	2986
805.91	3081
806.052	3077
806.194	3032
806.336	3256
806.478	3066
806.62	2975
806.762	2979
806.904	3036
807.046	3138
807.188	2971
807.33	2918
807.472	2982
807.614	2868
807.756	2975
807.898	2895
808.04	2899
808.182	2994
808.324	2956
808.465	2834
808.607	2861
808.749	2826
808.891	2845
809.033	2979
809.174	2986
809.316	2883
809.458	2891
809.6	2769
809.741	2766
809.883	2781
810.025	2834
810.166	2815
810.308	2823
810.45	2868
810.591	2769
810.733	2762
810.875	2823
811.016	2739
811.158	2743
811.299	2823
811.441	2918
811.582	2849
811.724	2845
811.865	2826
812.007	2899
812.148	2861
812.29	2838
812.431	2902
812.573	2883
812.714	2941
812.855	3028
812.997	3058
813.138	3119
813.279	3009
813.421	2990
813.562	2967
813.703	2876
813.845	2838
813.986	2766
814.127	2708
814.268	2815
814.41	2819
814.551	2773
814.692	2910
814.833	2819
814.974	2872
815.115	2937
815.256	2815
815.397	2785
815.539	2864
815.68	2777
815.821	2777
815.962	2963
816.103	2918
816.244	2876
816.385	2845
816.526	2982
816.666	2914
816.807	2777
816.948	2899
817.089	2899
817.23	2838
817.371	2781
817.512	2781
817.653	2849
817.793	2819
817.934	2910
818.075	2967
818.216	3001
818.356	3051
818.497	2906
818.638	2811
818.778	2819
818.919	2796
819.06	2750
819.2	2887
819.341	2823
819.481	2796
819.622	2902
819.762	3104
819.903	3047
820.043	2883
820.184	2891
820.324	2910
820.465	3001
820.605	2979
820.746	3028
820.886	2937
821.026	3036
821.167	3116
821.307	3214
821.447	3253
821.588	3233
821.728	3211
821.868	3195
822.008	3085
822.149	3173
822.289	3222
822.429	3085
822.569	3093
822.709	3150
822.849	3005
822.99	3085
823.13	3146
823.27	3169
823.41	3142
823.55	3142
823.69	3154
823.83	3165
823.97	3070
824.11	2971
824.25	2986
824.389	3070
824.529	3093
824.669	3085
824.809	3226
824.949	3199
825.089	3226
825.228	3165
825.368	3017
825.508	2918
825.648	2933
825.787	3013
825.927	3017
826.067	2922
826.206	2929
826.346	3028
826.485	3039
826.625	3070
826.765	3253
826.904	3176
827.044	2971
827.183	2880
827.323	2861
827.462	2982
827.601	2906
827.741	2933
827.88	2944
828.02	2872
828.159	3013
828.298	3001
828.437	3161
828.577	3017
828.716	3226
828.855	3066
828.994	2891
829.134	2883
829.273	2922
829.412	2857
829.551	2864
829.69	2880
829.829	2990
829.968	3135
830.107	3024
830.246	3001
830.385	2914
830.524	2826
830.663	2788
830.802	2708
830.941	2640
831.08	2651
831.219	2750
831.357	2788
831.496	2891
831.635	2712
831.774	2655
831.913	2651
832.051	2568
832.19	2560
832.329	2659
832.467	2533
832.606	2473
832.744	2552
832.883	2594
833.022	2583
833.16	2629
833.299	2705
833.437	2697
833.576	2712
833.714	2739
833.852	2667
833.991	2766
834.129	2826
834.267	2845
834.406	2777
834.544	2891
834.682	2872
834.821	2887
834.959	3036
835.097	2861
835.235	3028
835.373	2982
835.511	3020
835.65	2990
835.788	2952
835.926	2826
836.064	2804
836.202	2834
836.34	3062
836.478	3150
836.615	3017
836.753	3108
836.891	3199
837.029	3184
837.167	3100
837.305	3097
837.443	3039
837.58	2952
837.718	3150
837.856	3077
837.993	3028
838.131	3116
838.269	3074
838.406	3119
838.544	3081
838.681	2902
838.819	2876
838.956	2781
839.094	2830
839.231	2891
839.369	3005
839.506	3348
839.643	3180
839.781	3024
839.918	2963
840.055	3043
840.193	3009
840.33	3055
840.467	3112
840.604	3131
840.742	3401
840.879	3043
841.016	3085
841.153	3077
841.29	3325
841.427	3302
841.564	3275
841.701	3306
841.838	3226
841.975	3131
842.112	3222
842.249	3066
842.385	3039
842.522	3279
842.659	3039
842.796	3051
842.933	3062
843.069	3036
843.206	3005
843.343	3184
843.479	3089
843.616	3104
843.752	2910
843.889	2857
844.025	3066
844.162	2864
844.298	3074
844.435	2944
844.571	2895
844.708	3047
844.844	3146
844.98	3230
845.117	3161
845.253	2998
845.389	2998
845.525	3074
845.661	3112
845.798	3005
845.934	3142
846.07	3028
846.206	3211
846.342	3298
846.478	3176
846.614	3058
846.75	3055
846.886	3047
847.022	3245
847.158	3093
847.294	3176
847.429	3294
847.565	3203
847.701	3469
847.837	3032
847.972	3020
848.108	3146
848.244	3131
848.379	2986
848.515	2941
848.65	2914
848.786	2956
848.921	2971
849.057	3093
849.192	3146
849.328	3058
849.463	3142
849.598	3028
849.734	3017
849.869	2979
850.004	2937
850.14	2998
850.275	2899
850.41	2838
850.545	2906
850.68	2952
850.815	3005
850.95	2941
851.085	3146
851.22	3100
851.355	3001
851.49	2986
851.625	2982
851.76	2994
851.895	2914
852.03	2883
852.165	3036
852.299	3070
852.434	3199
852.569	3138
852.703	3142
852.838	3241
852.973	3313
853.107	3321
853.242	3104
853.376	3104
853.511	2963
853.645	3020
853.78	3211
853.914	3077
854.048	3097
854.183	3028
854.317	3116
854.451	3275
854.585	3131
854.72	3081
854.854	3176
854.988	3051
855.122	3119
855.256	2986
855.39	3119
855.524	3237
855.658	3173
855.792	3157
855.926	3180
856.06	3211
856.194	3222
856.327	3150
856.461	3070
856.595	3081
856.729	3066
856.862	3188
856.996	3142
857.13	3173
857.263	3230
857.397	3260
857.53	3093
857.664	3192
857.797	3184
857.931	3283
858.064	3195
858.197	3226
858.331	3154
858.464	3058
858.597	2998
858.731	3089
858.864	3138
858.997	3089
859.13	3157
859.263	3150
859.396	3203
859.529	3055
859.662	3058
859.795	3062
859.928	3138
860.061	3272
860.194	3230
860.327	3116
860.46	3062
860.592	3294
860.725	3253
860.858	3268
860.99	3085
861.123	3070
861.256	3043
861.388	3131
861.521	3808
861.653	2982
861.786	2975
861.918	3001
862.05	3058
862.183	3097
862.315	3135
862.447	3230
862.58	3085
862.712	2941
862.844	2830
862.976	3074
863.108	3013
863.24	3374
863.372	2845
863.504	2929
863.636	2963
863.768	3001
863.9	3020
864.032	2906
864.164	2937
864.296	2982
864.428	3066
864.559	3081
864.691	3077
864.823	3066
864.954	2998
865.086	3028
865.217	2960
865.349	2963
865.48	2994
865.612	3032
865.743	3127
865.875	2944
866.006	2941
866.137	2990
866.269	2925
866.4	2929
866.531	2937
866.662	2910
866.793	2853
866.924	2883
867.055	2963
867.186	2948
867.317	2876
867.448	2819
867.579	2868
867.71	2899
867.841	2815
867.972	2914
868.103	2902
868.233	2883
868.364	2861
868.495	2902
868.625	3039
868.756	3131
868.886	2944
869.017	3017
869.147	3127
869.278	3131
869.408	3032
869.539	3043
869.669	3089
869.799	3043
869.929	3131
870.06	3081
870.19	3336
870.32	3298
870.45	3291
870.58	3340
870.71	3458
870.84	3412
870.97	3264
871.1	3241
871.23	3485
871.36	3428
871.489	3359
871.619	3378
871.749	3428
871.879	3393
872.008	3523
872.138	3340
872.267	3260
872.397	3138
872.526	3085
872.656	2986
872.785	3104
872.915	3188
873.044	3291
873.173	3195
873.303	3218
873.432	3211
873.561	3211
873.69	3157
873.819	3131
873.948	3165
874.077	3100
874.206	3028
874.335	3066
874.464	3176
874.593	3329
874.722	3230
874.851	3393
874.979	3351
875.108	3336
875.237	3169
875.365	3173
875.494	3173
875.623	3207
875.751	3093
875.88	3062
876.008	3142
876.136	3230
876.265	3359
876.393	3504
876.521	3401
876.65	3416
876.778	3325
876.906	3241
877.034	3226
877.162	3241
877.29	3169
877.418	3268
877.546	3207
877.674	3230
877.802	3169
877.93	3207
878.058	3142
878.185	3077
878.313	3211
878.441	3203
878.568	3062
878.696	3112
878.824	3245
878.951	3302
879.079	3447
879.206	3587
879.333	3431
879.461	3325
879.588	3348
879.715	3496
879.842	3591
879.97	3386
880.097	3157
880.224	3150
880.351	3146
880.478	3203
880.605	3184
880.732	3150
880.859	3492
880.986	3264
881.112	3298
881.239	3188
881.366	3085
881.493	3097
881.619	3005
881.746	3047
881.872	3127
881.999	3081
882.125	3112
882.252	3230
882.378	3253
882.505	3424
882.631	3283
882.757	3146
882.883	3195
883.01	3222
883.136	3150
883.262	3138
883.388	3127
883.514	3332
883.64	3329
883.766	3298
883.892	3184
884.018	3157
884.143	3374
884.269	3568
884.395	3161
884.52	3142
884.646	3188
884.772	3089
884.897	3097
885.023	3173
885.148	3332
885.274	3401
885.399	3374
885.524	3256
885.65	3230
885.775	3268
885.9	3233
886.025	3424
886.15	3325
886.275	3302
886.4	3203
886.525	3325
886.65	3298
886.775	3245
886.9	3466
887.025	3618
887.149	3389
887.274	3256
887.399	3135
887.523	3176
887.648	3173
887.773	3203
887.897	3367
888.021	3367
888.146	3283
888.27	3424
888.395	3538
888.519	3409
888.643	3420
888.767	3443
888.891	3336
889.015	3222
889.139	3279
889.263	3230
889.387	3378
889.511	3488
889.635	3439
889.759	3283
889.883	3287
890.006	3370
890.13	3507
890.254	3253
890.377	3393
890.501	3188
890.624	3150
890.748	3306
890.871	3195
890.995	3097
891.118	3093
891.241	3195
891.364	3218
891.488	3310
891.611	3203
891.734	3211
891.857	3272
891.98	3237
892.103	3321
892.226	3253
892.349	3195
892.471	3104
892.594	3211
892.717	3260
892.839	3249
892.962	3279
893.085	3302
893.207	3283
893.33	3188
893.452	3233
893.575	3336
893.697	3245
893.819	3473
893.941	3481
894.064	3435
894.186	3264
894.308	3237
894.43	3405
894.552	3557
894.674	3469
894.796	3237
894.918	3310
895.04	3272
895.161	3424
895.283	3336
895.405	3306
895.526	3367
895.648	3397
895.769	3401
895.891	3447
896.012	3462
896.134	3431
896.255	3443
896.376	3370
896.498	3310
896.619	3412
896.74	3355
896.861	3401
896.982	3675
897.103	3861
897.224	3584
897.345	3488
897.466	3462
897.587	3500
897.708	3603
897.828	3515
897.949	3424
898.07	3310
898.19	3389
898.311	3595
898.431	3409
898.552	3473
898.672	3534
898.792	3580
898.913	3469
899.033	3378
899.153	3237
899.273	3214
899.393	3241
899.513	3253
899.633	3294
899.753	3351
899.873	3298
899.993	3367
900.113	3310
900.232	3336
900.352	3302
900.472	3268
900.591	3180
900.711	3272
900.83	3230
900.95	3393
901.069	3469
901.189	3378
901.308	3161
901.427	3108
901.546	3192
901.665	3306
901.784	3367
901.904	3173
902.023	3169
902.141	2986
902.26	2979
902.379	3135
902.498	3047
902.617	3081
902.735	3176
902.854	3192
902.973	3237
903.091	3047
903.21	3066
903.328	3188
903.446	3112
903.565	3081
903.683	3192
903.801	3097
903.919	3245
904.038	3260
904.156	3150
904.274	3294
904.392	3279
904.51	3294
904.627	3382
904.745	3435
904.863	3488
904.981	3241
905.098	3180
905.216	3249
905.334	3260
905.451	3268
905.569	3329
905.686	3409
905.803	3496
905.921	3313
906.038	3431
906.155	3363
906.272	3317
906.389	3329
906.506	3264
906.623	3279
906.74	3264
906.857	3161
906.974	3253
907.091	3435
907.208	3587
907.324	3515
907.441	3431
907.557	3256
907.674	3249
907.79	3230
907.907	3291
908.023	3409
908.139	3409
908.256	3401
908.372	3397
908.488	3370
908.604	3291
908.72	3264
908.836	3310
908.952	3310
909.068	3313
909.184	3515
909.3	3397
909.415	3538
909.531	3511
909.647	3348
909.762	3329
909.878	3321
909.993	3409
910.108	3374
910.224	3336
910.339	3466
910.454	3321
910.57	3363
910.685	3332
910.8	3644
910.915	3625
911.03	3469
911.145	3321
911.259	3302
911.374	3351
911.489	3283
911.604	3249
911.718	3180
911.833	3184
911.947	3062
912.062	3028
912.176	3203
912.291	3237
912.405	3233
912.519	3443
912.633	3523
912.748	3378
912.862	3310
912.976	3199
913.09	3123
913.204	3173
913.318	3230
913.431	3332
913.545	3359
913.659	3401
913.772	3382
913.886	3264
914	3218
914.113	3355
914.226	3462
914.34	3401
914.453	3253
914.566	3431
914.68	3340
914.793	3321
914.906	3214
915.019	3154
915.132	3116
915.245	3222
915.358	3256
915.47	3294
915.583	3268
915.696	3332
915.809	3454
915.921	3447
916.034	3298
916.146	3272
916.259	3287
916.371	3431
916.483	3424
916.595	3287
916.708	3359
916.82	3370
916.932	3382
917.044	3340
917.156	3378
917.268	3279
917.38	3313
917.491	3340
917.603	3420
917.715	3447
917.826	3519
917.938	3393
918.049	3275
918.161	3469
918.272	3591
918.384	3584
918.495	3542
918.606	3393
918.717	3317
918.828	3401
918.939	3428
919.05	3351
919.161	3397
919.272	3165
919.383	3351
919.494	3538
919.604	3671
919.715	3492
919.826	3458
919.936	3473
920.047	3584
920.157	3587
920.267	3800
920.378	3618
920.488	3576
920.598	3793
920.708	3987
920.818	3808
920.928	3873
921.038	4013
921.148	4025
921.258	3789
921.368	3652
921.477	3580
921.587	3553
921.697	3500
921.806	3644
921.916	3507
922.025	3386
922.134	3428
922.244	3317
922.353	3488
922.462	3302
922.571	3268
922.68	3142
922.789	3135
922.898	3157
923.007	3131
923.116	3253
923.224	3165
923.333	3199
923.442	3150
923.55	3127
923.659	3154
923.767	3211
923.876	3123
923.984	3287
924.092	3154
924.201	3237
924.309	3230
924.417	3279
924.525	3253
924.633	3302
924.741	4211
924.849	3085
924.956	3321
925.064	3150
925.172	3066
925.279	3104
925.387	3214
925.494	3241
925.602	3340
925.709	3370
925.816	3264
925.924	3329
926.031	3412
926.138	3332
926.245	3420
926.352	3287
926.459	3424
926.566	3507
926.673	3355
926.779	3294
926.886	3287
926.993	3146
927.099	3138
927.206	3138
927.312	3146
927.419	3264
927.525	3237
927.631	3283
927.737	3169
927.843	3154
927.95	3062
928.056	3150
928.162	3195
928.267	3291
928.373	3892
928.479	3363
928.585	3131
928.69	3211
928.796	3268
928.901	3195
929.007	3097
929.112	3237
929.218	3218
929.323	3176
929.428	3245
929.533	3332
929.638	3146
929.743	3203
929.848	3306
929.953	3245
930.058	3173
930.163	3043
930.267	3074
930.372	3218
930.477	3036
930.581	3359
930.685	3218
930.79	3104
930.894	3150
930.998	3146
931.103	3302
931.207	2998
931.311	2994
931.415	2956
931.519	2823
931.623	2811
