Data from test_V78500241_930.txt Node
Date: Fri Mar 25 16:21:38 CST 2022
User: usil
Spectrometer: V785-0024
Trigger mode: 0
Integration Time (sec): 4.000000E-1
Scans to average: 1
Nonlinearity correction enabled: false
Boxcar width: 0
Storing dark spectrum: false
XAxis mode: Wavelengths
Number of Pixels in Spectrum: 1024
>>>>>Begin Spectral Data<<<<<
801.071	2925
801.214	2952
801.356	2857
801.499	2883
801.641	2861
801.783	2944
801.926	3039
802.068	2960
802.211	2990
802.353	3013
802.496	2967
802.638	3009
802.78	3028
802.923	3116
803.065	2982
803.208	2883
803.35	2925
803.492	2952
803.635	2925
803.777	2750
803.919	2880
804.061	3169
804.204	2952
804.346	2902
804.488	2834
804.63	2979
804.773	2906
804.915	2922
805.057	3058
805.199	2906
805.341	2967
805.483	3051
805.626	2990
805.768	2925
805.91	3032
806.052	3097
806.194	3047
806.336	3222
806.478	2998
806.62	2937
806.762	2971
806.904	3097
807.046	3173
807.188	2971
807.33	2929
807.472	2998
807.614	2925
807.756	2963
807.898	2910
808.04	2887
808.182	2975
808.324	2971
808.465	2899
808.607	2910
808.749	2823
808.891	2849
809.033	3005
809.174	2975
809.316	2891
809.458	2887
809.6	2796
809.741	2731
809.883	2773
810.025	2830
810.166	2811
810.308	2830
810.45	2857
810.591	2762
810.733	2777
810.875	2815
811.016	2773
811.158	2750
811.299	2788
811.441	2914
811.582	2925
811.724	2830
811.865	2830
812.007	2922
812.148	2883
812.29	2826
812.431	2861
812.573	2922
812.714	2956
812.855	3066
812.997	3051
813.138	3135
813.279	3058
813.421	2982
813.562	2956
813.703	2830
813.845	2929
813.986	2804
814.127	2731
814.268	2796
814.41	2811
814.551	2830
814.692	2902
814.833	2804
814.974	2906
815.115	2952
815.256	2849
815.397	2792
815.539	2842
815.68	2785
815.821	2792
815.962	2933
816.103	2899
816.244	2864
816.385	2864
816.526	2948
816.666	2925
816.807	2758
816.948	2910
817.089	2895
817.23	2838
817.371	2811
817.512	2788
817.653	2830
817.793	2857
817.934	2845
818.075	2971
818.216	2971
818.356	3020
818.497	2880
818.638	2792
818.778	2849
818.919	2781
819.06	2758
819.2	2883
819.341	2788
819.481	2804
819.622	2914
819.762	3066
819.903	3001
820.043	2918
820.184	2887
820.324	2891
820.465	3036
820.605	3001
820.746	3047
820.886	2914
821.026	3089
821.167	3154
821.307	3279
821.447	3264
821.588	3249
821.728	3192
821.868	3169
822.008	3062
822.149	3203
822.289	3207
822.429	3097
822.569	3066
822.709	3192
822.849	3036
822.99	3070
823.13	3146
823.27	3218
823.41	3097
823.55	3138
823.69	3123
823.83	3184
823.97	3089
824.11	2986
824.25	2967
824.389	3077
824.529	3127
824.669	3085
824.809	3157
824.949	3245
825.089	3226
825.228	3138
825.368	2982
825.508	2982
825.648	2990
825.787	3001
825.927	3032
826.067	2979
826.206	2975
826.346	3017
826.485	3062
826.625	3085
826.765	3222
826.904	3222
827.044	2960
827.183	2899
827.323	2861
827.462	2990
827.601	2937
827.741	2910
827.88	2944
828.02	2819
828.159	2982
828.298	3028
828.437	3074
828.577	3058
828.716	3222
828.855	3032
828.994	2906
829.134	2891
829.273	2933
829.412	2880
829.551	2861
829.69	2883
829.829	2982
829.968	3154
830.107	3005
830.246	3013
830.385	2914
830.524	2864
830.663	2819
830.802	2712
830.941	2651
831.08	2625
831.219	2766
831.357	2735
831.496	2941
831.635	2750
831.774	2670
831.913	2648
832.051	2556
832.19	2556
832.329	2670
832.467	2514
832.606	2488
832.744	2579
832.883	2571
833.022	2602
833.16	2640
833.299	2678
833.437	2670
833.576	2716
833.714	2743
833.852	2762
833.991	2743
834.129	2876
834.267	2826
834.406	2769
834.544	2872
834.682	2868
834.821	2845
834.959	3039
835.097	2899
835.235	3047
835.373	3001
835.511	3013
835.65	2979
835.788	3001
835.926	2834
836.064	2823
836.202	2857
836.34	3070
836.478	3157
836.615	3039
836.753	3112
836.891	3199
837.029	3195
837.167	3100
837.305	3085
837.443	3020
837.58	2967
837.718	3146
837.856	3051
837.993	3009
838.131	3146
838.269	3108
838.406	3085
838.544	3058
838.681	2960
838.819	2902
838.956	2830
839.094	2845
839.231	2910
839.369	3028
839.506	3340
839.643	3184
839.781	2986
839.918	2971
840.055	3104
840.193	2979
840.33	3062
840.467	3135
840.604	3150
840.742	3416
840.879	3077
841.016	3017
841.153	3104
841.29	3344
841.427	3321
841.564	3279
841.701	3298
841.838	3203
841.975	3154
842.112	3211
842.249	3100
842.385	3058
842.522	3253
842.659	3070
842.796	3017
842.933	3135
843.069	3055
843.206	3036
843.343	3180
843.479	3135
843.616	3154
843.752	2895
843.889	2880
844.025	3097
844.162	2876
844.298	3089
844.435	2937
844.571	2910
844.708	3074
844.844	3195
844.98	3203
845.117	3195
845.253	3024
845.389	3013
845.525	3085
845.661	3085
845.798	3009
845.934	3112
846.07	3020
846.206	3192
846.342	3287
846.478	3214
846.614	3123
846.75	3036
846.886	3058
847.022	3207
847.158	3123
847.294	3192
847.429	3211
847.565	3192
847.701	3500
847.837	3013
847.972	3028
848.108	3131
848.244	3146
848.379	2982
848.515	2948
848.65	2933
848.786	2941
848.921	2986
849.057	3085
849.192	3142
849.328	3043
849.463	3131
849.598	3062
849.734	3047
849.869	2956
850.004	2922
850.14	2971
850.275	2922
850.41	2838
850.545	2864
850.68	2941
850.815	2963
850.95	2994
851.085	3188
851.22	3089
851.355	3017
851.49	3005
851.625	3001
851.76	2998
851.895	2933
852.03	2925
852.165	3020
852.299	3119
852.434	3146
852.569	3112
852.703	3146
852.838	3310
852.973	3340
853.107	3325
853.242	3100
853.376	3074
853.511	2956
853.645	3039
853.78	3211
853.914	3077
854.048	3116
854.183	3093
854.317	3146
854.451	3275
854.585	3093
854.72	3058
854.854	3203
854.988	3085
855.122	3047
855.256	2982
855.39	3093
855.524	3218
855.658	3165
855.792	3165
855.926	3188
856.06	3203
856.194	3279
856.327	3131
856.461	3036
856.595	3104
856.729	3081
856.862	3264
856.996	3142
857.13	3173
857.263	3199
857.397	3264
857.53	3108
857.664	3169
857.797	3211
857.931	3249
858.064	3146
858.197	3214
858.331	3112
858.464	3077
858.597	2986
858.731	3097
858.864	3127
858.997	3081
859.13	3154
859.263	3184
859.396	3199
859.529	3085
859.662	3085
859.795	3017
859.928	3119
860.061	3256
860.194	3268
860.327	3142
860.46	3093
860.592	3222
860.725	3241
860.858	3218
860.99	3085
861.123	3032
861.256	3066
861.388	3161
861.521	3846
861.653	3058
861.786	2982
861.918	3001
862.05	3024
862.183	3108
862.315	3146
862.447	3195
862.58	3058
862.712	2948
862.844	2853
862.976	2998
863.108	2967
863.24	3435
863.372	2887
863.504	2967
863.636	2910
863.768	3009
863.9	2941
864.032	2902
864.164	2960
864.296	3013
864.428	3089
864.559	3108
864.691	3077
864.823	3112
864.954	3028
865.086	3036
865.217	3013
865.349	2925
865.48	2918
865.612	3032
865.743	3112
865.875	2952
866.006	2952
866.137	2967
866.269	2937
866.4	2910
866.531	2899
866.662	2910
866.793	2872
866.924	2910
867.055	2952
867.186	2883
867.317	2887
867.448	2853
867.579	2830
867.71	2804
867.841	2853
867.972	2902
868.103	2918
868.233	2876
868.364	2880
868.495	2902
868.625	3074
868.756	3161
868.886	2963
869.017	3005
869.147	3165
869.278	3165
869.408	3036
869.539	3066
869.669	3108
869.799	3024
869.929	3112
870.06	3112
870.19	3329
870.32	3291
870.45	3317
870.58	3355
870.71	3389
870.84	3443
870.97	3272
871.1	3237
871.23	3511
871.36	3473
871.489	3340
871.619	3382
871.749	3409
871.879	3439
872.008	3485
872.138	3355
872.267	3275
872.397	3131
872.526	3070
872.656	3039
872.785	3066
872.915	3230
873.044	3329
873.173	3207
873.303	3253
873.432	3207
873.561	3226
873.69	3150
873.819	3135
873.948	3173
874.077	3055
874.206	3066
874.335	3077
874.464	3184
874.593	3374
874.722	3214
874.851	3355
874.979	3291
875.108	3298
875.237	3207
875.365	3085
875.494	3176
875.623	3214
875.751	3077
875.88	3085
876.008	3180
876.136	3180
876.265	3374
876.393	3473
876.521	3386
876.65	3393
876.778	3294
876.906	3241
877.034	3176
877.162	3207
877.29	3154
877.418	3222
877.546	3233
877.674	3222
877.802	3233
877.93	3203
878.058	3161
878.185	3108
878.313	3211
878.441	3184
878.568	3047
878.696	3154
878.824	3237
878.951	3279
879.079	3428
879.206	3618
879.333	3496
879.461	3321
879.588	3348
879.715	3466
879.842	3549
879.97	3359
880.097	3173
880.224	3131
880.351	3188
880.478	3214
880.605	3188
880.732	3192
880.859	3488
880.986	3287
881.112	3321
881.239	3176
881.366	3070
881.493	3039
881.619	3013
881.746	3081
881.872	3100
881.999	3131
882.125	3108
882.252	3233
882.378	3298
882.505	3405
882.631	3275
882.757	3176
882.883	3207
883.01	3226
883.136	3184
883.262	3100
883.388	3127
883.514	3310
883.64	3370
883.766	3325
883.892	3169
884.018	3199
884.143	3435
884.269	3534
884.395	3165
884.52	3138
884.646	3146
884.772	3157
884.897	3097
885.023	3192
885.148	3332
885.274	3443
885.399	3374
885.524	3283
885.65	3275
885.775	3294
885.9	3275
886.025	3500
886.15	3336
886.275	3294
886.4	3245
886.525	3336
886.65	3241
886.775	3272
886.9	3466
887.025	3625
887.149	3409
887.274	3203
887.399	3188
887.523	3199
887.648	3192
887.773	3180
887.897	3374
888.021	3386
888.146	3283
888.27	3469
888.395	3523
888.519	3412
888.643	3469
888.767	3439
888.891	3279
889.015	3218
889.139	3275
889.263	3226
889.387	3428
889.511	3485
889.635	3420
889.759	3294
889.883	3310
890.006	3378
890.13	3511
890.254	3294
890.377	3317
890.501	3203
890.624	3169
890.748	3268
890.871	3138
890.995	3108
891.118	3093
891.241	3173
891.364	3230
891.488	3321
891.611	3138
891.734	3222
891.857	3294
891.98	3226
892.103	3332
892.226	3275
892.349	3199
892.471	3112
892.594	3253
892.717	3329
892.839	3302
892.962	3260
893.085	3386
893.207	3264
893.33	3127
893.452	3195
893.575	3340
893.697	3283
893.819	3496
893.941	3568
894.064	3458
894.186	3272
894.308	3264
894.43	3473
894.552	3511
894.674	3466
894.796	3260
894.918	3272
895.04	3291
895.161	3458
895.283	3382
895.405	3302
895.526	3348
895.648	3420
895.769	3386
895.891	3409
896.012	3473
896.134	3492
896.255	3416
896.376	3367
896.498	3344
896.619	3431
896.74	3344
896.861	3393
896.982	3641
897.103	3854
897.224	3591
897.345	3496
897.466	3424
897.587	3511
897.708	3603
897.828	3500
897.949	3439
898.07	3329
898.19	3420
898.311	3561
898.431	3443
898.552	3542
898.672	3603
898.792	3542
898.913	3507
899.033	3393
899.153	3256
899.273	3173
899.393	3256
899.513	3340
899.633	3302
899.753	3313
899.873	3306
899.993	3367
900.113	3329
900.232	3344
900.352	3340
900.472	3310
900.591	3176
900.711	3294
900.83	3249
900.95	3409
901.069	3511
901.189	3370
901.308	3138
901.427	3150
901.546	3157
901.665	3302
901.784	3329
901.904	3218
902.023	3154
902.141	2994
902.26	2963
902.379	3131
902.498	3066
902.617	3055
902.735	3142
902.854	3203
902.973	3199
903.091	3058
903.21	3047
903.328	3138
903.446	3077
903.565	3066
903.683	3165
903.801	3100
903.919	3218
904.038	3268
904.156	3184
904.274	3291
904.392	3272
904.51	3310
904.627	3313
904.745	3454
904.863	3530
904.981	3264
905.098	3165
905.216	3249
905.334	3287
905.451	3294
905.569	3294
905.686	3412
905.803	3428
905.921	3294
906.038	3420
906.155	3355
906.272	3287
906.389	3332
906.506	3245
906.623	3222
906.74	3230
906.857	3176
906.974	3245
907.091	3412
907.208	3545
907.324	3477
907.441	3412
907.557	3195
907.674	3253
907.79	3199
907.907	3253
908.023	3405
908.139	3409
908.256	3321
908.372	3359
908.488	3302
908.604	3245
908.72	3241
908.836	3298
908.952	3245
909.068	3359
909.184	3443
909.3	3374
909.415	3485
909.531	3473
909.647	3249
909.762	3256
909.878	3253
909.993	3336
910.108	3313
910.224	3363
910.339	3340
910.454	3325
910.57	3302
910.685	3218
910.8	3557
910.915	3545
911.03	3439
911.145	3260
911.259	3256
911.374	3298
911.489	3245
911.604	3222
911.718	3123
911.833	3142
911.947	3043
912.062	2990
912.176	3131
912.291	3180
912.405	3222
912.519	3397
912.633	3496
912.748	3310
912.862	3283
912.976	3157
913.09	3058
913.204	3146
913.318	3195
913.431	3336
913.545	3325
913.659	3409
913.772	3325
913.886	3184
914	3176
914.113	3367
914.226	3428
914.34	3340
914.453	3233
914.566	3397
914.68	3237
914.793	3351
914.906	3165
915.019	3093
915.132	3039
915.245	3207
915.358	3214
915.47	3230
915.583	3222
915.696	3279
915.809	3428
915.921	3367
916.034	3264
916.146	3226
916.259	3218
916.371	3397
916.483	3344
916.595	3272
916.708	3332
916.82	3298
916.932	3351
917.044	3359
917.156	3336
917.268	3256
917.38	3291
917.491	3291
917.603	3363
917.715	3416
917.826	3458
917.938	3359
918.049	3211
918.161	3439
918.272	3568
918.384	3564
918.495	3473
918.606	3348
918.717	3283
918.828	3359
918.939	3405
919.05	3306
919.161	3340
919.272	3192
919.383	3279
919.494	3477
919.604	3629
919.715	3466
919.826	3389
919.936	3488
920.047	3587
920.157	3561
920.267	3743
920.378	3610
920.488	3534
920.598	3781
920.708	3949
920.818	3842
920.928	3816
921.038	4032
921.148	4010
921.258	3701
921.368	3637
921.477	3587
921.587	3580
921.697	3439
921.806	3644
921.916	3496
922.025	3367
922.134	3378
922.244	3272
922.353	3443
922.462	3237
922.571	3218
922.68	3028
922.789	3066
922.898	3138
923.007	3085
923.116	3176
923.224	3142
923.333	3180
923.442	3100
923.55	3074
923.659	3165
923.767	3188
923.876	3119
923.984	3233
924.092	3074
924.201	3180
924.309	3256
924.417	3237
924.525	3203
924.633	3214
924.741	4169
924.849	3058
924.956	3192
925.064	3074
925.172	3043
925.279	3074
925.387	3161
925.494	3184
925.602	3321
925.709	3272
925.816	3207
925.924	3249
926.031	3393
926.138	3329
926.245	3359
926.352	3249
926.459	3370
926.566	3454
926.673	3325
926.779	3245
926.886	3233
926.993	3154
927.099	3127
927.206	3085
927.312	3081
927.419	3233
927.525	3192
927.631	3249
927.737	3123
927.843	3127
927.95	3009
928.056	3135
928.162	3146
928.267	3226
928.373	3876
928.479	3336
928.585	3036
928.69	3218
928.796	3283
928.901	3131
929.007	3020
929.112	3165
929.218	3169
929.323	3116
929.428	3112
929.533	3332
929.638	3104
929.743	3154
929.848	3211
929.953	3207
930.058	3150
930.163	2994
930.267	3032
930.372	3173
930.477	3047
930.581	3298
930.685	3176
930.79	3017
930.894	3108
930.998	3104
931.103	3268
931.207	2960
931.311	2914
931.415	2948
931.519	2781
931.623	2781
