Data from test_V78500241_391.txt Node
Date: Fri Mar 25 16:17:54 CST 2022
User: usil
Spectrometer: V785-0024
Trigger mode: 0
Integration Time (sec): 4.000000E-1
Scans to average: 1
Nonlinearity correction enabled: false
Boxcar width: 0
Storing dark spectrum: false
XAxis mode: Wavelengths
Number of Pixels in Spectrum: 1024
>>>>>Begin Spectral Data<<<<<
801.071	2918
801.214	2910
801.356	2883
801.499	2849
801.641	2857
801.783	2929
801.926	3036
802.068	2979
802.211	2960
802.353	3001
802.496	2933
802.638	2990
802.78	3017
802.923	3100
803.065	3005
803.208	2857
803.35	2906
803.492	2918
803.635	2880
803.777	2735
803.919	2864
804.061	3199
804.204	2937
804.346	2906
804.488	2815
804.63	2994
804.773	2849
804.915	2895
805.057	3077
805.199	2872
805.341	2982
805.483	3017
805.626	3001
805.768	2937
805.91	3081
806.052	3131
806.194	3024
806.336	3222
806.478	3009
806.62	2895
806.762	2948
806.904	3017
807.046	3165
807.188	3009
807.33	2902
807.472	2998
807.614	2910
807.756	2979
807.898	2891
808.04	2895
808.182	2971
808.324	2948
808.465	2880
808.607	2876
808.749	2804
808.891	2826
809.033	2971
809.174	2975
809.316	2868
809.458	2899
809.6	2746
809.741	2735
809.883	2746
810.025	2826
810.166	2857
810.308	2845
810.45	2864
810.591	2758
810.733	2777
810.875	2804
811.016	2796
811.158	2777
811.299	2830
811.441	2918
811.582	2925
811.724	2807
811.865	2834
812.007	2925
812.148	2895
812.29	2830
812.431	2895
812.573	2918
812.714	2922
812.855	3051
812.997	3024
813.138	3104
813.279	3013
813.421	2944
813.562	2994
813.703	2880
813.845	2902
813.986	2781
814.127	2739
814.268	2815
814.41	2811
814.551	2773
814.692	2864
814.833	2804
814.974	2849
815.115	2971
815.256	2830
815.397	2792
815.539	2853
815.68	2758
815.821	2785
815.962	2952
816.103	2883
816.244	2864
816.385	2880
816.526	2952
816.666	2906
816.807	2758
816.948	2876
817.089	2872
817.23	2872
817.371	2811
817.512	2785
817.653	2845
817.793	2834
817.934	2880
818.075	2963
818.216	2998
818.356	3009
818.497	2872
818.638	2792
818.778	2864
818.919	2781
819.06	2766
819.2	2895
819.341	2830
819.481	2834
819.622	2925
819.762	3116
819.903	3036
820.043	2941
820.184	2899
820.324	2883
820.465	3024
820.605	2986
820.746	3028
820.886	2925
821.026	3108
821.167	3195
821.307	3226
821.447	3279
821.588	3233
821.728	3199
821.868	3192
822.008	3070
822.149	3211
822.289	3241
822.429	3043
822.569	3119
822.709	3195
822.849	3036
822.99	3009
823.13	3127
823.27	3192
823.41	3112
823.55	3161
823.69	3138
823.83	3165
823.97	3116
824.11	3001
824.25	2990
824.389	3028
824.529	3127
824.669	3066
824.809	3176
824.949	3237
825.089	3249
825.228	3146
825.368	2982
825.508	2967
825.648	2982
825.787	2982
825.927	3013
826.067	2952
826.206	2937
826.346	3055
826.485	3039
826.625	3108
826.765	3253
826.904	3199
827.044	2998
827.183	2922
827.323	2868
827.462	2956
827.601	2910
827.741	2914
827.88	2960
828.02	2823
828.159	2975
828.298	3039
828.437	3074
828.577	3024
828.716	3233
828.855	3085
828.994	2944
829.134	2883
829.273	2895
829.412	2842
829.551	2864
829.69	2876
829.829	2956
829.968	3097
830.107	2986
830.246	3009
830.385	2937
830.524	2842
830.663	2804
830.802	2750
830.941	2674
831.08	2636
831.219	2746
831.357	2739
831.496	2952
831.635	2705
831.774	2644
831.913	2693
832.051	2522
832.19	2571
832.329	2674
832.467	2522
832.606	2480
832.744	2583
832.883	2598
833.022	2575
833.16	2644
833.299	2697
833.437	2708
833.576	2701
833.714	2716
833.852	2739
833.991	2766
834.129	2823
834.267	2815
834.406	2777
834.544	2857
834.682	2872
834.821	2842
834.959	3058
835.097	2887
835.235	3028
835.373	2979
835.511	2979
835.65	2956
835.788	2944
835.926	2845
836.064	2785
836.202	2830
836.34	3055
836.478	3119
836.615	3039
836.753	3093
836.891	3211
837.029	3165
837.167	3085
837.305	3058
837.443	3074
837.58	2956
837.718	3097
837.856	3047
837.993	3028
838.131	3081
838.269	3074
838.406	3116
838.544	3070
838.681	2948
838.819	2887
838.956	2823
839.094	2796
839.231	2883
839.369	3017
839.506	3409
839.643	3203
839.781	3017
839.918	2944
840.055	3047
840.193	3039
840.33	3024
840.467	3085
840.604	3150
840.742	3405
840.879	3058
841.016	3062
841.153	3116
841.29	3313
841.427	3272
841.564	3298
841.701	3275
841.838	3195
841.975	3192
842.112	3214
842.249	3074
842.385	3047
842.522	3249
842.659	3077
842.796	3009
842.933	3070
843.069	3036
843.206	3028
843.343	3173
843.479	3116
843.616	3142
843.752	2872
843.889	2857
844.025	3108
844.162	2861
844.298	3062
844.435	2941
844.571	2929
844.708	3074
844.844	3157
844.98	3241
845.117	3184
845.253	3055
845.389	3005
845.525	3085
845.661	3097
845.798	3009
845.934	3074
846.07	3032
846.206	3218
846.342	3298
846.478	3222
846.614	3081
846.75	3017
846.886	2960
847.022	3241
847.158	3119
847.294	3150
847.429	3233
847.565	3203
847.701	3481
847.837	2990
847.972	2994
848.108	3173
848.244	3104
848.379	2994
848.515	2918
848.65	2925
848.786	2979
848.921	2990
849.057	3097
849.192	3154
849.328	3024
849.463	3058
849.598	3085
849.734	3055
849.869	2971
850.004	2933
850.14	2975
850.275	2891
850.41	2826
850.545	2880
850.68	2918
850.815	2963
850.95	2982
851.085	3150
851.22	3074
851.355	2990
851.49	2982
851.625	2975
851.76	3001
851.895	2929
852.03	2910
852.165	3005
852.299	3104
852.434	3146
852.569	3097
852.703	3188
852.838	3233
852.973	3340
853.107	3325
853.242	3157
853.376	3116
853.511	2971
853.645	3039
853.78	3211
853.914	3138
854.048	3112
854.183	3081
854.317	3119
854.451	3332
854.585	3135
854.72	3039
854.854	3195
854.988	3036
855.122	3112
855.256	3024
855.39	3112
855.524	3249
855.658	3135
855.792	3154
855.926	3176
856.06	3222
856.194	3264
856.327	3176
856.461	3074
856.595	3085
856.729	3039
856.862	3199
856.996	3131
857.13	3207
857.263	3237
857.397	3264
857.53	3138
857.664	3173
857.797	3195
857.931	3237
858.064	3131
858.197	3203
858.331	3131
858.464	3097
858.597	2994
858.731	3127
858.864	3108
858.997	3070
859.13	3173
859.263	3184
859.396	3180
859.529	3055
859.662	3089
859.795	3032
859.928	3142
860.061	3256
860.194	3249
860.327	3127
860.46	3100
860.592	3253
860.725	3256
860.858	3245
860.99	3089
861.123	3024
861.256	3036
861.388	3173
861.521	3861
861.653	2998
861.786	2975
861.918	2998
862.05	3058
862.183	3112
862.315	3165
862.447	3218
862.58	3074
862.712	2948
862.844	2868
862.976	3028
863.108	3005
863.24	3401
863.372	2861
863.504	2975
863.636	2944
863.768	3051
863.9	2925
864.032	2933
864.164	2922
864.296	3039
864.428	3097
864.559	3085
864.691	3051
864.823	3062
864.954	3028
865.086	3009
865.217	2990
865.349	2941
865.48	2971
865.612	3024
865.743	3146
865.875	2963
866.006	2906
866.137	2986
866.269	2948
866.4	2933
866.531	2937
866.662	2906
866.793	2876
866.924	2906
867.055	2941
867.186	2887
867.317	2868
867.448	2838
867.579	2823
867.71	2830
867.841	2815
867.972	2906
868.103	2925
868.233	2876
868.364	2922
868.495	2868
868.625	3074
868.756	3184
868.886	2960
869.017	3013
869.147	3195
869.278	3173
869.408	3036
869.539	3009
869.669	3097
869.799	3051
869.929	3127
870.06	3116
870.19	3313
870.32	3283
870.45	3306
870.58	3359
870.71	3469
870.84	3488
870.97	3272
871.1	3230
871.23	3447
871.36	3458
871.489	3351
871.619	3386
871.749	3439
871.879	3443
872.008	3488
872.138	3367
872.267	3253
872.397	3097
872.526	3093
872.656	3024
872.785	3066
872.915	3218
873.044	3344
873.173	3203
873.303	3241
873.432	3214
873.561	3218
873.69	3127
873.819	3165
873.948	3207
874.077	3142
874.206	3055
874.335	3112
874.464	3211
874.593	3294
874.722	3268
874.851	3420
874.979	3325
875.108	3332
875.237	3203
875.365	3184
875.494	3161
875.623	3275
875.751	3055
875.88	3112
876.008	3211
876.136	3237
876.265	3359
876.393	3485
876.521	3443
876.65	3397
876.778	3329
876.906	3245
877.034	3195
877.162	3237
877.29	3161
877.418	3249
877.546	3237
877.674	3207
877.802	3264
877.93	3226
878.058	3116
878.185	3116
878.313	3199
878.441	3203
878.568	3077
878.696	3154
878.824	3241
878.951	3291
879.079	3405
879.206	3637
879.333	3443
879.461	3355
879.588	3332
879.715	3496
879.842	3576
879.97	3378
880.097	3173
880.224	3119
880.351	3165
880.478	3245
880.605	3199
880.732	3180
880.859	3526
880.986	3298
881.112	3306
881.239	3199
881.366	3085
881.493	3017
881.619	3028
881.746	3055
881.872	3097
881.999	3070
882.125	3161
882.252	3214
882.378	3302
882.505	3420
882.631	3275
882.757	3157
882.883	3233
883.01	3203
883.136	3157
883.262	3081
883.388	3127
883.514	3321
883.64	3355
883.766	3298
883.892	3207
884.018	3241
884.143	3412
884.269	3542
884.395	3222
884.52	3154
884.646	3161
884.772	3100
884.897	3070
885.023	3203
885.148	3344
885.274	3424
885.399	3401
885.524	3264
885.65	3268
885.775	3310
885.9	3245
886.025	3447
886.15	3401
886.275	3283
886.4	3207
886.525	3298
886.65	3237
886.775	3287
886.9	3507
887.025	3641
887.149	3431
887.274	3275
887.399	3188
887.523	3188
887.648	3135
887.773	3195
887.897	3317
888.021	3405
888.146	3294
888.27	3431
888.395	3526
888.519	3435
888.643	3428
888.767	3458
888.891	3306
889.015	3211
889.139	3264
889.263	3260
889.387	3389
889.511	3549
889.635	3393
889.759	3287
889.883	3264
890.006	3393
890.13	3469
890.254	3264
890.377	3351
890.501	3154
890.624	3207
890.748	3302
890.871	3173
890.995	3123
891.118	3043
891.241	3161
891.364	3249
891.488	3340
891.611	3176
891.734	3264
891.857	3260
891.98	3233
892.103	3389
892.226	3302
892.349	3192
892.471	3116
892.594	3260
892.717	3268
892.839	3287
892.962	3275
893.085	3367
893.207	3256
893.33	3176
893.452	3188
893.575	3359
893.697	3253
893.819	3447
893.941	3504
894.064	3450
894.186	3291
894.308	3268
894.43	3409
894.552	3526
894.674	3469
894.796	3264
894.918	3287
895.04	3279
895.161	3412
895.283	3386
895.405	3291
895.526	3397
895.648	3382
895.769	3420
895.891	3458
896.012	3500
896.134	3469
896.255	3382
896.376	3386
896.498	3351
896.619	3450
896.74	3363
896.861	3428
896.982	3736
897.103	3838
897.224	3603
897.345	3534
897.466	3454
897.587	3519
897.708	3614
897.828	3557
897.949	3439
898.07	3348
898.19	3420
898.311	3568
898.431	3397
898.552	3481
898.672	3561
898.792	3614
898.913	3507
899.033	3405
899.153	3268
899.273	3192
899.393	3306
899.513	3325
899.633	3313
899.753	3348
899.873	3310
899.993	3382
900.113	3317
900.232	3401
900.352	3336
900.472	3260
900.591	3256
900.711	3268
900.83	3218
900.95	3454
901.069	3458
901.189	3370
901.308	3211
901.427	3123
901.546	3226
901.665	3313
901.784	3351
901.904	3195
902.023	3146
902.141	3028
902.26	3009
902.379	3150
902.498	3074
902.617	3047
902.735	3203
902.854	3237
902.973	3188
903.091	3017
903.21	3066
903.328	3157
903.446	3127
903.565	3097
903.683	3184
903.801	3097
903.919	3218
904.038	3264
904.156	3142
904.274	3272
904.392	3260
904.51	3260
904.627	3329
904.745	3428
904.863	3477
904.981	3306
905.098	3142
905.216	3230
905.334	3298
905.451	3256
905.569	3279
905.686	3435
905.803	3447
905.921	3279
906.038	3378
906.155	3389
906.272	3306
906.389	3321
906.506	3245
906.623	3176
906.74	3302
906.857	3180
906.974	3275
907.091	3458
907.208	3580
907.324	3458
907.441	3382
907.557	3237
907.674	3207
907.79	3222
907.907	3256
908.023	3374
908.139	3443
908.256	3321
908.372	3363
908.488	3336
908.604	3283
908.72	3245
908.836	3283
908.952	3264
909.068	3313
909.184	3466
909.3	3428
909.415	3519
909.531	3462
909.647	3283
909.762	3279
909.878	3268
909.993	3344
910.108	3306
910.224	3367
910.339	3382
910.454	3325
910.57	3298
910.685	3218
910.8	3561
910.915	3587
911.03	3424
911.145	3256
911.259	3237
911.374	3302
911.489	3260
911.604	3199
911.718	3142
911.833	3138
911.947	3047
912.062	2967
912.176	3165
912.291	3211
912.405	3195
912.519	3431
912.633	3450
912.748	3306
912.862	3256
912.976	3161
913.09	3081
913.204	3150
913.318	3222
913.431	3310
913.545	3298
913.659	3412
913.772	3340
913.886	3207
914	3222
914.113	3332
914.226	3416
914.34	3374
914.453	3230
914.566	3416
914.68	3291
914.793	3306
914.906	3131
915.019	3135
915.132	3093
915.245	3165
915.358	3192
915.47	3237
915.583	3268
915.696	3275
915.809	3405
915.921	3382
916.034	3272
916.146	3298
916.259	3233
916.371	3363
916.483	3370
916.595	3272
916.708	3351
916.82	3313
916.932	3317
917.044	3359
917.156	3344
917.268	3268
917.38	3313
917.491	3260
917.603	3348
917.715	3458
917.826	3450
917.938	3401
918.049	3275
918.161	3458
918.272	3561
918.384	3557
918.495	3530
918.606	3351
918.717	3321
918.828	3389
918.939	3389
919.05	3317
919.161	3386
919.272	3184
919.383	3264
919.494	3488
919.604	3652
919.715	3496
919.826	3397
919.936	3469
920.047	3557
920.157	3534
920.267	3785
920.378	3568
920.488	3519
920.598	3762
920.708	3949
920.818	3827
920.928	3842
921.038	3979
921.148	3968
921.258	3705
921.368	3629
921.477	3549
921.587	3599
921.697	3481
921.806	3591
921.916	3500
922.025	3382
922.134	3367
922.244	3310
922.353	3416
922.462	3275
922.571	3203
922.68	3108
922.789	3100
922.898	3146
923.007	3100
923.116	3180
923.224	3176
923.333	3195
923.442	3127
923.55	3127
923.659	3116
923.767	3226
923.876	3116
923.984	3199
924.092	3081
924.201	3237
924.309	3214
924.417	3264
924.525	3203
924.633	3245
924.741	4169
924.849	3036
924.956	3268
925.064	3119
925.172	3024
925.279	3097
925.387	3203
925.494	3180
925.602	3359
925.709	3302
925.816	3173
925.924	3291
926.031	3374
926.138	3302
926.245	3344
926.352	3272
926.459	3397
926.566	3473
926.673	3336
926.779	3268
926.886	3283
926.993	3146
927.099	3154
927.206	3047
927.312	3123
927.419	3214
927.525	3165
927.631	3249
927.737	3100
927.843	3108
927.95	3005
928.056	3123
928.162	3123
928.267	3249
928.373	3869
928.479	3340
928.585	3047
928.69	3268
928.796	3253
928.901	3146
929.007	3036
929.112	3214
929.218	3207
929.323	3165
929.428	3138
929.533	3310
929.638	3104
929.743	3184
929.848	3241
929.953	3203
930.058	3150
930.163	2998
930.267	3024
930.372	3173
930.477	3058
930.581	3310
930.685	3184
930.79	3028
930.894	3127
930.998	3089
931.103	3264
931.207	2994
931.311	2971
931.415	2918
931.519	2785
931.623	2819
