Data from test_V78500241_1156.txt Node
Date: Fri Mar 25 16:23:12 CST 2022
User: usil
Spectrometer: V785-0024
Trigger mode: 0
Integration Time (sec): 4.000000E-1
Scans to average: 1
Nonlinearity correction enabled: false
Boxcar width: 0
Storing dark spectrum: false
XAxis mode: Wavelengths
Number of Pixels in Spectrum: 1024
>>>>>Begin Spectral Data<<<<<
801.071	2929
801.214	2998
801.356	2895
801.499	2922
801.641	2918
801.783	2929
801.926	3047
802.068	2979
802.211	3039
802.353	3047
802.496	2971
802.638	2990
802.78	3036
802.923	3062
803.065	3043
803.208	2891
803.35	2891
803.492	2963
803.635	2914
803.777	2792
803.919	2861
804.061	3230
804.204	2975
804.346	2910
804.488	2842
804.63	3013
804.773	2891
804.915	2922
805.057	3116
805.199	2960
805.341	2960
805.483	3058
805.626	3001
805.768	2963
805.91	3108
806.052	3131
806.194	3051
806.336	3233
806.478	3043
806.62	2975
806.762	3017
806.904	3089
807.046	3184
807.188	3009
807.33	2918
807.472	2960
807.614	2910
807.756	2971
807.898	2941
808.04	2910
808.182	2948
808.324	2948
808.465	2922
808.607	2906
808.749	2804
808.891	2842
809.033	2948
809.174	2998
809.316	2925
809.458	2910
809.6	2777
809.741	2811
809.883	2754
810.025	2842
810.166	2838
810.308	2845
810.45	2853
810.591	2743
810.733	2788
810.875	2853
811.016	2804
811.158	2724
811.299	2804
811.441	2963
811.582	2914
811.724	2830
811.865	2826
812.007	2906
812.148	2880
812.29	2849
812.431	2872
812.573	2933
812.714	2975
812.855	3047
812.997	3074
813.138	3051
813.279	3017
813.421	3020
813.562	2956
813.703	2853
813.845	2887
813.986	2788
814.127	2731
814.268	2842
814.41	2815
814.551	2819
814.692	2853
814.833	2796
814.974	2899
815.115	2925
815.256	2826
815.397	2800
815.539	2868
815.68	2758
815.821	2826
815.962	2910
816.103	2933
816.244	2864
816.385	2845
816.526	2960
816.666	2910
816.807	2762
816.948	2872
817.089	2910
817.23	2845
817.371	2769
817.512	2804
817.653	2834
817.793	2826
817.934	2891
818.075	2918
818.216	2994
818.356	2990
818.497	2872
818.638	2834
818.778	2830
818.919	2792
819.06	2796
819.2	2895
819.341	2823
819.481	2796
819.622	2906
819.762	3112
819.903	3043
820.043	2880
820.184	2910
820.324	2887
820.465	3028
820.605	3032
820.746	3051
820.886	2941
821.026	3089
821.167	3157
821.307	3279
821.447	3310
821.588	3283
821.728	3192
821.868	3233
822.008	3093
822.149	3226
822.289	3268
822.429	3112
822.569	3093
822.709	3237
822.849	3032
822.99	3104
823.13	3165
823.27	3207
823.41	3112
823.55	3135
823.69	3184
823.83	3222
823.97	3097
824.11	3032
824.25	3017
824.389	3093
824.529	3108
824.669	3066
824.809	3241
824.949	3317
825.089	3222
825.228	3203
825.368	3051
825.508	2982
825.648	3005
825.787	3058
825.927	3058
826.067	3017
826.206	3009
826.346	3062
826.485	3043
826.625	3150
826.765	3332
826.904	3253
827.044	3020
827.183	3001
827.323	2941
827.462	3051
827.601	2948
827.741	2967
827.88	2967
828.02	2849
828.159	3036
828.298	3062
828.437	3119
828.577	3062
828.716	3287
828.855	3142
828.994	2952
829.134	2952
829.273	2975
829.412	2918
829.551	2902
829.69	2933
829.829	3036
829.968	3176
830.107	3039
830.246	3085
830.385	2971
830.524	2933
830.663	2845
830.802	2785
830.941	2670
831.08	2693
831.219	2777
831.357	2796
831.496	2971
831.635	2727
831.774	2686
831.913	2731
832.051	2549
832.19	2625
832.329	2705
832.467	2583
832.606	2511
832.744	2648
832.883	2625
833.022	2625
833.16	2678
833.299	2705
833.437	2724
833.576	2724
833.714	2758
833.852	2788
833.991	2785
834.129	2883
834.267	2880
834.406	2811
834.544	2922
834.682	2895
834.821	2910
834.959	3100
835.097	2895
835.235	3097
835.373	3020
835.511	2990
835.65	2967
835.788	2990
835.926	2868
836.064	2849
836.202	2864
836.34	3112
836.478	3146
836.615	3085
836.753	3135
836.891	3287
837.029	3192
837.167	3173
837.305	3100
837.443	3066
837.58	2975
837.718	3180
837.856	3085
837.993	3051
838.131	3154
838.269	3142
838.406	3161
838.544	3100
838.681	2952
838.819	2963
838.956	2849
839.094	2842
839.231	2944
839.369	3043
839.506	3393
839.643	3241
839.781	3028
839.918	3009
840.055	3085
840.193	3062
840.33	3104
840.467	3112
840.604	3207
840.742	3469
840.879	3116
841.016	3104
841.153	3142
841.29	3355
841.427	3329
841.564	3294
841.701	3332
841.838	3214
841.975	3184
842.112	3268
842.249	3089
842.385	3070
842.522	3253
842.659	3150
842.796	3089
842.933	3127
843.069	3043
843.206	3043
843.343	3192
843.479	3146
843.616	3207
843.752	2880
843.889	2918
844.025	3097
844.162	2902
844.298	3081
844.435	2986
844.571	2952
844.708	3116
844.844	3260
844.98	3256
845.117	3230
845.253	3077
845.389	3062
845.525	3112
845.661	3154
845.798	3043
845.934	3176
846.07	3074
846.206	3203
846.342	3310
846.478	3230
846.614	3131
846.75	3055
846.886	3020
847.022	3294
847.158	3188
847.294	3218
847.429	3275
847.565	3207
847.701	3530
847.837	3051
847.972	3024
848.108	3207
848.244	3169
848.379	3020
848.515	2944
848.65	2960
848.786	2982
848.921	3058
849.057	3157
849.192	3173
849.328	3070
849.463	3131
849.598	3097
849.734	3085
849.869	3020
850.004	2941
850.14	2986
850.275	2906
850.41	2861
850.545	2925
850.68	2952
850.815	2982
850.95	2979
851.085	3230
851.22	3161
851.355	3089
851.49	2979
851.625	3036
851.76	3066
851.895	2971
852.03	2967
852.165	3051
852.299	3116
852.434	3192
852.569	3173
852.703	3241
852.838	3241
852.973	3370
853.107	3378
853.242	3184
853.376	3127
853.511	3047
853.645	3043
853.78	3233
853.914	3184
854.048	3176
854.183	3123
854.317	3222
854.451	3336
854.585	3150
854.72	3127
854.854	3241
854.988	3081
855.122	3138
855.256	2975
855.39	3119
855.524	3237
855.658	3222
855.792	3188
855.926	3230
856.06	3253
856.194	3306
856.327	3161
856.461	3104
856.595	3089
856.729	3112
856.862	3211
856.996	3150
857.13	3195
857.263	3268
857.397	3321
857.53	3123
857.664	3245
857.797	3264
857.931	3291
858.064	3176
858.197	3230
858.331	3157
858.464	3150
858.597	3074
858.731	3154
858.864	3173
858.997	3108
859.13	3161
859.263	3222
859.396	3230
859.529	3119
859.662	3100
859.795	3077
859.928	3135
860.061	3313
860.194	3287
860.327	3161
860.46	3123
860.592	3283
860.725	3268
860.858	3294
860.99	3097
861.123	3097
861.256	3055
861.388	3165
861.521	3736
861.653	3066
861.786	3001
861.918	3055
862.05	3032
862.183	3104
862.315	3176
862.447	3233
862.58	3074
862.712	2925
862.844	2902
862.976	3039
863.108	3039
863.24	3332
863.372	2853
863.504	2979
863.636	2990
863.768	3058
863.9	2982
864.032	2944
864.164	2975
864.296	3077
864.428	3085
864.559	3135
864.691	3100
864.823	3093
864.954	3062
865.086	3039
865.217	3013
865.349	2948
865.48	2941
865.612	3005
865.743	3150
865.875	3032
866.006	2967
866.137	2971
866.269	2967
866.4	2956
866.531	2956
866.662	2925
866.793	2902
866.924	2925
867.055	2990
867.186	2952
867.317	2929
867.448	2868
867.579	2830
867.71	2838
867.841	2845
867.972	2948
868.103	2883
868.233	2918
868.364	2918
868.495	2933
868.625	3097
868.756	3173
868.886	2979
869.017	3020
869.147	3165
869.278	3203
869.408	3028
869.539	3051
869.669	3100
869.799	3066
869.929	3157
870.06	3089
870.19	3363
870.32	3283
870.45	3302
870.58	3409
870.71	3447
870.84	3462
870.97	3351
871.1	3256
871.23	3481
871.36	3511
871.489	3332
871.619	3386
871.749	3435
871.879	3450
872.008	3504
872.138	3348
872.267	3298
872.397	3150
872.526	3116
872.656	3039
872.785	3161
872.915	3275
873.044	3321
873.173	3226
873.303	3256
873.432	3253
873.561	3272
873.69	3154
873.819	3138
873.948	3218
874.077	3116
874.206	3074
874.335	3104
874.464	3195
874.593	3355
874.722	3283
874.851	3424
874.979	3348
875.108	3317
875.237	3253
875.365	3161
875.494	3188
875.623	3275
875.751	3089
875.88	3142
876.008	3192
876.136	3256
876.265	3386
876.393	3549
876.521	3450
876.65	3397
876.778	3306
876.906	3275
877.034	3226
877.162	3245
877.29	3184
877.418	3321
877.546	3249
877.674	3256
877.802	3249
877.93	3233
878.058	3165
878.185	3119
878.313	3233
878.441	3211
878.568	3070
878.696	3230
878.824	3298
878.951	3310
879.079	3523
879.206	3641
879.333	3481
879.461	3389
879.588	3386
879.715	3473
879.842	3629
879.97	3439
880.097	3199
880.224	3150
880.351	3222
880.478	3195
880.605	3195
880.732	3226
880.859	3504
880.986	3340
881.112	3329
881.239	3195
881.366	3077
881.493	3028
881.619	3062
881.746	3104
881.872	3081
881.999	3104
882.125	3157
882.252	3260
882.378	3302
882.505	3477
882.631	3291
882.757	3127
882.883	3195
883.01	3249
883.136	3188
883.262	3112
883.388	3123
883.514	3332
883.64	3370
883.766	3306
883.892	3203
884.018	3279
884.143	3420
884.269	3572
884.395	3203
884.52	3150
884.646	3226
884.772	3165
884.897	3119
885.023	3184
885.148	3370
885.274	3412
885.399	3389
885.524	3283
885.65	3260
885.775	3287
885.9	3306
886.025	3450
886.15	3370
886.275	3287
886.4	3256
886.525	3306
886.65	3279
886.775	3302
886.9	3526
887.025	3618
887.149	3450
887.274	3245
887.399	3188
887.523	3199
887.648	3173
887.773	3195
887.897	3363
888.021	3389
888.146	3332
888.27	3443
888.395	3507
888.519	3454
888.643	3485
888.767	3519
888.891	3287
889.015	3260
889.139	3302
889.263	3230
889.387	3420
889.511	3511
889.635	3466
889.759	3306
889.883	3291
890.006	3389
890.13	3496
890.254	3306
890.377	3378
890.501	3161
890.624	3195
890.748	3325
890.871	3214
890.995	3131
891.118	3074
891.241	3211
891.364	3195
891.488	3329
891.611	3188
891.734	3249
891.857	3249
891.98	3253
892.103	3367
892.226	3275
892.349	3211
892.471	3104
892.594	3249
892.717	3329
892.839	3279
892.962	3294
893.085	3370
893.207	3321
893.33	3154
893.452	3241
893.575	3313
893.697	3268
893.819	3473
893.941	3515
894.064	3454
894.186	3294
894.308	3317
894.43	3435
894.552	3542
894.674	3477
894.796	3287
894.918	3313
895.04	3260
895.161	3424
895.283	3409
895.405	3336
895.526	3374
895.648	3424
895.769	3428
895.891	3481
896.012	3492
896.134	3462
896.255	3370
896.376	3409
896.498	3393
896.619	3428
896.74	3370
896.861	3416
896.982	3675
897.103	3838
897.224	3564
897.345	3507
897.466	3420
897.587	3526
897.708	3629
897.828	3530
897.949	3424
898.07	3317
898.19	3370
898.311	3641
898.431	3454
898.552	3549
898.672	3572
898.792	3599
898.913	3530
899.033	3401
899.153	3291
899.273	3249
899.393	3302
899.513	3283
899.633	3332
899.753	3348
899.873	3329
899.993	3382
900.113	3321
900.232	3386
900.352	3344
900.472	3294
900.591	3173
900.711	3264
900.83	3233
900.95	3435
901.069	3469
901.189	3374
901.308	3222
901.427	3165
901.546	3184
901.665	3298
901.784	3344
901.904	3211
902.023	3161
902.141	3036
902.26	2990
902.379	3154
902.498	3085
902.617	3097
902.735	3184
902.854	3260
902.973	3230
903.091	3047
903.21	3077
903.328	3150
903.446	3116
903.565	3108
903.683	3211
903.801	3146
903.919	3272
904.038	3264
904.156	3150
904.274	3317
904.392	3279
904.51	3348
904.627	3317
904.745	3431
904.863	3542
904.981	3272
905.098	3173
905.216	3253
905.334	3306
905.451	3313
905.569	3310
905.686	3435
905.803	3424
905.921	3268
906.038	3443
906.155	3374
906.272	3291
906.389	3332
906.506	3249
906.623	3283
906.74	3287
906.857	3199
906.974	3218
907.091	3458
907.208	3584
907.324	3443
907.441	3355
907.557	3226
907.674	3256
907.79	3214
907.907	3310
908.023	3378
908.139	3363
908.256	3344
908.372	3374
908.488	3359
908.604	3253
908.72	3211
908.836	3230
908.952	3291
909.068	3329
909.184	3466
909.3	3416
909.415	3523
909.531	3511
909.647	3272
909.762	3302
909.878	3233
909.993	3348
910.108	3348
910.224	3340
910.339	3412
910.454	3340
910.57	3336
910.685	3260
910.8	3587
910.915	3515
911.03	3431
911.145	3272
911.259	3279
911.374	3306
911.489	3226
911.604	3237
911.718	3127
911.833	3100
911.947	3051
912.062	2948
912.176	3169
912.291	3233
912.405	3188
912.519	3424
912.633	3435
912.748	3283
912.862	3256
912.976	3157
913.09	3055
913.204	3173
913.318	3203
913.431	3359
913.545	3317
913.659	3409
913.772	3294
913.886	3249
914	3207
914.113	3355
914.226	3401
914.34	3351
914.453	3218
914.566	3409
914.68	3230
914.793	3302
914.906	3173
915.019	3085
915.132	3043
915.245	3173
915.358	3249
915.47	3222
915.583	3245
915.696	3279
915.809	3428
915.921	3409
916.034	3268
916.146	3233
916.259	3211
916.371	3389
916.483	3397
916.595	3279
916.708	3310
916.82	3374
916.932	3367
917.044	3370
917.156	3321
917.268	3249
917.38	3294
917.491	3279
917.603	3340
917.715	3435
917.826	3511
917.938	3359
918.049	3291
918.161	3443
918.272	3622
918.384	3507
918.495	3481
918.606	3344
918.717	3306
918.828	3382
918.939	3412
919.05	3302
919.161	3370
919.272	3176
919.383	3279
919.494	3496
919.604	3686
919.715	3523
919.826	3412
919.936	3458
920.047	3584
920.157	3603
920.267	3743
920.378	3595
920.488	3557
920.598	3762
920.708	3934
920.818	3797
920.928	3850
921.038	4040
921.148	4002
921.258	3682
921.368	3622
921.477	3599
921.587	3519
921.697	3462
921.806	3667
921.916	3462
922.025	3359
922.134	3332
922.244	3306
922.353	3409
922.462	3272
922.571	3233
922.68	3104
922.789	3108
922.898	3146
923.007	3104
923.116	3237
923.224	3146
923.333	3184
923.442	3074
923.55	3077
923.659	3135
923.767	3218
923.876	3108
923.984	3226
924.092	3112
924.201	3214
924.309	3203
924.417	3203
924.525	3188
924.633	3253
924.741	4010
924.849	3066
924.956	3260
925.064	3100
925.172	3028
925.279	3097
925.387	3203
925.494	3192
925.602	3370
925.709	3283
925.816	3180
925.924	3294
926.031	3351
926.138	3310
926.245	3378
926.352	3264
926.459	3443
926.566	3454
926.673	3355
926.779	3211
926.886	3226
926.993	3173
927.099	3146
927.206	3108
927.312	3146
927.419	3218
927.525	3218
927.631	3291
927.737	3146
927.843	3157
927.95	3070
928.056	3116
928.162	3169
928.267	3233
928.373	3896
928.479	3332
928.585	3028
928.69	3226
928.796	3264
928.901	3173
929.007	3062
929.112	3207
929.218	3180
929.323	3157
929.428	3161
929.533	3321
929.638	3089
929.743	3135
929.848	3245
929.953	3176
930.058	3157
930.163	2998
930.267	3024
930.372	3180
930.477	3036
930.581	3329
930.685	3127
930.79	3066
930.894	3108
930.998	3043
931.103	3268
931.207	2941
931.311	2929
931.415	2918
931.519	2762
931.623	2815
