Data from test_V78500241_1010.txt Node
Date: Fri Mar 25 16:22:11 CST 2022
User: usil
Spectrometer: V785-0024
Trigger mode: 0
Integration Time (sec): 4.000000E-1
Scans to average: 1
Nonlinearity correction enabled: false
Boxcar width: 0
Storing dark spectrum: false
XAxis mode: Wavelengths
Number of Pixels in Spectrum: 1024
>>>>>Begin Spectral Data<<<<<
801.071	2891
801.214	2925
801.356	2864
801.499	2880
801.641	2864
801.783	2937
801.926	3062
802.068	2941
802.211	2994
802.353	3036
802.496	2960
802.638	3013
802.78	3093
802.923	3066
803.065	2998
803.208	2918
803.35	2929
803.492	2956
803.635	2933
803.777	2769
803.919	2861
804.061	3173
804.204	2956
804.346	2861
804.488	2834
804.63	2948
804.773	2872
804.915	2914
805.057	3100
805.199	2895
805.341	2975
805.483	3043
805.626	2975
805.768	2960
805.91	3070
806.052	3108
806.194	3043
806.336	3203
806.478	2990
806.62	2929
806.762	2956
806.904	3070
807.046	3199
807.188	2986
807.33	2918
807.472	2960
807.614	2902
807.756	2975
807.898	2933
808.04	2887
808.182	2963
808.324	2963
808.465	2914
808.607	2834
808.749	2807
808.891	2842
809.033	2998
809.174	2971
809.316	2864
809.458	2918
809.6	2769
809.741	2785
809.883	2792
810.025	2853
810.166	2857
810.308	2857
810.45	2861
810.591	2743
810.733	2769
810.875	2834
811.016	2785
811.158	2773
811.299	2792
811.441	2929
811.582	2880
811.724	2834
811.865	2830
812.007	2849
812.148	2872
812.29	2826
812.431	2891
812.573	2941
812.714	2948
812.855	3036
812.997	3058
813.138	3119
813.279	3036
813.421	2990
813.562	2956
813.703	2880
813.845	2902
813.986	2785
814.127	2735
814.268	2815
814.41	2826
814.551	2804
814.692	2845
814.833	2807
814.974	2895
815.115	2914
815.256	2826
815.397	2830
815.539	2834
815.68	2773
815.821	2804
815.962	2956
816.103	2933
816.244	2845
816.385	2876
816.526	2979
816.666	2883
816.807	2735
816.948	2899
817.089	2895
817.23	2826
817.371	2754
817.512	2781
817.653	2838
817.793	2838
817.934	2880
818.075	2941
818.216	2979
818.356	3043
818.497	2864
818.638	2804
818.778	2842
818.919	2811
819.06	2750
819.2	2887
819.341	2815
819.481	2785
819.622	2963
819.762	3097
819.903	3047
820.043	2902
820.184	2906
820.324	2880
820.465	2971
820.605	3043
820.746	3036
820.886	2944
821.026	3123
821.167	3157
821.307	3249
821.447	3272
821.588	3222
821.728	3233
821.868	3180
822.008	3036
822.149	3192
822.289	3237
822.429	3089
822.569	3093
822.709	3176
822.849	3043
822.99	3058
823.13	3146
823.27	3188
823.41	3123
823.55	3157
823.69	3142
823.83	3173
823.97	3108
824.11	2952
824.25	2971
824.389	3013
824.529	3100
824.669	3077
824.809	3188
824.949	3283
825.089	3226
825.228	3165
825.368	3005
825.508	2979
825.648	2948
825.787	2994
825.927	2982
826.067	2910
826.206	2918
826.346	3028
826.485	3097
826.625	3108
826.765	3237
826.904	3203
827.044	2975
827.183	2914
827.323	2838
827.462	3013
827.601	2922
827.741	2914
827.88	2956
828.02	2849
828.159	2967
828.298	3028
828.437	3108
828.577	3070
828.716	3207
828.855	3081
828.994	2880
829.134	2883
829.273	2956
829.412	2864
829.551	2872
829.69	2906
829.829	2956
829.968	3127
830.107	2994
830.246	3001
830.385	2933
830.524	2887
830.663	2811
830.802	2716
830.941	2648
831.08	2629
831.219	2773
831.357	2754
831.496	2922
831.635	2708
831.774	2651
831.913	2644
832.051	2522
832.19	2537
832.329	2708
832.467	2533
832.606	2469
832.744	2545
832.883	2606
833.022	2560
833.16	2632
833.299	2667
833.437	2693
833.576	2689
833.714	2758
833.852	2701
833.991	2762
834.129	2830
834.267	2819
834.406	2800
834.544	2864
834.682	2864
834.821	2868
834.959	3085
835.097	2872
835.235	3104
835.373	3013
835.511	3013
835.65	2960
835.788	2910
835.926	2807
836.064	2826
836.202	2861
836.34	3074
836.478	3150
836.615	3024
836.753	3154
836.891	3222
837.029	3146
837.167	3074
837.305	3085
837.443	2998
837.58	2933
837.718	3135
837.856	3051
837.993	3020
838.131	3127
838.269	3077
838.406	3093
838.544	3089
838.681	2979
838.819	2899
838.956	2796
839.094	2834
839.231	2918
839.369	3009
839.506	3374
839.643	3207
839.781	3017
839.918	2956
840.055	3062
840.193	3020
840.33	3077
840.467	3119
840.604	3131
840.742	3348
840.879	3062
841.016	3058
841.153	3104
841.29	3302
841.427	3313
841.564	3287
841.701	3291
841.838	3207
841.975	3165
842.112	3199
842.249	3058
842.385	3039
842.522	3264
842.659	3108
842.796	3028
842.933	3127
843.069	3047
843.206	3043
843.343	3165
843.479	3093
843.616	3138
843.752	2872
843.889	2868
844.025	3093
844.162	2906
844.298	3058
844.435	2967
844.571	2883
844.708	3051
844.844	3146
844.98	3188
845.117	3138
845.253	3047
845.389	3001
845.525	3097
845.661	3051
845.798	3039
845.934	3108
846.07	3043
846.206	3199
846.342	3287
846.478	3192
846.614	3112
846.75	3047
846.886	3024
847.022	3237
847.158	3123
847.294	3218
847.429	3260
847.565	3222
847.701	3469
847.837	3066
847.972	2971
848.108	3150
848.244	3154
848.379	2979
848.515	2914
848.65	2914
848.786	2975
848.921	3013
849.057	3108
849.192	3108
849.328	3055
849.463	3085
849.598	3039
849.734	3043
849.869	2963
850.004	2944
850.14	2986
850.275	2899
850.41	2815
850.545	2883
850.68	2910
850.815	2937
850.95	2933
851.085	3214
851.22	3089
851.355	3024
851.49	2948
851.625	2998
851.76	3051
851.895	2918
852.03	2891
852.165	3058
852.299	3089
852.434	3188
852.569	3104
852.703	3176
852.838	3256
852.973	3340
853.107	3321
853.242	3176
853.376	3123
853.511	2963
853.645	3013
853.78	3207
853.914	3104
854.048	3100
854.183	3070
854.317	3154
854.451	3291
854.585	3154
854.72	3070
854.854	3211
854.988	3077
855.122	3085
855.256	2963
855.39	3108
855.524	3249
855.658	3207
855.792	3131
855.926	3173
856.06	3195
856.194	3294
856.327	3127
856.461	3055
856.595	3077
856.729	3074
856.862	3233
856.996	3165
857.13	3169
857.263	3230
857.397	3253
857.53	3100
857.664	3192
857.797	3214
857.931	3256
858.064	3157
858.197	3199
858.331	3119
858.464	3081
858.597	3013
858.731	3131
858.864	3116
858.997	3070
859.13	3161
859.263	3146
859.396	3188
859.529	3066
859.662	3039
859.795	3074
859.928	3157
860.061	3275
860.194	3287
860.327	3097
860.46	3112
860.592	3214
860.725	3211
860.858	3222
860.99	3100
861.123	3032
861.256	3020
861.388	3127
861.521	3812
861.653	3024
861.786	2994
861.918	2990
862.05	3047
862.183	3047
862.315	3165
862.447	3173
862.58	3097
862.712	2941
862.844	2842
862.976	3028
863.108	3017
863.24	3416
863.372	2872
863.504	2979
863.636	2963
863.768	3043
863.9	2960
864.032	2861
864.164	2952
864.296	2998
864.428	3081
864.559	3089
864.691	3066
864.823	3028
864.954	3032
865.086	3051
865.217	2986
865.349	2933
865.48	2956
865.612	3013
865.743	3116
865.875	2971
866.006	2906
866.137	2933
866.269	2922
866.4	2922
866.531	2941
866.662	2914
866.793	2910
866.924	2922
867.055	2948
867.186	2914
867.317	2868
867.448	2811
867.579	2849
867.71	2872
867.841	2792
867.972	2880
868.103	2899
868.233	2853
868.364	2883
868.495	2906
868.625	3032
868.756	3100
868.886	2971
869.017	3074
869.147	3150
869.278	3131
869.408	3051
869.539	3001
869.669	3074
869.799	3028
869.929	3127
870.06	3089
870.19	3287
870.32	3279
870.45	3253
870.58	3378
870.71	3450
870.84	3416
870.97	3317
871.1	3199
871.23	3469
871.36	3458
871.489	3279
871.619	3363
871.749	3397
871.879	3431
872.008	3466
872.138	3348
872.267	3279
872.397	3173
872.526	3100
872.656	3017
872.785	3093
872.915	3222
873.044	3302
873.173	3195
873.303	3226
873.432	3245
873.561	3211
873.69	3127
873.819	3135
873.948	3199
874.077	3131
874.206	3017
874.335	3089
874.464	3214
874.593	3332
874.722	3203
874.851	3351
874.979	3336
875.108	3287
875.237	3165
875.365	3188
875.494	3188
875.623	3260
875.751	3074
875.88	3104
876.008	3214
876.136	3199
876.265	3382
876.393	3504
876.521	3382
876.65	3367
876.778	3310
876.906	3207
877.034	3226
877.162	3207
877.29	3199
877.418	3237
877.546	3218
877.674	3264
877.802	3222
877.93	3226
878.058	3104
878.185	3074
878.313	3188
878.441	3203
878.568	3047
878.696	3161
878.824	3211
878.951	3279
879.079	3416
879.206	3663
879.333	3439
879.461	3306
879.588	3382
879.715	3477
879.842	3584
879.97	3412
880.097	3195
880.224	3127
880.351	3211
880.478	3195
880.605	3180
880.732	3180
880.859	3496
880.986	3310
881.112	3310
881.239	3199
881.366	3074
881.493	3024
881.619	3009
881.746	3032
881.872	3066
881.999	3100
882.125	3135
882.252	3230
882.378	3283
882.505	3450
882.631	3272
882.757	3135
882.883	3207
883.01	3211
883.136	3138
883.262	3066
883.388	3097
883.514	3329
883.64	3382
883.766	3310
883.892	3207
884.018	3260
884.143	3412
884.269	3542
884.395	3214
884.52	3150
884.646	3184
884.772	3116
884.897	3077
885.023	3195
885.148	3332
885.274	3389
885.399	3348
885.524	3253
885.65	3233
885.775	3306
885.9	3272
886.025	3401
886.15	3351
886.275	3291
886.4	3230
886.525	3272
886.65	3310
886.775	3306
886.9	3511
887.025	3622
887.149	3397
887.274	3256
887.399	3131
887.523	3195
887.648	3146
887.773	3214
887.897	3359
888.021	3359
888.146	3302
888.27	3409
888.395	3534
888.519	3439
888.643	3428
888.767	3473
888.891	3275
889.015	3272
889.139	3287
889.263	3245
889.387	3409
889.511	3485
889.635	3462
889.759	3291
889.883	3260
890.006	3382
890.13	3488
890.254	3249
890.377	3363
890.501	3207
890.624	3135
890.748	3253
890.871	3142
890.995	3142
891.118	3036
891.241	3173
891.364	3241
891.488	3317
891.611	3165
891.734	3233
891.857	3306
891.98	3237
892.103	3321
892.226	3298
892.349	3203
892.471	3108
892.594	3218
892.717	3298
892.839	3283
892.962	3294
893.085	3340
893.207	3291
893.33	3146
893.452	3195
893.575	3325
893.697	3260
893.819	3454
893.941	3435
894.064	3454
894.186	3268
894.308	3264
894.43	3409
894.552	3515
894.674	3428
894.796	3264
894.918	3313
895.04	3302
895.161	3435
895.283	3397
895.405	3329
895.526	3397
895.648	3420
895.769	3416
895.891	3447
896.012	3443
896.134	3462
896.255	3428
896.376	3351
896.498	3359
896.619	3378
896.74	3359
896.861	3409
896.982	3660
897.103	3823
897.224	3614
897.345	3534
897.466	3416
897.587	3466
897.708	3633
897.828	3545
897.949	3450
898.07	3313
898.19	3420
898.311	3606
898.431	3473
898.552	3481
898.672	3561
898.792	3576
898.913	3504
899.033	3389
899.153	3287
899.273	3199
899.393	3218
899.513	3329
899.633	3283
899.753	3272
899.873	3275
899.993	3355
900.113	3298
900.232	3393
900.352	3329
900.472	3268
900.591	3173
900.711	3272
900.83	3249
900.95	3454
901.069	3462
901.189	3336
901.308	3173
901.427	3127
901.546	3165
901.665	3268
901.784	3332
901.904	3203
902.023	3176
902.141	2967
902.26	2986
902.379	3100
902.498	3077
902.617	3032
902.735	3195
902.854	3180
902.973	3173
903.091	3062
903.21	3070
903.328	3135
903.446	3112
903.565	3074
903.683	3131
903.801	3119
903.919	3237
904.038	3237
904.156	3192
904.274	3287
904.392	3192
904.51	3283
904.627	3313
904.745	3435
904.863	3519
904.981	3256
905.098	3157
905.216	3222
905.334	3302
905.451	3291
905.569	3310
905.686	3397
905.803	3435
905.921	3279
906.038	3439
906.155	3367
906.272	3245
906.389	3272
906.506	3233
906.623	3230
906.74	3203
906.857	3173
906.974	3253
907.091	3416
907.208	3580
907.324	3492
907.441	3382
907.557	3214
907.674	3245
907.79	3207
907.907	3268
908.023	3401
908.139	3389
908.256	3336
908.372	3374
908.488	3359
908.604	3237
908.72	3214
908.836	3275
908.952	3268
909.068	3340
909.184	3473
909.3	3401
909.415	3504
909.531	3466
909.647	3237
909.762	3279
909.878	3245
909.993	3306
910.108	3325
910.224	3340
910.339	3412
910.454	3310
910.57	3264
910.685	3241
910.8	3599
910.915	3511
911.03	3439
911.145	3214
911.259	3249
911.374	3306
911.489	3207
911.604	3161
911.718	3108
911.833	3138
911.947	3013
912.062	2975
912.176	3157
912.291	3188
912.405	3226
912.519	3386
912.633	3469
912.748	3332
912.862	3272
912.976	3146
913.09	3066
913.204	3150
913.318	3226
913.431	3325
913.545	3325
913.659	3466
913.772	3348
913.886	3214
914	3211
914.113	3340
914.226	3424
914.34	3351
914.453	3218
914.566	3450
914.68	3298
914.793	3329
914.906	3161
915.019	3119
915.132	3062
915.245	3199
915.358	3218
915.47	3226
915.583	3249
915.696	3321
915.809	3431
915.921	3424
916.034	3287
916.146	3294
916.259	3241
916.371	3405
916.483	3412
916.595	3283
916.708	3393
916.82	3363
916.932	3386
917.044	3348
917.156	3370
917.268	3294
917.38	3294
917.491	3302
917.603	3386
917.715	3496
917.826	3511
917.938	3389
918.049	3279
918.161	3492
918.272	3618
918.384	3561
918.495	3553
918.606	3389
918.717	3332
918.828	3389
918.939	3435
919.05	3329
919.161	3367
919.272	3245
919.383	3325
919.494	3523
919.604	3762
919.715	3530
919.826	3477
919.936	3466
920.047	3625
920.157	3572
920.267	3804
920.378	3633
920.488	3614
920.598	3823
920.708	4013
920.818	3896
920.928	3876
921.038	4048
921.148	4032
921.258	3762
921.368	3660
921.477	3599
921.587	3542
921.697	3496
921.806	3671
921.916	3545
922.025	3409
922.134	3367
922.244	3336
922.353	3447
922.462	3287
922.571	3291
922.68	3154
922.789	3123
922.898	3214
923.007	3154
923.116	3256
923.224	3207
923.333	3226
923.442	3135
923.55	3116
923.659	3165
923.767	3253
923.876	3165
923.984	3237
924.092	3192
924.201	3237
924.309	3264
924.417	3325
924.525	3268
924.633	3275
924.741	4204
924.849	3100
924.956	3306
925.064	3119
925.172	3081
925.279	3146
925.387	3218
925.494	3245
925.602	3359
925.709	3348
925.816	3211
925.924	3325
926.031	3401
926.138	3382
926.245	3416
926.352	3256
926.459	3485
926.566	3511
926.673	3393
926.779	3291
926.886	3272
926.993	3188
927.099	3157
927.206	3184
927.312	3150
927.419	3306
927.525	3264
927.631	3329
927.737	3142
927.843	3127
927.95	3047
928.056	3169
928.162	3180
928.267	3298
928.373	3865
928.479	3351
928.585	3089
928.69	3291
928.796	3287
928.901	3218
929.007	3043
929.112	3184
929.218	3161
929.323	3169
929.428	3176
929.533	3325
929.638	3150
929.743	3192
929.848	3233
929.953	3211
930.058	3180
930.163	3013
930.267	3093
930.372	3218
930.477	3062
930.581	3359
930.685	3173
930.79	3104
930.894	3119
930.998	3131
931.103	3298
931.207	3001
931.311	2998
931.415	2952
931.519	2792
931.623	2842
